time,seconds_elapsed,z,y,x
1772639197223476500,0.0984765625,0.09211012842059135,-0.009789113667455968,-0.004982985177496448
1772639197233521400,0.108521484375,0.09480243624448775,0.00141228308811842,-0.008515661948826164
1772639197243567400,0.1185673828125,0.08358020048439502,-0.006407249822709127,0.0006670399408321827
1772639197253612500,0.128612548828125,0.08402911329567432,-0.010427859095565508,-0.002460617959871888
1772639197263657500,0.138657470703125,0.10916881524920463,-0.0037608246838644844,0.011727061743382363
1772639197273702700,0.14870263671875,0.09629998132586479,-0.007938668061757925,0.000974105729162693
1772639197283748600,0.15874853515625,0.08747077818214893,0.0015285955234779975,0.005745539648365229
1772639197293793500,0.16879345703125,0.09255787218809128,0.005729581173296901,0.00279314698302187
1772639197303838500,0.17883837890625,0.09734452194273471,0.006448981489028665,0.006521474190615117
1772639197313883600,0.188883544921875,0.08761749317646027,0.009873211754334624,-0.0024057094348594547
1772639197323928600,0.198928466796875,0.0910574044972658,0.006341773096265387,0.011215495492052287
1772639197333974500,0.208974609375,0.093449852591753,-0.00019940187948523088,-0.001144694789405912
1772639197344019500,0.21901953125,0.09269932648539543,0.004648355528805405,-0.003341958238510415
1772639197354064400,0.229064453125,0.07743512185811996,0.003546814323714352,-0.012599278000649064
1772639197364109600,0.239109619140625,0.09928104296326637,-0.0007791254381125327,0.0016421411838382482
1772639197374154500,0.249154541015625,0.09553951834738254,0.002843782904182444,-0.007739133751532063
1772639197384200400,0.259200439453125,0.09189736245274543,-0.0005243797817194718,-0.013626785284327342
1772639197394245600,0.26924560546875,0.09283318199813366,0.0014737049793635377,0.0002569704357534647
1772639197404290600,0.27929052734375,0.09774258134961128,0.008322845073754434,-0.012343074749875813
1772639197414335500,0.28933544921875,0.0824918207257986,-0.000005375432260916568,-0.006577652224106714
1772639197424380400,0.29938037109375,0.0892366188108921,-0.0034415758382179773,-0.014012396201584487
1772639197434426600,0.309426513671875,0.09898469036519526,-0.0012095615923739386,0.006974405589886009
1772639197444471600,0.319471435546875,0.08461597327291966,-0.006507587799979955,-0.005242284567654133
1772639197454516500,0.3295166015625,0.0780389329701662,-0.0020933127383963436,-0.0040731951225083315
1772639197464561400,0.3395615234375,0.09226035054624081,-0.0015281765400141012,-0.006120254712272435
1772639197474607400,0.349607421875,0.09554828617572785,0.007179605880851159,-0.0031602632623631507
1772639197484652500,0.359652587890625,0.0852279676914215,-0.001461893241861253,-0.0042026210553012784
1772639197494697500,0.369697509765625,0.08971709580421447,-0.006265274364774813,-0.005667734304955228
1772639197504742700,0.37974267578125,0.09107026397883891,-0.005417403672542423,-0.0002852649484761059
1772639197514787300,0.389787353515625,0.09734919811785221,-0.0043945337480749,0.005148961994703859
1772639197524833500,0.39983349609375,0.09345978946387767,0.003335048150877992,0.00006438873941078781
1772639197534878500,0.40987841796875,0.10094225417375564,0.0008198595927111455,-0.007756057486869394
1772639197544923600,0.419923583984375,0.08882336183488368,-0.0015417252893428666,-0.008116378699243068
1772639197554968600,0.429968505859375,0.08553250359594822,0.0007457334835198708,-0.000407092096703127
1772639197565013500,0.440013427734375,0.08987316314876079,-0.015434653265267842,0.005436610696511343
1772639197575059500,0.4500595703125,0.08658347395360469,0.0005401390398546937,-0.002238883234281093
1772639197585104400,0.4601044921875,0.08284136481583118,0.011260889553336892,-0.0030646848002448676
1772639197595149600,0.470149658203125,0.08598024736344814,-0.008955094545707106,-0.000020166005194187162
1772639197605194500,0.480194580078125,0.08612930044531822,-0.010473446094739483,0.0025632015515118837
1772639197615240400,0.490240478515625,0.09735445881485938,-0.010028479947859886,-0.0034157449939288195
1772639197625285600,0.50028564453125,0.10154606528580189,0.00783770218011341,-0.0021765859872568396
1772639197635330600,0.51033056640625,0.08807809642553328,0.0009720059598548686,0.005051885695243254
1772639197645375500,0.52037548828125,0.08343640809953212,-0.004663933550905494,0.013569127679802477
1772639197655420400,0.53042041015625,0.08972235650122165,0.008679735644959146,0.0024669746354222294
1772639197665466600,0.540466552734375,0.08747779244482516,-0.0047618109992647074,0.010733685058169067
1772639197675511600,0.550511474609375,0.08014554986059665,0.010568959483131767,0.001130017810082063
1772639197685556500,0.560556396484375,0.0915156696587801,-0.0018619562345120356,0.003440048318123445
1772639197695601400,0.570601318359375,0.09645371058285236,0.0012141855372639837,0.005423367622448131
1772639197705646600,0.580646484375,0.10797639059424399,-0.005489123480927082,-0.004119555014884099
1772639197715692500,0.590692626953125,0.09061667499244212,0.004200610619661165,-0.005566959077911451
1772639197725737500,0.600737548828125,0.09076338998675346,-0.004465896792610874,-0.00603995601767674
1772639197735782700,0.61078271484375,0.08672200564146042,-0.004012561822074349,-0.0013989161456469446
1772639197745826600,0.62082666015625,0.08507248486876487,-0.00018870581389055587,0.0039198311917018145
1772639197755871500,0.63087158203125,0.09479892911314963,-0.0022434720736084273,-0.0038909521570894864
1772639197765917400,0.64091748046875,0.08656769186258316,-0.0008693986790953203,0.005553953465865924
1772639197775962600,0.650962646484375,0.08147884429097176,-0.008775425988220377,0.0016777148207183926
1772639197786007300,0.66100732421875,0.09300152430236339,-0.0011997243287158199,-0.00858223351216875
1772639197796052500,0.671052490234375,0.09824000947773456,-0.0023051705281890464,-0.00451664630738087
1772639197806098400,0.681098388671875,0.0983908161252737,-0.008049514874955638,0.005602450516400859
1772639197816143600,0.6911435546875,0.08252864560484886,-0.006009562591879512,0.004829265053663403
1772639197826188500,0.7011884765625,0.0832756645798683,0.008678028315884876,0.0015453297458589076
1772639197836233700,0.711233642578125,0.08252747656106948,0.003855044589246972,-0.011491462889220564
1772639197846278400,0.7212783203125,0.09419687156677245,0.0002659928507811855,0.003087207159306854
1772639197856324400,0.731324462890625,0.08701485110819339,0.01009023148890119,-0.001965527919307351
1772639197866369500,0.74136962890625,0.08656652281880378,-0.003375230891272076,-0.0012474793104454874
1772639197876414500,0.75141455078125,0.10063304209411143,-0.004100337145294179,-0.003609587065596133
1772639197886459600,0.761459716796875,0.08881050235331057,-0.0018763478027569362,-0.007474071340868249
1772639197896504300,0.77150439453125,0.10212766456604003,-0.0051539743840723524,-0.004391558622987941
1772639197906550500,0.781550537109375,0.08821195193827151,-0.00851317373503989,-0.01049287117277272
1772639197916595500,0.791595458984375,0.08148001333475112,-0.00897087777837296,-0.014733038626331836
1772639197926640400,0.801640380859375,0.09434826273620128,-0.001377283127506962,0.0067073156189173455
1772639197936685600,0.811685546875,0.09614274493753909,0.005507658647216158,0.004376525450637564
1772639197946731500,0.8217314453125,0.08297463580667971,0.004658829544580658,-0.011349551934190094
1772639197956776700,0.831776611328125,0.09674246439635753,-0.0020106445610232186,0.0020700842723250386
1772639197966821400,0.8418212890625,0.08088146291971206,0.001579390133198467,0.00154399630529806
1772639197976866600,0.851866455078125,0.07669161001443862,0.004158873815942207,0.00260958884335123
1772639197986911500,0.861911376953125,0.10467501096129417,-0.0024823405970906603,-0.006652224430814385
1772639197996957400,0.87195751953125,0.07804244010150432,0.0009851151761220535,-0.0026985823010560123
1772639198007002600,0.882002685546875,0.07819032413959502,0.005280901828280184,0.0018425591267645358
1772639198017047300,0.89204736328125,0.095846392339468,-0.005758447649821755,0.0030939291610382496
1772639198027092500,0.902092529296875,0.0900122793585062,0.009504707235505339,-0.009873296236013993
1772639198037137400,0.912137451171875,0.08268003677427768,-0.01030027121012099,0.0013007256013341248
1772639198047183600,0.92218359375,0.10303016636371612,0.0030561749835149384,0.010685653798514976
1772639198057228500,0.932228515625,0.09584756138324738,0.005813057634845608,0.006928931613499298
1772639198067273700,0.942273681640625,0.0808843855291605,0.003706016052729683,0.0011714640653226523
1772639198077318400,0.952318359375,0.0943517698675394,-0.0053624854435533045,-0.006156677732523531
1772639198087364400,0.9623642578125,0.09180793060362338,-0.0014241504807810997,0.009222577242320402
1772639198097409500,0.972409423828125,0.08222995491921901,-0.0007488410393474623,0.00015957447588443754
1772639198107454500,0.982454345703125,0.09360416637063027,-0.005131184880240471,-0.0071819839259609575
1772639198117499600,0.992499755859375,0.10243220047056674,-0.006080848004602012,-0.011419320101616904
1772639198127544300,1.00254443359375,0.08252923012673855,0.011541928134555927,-0.0031410836378578093
1772639198137590500,1.012590576171875,0.0810322695672512,0.006502034842027933,0.0027306488065980375
1772639198147635500,1.022635498046875,0.086269585698843,0.008102374719243379,-0.007582965942285955
1772639198157680400,1.032680419921875,0.08866437188088894,0.0077401794977253295,-0.003774111711233854
1772639198167725600,1.0427255859375,0.0919558146417141,0.009292026320160948,-0.0016051062422338873
1772639198177770500,1.0527705078125,0.0819300951898098,-0.0038122683183784826,-0.0030728315740823743
1772639198187816700,1.062816650390625,0.09360299732685089,-0.0092866702958534,0.0023262509904801846
1772639198197861400,1.072861328125,0.09150923991799353,-0.011331290191714652,0.0074146145049016916
1772639198207906600,1.082906494140625,0.08612345522642136,-0.004326681259809993,0.0010793927345424889
1772639198217951500,1.092951416015625,0.09569967734515666,0.017684106984268873,-0.010036724903108552
1772639198227997400,1.10299755859375,0.10318272657692432,0.00018061669309099668,-0.0047168907203711564
1772639198238042600,1.113042724609375,0.07205810499489307,0.0032465144904213956,0.003105637865141034
1772639198248087300,1.12308740234375,0.08657353708148002,-0.000019449052563868463,-0.002855955686699599
1772639198258132500,1.133132568359375,0.08088789266049862,0.000548765018893755,-0.007706921115517616
1772639198268177400,1.143177490234375,0.09091361211240291,0.0004139431042422075,-0.005163629840873181
1772639198278223600,1.1532236328125,0.11081424436867236,0.004271920577736454,0.006991831648722291
1772639198288268500,1.1632685546875,0.09525193357765674,-0.004562350895919371,0.0007033168306108564
1772639198298313700,1.173313720703125,0.09510346501767634,0.0031515028547059046,-0.0029099052304867655
1772639198308358400,1.1833583984375,0.0756511610507965,0.0008971320736367487,-0.006314233781257644
1772639198318403600,1.193403564453125,0.08537702077329158,0.002006655655783834,-0.00560182032873854
1772639198328449500,1.203449462890625,0.09465513672828674,0.000673004461560049,0.0012141798290424047
1772639198338494500,1.213494384765625,0.09375789562761783,-0.006236298861217801,0.002169653922971338
1772639198348539600,1.22353955078125,0.10258709877133369,0.006661975214915582,-0.0036517913726624098
1772639198358584300,1.233584228515625,0.09345920494198799,0.005850944243109552,0.007120490396535024
1772639198368630500,1.243630615234375,0.08777297599911689,-0.0092243587782752,-0.0011134228683076799
1772639198378675500,1.253675537109375,0.09315934521257876,-0.001502321721194312,0.001831928134895861
1772639198388720600,1.263720703125,0.08268529747128486,0.004320549488189863,0.0005850242131855339
1772639198398765600,1.273765625,0.08358429213762283,-0.0005188527961756335,-0.0013874814361799508
1772639198408810500,1.283810546875,0.10782499942481517,-0.014428320058714597,0.0025786274495068935
1772639198418856700,1.293856689453125,0.09286123904883861,-0.0013944819991244003,0.002874596455087885
1772639198428901400,1.3039013671875,0.0885217485398054,0.0029603179601836015,0.006293218392692506
1772639198438946600,1.313946533203125,0.07430617618262768,0.007974726897472282,-0.0020955383739899845
1772639198448991500,1.323991455078125,0.08448153323829173,0.0027835577415913576,0.0012164265850558877
1772639198459036700,1.33403662109375,0.09720072955787182,-0.002306517097659525,0.0073612677493132645
1772639198469082600,1.34408251953125,0.09824819278419017,-0.005397335848759394,0.004958855383237823
1772639198479127300,1.354127197265625,0.0823871913075447,-0.017143842078128364,-0.0040849677586928005
1772639198489172500,1.36417236328125,0.10094283869564533,-0.009843062069598818,-0.01199271780909039
1772639198499217400,1.374217529296875,0.0823871913075447,-0.0019054391832120017,-0.004225855800416321
1772639198509263600,1.384263671875,0.09106617232561111,0.0008125231009267736,0.0061871550691779695
1772639198519308500,1.39430859375,0.09675298579037189,-0.0035046185789804436,-0.0025778419982176275
1772639198529353700,1.404353759765625,0.09346095850765705,-0.0027675832835026082,-0.005080280672665685
1772639198539398400,1.4143984375,0.0898684869736433,0.0027013650590757606,0.003930087724234909
1772639198549443600,1.424443603515625,0.09316051425635814,0.0010196419251646148,0.0034643973080907015
1772639198559489500,1.434489501953125,0.08807283572852612,-0.005812217384629184,-0.0007440324334893376
1772639198569534500,1.444534423828125,0.09121580992937088,-0.008826282246733898,0.0038242801290471105
1772639198579579600,1.45457958984375,0.08253741343319415,-0.0008340122718829661,0.0004684486288111657
1772639198589624300,1.464624267578125,0.09420856200456619,-0.002448745429809787,0.001183876022323966
1772639198599669500,1.47466943359375,0.0915156696587801,-0.003613581679057097,-0.0001282020900864154
1772639198609715500,1.484715576171875,0.09824994634985923,-0.0066203845416690455,0.005307066032709554
1772639198619760600,1.4947607421875,0.09824936182796955,0.006505722923990106,-0.0034413452260661868
1772639198629805600,1.5048056640625,0.08208791610002517,-0.0037750295932637524,0.008480919429007918
1772639198639850500,1.5148505859375,0.09001929362118244,-0.005600086741845007,0.0006616696459706872
1772639198649896700,1.524896728515625,0.09465805933773518,-0.008492282785705173,-0.00042900253441184756
1772639198659941400,1.53494140625,0.08567980311214923,-0.00009877963277976959,-0.0014337865296285598
1772639198669986600,1.544986572265625,0.0979506711423397,-0.005878296899271663,-0.0003108195148408413
1772639198680031500,1.555031494140625,0.09435995317399501,-0.011395229123265016,0.0037527492627967146
1772639198690076700,1.56507666015625,0.09286299261450767,0.002224027016799664,0.004302519499510526
1772639198700122600,1.57512255859375,0.08553133455216884,0.004753964477882255,0.0008106496626045554
1772639198710167300,1.585167236328125,0.0964560486704111,-0.0037511526732210768,-0.00134103021225892
1772639198720212500,1.59521240234375,0.09540858544409274,-0.005209647810776368,0.00016994973942637443
1772639198730257400,1.60525732421875,0.09795125566422938,-0.007628191611033981,0.002005430671432987
1772639198740302600,1.615302490234375,0.07894727998673916,-0.004307634066045284,-0.010305285311955958
1772639198750349300,1.625349365234375,0.0900204626649618,0.008403472561913075,-0.0020294691341463476
1772639198760394200,1.635394287109375,0.09810030874609947,0.0077686857854685504,-0.0013143705341964959
1772639198770439200,1.645439208984375,0.09301204569637775,-0.000574398929538438,-0.002875546303158626
1772639198780484000,1.655484130859375,0.08223813822567462,0.0002628453374025412,0.006665430972259492
1772639198790530300,1.6655302734375,0.08388415186703205,-0.004061283205717336,-0.0000798420368693769
1772639198800575200,1.6755751953125,0.08777414504289627,0.0014705526139965513,0.0009470989912282675
1772639198810620400,1.685620361328125,0.09361001158952713,-0.008838301478090579,0.006619308541901409
1772639198820665300,1.695665283203125,0.09809855518043041,0.0017803680526616516,0.0008854045324027537
1772639198830710300,1.705710205078125,0.08971943389177321,0.005843407107336679,-0.004650136493938043
1772639198840756200,1.715756103515625,0.0919639979481697,0.004444810051275999,-0.006574492152640596
1772639198850801200,1.72580126953125,0.0849316150933504,-0.007795136542621184,0.003511076860874891
1772639198860846300,1.735846435546875,0.0871755946278572,-0.0036489007292548194,-0.005051830896316096
1772639198870891300,1.745891357421875,0.09301204569637775,-0.0016304718664643587,0.0026259919888805597
1772639198880936200,1.755936279296875,0.09286240809261798,-0.0009590976729872636,0.001926575015252456
1772639198890982100,1.765982177734375,0.0810410373955965,-0.0012346500824467511,-0.0016706914248876272
1772639198901027300,1.77602734375,0.07984276752173901,-0.009401651573940762,0.00762296915911138
1772639198911072300,1.786072265625,0.08627659996151923,0.0010960561749758198,0.014718781772116198
1772639198921117200,1.7961171875,0.09794891757667064,-0.00403698558974429,0.002331877013668418
1772639198931162400,1.806162353515625,0.09570376899838447,-0.0009363812343915924,0.000766691789869219
1772639198941208300,1.816208251953125,0.09151450061500072,-0.00800514772273309,-0.00603910663430579
1772639198951253200,1.826253173828125,0.08433131111264228,-0.0037998934648174323,-0.008183982309047133
1772639198961298200,1.836298095703125,0.08058978649675845,0.0009123279303021262,-0.003907154373219236
1772639198971343400,1.84634326171875,0.09525485618710518,-0.0012145771212643012,-0.0028022984038572757
1772639198981389300,1.856389404296875,0.09585399112403392,-0.0015351285830751294,0.010561041038157418
1772639198991434200,1.866434326171875,0.09615209728777407,-0.004759561389140435,-0.002736329628713429
1772639199001479200,1.876479248046875,0.08777122243344783,0.0035828149355686036,0.00909284078227356
1772639199011524000,1.886524169921875,0.09136194040179252,-0.008939823340516887,0.007272502620471641
1772639199021569300,1.8965693359375,0.0957020154327154,-0.0018306220937985927,-0.006730404233559965
1772639199031615200,1.906615234375,0.09211071294248104,0.006117693433249951,0.0021060415016952902
1772639199041660400,1.916660400390625,0.08807049764096736,0.0002451241635106271,0.0010780227613635361
1772639199051705300,1.926705322265625,0.09315876069068908,0.00561848947739345,0.008299416249105707
1772639199061750300,1.936750244140625,0.09151157800555229,0.002252418569289148,-0.009043010291177779
1772639199071795200,1.946795166015625,0.09974047716856002,-0.0037492444147472267,-0.0010490797946695238
1772639199081841200,1.956841064453125,0.08253215273618697,-0.016041788845561678,-0.00810798533023335
1772639199091886300,1.96688623046875,0.08477671679258346,-0.013325838709529489,-0.0006276760448236018
1772639199101931300,1.97693115234375,0.08552548933327198,-0.007116446121546323,0.012913394584273919
1772639199111976200,1.98697607421875,0.08073767053484916,0.0012405717915127752,0.0034923264946322887
1772639199122022100,1.997022216796875,0.09330722925066948,0.011402932939107996,-0.0014286810962483285
1772639199132067300,2.0070673828125,0.08507599200010299,0.004355509491250268,0.0042826548884157085
1772639199142112300,2.0171123046875,0.09929214887917041,0.008856900005639181,-0.008691666969703509
1772639199152157200,2.0271572265625,0.08387947569191455,0.00591149477433064,-0.007468463583989069
1772639199162202400,2.037202392578125,0.08896715421974659,-0.003924392060743412,0.0003035495238378644
1772639199172248300,2.047248291015625,0.09944120196104049,-0.011197188083804212,0.004139337427588179
1772639199182293200,2.057293212890625,0.09719546886086464,0.0014529958368861115,0.004591127182543278
1772639199192338200,2.067338134765625,0.0838771376043558,0.0013656577634392306,-0.009342778689041733
1772639199202383400,2.07738330078125,0.09554887069761753,-0.0016298445329128298,-0.004569125413289294
1772639199212428300,2.08742822265625,0.08761690865457057,-0.0005885587439872324,0.005319377525011077
1772639199222474200,2.09747412109375,0.08896364708840847,0.007591093308170093,-0.00564226193698123
1772639199232519200,2.107519287109375,0.0861211171388626,-0.006747820588419563,0.007324333272408693
1772639199242564000,2.117564208984375,0.09554887069761753,-0.004655546175528434,0.010362942916480824
1772639199252609300,2.127609375,0.08193126423358917,0.005627010710566537,0.003878074409207329
1772639199262655200,2.1376552734375,0.08627017022073269,0.0017774465848575346,-0.010564959161449223
1772639199272700400,2.147700439453125,0.08806582146584988,-0.004472446976872743,-0.012941250705579294
1772639199282745300,2.157745361328125,0.0940513256162405,0.00310350812766992,0.004320913672726601
1772639199292790300,2.167790283203125,0.0744487995237112,-0.0006119116492889588,-0.007660415092669427
1772639199302835200,2.177835205078125,0.08941255989968776,0.011799524191394448,-0.0006469652671832591
1772639199312881200,2.187881103515625,0.0805833567559719,0.0011261133865220472,0.0009598854075651616
1772639199322926300,2.19792626953125,0.08866378735899924,0.0017360442829231033,0.00047343533118255433
1772639199332971300,2.20797119140625,0.0897112505853176,0.003218975175413652,-0.0008495843003503978
1772639199343016200,2.21801611328125,0.08746727105081081,0.002023832265337114,-0.00035406500152312216
1772639199353061000,2.22806103515625,0.08193126423358917,0.007916783881868467,-0.010864873689785599
1772639199363107300,2.238107421875,0.09494973576068877,-0.008474442880804418,0.003013803996378556
1772639199373152300,2.24815234375,0.0874678555727005,0.0058389472738170295,0.005008969002123922
1772639199383197200,2.258197265625,0.08746844009459018,0.00913577460005763,0.001492256984906271
1772639199393242400,2.268242431640625,0.0900122793585062,0.01091298029796453,0.0034035704989451914
1772639199403288300,2.278288330078125,0.08986205723285674,-0.0019606348317698576,-0.008622784718265757
1772639199413333200,2.288333251953125,0.09195698368549346,0.005296445315639721,-0.004875542747648433
1772639199423378200,2.298378173828125,0.07849018386900425,0.004018292305717477,0.006688291258038953
1772639199433423400,2.30842333984375,0.08402677520811558,-0.007964223769766977,0.0027829361162614074
1772639199443468300,2.31846826171875,0.0983908161252737,-0.0025365869683999336,-0.0007523162046447396
1772639199453514200,2.32851416015625,0.09599661446511745,-0.006608915582872577,-0.005280168892629444
1772639199463559200,2.33855908203125,0.07459726808369159,-0.008365014560669078,-0.00283952514170669
1772639199473604000,2.34860400390625,0.09794073427021503,-0.0055717888041894184,-0.004857449968531728
1772639199483649300,2.358649169921875,0.10751695638895034,-0.003728143973680562,-0.0017514741766732184
1772639199493694200,2.368694091796875,0.09315116190612316,0.00766871484684525,-0.010793589418707415
1772639199503740400,2.378740478515625,0.09150631730854511,0.004393128383922158,-0.014599986831191927
1772639199513785300,2.388785400390625,0.08701660467386245,-0.0044882307803607545,-0.004001508992630988
1772639199523830300,2.398830322265625,0.09000935674905776,0.001199406380773871,0.0072290379380807275
1772639199533875200,2.408875244140625,0.09823942495584487,-0.004964439165586373,-0.006875219531729817
1772639199543921200,2.418921142578125,0.09569558569192886,-0.0006082635248778387,0.00018228863119147716
1772639199553966300,2.42896630859375,0.09105623545348644,0.008220861987024545,-0.006578876066813245
1772639199564011300,2.43901123046875,0.08686696707010269,0.009568985806239652,-0.007135002979077399
1772639199574056200,2.44905615234375,0.09674363344013691,-0.0011966104938444914,-0.0054182621890678994
1772639199584101000,2.45910107421875,0.10123276155292987,-0.007858087951838387,0.00807808338231407
1772639199594147300,2.469147216796875,0.08133212929666042,0.0032549318339617456,0.009665224709594621
1772639199604192300,2.479192138671875,0.07908639619648457,-0.0024174101474520285,-0.004840526233194396
1772639199614237200,2.4892373046875,0.08507248486876487,0.0016902009846002327,0.006922730201575905
1772639199624282400,2.499282470703125,0.09075871381163597,0.005773737121321028,-0.0026626433379948137
1772639199634327300,2.509327392578125,0.09390110349059104,-0.00639462152410997,-0.0032501700355205684
1772639199644373200,2.519373291015625,0.07609481316506862,-0.004144507934694411,0.0039731688141357155
1772639199654418200,2.529418212890625,0.09345277520120143,0.0009676052064285613,0.014475830728560686
1772639199664463400,2.53946337890625,0.07429974644184112,0.002724340650931117,-0.0023847488452214747
1772639199674508300,2.54950830078125,0.07549567822813988,-0.002945083287611487,-0.007700445708958431
1772639199684554200,2.55955419921875,0.0904606076478958,-0.00464613103485608,0.003473420864762738
1772639199694599200,2.56959912109375,0.09629705871641635,-0.0020101873324747427,-0.006478740160586312
1772639199704644000,2.57964404296875,0.08791793742775916,-0.0007931973459490109,-0.0008771938264835625
1772639199714689300,2.589689208984375,0.08567395789325237,-0.0030602278208360072,0.0043101274172309785
1772639199724734200,2.599734130859375,0.0962993968039751,0.004044635748304427,0.005149637848138809
1772639199734780400,2.609780517578125,0.09689736269712447,-0.00213497419359046,-0.001326873822743073
1772639199744825300,2.619825439453125,0.08896715421974659,0.005635493127832888,-0.013980201831879093
1772639199754869500,2.629869384765625,0.0988438205897808,0.00019467718448431696,0.0013504190951120108
1772639199764914400,2.63991455078125,0.09255845670998096,0.005823430615098914,0.004142588830599561
1772639199774959600,2.649959716796875,0.08687281228899955,0.00027414761612890286,0.005081778510008007
1772639199785005600,2.660005615234375,0.08732172510027884,0.00021617434695072005,0.0034524054761976
1772639199795050500,2.670050537109375,0.08298281911313533,0.004089909366113716,-0.007553319722693413
1772639199805095400,2.680095458984375,0.08328209432065486,0.004417951727102627,0.0009703611358068883
1772639199815140600,2.690140625,0.08582534906268119,-0.004260105129890144,-0.0016497125689405947
1772639199825186600,2.7001865234375,0.09061433690488338,-0.002115774590309593,-0.004724507771246135
1772639199835231500,2.7102314453125,0.09181202225685119,0.0010370531426247907,0.0014937274227850138
1772639199845276700,2.720276611328125,0.09989303738176822,0.0041964013770688325,-0.003708453463343903
1772639199855321300,2.7303212890625,0.08029109581112862,-0.0005067439457401633,-0.0035063184873666614
1772639199865366500,2.740366455078125,0.09271043240129948,-0.014697684185160324,-0.0035483583976514636
1772639199875412500,2.75041259765625,0.09585282208025454,-0.0002778305606916547,0.0006470017998013645
1772639199885457400,2.76045751953125,0.0873234786659479,0.010361907445086398,0.00017634294759482144
1772639199895502600,2.770502685546875,0.07954173874855042,0.004753548348529148,-0.004493722089519724
1772639199905547500,2.780547607421875,0.08657529064714908,0.0024177218163502403,-0.005643668442778289
1772639199915592400,2.790592529296875,0.09645078797340392,-0.00033398690294125116,0.006556929096486419
1772639199925638400,2.800638427734375,0.0790934104591608,0.0007168995438580168,0.0028858393683098256
1772639199935683600,2.81068359375,0.07595160530209541,0.002728453995400923,-0.0006165335963014513
1772639199945728500,2.820728515625,0.07669979332089423,0.010474476999556646,-0.010663770760269834
1772639199955773700,2.830773681640625,0.0777472565472126,-0.004863064004454645,-0.001107550249947235
1772639199965819600,2.840819580078125,0.07834580696225166,-0.00037484406971489075,0.00024236652166582644
1772639199975864300,2.8508642578125,0.09675123222470283,-0.0006247351690661162,0.002054512243857607
1772639199985909500,2.860909423828125,0.0816378342449665,0.0037360766892088576,0.003261239418806508
1772639199995954400,2.870954345703125,0.0747539199501276,0.005054332239012001,-0.003974858447723091
1772639200005999600,2.88099951171875,0.08029051128923892,0.01636342201536172,0.005460904887551441
1772639200016045600,2.891045654296875,0.07056465156674385,0.0010708857719233492,0.009086538905650378
1772639200026090500,2.901090576171875,0.09555413139462471,0.005351877284570946,0.008357082986785098
1772639200036135400,2.911135498046875,0.09690028530657291,0.0042271098966972205,0.0033786004544701423
1772639200046180600,2.9211806640625,0.09091478115618229,0.003421892748569371,0.0056108986843377345
1772639200056225500,2.9312255859375,0.09196224438250064,0.009449172518585692,0.007386913647223264
1772639200066271500,2.941271484375,0.0895680427223444,-0.007398517890871153,-0.01357445230889134
1772639200076316700,2.951316650390625,0.0886702170997858,0.0016906764794577612,-0.004127601324021816
1772639200086361300,2.961361328125,0.08014028916358948,0.007746673741415725,-0.003600161650124937
1772639200096406500,2.971406494140625,0.08567629598081111,0.0047566319298261075,-0.005469106460316106
1772639200106452500,2.981452392578125,0.09719839147031306,0.012803587809047895,-0.00021664755851961672
1772639200116497400,2.991497314453125,0.08762158482968807,0.006223147689522011,0.0030714616009034214
1772639200126542600,3.00154248046875,0.0940554172694683,0.006873501927856704,0.013952683637291192
1772639200136587500,3.01158740234375,0.10004092141985893,0.0025582040035194947,-0.006731061820685863
1772639200146632400,3.021632568359375,0.09420505487322807,0.0038185798989783504,-0.001298223116993904
1772639200156678400,3.031678466796875,0.09360650445818901,0.011125678908795816,0.009418090681266039
1772639200166723600,3.0417236328125,0.07968962278664111,0.014380764864740193,-0.006482621751260012
1772639200176768500,3.0517685546875,0.10033961210548877,0.009470227864701882,0.0007141670181881636
1772639200186813700,3.061813720703125,0.09166121560931205,0.0040459566307778005,-0.0052296716812532396
1772639200196858400,3.0718583984375,0.09704816934466362,0.01226398619825486,-0.00596535641150549
1772639200206904300,3.081904296875,0.09689794721901417,-0.008107207299632137,-0.008188768082018941
1772639200216949500,3.091949462890625,0.09525134905576706,0.002577900792899891,-0.002213730526715517
1772639200226994400,3.101994384765625,0.07849252195656299,0.00581291892506124,-0.0015904201297555118
1772639200237039600,3.11203955078125,0.09210895937681197,-0.00043784171552688347,0.0025785635174252093
1772639200247085600,3.12208544921875,0.08776946886777877,0.009259729773289292,0.003335126638924703
1772639200257130500,3.132130615234375,0.0967483096152544,0.006390322091616689,-0.001883119466016069
1772639200267175400,3.142175537109375,0.09704700030088424,0.006783963334991131,-0.00028740210663527247
1772639200277220600,3.152220703125,0.09360475089251995,0.010966907008865382,0.005487893359176814
1772639200287265500,3.162265625,0.09869301394224167,-0.000898162407631753,-0.007490730214724317
1772639200297311500,3.1723115234375,0.10527706850767135,-0.001377321372591541,0.010365664596529676
1772639200307356700,3.182356689453125,0.08507657652199267,-0.006045381682287552,0.009501732110418378
1772639200317401300,3.1924013671875,0.08507657652199267,0.01644896314065554,-0.000979101564688608
1772639200327446500,3.202446533203125,0.07924012545347213,0.0011357916762091917,-0.0012034118398558348
1772639200337491500,3.212491455078125,0.08896598517596721,-0.002525775596729363,-0.004108942289324477
1772639200347537400,3.222537353515625,0.08223170848488807,0.0005721065077523234,0.007630942403012886
1772639200357582600,3.23258251953125,0.08552373576760292,0.00789421871114464,0.001945754639757797
1772639200367627500,3.24262744140625,0.10033727401793002,-0.004634080408280715,0.013293991399696095
1772639200377672400,3.25267236328125,0.09644669632017612,0.009446590689965523,0.01205833039120771
1772639200387718400,3.262718505859375,0.08701952728331089,-0.006351295551503426,0.001603727135900408
1772639200397763600,3.272763671875,0.0895633665472269,0.004621753503780929,0.0002988368161022663
1772639200407808500,3.28280859375,0.08926467586159706,0.010867372749192873,0.010343872889829799
1772639200417853700,3.292853759765625,0.09195815272927284,-0.0034099471532710595,0.002161370151815936
1772639200427898400,3.3028984375,0.1025824225962162,-0.0027422541918902424,-0.0038608584129251537
1772639200437944300,3.3129443359375,0.08971300415098667,0.005227998601508443,0.01334416895066388
1772639200447989500,3.322989501953125,0.09330489116311073,-0.0073388823875691735,0.0007952876966912299
1772639200458034400,3.333034423828125,0.09225742793679237,-0.001386625773765263,0.002889373899111524
1772639200468079600,3.34307958984375,0.09016250148415565,0.00902092860682169,-0.007273836061032489
1772639200478124500,3.35312451171875,0.0930056159555912,0.007247130146375275,0.0036635092099197206
1772639200488170500,3.36317041015625,0.07774258037209511,0.011606864863238297,0.0009980528603307903
1772639200498215400,3.37321533203125,0.09091127402484417,0.006160326998578966,-0.0016335012196563184
1772639200508260600,3.383260498046875,0.09555003974139689,0.002926141125123831,-0.0005862480558920651
1772639200518305500,3.393305419921875,0.09704641577899456,-0.007009942694148048,-0.0024131346894893796
1772639200528351500,3.4033515625,0.09031330813169479,0.003433909125815262,0.0157489650700707
1772639200538396700,3.413396728515625,0.08717033393085002,-0.0015866047544521279,-0.00027796755800955
1772639200548441300,3.42344140625,0.08791852194964885,-0.0006383190239575924,0.0053489050135947765
1772639200558486500,3.433486572265625,0.0852238760381937,-0.0006479271025193156,-0.002365687951724976
1772639200568531500,3.443531494140625,0.08836685023903847,0.010166960261721395,0.0031794702863320707
1772639200578577400,3.453577392578125,0.09225742793679237,0.014051536335307173,-0.019215380805311724
1772639200588622600,3.46362255859375,0.08253039917051792,0.007161743143064086,0.00032295747720636423
1772639200598667500,3.47366748046875,0.09345394424498081,0.006134686238068388,0.0010436638340353965
1772639200608712400,3.48371240234375,0.0886655409246683,0.009065989307966083,-0.0031630032087210562
1772639200618757400,3.49375732421875,0.08582242645323276,-0.0049655539812607456,-0.0022404815363232045
1772639200628803600,3.503803466796875,0.08627133926451205,0.014831528281455394,0.007031688735075294
1772639200638848500,3.5138486328125,0.091209964710474,0.006659860889642732,-0.0038284265812020745
1772639200648893700,3.523893798828125,0.08866670996844768,-0.0036132808557798853,-0.003774833230441436
1772639200658938400,3.5339384765625,0.0898638107985258,-0.01232937045150902,-0.002834520173026249
1772639200668984300,3.543984375,0.09435410795509815,-0.004886254796263529,-0.009634856970794498
1772639200679029500,3.554029541015625,0.09689911626279353,-0.006923180009436328,-0.006361625720094889
1772639200689074400,3.564074462890625,0.07774608750343322,0.003344008631701581,-0.005406991876382381
1772639200699119600,3.57411962890625,0.0847790548801422,0.015540384370286483,0.003465840346505865
1772639200709164500,3.58416455078125,0.08088789266049862,0.010996359148924238,-0.0017219284217804668
1772639200719210800,3.594210693359375,0.10168693506121634,-0.005610653230809839,-0.0015006868865340948
1772639200729255400,3.60425537109375,0.094056001791358,0.0037261158425535537,0.0020160799296107144
1772639200739300600,3.614300537109375,0.09226093506813049,0.0030321713409532094,-0.0040441882237326355
1772639200749346000,3.624345947265625,0.08851941045224666,0.009113781393136013,-0.001962861038185656
1772639200759391000,3.634390869140625,0.09300912308692931,0.0034027422359940826,0.004835265536187216
1772639200769437200,3.644437255859375,0.09884615867733955,0.0012364544512878637,0.0037070104249287395
1772639200779482000,3.654482177734375,0.08418050446510314,-0.00020660108854062855,0.002276731026638299
1772639200789527000,3.664527099609375,0.08507891460955143,0.009941641914623323,-0.005459279186045751
1772639200799572000,3.674572021484375,0.09046645286679267,0.0026190673452831104,-0.0067367517759557806
1772639200809618000,3.684617919921875,0.09345920494198799,0.0106643826816231,0.00030256314314901824
1772639200819663000,3.6946630859375,0.07670037784278393,0.001769381438588607,0.0009619129678700119
1772639200829708000,3.7047080078125,0.09121522540748118,0.004758347821232746,0.003163332002284005
1772639200839753000,3.7147529296875,0.10049217231869698,0.004579424186662072,0.010305796768609434
1772639200849798000,3.7247978515625,0.08178805637061595,-0.006069626782622071,-0.005508771750424057
1772639200859844000,3.734843994140625,0.08777297599911689,-0.0045884386101795824,-0.0018171598240267484
1772639200869889000,3.744888916015625,0.08537935886085032,0.010832544606050942,0.0004546210328582674
1772639200879934000,3.754933837890625,0.09166530726253985,0.00814318051202281,-0.00031710312515497206
1772639200889979100,3.764979248046875,0.09435878413021564,-0.003850381543039111,0.004483018032414838
1772639200900025000,3.775025146484375,0.08238836035132407,0.0005621125534118618,0.009775699346745386
1772639200910070000,3.785070068359375,0.09840016847550868,0.00900048404041445,0.002993592325411737
1772639200920115000,3.795114990234375,0.07969605252742767,0.006567879177941358,0.00557319702245295
1772639200930160000,3.80516015625,0.09510872571468353,0.0032320601317391263,0.01099388863062486
1772639200940205000,3.815205078125,0.08972235650122165,0.009178799178564803,0.002674059781152755
1772639200950251000,3.8252509765625,0.09301496830582619,-0.00698977954306465,0.00377131696594879
1772639200960296000,3.8352958984375,0.10543488941788673,-0.0031392826939496445,0.002602547181211412
1772639200970340900,3.8453408203125,0.09451192886531352,0.002332829715849948,-0.003790286527900025
1772639200980386000,3.855385986328125,0.08957447246313095,0.005861412550663226,0.002689586143847555
1772639200990431000,3.865430908203125,0.09900105697810649,0.001766309273734805,0.0005722469300031662
1772639201000477200,3.875477294921875,0.0981032313555479,0.0053540772331674815,-0.004355272600054741
1772639201010522000,3.885522216796875,0.09256664001643657,0.004936079579137731,0.001266932929586619
1772639201020567000,3.895567138671875,0.075059040376544,-0.00825548006761237,0.0075507167736534025
1772639201030612000,3.905612060546875,0.08328852406144141,0.004768015265298891,-0.0026545604962389916
1772639201040658000,3.915657958984375,0.09840075299739837,-0.006299404392417636,-0.005184371234802529
1772639201050703000,3.925703125,0.08598083188533782,-0.00030334174457238985,-0.002967179242521524
1772639201060748000,3.935748046875,0.08283844220638274,0.011203821037278976,-0.007455384906707331
1772639201070793000,3.94579296875,0.08762626100480556,-0.0023959792003559414,-0.0012275051014963537
1772639201080838000,3.955837890625,0.08657938230037689,0.0006879765559395309,0.003910104382131249
1772639201090884000,3.965884033203125,0.0861304694890976,-0.0019127868060284526,-0.009124158369144424
1772639201100929000,3.975928955078125,0.09241466432511806,-0.0065691555362864164,0.015380643214331939
1772639201110974000,3.985973876953125,0.08478256201148032,-0.0019943755587009944,-0.003981324721127748
1772639201121019100,3.99601904296875,0.08313596384823321,-0.003263135119192884,-0.003124114236747846
1772639201131064000,4.00606396484375,0.09570552256405353,-0.004518150423766928,-0.006306315336283296
1772639201141110000,4.016110107421875,0.08717617914974689,0.013815396341739688,-0.0016087686371989546
1772639201151155000,4.026155029296875,0.09361059611141681,0.007556449540585162,0.01093759186612442
1772639201161200000,4.0362001953125,0.08418342707455158,0.00917805368482659,0.0046561095769982784
1772639201171245000,4.0462451171875,0.09914718745052814,0.01575381020854693,-0.004161731922486797
1772639201181291000,4.056291015625,0.08971943389177321,-0.0029080746038263896,0.004404920428059995
1772639201191336000,4.0663359375,0.10049334136247634,-0.006594838537636679,0.008814517031237482
1772639201201380900,4.076380859375,0.09645371058285236,0.005755636350694112,0.011218555098818615
1772639201211426000,4.086426025390625,0.08852291758358478,-0.007932387876376743,0.003779829065967351
1772639201221471000,4.096470947265625,0.10154138911068439,-0.00024389860833762213,-0.0007134454989805817
1772639201231517200,4.10651708984375,0.09959610026180743,0.0007261097593756858,-0.0015133637050166724
1772639201241562000,4.11656201171875,0.07475508899390697,-0.001732253452972509,-0.012824072333006187
1772639201251607000,4.12660693359375,0.098996380802989,0.008868644100715755,-0.006997485071374103
1772639201261652000,4.13665185546875,0.09001812457740306,-0.009700211541296447,0.015619438672577961
1772639201271697200,4.146697265625,0.08253624438941479,-0.0016066480328823672,0.006602887130063027
1772639201281743000,4.1567431640625,0.08747370079159736,-0.005646353019386879,-0.001980177499167621
1772639201291788000,4.1667880859375,0.08283435055315494,0.0020435861369332998,-0.006385435853945091
1772639201301833000,4.1768330078125,0.08837035737037659,0.00008725815834477544,-0.008082659092731773
1772639201311878000,4.1868779296875,0.08028992676734924,0.004898282589952578,-0.006467716443073004
1772639201321924000,4.196924072265625,0.08567746502459049,0.006657773963833461,0.006912044410780071
1772639201331969000,4.206968994140625,0.08448036419451237,0.0038742955665220504,-0.0030610498047433793
1772639201342014000,4.217013916015625,0.09570318447649478,-0.007772555388876935,-0.004877223248081281
1772639201352059100,4.22705908203125,0.08418167350888252,0.006742923505126964,0.0051861156673170625
1772639201362104000,4.23710400390625,0.07984218299984931,0.0009960829530638875,-0.007622841294948011
1772639201372150000,4.24714990234375,0.09271043240129948,0.008927728760635363,0.0010008750050794332
1772639201382195000,4.25719482421875,0.08492927700579166,0.005177982022389187,0.003488773697521537
1772639201392240000,4.267240234375,0.09704933838844298,0.007880251263763056,0.003012251360109076
1772639201402285000,4.27728515625,0.0957020154327154,-0.004373318571754498,0.00608926591896452
1772639201412330000,4.287330078125,0.09719839147031306,-0.0001403371983411489,0.008622419392084702
1772639201422376000,4.2973759765625,0.07999123608171939,-0.007492768620650167,0.007982203526096418
1772639201432420900,4.3074208984375,0.08657529064714908,-0.004347285656421445,0.004261685165623203
1772639201442466000,4.317466064453125,0.07744739681780338,-0.0022421791614207903,0.009669325495976953
1772639201452511000,4.327510986328125,0.09510404953956604,0.0045214703254372575,0.004794677797472104
1772639201462557200,4.33755712890625,0.09375672658383846,0.00558833808019117,0.013561309699527919
1772639201472602000,4.34760205078125,0.08732172510027884,-0.0039843694865179715,0.0028630156151484695
1772639201482647000,4.35764697265625,0.07849310647845267,-0.006358282414716086,-0.0008904186342377215
1772639201492692000,4.36769189453125,0.088069328597188,0.005705691124344593,-0.0015395027932710945
1772639201502737200,4.377737060546875,0.08492693891823291,0.016254503439413384,0.009032653293944894
1772639201512783000,4.387783203125,0.08103577669858932,0.0066155365490820255,-0.0029848427633754906
1772639201522828000,4.397828125,0.07879004359841346,-0.013522320262854918,0.006630359658878296
1772639201532873000,4.407873046875,0.09599836803078651,-0.0036205542717158094,-0.004469866289896891
1772639201542918000,4.41791796875,0.09973872360289096,0.009088803357150755,-0.0014084420258179307
1772639201552963000,4.427963134765625,0.0904611921697855,0.007601914383817347,0.009220997206587344
1772639201563009000,4.438009033203125,0.09300503143370151,0.0015530495447223073,0.003410758291557431
1772639201573054000,4.448053955078125,0.08851590332090854,0.0038104610954265805,-0.0015789123550523072
1772639201583099100,4.45809912109375,0.08567220432758331,-0.004390867928176885,0.0028517453024629502
1772639201593144000,4.46814404296875,0.09001169483661652,0.003350945833386504,0.002877071539964527
1772639201603190000,4.47818994140625,0.08701894276142119,-0.004554464416985865,-0.0006956906465813517
1772639201613235000,4.48823486328125,0.09599778350889682,-0.00473138731989311,0.0002193235727958381
1772639201623280000,4.498280029296875,0.08821604359149933,0.0018054882233642273,-0.002076276551093906
1772639201633325000,4.508324951171875,0.09016133244037627,0.004308824801066658,0.0004384644825011492
1772639201643370000,4.518369873046875,0.09480009815692901,0.0021367408881691518,-0.005826751658413559
1772639201653416000,4.528416015625,0.08312894958555699,-0.0018285842586949,0.002771227412158623
1772639201663460900,4.5384609375,0.08073474792540072,-0.010187883177096955,0.0062366293672472236
1772639201673506000,4.548506103515625,0.09270575622618198,0.0007021072584582725,0.003710079164849594
1772639201683551000,4.558551025390625,0.09330489116311073,0.00015676146429032087,0.004928122318256646
1772639201693596200,4.56859619140625,0.08342822479307652,-0.011212868568481645,-0.0008192439610138536
1772639201703642000,4.57864208984375,0.08612053261697292,0.0025390278039471013,-0.004040425364067778
1772639201713687000,4.58868701171875,0.0814811823785305,0.009531279577777604,0.012321712301438673
1772639201723732000,4.59873193359375,0.08596972596943378,0.002681383429438574,-0.0001692190870642662
1772639201733777200,4.608777099609375,0.08791443029642104,-0.002013824040442705,-0.002461083750752732
1772639201743823000,4.618822998046875,0.09838906255960464,0.003722794228416751,-0.010831793404091149
1772639201753867300,4.6288671875,0.08641863878071307,-0.003124641676421743,0.004455508970981463
1772639201763912200,4.638912109375,0.09180500799417496,0.008199524083940195,-0.009528455720562488
1772639201773957400,4.648957275390625,0.09105623545348644,-0.0007241729597939411,0.00019380553904920815
1772639201784002300,4.659002197265625,0.09704232412576674,-0.0019822370255133137,0.0032047234585974365
1772639201794048300,4.66904833984375,0.09719137720763683,0.0008140997117268852,0.0025372999252751467
1772639201804093400,4.679093505859375,0.09509586623311042,0.005836973370795021,0.005055328894499689
1772639201814138000,4.68913818359375,0.08926058420836926,0.006937646926206071,0.003017256328789517
1772639201824183300,4.699183349609375,0.09180383895039558,-0.004218009849856025,0.011964962152484803
1772639201834228200,4.709228271484375,0.10033318236470222,0.007724995628325268,-0.0012401453873608261
1772639201844274200,4.719274169921875,0.10332534991800785,0.0004609765667642932,0.002611799066746607
1772639201854319400,4.7293193359375,0.09689093295633792,-0.00891508847477089,-0.006682382107060402
1772639201864364000,4.739364013671875,0.09225041367411613,0.0033882776025129712,-0.0031018019402399657
1772639201874409200,4.7494091796875,0.08626432500183581,0.00000817417330108583,-0.00006088160807266831
1772639201884455200,4.759455078125,0.09479308389425277,0.002733155286693363,-0.003113474111724645
1772639201894500400,4.769500244140625,0.08776011651754378,0.003345262157160323,-0.0013174849398899823
1772639201904545300,4.779545166015625,0.08611410287618637,0.006678320707406964,0.00018219729964621365
1772639201914590500,4.789590576171875,0.09105155927836894,0.009423168715182692,0.004749925340292975
1772639201924635100,4.79963525390625,0.0870101749330759,-0.002373223375031375,-0.0033186321618501094
1772639201934681000,4.80968115234375,0.08895487926006317,-0.004856586314606829,0.0014452395054046065
1772639201944726300,4.819726318359375,0.08805705363750457,0.005410528690472711,0.0074062302690465
1772639201954771200,4.829771240234375,0.08341828792095184,-0.004685629644893924,-0.0035368688892573118
1772639201964816400,4.83981640625,0.08177227427959442,-0.0030017071332084015,-0.0022987145295832304
1772639201974861000,4.849861083984375,0.0935936449766159,0.009450509384079486,0.008401707579800858
1772639201984907300,4.8599072265625,0.10062602783143519,-0.009094411114029935,0.004467519069183618
1772639201994952200,4.8699521484375,0.09074936146140097,0.0038056439272360874,-0.01067474881201051
1772639202004997400,4.879997314453125,0.08910393234193324,-0.0035599529373226686,-0.0025711930617224425
1772639202015042300,4.890042236328125,0.09329378524720668,-0.004917106592253548,0.0031108437632210552
1772639202025088300,4.900088134765625,0.09329378524720668,0.0020202212443662573,0.005964178234571591
1772639202035133400,4.910133544921875,0.08955226063132285,-0.0027054898199887246,0.001094635969446972
1772639202045178000,4.92017822265625,0.08551087628602981,-0.013414585572062059,-0.004555270417872816
1772639202055223300,4.930223388671875,0.09628419923484324,0.003977184548016521,0.002114763664267957
1772639202065268200,4.940268310546875,0.09209376180768013,0.01022111415984109,0.0005689133286010474
1772639202075314200,4.950314208984375,0.09164543351829052,-0.005930653849238297,-0.010772902823705225
1772639202085359400,4.960359375,0.09538695813417435,-0.013970059463777579,0.009956070015486328
1772639202095404000,4.970404052734375,0.0825181242108345,-0.01032564539668383,0.0033912590066436676
1772639202105449200,4.98044921875,0.09134674283266067,0.0034272190901247085,-0.003213007229752838
1772639202115494100,4.990494140625,0.09104746762514114,-0.005542832137763617,0.0017306962501257657
1772639202125540400,5.000540283203125,0.08102116365134715,0.0038476159096841,-0.006363160090055316
1772639202135585300,5.010585205078125,0.08685703019797801,0.005518099555306253,0.0017118454191833734
1772639202145630500,5.02063037109375,0.09673311204612255,0.0017184504023724002,0.001413136467244476
1772639202155675100,5.030675048828125,0.0925438436627388,-0.0018290911487711128,0.0036753183787222947
1772639202165721000,5.04072119140625,0.10226911886334418,0.0020529687407426535,0.012877546952757984
1772639202175766300,5.050766357421875,0.11349135462343692,0.010059866033389698,-0.0013897281921934335
1772639202185811200,5.060811279296875,0.08954933802187443,0.013252770048385718,-0.0045848618385382
1772639202195856400,5.0708564453125,0.09867664732933044,-0.0006204659901472041,0.0037341724264901128
1772639202205901000,5.080901123046875,0.09299041838645934,-0.005485190516259172,0.010069704724103212
1772639202215947300,5.090947265625,0.08610708861351013,-0.0009662523579143453,-0.00397613708935678
1772639202225992200,5.1009921875,0.08042085967063903,0.003399774531595176,-0.004935291844559833
1772639202236037400,5.111037353515625,0.0985258406817913,0.002799584144496475,0.0009263667304534464
1772639202246082300,5.121082275390625,0.0916419263869524,-0.0020513755760999627,-0.003896559913968667
1772639202256127200,5.131127197265625,0.08416004619896411,-0.015224661493109306,0.0015098200410604476
1772639202266173400,5.14117333984375,0.0941857656508684,0.005424347724093241,-0.00029237054269760844
1772639202276218000,5.151218017578125,0.09089315384626388,-0.002236570262897294,0.005762298986921086
1772639202286263300,5.16126318359375,0.09523264435529709,0.005283175983757246,-0.003822617894923314
1772639202296308200,5.17130810546875,0.09283785817325114,0.003357755741730216,-0.011935480329673736
1772639202306354200,5.181354248046875,0.08789981724917888,-0.004357425741234328,-0.008811356959771364
1772639202316399400,5.1913994140625,0.09642857614159583,0.00247159715325688,-0.01650516286538914
1772639202326444000,5.201444091796875,0.09732640176415443,0.005075505745314876,-0.019205252136942
1772639202336489200,5.2114892578125,0.10046937596499919,-0.005138888125261291,-0.008713175548613072
1772639202346534100,5.2215341796875,0.08116554055809974,-0.0021363584373233608,-0.0044078247711993755
1772639202356580400,5.231580322265625,0.07922025170922278,0.003840063932535122,-0.004111417374201119
1772639202366625300,5.241625244140625,0.09298691125512122,0.008572594038388342,-0.0003844144740141928
1772639202376670500,5.25167041015625,0.09657762922346591,0.0017564329087588703,-0.00833691698159091
1772639202386715100,5.261715087890625,0.0934364085882902,0.005777149496180936,-0.0020998674892354755
1772639202396761000,5.271760986328125,0.09627952305972576,0.010121944084705318,0.008100642273994162
1772639202406806300,5.28180615234375,0.08086684987246989,0.005669980490146553,0.008834938764758408
1772639202416851200,5.291851318359375,0.07563070278465747,0.003647431433020392,-0.0030139318605419247
1772639202426896400,5.301896484375,0.088500121229887,0.003597638616187032,-0.0027976587613578884
1772639202436941000,5.311941162109375,0.10271627810895442,0.0052591403751546745,0.0009748546478338539
1772639202446987300,5.3219873046875,0.09313947146832942,-0.0038764355787920066,-0.009053915277682244
1772639202457032200,5.3320322265625,0.07219020694196224,-0.000706113288362394,-0.009199196366732939
1772639202467077400,5.342077392578125,0.08745324252545833,-0.0029302207910863213,0.011195201622694731
1772639202477122300,5.352122314453125,0.08565759128034114,-0.001750151581733371,-0.008751416066614911
1772639202487167200,5.362167236328125,0.08610591956973075,-0.006578855517215561,-0.0011465488197747618
1772639202497213400,5.37221337890625,0.08610650409162043,0.0005035587580990977,0.0006493764199782163
1772639202507258000,5.382258056640625,0.09209259276390075,0.0071825187863229075,-0.0029892449438571928
1772639202517303300,5.39230322265625,0.09209259276390075,-0.001429554454149911,-0.006147343648597598
1772639202527348200,5.40234814453125,0.09912614466249942,0.0022878597754286602,-0.006969565017987042
1772639202537394200,5.412394287109375,0.08476035017967223,0.005310580013913568,0.0037382732128724452
1772639202547439400,5.422439453125,0.07593056251406669,0.0035576650821138173,-0.003263604905828833
1772639202557484000,5.432484130859375,0.08820143054425716,-0.0011629479695489861,-0.010081312963506206
1772639202567529200,5.442529296875,0.08401216216087341,0.009200768981777945,-0.0037491690662223845
1772639202577574100,5.45257421875,0.07039572474062443,0.005339459619348053,-0.0002398914367891848
1772639202587620400,5.462620361328125,0.0826665927708149,-0.006224356120030279,-0.007654761670017615
1772639202597665300,5.472665283203125,0.09344050024151801,-0.0008327718753338558,0.011224783910205587
1772639202607710500,5.48271044921875,0.08251637064516544,0.0017993119276157811,0.0011151490345131605
1772639202617755100,5.492755126953125,0.08221651091575623,-0.0015353112461656564,-0.00853224775744602
1772639202627800300,5.50280029296875,0.09538462004661559,-0.006608875625321525,-0.012128829210996627
1772639202637846300,5.51284619140625,0.08116904768943786,-0.0009660611324914497,0.0013758823299314827
1772639202647891200,5.52289111328125,0.08311375201642512,0.014279761308833258,-0.010784282734245062
1772639202657936400,5.532936279296875,0.08655600142478942,0.005942029764023027,-0.008329372995952143
1772639202667981000,5.54298095703125,0.10391513250470161,0.00801445269472897,-0.0027067473412025716
1772639202678027300,5.55302734375,0.08506020990908146,0.007483018978193285,-0.006792993741529062
1772639202688072200,5.563072265625,0.09912672918438911,-0.004783239663072163,-0.011527748912153765
1772639202698117400,5.573117431640625,0.09658347444236277,0.008524112400051671,-0.01398456747974269
1772639202708162300,5.583162353515625,0.08760580273866653,0.0071213129512645535,-0.003894486687891185
1772639202718207200,5.593207275390625,0.08715630540549754,0.006008099003866664,-0.007675119471456855
1772639202728253400,5.60325341796875,0.09523615148663521,0.00006868246368248946,0.0036376806489191948
1772639202738298000,5.613298095703125,0.10062368974387645,-0.0002514454480871791,-0.004268398034200072
1772639202748343300,5.62334326171875,0.09104688310325146,-0.006268061118549667,0.0029402638361323624
1772639202758389500,5.633389404296875,0.08880231904685497,0.0034465437034581553,-0.005447433484625071
1772639202768434200,5.64343408203125,0.08147007646262645,-0.008334157627279636,-0.010224237698689102
1772639202778480400,5.65348046875,0.09718260937929153,0.006906497161049629,-0.006887722820276394
1772639202788525300,5.663525390625,0.09598550854921341,0.010489384591032285,-0.007930144545296206
1772639202798570500,5.673570556640625,0.08311725914776324,-0.00008247923523886129,0.002141185880312696
1772639202808615400,5.683615478515625,0.08281798394024371,-0.0010993087196315171,0.003689164240984246
1772639202818660600,5.69366064453125,0.09748246910870074,0.006376675446287845,0.005447049892134964
1772639202828706600,5.70370654296875,0.10092354947328568,0.00884202266773791,0.007352673450903967
1772639202838751200,5.713751220703125,0.08236848660707473,0.008864977139173424,0.002700226268870756
1772639202848796400,5.72379638671875,0.08416413785219191,0.01686677641912829,-0.008503734049014746
1772639202858841300,5.73384130859375,0.09254442818462848,-0.000054703029035590584,-0.005918293266231194
1772639202868887600,5.743887451171875,0.08865385048687457,0.005106517942331266,-0.002770231898315251
1772639202878932500,5.753932373046875,0.10436579888164997,-0.0000570068672648631,0.00361405317815952
1772639202888977400,5.763977294921875,0.0834159498333931,-0.003514404754055431,-0.00046699645724147554
1772639202899022300,5.774022216796875,0.07907645932435989,0.0035352797203697262,-0.003893189779948443
1772639202909067500,5.784067626953125,0.08027356015443801,-0.006405874141308595,0.001491736395098269
1772639202919113500,5.794113525390625,0.08880290356874465,0.005788718919677194,0.008792149935802445
1772639202929158400,5.804158447265625,0.1012228246808052,0.005953629441093653,-0.0045160800518002355
1772639202939203600,5.81420361328125,0.08581015149354934,0.0008500295416335574,0.00281681098639965
1772639202949248300,5.824248291015625,0.07967500973939895,0.0028832889349083416,0.02079877753923647
1772639202959293400,5.83429345703125,0.08940086946189403,0.004021952417393913,-0.009827557398146019
1772639202969339400,5.84433935546875,0.09299158743023872,0.002486945419438416,-0.0016764909780118613
1772639202979384300,5.85438427734375,0.08371464051902294,0.0009219177425547968,-0.012660470135975628
1772639202989429500,5.864429443359375,0.09433949490785598,0.00754863555606571,-0.006609143340913578
1772639202999474200,5.87447412109375,0.09553718025982379,0.002409377538046101,-0.009233217367343604
1772639203009520400,5.884520263671875,0.09688391869366168,0.00940092149240081,0.0002060622324235737
1772639203019565300,5.8945654296875,0.07982464734315872,0.004447527735569747,-0.005258888642583042
1772639203029610500,5.904610595703125,0.07967442521750927,-0.002630724675391684,0.0008112159181851893
1772639203039655400,5.914655517578125,0.09344166928529739,-0.005345827140519395,0.0026539120422676204
1772639203049700600,5.92470068359375,0.09598550854921341,0.0008400852488208329,-0.01167586127910763
1772639203059746600,5.93474658203125,0.09523790505230426,0.006769678510489757,-0.006559385915054008
1772639203069791200,5.944791259765625,0.07877776863873004,-0.001807464409674867,0.00003836838216520846
1772639203079836400,5.95483642578125,0.09164777160584926,-0.0033034454383392585,-0.0004699190666899085
1772639203089881300,5.96488134765625,0.092246906542778,0.008434158248655147,0.014126944225654005
1772639203099926500,5.974926513671875,0.08102467078268527,-0.007043572110758395,0.003406931499810889
1772639203109972500,5.984972412109375,0.09075111502707003,-0.0007739880386914592,0.007017504946095868
1772639203120017400,5.995017333984375,0.07743278377056122,-0.000986071303236531,0.005016896580252796
1772639203130062300,6.005062255859375,0.10002806193828583,0.0023383056128106544,0.000701572398096323
1772639203140107500,6.015107421875,0.10047755927145481,-0.002018393471816671,0.0011979502134490758
1772639203150152400,6.02515234375,0.09419277991354465,-0.0038464662738580953,-0.00944152635578066
1772639203160198400,6.035198486328125,0.10062778139710425,-0.003828252480443916,-0.0044352881668601185
1772639203170243600,6.04524365234375,0.09060206194519996,-0.002006156186395674,0.0027745975461788475
1772639203180288300,6.055288330078125,0.095689740473032,0.01757154199637589,0.008579502698965371
1772639203190333400,6.06533349609375,0.10122633181214331,0.004037242459715344,0.0008315280538517981
1772639203200379400,6.07537939453125,0.09224866010844707,-0.005308388627649401,0.0027006920597515997
1772639203210424300,6.08542431640625,0.09479249937236309,0.004858406666468363,0.006111231155600399
1772639203220469500,6.095469482421875,0.09105097475647926,0.005578948626515921,-0.003981114658573642
1772639203230514200,6.10551416015625,0.0895545987188816,0.0002469342405733187,-0.013070978032471611
1772639203240559400,6.115559326171875,0.09149988756775855,-0.0067441353605681795,-0.015033090151986107
1772639203250605300,6.125605224609375,0.09449205512106418,0.01105612422885606,0.01317831086446531
1772639203260650500,6.135650390625,0.08461480422914028,0.00804670471747231,0.0012271671747788786
1772639203270695400,6.1456953125,0.08177168975770473,-0.0023299721801275154,0.004626536422641948
1772639203280740600,6.15574072265625,0.07982640090882778,0.000785189852718031,0.010013773285783827
1772639203290785300,6.165785400390625,0.08356734100282191,0.005363967297875205,0.004798212328273803
1772639203300831200,6.175831298828125,0.0958376245111227,-0.0035139024305564817,0.00042559586777351794
1772639203310876400,6.18587646484375,0.09389175114035606,0.0030252501222887075,0.010454237929126246
1772639203320921300,6.19592138671875,0.09479074580669403,0.0031266458330181193,-0.004118623433122411
1772639203330966500,6.205966552734375,0.09404138874411583,0.0047693875217664754,-0.008887162142340093
1772639203341012500,6.216012451171875,0.09149754948019981,-0.007092762710215174,-0.002730429610889405
1772639203351057400,6.226057373046875,0.09134791187644005,-0.0002854076540155802,-0.0007965298057068139
1772639203361102300,6.236102294921875,0.08416472237408161,-0.0041485185311757955,0.0009566522708628326
1772639203371147500,6.2461474609375,0.08895371021628379,0.00734310418824898,0.007248792951321229
1772639203381192400,6.2561923828125,0.10167349105775356,0.002981296816130634,-0.003754877287801355
1772639203391238400,6.26623828125,0.08790683151185512,-0.001252959203161299,0.0025194902739487587
1772639203401283600,6.27628369140625,0.09838029473125934,-0.0020517506062577013,0.004082483540661633
1772639203411328300,6.286328369140625,0.0989794296681881,-0.006157990052664535,0.01070212087612599
1772639203421373400,6.29637353515625,0.09299392551779746,-0.0006224233393266331,0.0029204448908101764
1772639203431418400,6.30641845703125,0.0889531256943941,-0.0020673066517047116,0.003638420434435829
1772639203441464300,6.31646435546875,0.08266834633648396,0.0028931476043973815,-0.0017527345519978551
1772639203451509500,6.326509521484375,0.08670914615988731,0.003408341430540895,-0.008909090846357867
1772639203461554200,6.33655419921875,0.09149754948019981,-0.0026515653923765057,-0.0009402856579516082
1772639203471599400,6.346599365234375,0.08416647593975067,0.0014199595044978195,0.00004625942767597735
1772639203481645300,6.356645263671875,0.10047697474956511,0.014379641486733452,0.004262890742020681
1772639203491690500,6.3666904296875,0.08745850322246551,0.013777607914886901,-0.0018843067761044948
1772639203501735400,6.3767353515625,0.08162322119772433,-0.0020515222773945423,-0.002266757621895522
1772639203511780600,6.386780517578125,0.09883154563009738,0.005869501671462785,0.000573096313374117
1772639203521825300,6.3968251953125,0.09793372000753879,0.0012009835623961406,0.003568971927417442
1772639203531871200,6.406871337890625,0.09104980571269988,-0.005710475755672087,0.01607964006285183
1772639203541916400,6.41691650390625,0.08865560405254364,0.009562733020322048,0.0036802959479391574
1772639203551961300,6.42696142578125,0.07997603851258754,0.00012877747882157563,-0.0008496299661230295
1772639203562006500,6.437006591796875,0.0961380687624216,0.00560940712603915,-0.0017692472953815012
1772639203572052500,6.447052490234375,0.08895604830384254,-0.004966623701984645,-0.004269019088707864
1772639203582097400,6.457097412109375,0.0922474910646677,0.0010301907186425524,-0.008198367027426138
1772639203592142300,6.467142333984375,0.08775836295187472,0.010701405065139988,0.007786416092514991
1772639203602187500,6.4771875,0.08805822268128395,0.00034806508982146623,-0.005931883400166407
1772639203612232400,6.487232421875,0.08401800737977028,0.012717447320488282,0.0003901318287476897
1772639203622278400,6.4972783203125,0.08521569273173808,-0.003912027481981203,0.0023684187649283556
1772639203632323600,6.507323486328125,0.08835691336691379,-0.0005876768237532815,-0.002235777961742133
1772639203642368300,6.5173681640625,0.09449205512106418,0.005490324490747297,-0.001058349946513772
1772639203652413400,6.527413330078125,0.06516308478415012,0.007420773105163243,0.0034613468344788997
1772639203662458400,6.537458251953125,0.0873106191843748,0.0015864517741138115,-0.0043854028768371784
1772639203672504300,6.54750439453125,0.09030337125957012,-0.004059116935628116,0.0029406291623134163
1772639203682549500,6.557549560546875,0.07025251687765122,0.002492646791151492,0.005736379094375297
1772639203692594200,6.56759423828125,0.08162555928528309,-0.0035054753830394475,0.0061028469197452065
1772639203702639400,6.577639404296875,0.09599135376811027,0.001497485715872608,0.002531527771614492
1772639203712684300,6.587684326171875,0.1015273605853319,0.009478475674061336,-0.0052735930213704705
1772639203722730500,6.59773046875,0.08491758656799793,0.006619092771125724,-0.0039465000029187645
1772639203732775400,6.607775390625,0.08042845845520497,0.004136596339585958,-0.006166139680612832
1772639203742820600,6.617820556640625,0.08761106343567371,0.007729897849017288,0.0008689100553281604
1772639203752864800,6.62786474609375,0.08342121053040027,0.010343783841573168,-0.0006161226043477654
1772639203762910700,6.63791064453125,0.08177519688904285,0.005634592941289884,0.004926624480914324
1772639203772956000,6.647955810546875,0.0837204857379198,-0.00720460789136705,-0.0016757968582678585
1772639203783000800,6.658000732421875,0.0754904175311327,-0.0011099300075235077,0.014051623100275173
1772639203793046000,6.6680458984375,0.08117723099589347,-0.0008610207222838653,-0.0025017536878585815
1772639203803090700,6.678090576171875,0.09823591782450676,0.004943681217814446,-0.01445308004063554
1772639203813137000,6.688136962890625,0.08476853348612785,-0.0010636591634043725,-0.007457430733321234
1772639203823181800,6.698181884765625,0.08641454712748527,0.00791139246658713,0.0027374347404111174
1772639203833227000,6.70822705078125,0.10332359635233879,0.003814451142310281,0.007546643386734649
1772639203843272000,6.71827197265625,0.09090367524027824,0.0013447679557488299,0.0028731077509000897
1772639203853317000,6.728317138671875,0.08072890270650386,0.0030476925662485882,0.000972708356520161
1772639203863363000,6.738363037109375,0.07788520371317863,-0.003774524415654014,0.005869960612477734
1772639203873407700,6.74840771484375,0.0780348413169384,0.012614153626083861,-0.004765323838824406
1772639203883453000,6.758452880859375,0.09644143562316894,0.006609936783713056,0.001812383184209466
1772639203893497900,6.768497802734375,0.09389759635925292,0.0049755285276478385,0.012433931371103971
1772639203903544000,6.7785439453125,0.08177753497660159,0.0076342177805549,-0.005643367048678919
1772639203913589000,6.788589111328125,0.08566752815246581,-0.0057147603467892615,0.0006223696820437908
1772639203923634000,6.798634033203125,0.09240122032165526,0.008104998788703233,-0.006582346665533259
1772639203933678800,6.808678955078125,0.07594166842997074,-0.01393486142787733,0.0028970000831410286
1772639203943724000,6.81872412109375,0.09883622180521488,-0.005816205719046411,-0.009057002283912152
1772639203953770000,6.82877001953125,0.09883622180521488,-0.0002330118881422095,-0.0005122421047650277
1772639203963815000,6.83881494140625,0.09150456374287605,0.0025784853147895774,-0.008415270314272492
1772639203973860000,6.848860107421875,0.09180383895039558,0.003159207241371041,-0.0007418130769394338
1772639203983904800,6.85890478515625,0.08402326807677746,0.011197834254486951,-0.00158804550957866
1772639203993950000,6.868949951171875,0.08432312780618667,-0.0041847760130011005,-0.006189812817145138
1772639204003996000,6.878995849609375,0.08611819452941417,-0.00555590624846809,0.0075209152904339134
1772639204014040800,6.889040771484375,0.08896072447896003,0.007687841955712065,-0.0048495132572483265
1772639204024086000,6.8990859375,0.09314999286234378,0.00922134540810366,0.006050121218664571
1772639204034130700,6.909130615234375,0.09374854327738284,0.011026245113823097,0.007965626850631088
1772639204044177000,6.919177001953125,0.08701485110819339,0.004454935865534935,0.004537424233928323
1772639204054221800,6.929221923828125,0.08701485110819339,0.010703107256814837,-0.011182497404748573
1772639204064267000,6.93926708984375,0.07818564796447754,-0.005070138875386328,-0.010170900076255202
1772639204074312000,6.94931201171875,0.0983867244720459,0.0032984438945917642,0.006235944380657747
1772639204084357000,6.959357177734375,0.08821078289449215,-0.00477342780100007,0.002718081585969776
1772639204094403000,6.969403076171875,0.09000584961771964,-0.005788910715922247,-0.006727773885056376
1772639204104447700,6.97944775390625,0.08536649937927722,0.0019131378616555593,0.0017368337299674748
1772639204114493000,6.989492919921875,0.09284779504537582,-0.006128747975159786,-0.0003231401402968913
1772639204124537900,6.999537841796875,0.09135024996399879,0.001946868884610012,0.003044865854922682
1772639204134583000,7.0095830078125,0.08207213400900364,0.008222567032810183,0.009697318614600227
1772639204144629000,7.01962890625,0.0730938777834177,0.009857707082881825,-0.01530669206213206
1772639204154674000,7.029673828125,0.0917985782533884,0.000563015594065655,0.0011168752007186412
1772639204164718800,7.03971875,0.09434183299541472,0.0006927086716284975,0.009624755701888352
1772639204174764000,7.049763916015625,0.08386778525412082,-0.001003705141338287,-0.0059254901919979595
1772639204184809000,7.05980908203125,0.09733516959249973,-0.004168262127973139,0.002024509831238538
1772639204194855000,7.06985498046875,0.0952408276617527,0.0018909368754684692,0.004922660691849887
1772639204204900000,7.079900146484375,0.08880641070008277,-0.005420439304778119,-0.016146047229412944
1772639204214944800,7.08994482421875,0.10287234545350074,-0.00039593309433839745,-0.008365878214593976
1772639204224990000,7.099989990234375,0.0925479353159666,-0.0022658620019297814,-0.0006854889129754156
1772639204235036000,7.110035888671875,0.08955576776266097,0.00415678803177725,-0.004812158655235543
1772639204245080800,7.120080810546875,0.08521686177551746,0.007483298110228497,0.0009508709840476512
1772639204255126000,7.1301259765625,0.09434592464864254,0.004385259029653389,-0.0025434465382713823
1772639204265170700,7.140170654296875,0.09539280335307121,-0.0011735555577091872,0.0014612590584438293
1772639204275216000,7.1502158203125,0.09075345311462879,-0.0002697368733148323,-0.0014369466010946779
1772639204285261800,7.16026171875,0.09045476242899894,0.0017066703454998787,-0.0028764961512293664
1772639204295307000,7.17030712890625,0.08282382915914058,0.0016714705971331567,-0.01059549129703082
1772639204305352000,7.18035205078125,0.09090425976216793,0.0037842055594519476,-0.004278225308470428
1772639204315397000,7.190397216796875,0.08222527874410152,0.009887119265389628,-0.0030959567213431
1772639204325443000,7.200443115234375,0.08192658805847168,0.003003377929664566,0.004555991937080398
1772639204335487700,7.21048779296875,0.08611585644185543,-0.007291478461466613,0.010232338806753977
1772639204345533000,7.220532958984375,0.08955693680644035,-0.002276831491338089,0.013453447144571692
1772639204355577900,7.230577880859375,0.08282266011536121,-0.001078604999964591,0.0032187793834134934
1772639204365623000,7.240623046875,0.09165186325907707,-0.011830259539664257,-0.001983027043379843
1772639204375669000,7.2506689453125,0.10063070400655269,0.007486504989111562,0.008003410710906609
1772639204385714000,7.2607138671875,0.09584346973001956,0.004665223323571262,-0.0016178561259526758
1772639204395758800,7.2707587890625,0.09719079268574714,-0.00033488195208483375,-0.009439352665003389
1772639204405804000,7.280803955078125,0.11185586237609386,-0.002222580553451553,0.010693636175571009
1772639204415849000,7.290848876953125,0.0864174697369337,0.0009559204768564086,0.004262808543629944
1772639204425895000,7.30089501953125,0.0925526114910841,-0.0031697394810063996,-0.004750455063255504
1772639204435940000,7.310940185546875,0.0822264477878809,0.0019741855789761754,-0.005295750054251402
1772639204445984800,7.32098486328125,0.10586860466003417,-0.0015783883403113577,-0.0014836718196514992
1772639204456030000,7.331030029296875,0.09240063579976558,0.0008653966449463041,-0.009921857218630611
1772639204466076000,7.341075927734375,0.09718903912007808,-0.0016827831506583605,-0.00017345687076449393
1772639204476120800,7.351120849609375,0.08731295727193356,-0.007577561398094985,0.0065147339225746686
1772639204486166000,7.361166015625,0.07040390804708004,-0.00015503643972915597,-0.003515908299619332
1772639204496210700,7.371210693359375,0.09180150086283684,-0.007091175253794062,-0.005947437162324785
1772639204506256000,7.381255859375,0.08461889588236808,-0.005904743089847033,0.011834896898875012
1772639204516301800,7.3913017578125,0.08821019837260245,-0.0052976760082121465,-0.0006008885025978088
1772639204526347000,7.401346923828125,0.09225099819600581,0.00385528947195271,-0.0047325997461564835
1772639204536392000,7.411391845703125,0.09793722713887691,-0.0004120302791910944,0.004904604445351287
1772639204546437000,7.42143701171875,0.07998013016581534,0.005638406604126794,0.01051785948355682
1772639204556481800,7.431481689453125,0.0819254190146923,-0.004614872813489637,0.0007414751502219587
1772639204566527700,7.44152783203125,0.08686287541687487,-0.005946495876586413,0.005019727858155965
1772639204576573000,7.451572998046875,0.07743629090189934,-0.005261070895692683,-0.0017971399493049828
1772639204586617900,7.461617919921875,0.09224982915222645,-0.011734708477009553,-0.005589755431609228
1772639204596663000,7.4716630859375,0.09135200352966785,-0.006144034021726111,-0.005703636735398322
1772639204606709000,7.481708984375,0.07938157975077628,0.0074252962999424195,-0.002381807969463989
1772639204616754000,7.49175390625,0.08491817108988761,-0.0008204797909857006,0.006178770833322778
1772639204626798800,7.501798828125,0.10227671764791012,0.009241112979431636,-0.009052527038194239
1772639204636844000,7.511843994140625,0.09045593147277832,0.0014895427255454704,-0.0019483393224887548
1772639204646889000,7.521888916015625,0.09898469036519526,0.0037634299161931266,-0.007241888286499306
1772639204656935000,7.531934814453125,0.08925766159892082,0.00580809262371622,-0.00760278488760814
1772639204666980000,7.54197998046875,0.084469842800498,0.017840644686273298,-0.007964950997196137
1772639204677024800,7.552024658203125,0.08162731285095215,0.00797124488230911,-0.004429908738844097
1772639204687070000,7.562070068359375,0.07624094363749027,-0.007478107053524581,-0.007391644621267914
1772639204697115000,7.572114990234375,0.06905833865702152,-0.00221914762899396,0.004883981782430782
1772639204707160800,7.582160888671875,0.08910919303894042,0.003949992292880779,0.007692883457010612
1772639204717206000,7.5922060546875,0.09614216041564941,0.00461006477845367,0.0008062200826592742
1772639204727250700,7.602250732421875,0.08821195193827151,-0.00351541739256354,0.0017821981084998697
1772639204737296000,7.6122958984375,0.0943470936924219,0.005137370879965601,-0.002419537030812353
1772639204747341800,7.622341796875,0.0968921020001173,0.0026668691344297257,0.007248016633186489
1772639204757386800,7.63238671875,0.08222761683166027,0.0057893742235144595,-0.004081679823063314
1772639204767431700,7.642431640625,0.08806406790018081,-0.0003412837225856492,0.002511288701184094
1772639204777476600,7.6524765625,0.09330079950988292,0.007771231081470614,0.000976772610284388
1772639204787521500,7.662521484375,0.0925520269691944,0.006765826602568268,-0.0032588191328570245
1772639204797567500,7.6725673828125,0.08297638937234877,0.003802990175024024,0.003984603523602709
1772639204807612700,7.68261279296875,0.09285247122049331,0.005017106071984744,0.0004048270743805915
1772639204817657600,7.69265771484375,0.08507190034687519,0.009274333687376929,-0.0005757357950322329
1772639204827702500,7.70270263671875,0.08986088818907738,-0.0004648724279919406,-0.0012351860844530165
1772639204837747500,7.71274755859375,0.08971183510720729,-0.0002295167440694058,-0.008058922024117782
1772639204847793700,7.722793701171875,0.08701835823953151,0.004674867934751091,-0.016778180253645403
1772639204857838600,7.732838623046875,0.08297755841612815,-0.0020813991091388744,0.0005221789768896997
1772639204867883800,7.7428837890625,0.10093348634541034,-0.004135644208226585,-0.003093079777667299
1772639204877928700,7.7529287109375,0.09569617021381854,-0.0014397653209103735,0.004078090493334457
1772639204887974700,7.762974609375,0.09405074109435081,-0.0032873482534865614,-0.007688006352493539
1772639204898019600,7.77301953125,0.09360182828307151,0.0012681459266721503,-0.006358575246483087
1772639204908064500,7.783064453125,0.09016074791848659,-0.017100995025312295,0.00150781074706465
1772639204918109700,7.793109619140625,0.09001169483661652,-0.0008688843683310551,-0.0055018305529840284
1772639204928154600,7.803154541015625,0.08627075474262237,0.006645730757946148,-0.0014242697826121003
1772639204938200800,7.813200927734375,0.09090952045917511,-0.007236463192710652,-0.001566820058459416
1772639204948245500,7.82324560546875,0.08522446056008338,0.00748098456802254,-0.010458128652954474
1772639204958290700,7.833290771484375,0.09420271678566933,0.011668745410087285,0.0019867168378084896
1772639204968335600,7.843335693359375,0.0855249048113823,0.01095477132978849,0.003771161702321842
1772639204978380800,7.853380859375,0.09644844988584518,0.005303514948065276,0.0007733863921370357
1772639204988426800,7.8634267578125,0.09584931494891644,0.00888578417765093,-0.005552784422086551
1772639204998471700,7.8734716796875,0.08148410498797894,-0.002100983446554164,-0.002737836599210277
1772639205008516600,7.8835166015625,0.08986439532041549,0.006850127331312978,0.003628474429156631
1772639205018561500,7.8935615234375,0.1037806924700737,0.004413478193851188,-0.0008938527003396301
1772639205028607500,7.903607421875,0.0846270791888237,-0.004891475535719655,-0.016280258935177698
1772639205038652700,7.913652587890625,0.08747019366025924,-0.01644110520282993,-0.005247179938480257
1772639205048697600,7.923697509765625,0.09614917467832565,-0.0006676849698706064,-0.00044314065761864185
1772639205058742500,7.933742431640625,0.08103577669858932,-0.0015875483234791318,0.004164197874208912
1772639205068787500,7.943787353515625,0.0907616364210844,-0.00894539228148933,-0.00005659815859980881
1772639205078833700,7.953833740234375,0.09405424822568893,-0.002123469843820203,0.0004227737230248749
1772639205088878600,7.963878662109375,0.09046236121356487,0.004048051548097282,-0.012340490067144855
1772639205098923800,7.973923828125,0.09390461062192916,0.005770237410670961,0.012550287759769707
1772639205108968700,7.98396875,0.09046294573545455,-0.0004936355857062153,0.015705947912251574
1772639205119013600,7.994013671875,0.09031389265358447,0.0002992837698518997,-0.0008654485897626727
1772639205129059600,8.0040595703125,0.10003916785418987,0.0017577389498561386,0.002913211432425305
1772639205139104500,8.0141044921875,0.09165829299986362,-0.0018536136686743703,-0.0017186313529964534
1772639205149149700,8.024149658203125,0.09614800563454627,-0.001705835803505033,-0.00122353217927739
1772639205159194600,8.034194580078125,0.08163257354795932,-0.0009596804824104764,-0.004883552524168044
1772639205169240800,8.04424072265625,0.0879167683839798,-0.00037406489746936127,-0.005649522794829681
1772639205179285500,8.054285400390626,0.08612053261697292,-0.006233901408154633,-0.000652499958826229
1772639205189330700,8.06433056640625,0.08731704892516136,-0.004448940520410542,-0.00508314848318696
1772639205199375600,8.074375732421874,0.09898819749653338,-0.00037990783307759553,0.007138802371360361
1772639205209420800,8.0844208984375,0.09449848486185074,0.0017767067993409,0.0029220157933887094
1772639205219466800,8.094466796875,0.09165537039041519,-0.0029336131871707037,-0.010273985991394147
1772639205229511700,8.10451171875,0.07474632116556167,0.004216682117516757,-0.0020456348176579923
1772639205239556600,8.114556640625,0.08447276540994644,-0.0017291344807017594,-0.0018749818253330885
1772639205249601500,8.1246015625,0.09629413610696792,-0.0046223026346968255,0.009749578524800018
1772639205259646700,8.134646728515625,0.0894108063340187,0.0034836825346952534,0.008246772746415809
1772639205269692700,8.144692626953125,0.07863631434142589,0.008763600265575223,-0.00454041077545844
1772639205279737600,8.154737548828125,0.10138064559102059,0.009584769609727664,0.0018597842562012373
1772639205289782500,8.164782470703125,0.08372340834736823,0.003927691412816057,0.0033315738418139514
1772639205299827500,8.174827392578125,0.09045710051655768,-0.00110176725066558,0.009321808966249227
1772639205309873700,8.184873779296876,0.0891103620827198,0.00045340917741705197,0.014450732819922268
1772639205319918600,8.194918701171876,0.09135551066100597,0.004967996529274387,0.007738722759578377
1772639205329963800,8.2049638671875,0.09614332945942879,0.0007388459433626849,0.002322798658069223
1772639205340008700,8.2150087890625,0.0886614492714405,0.011839002251834608,0.003639114554179832
1772639205350053600,8.2250537109375,0.08492050917744635,0.0063864484924532,-0.006679925288492814
1772639205360099600,8.235099609375,0.08536942198872566,0.006946919932161108,-0.003101573611376807
1772639205370144500,8.24514453125,0.09210252963602543,0.0013350845286622642,-0.006030421004351228
1772639205380189700,8.255189697265624,0.09374737423360348,-0.009976102448295568,-0.006258768133819103
1772639205390234600,8.265234619140625,0.10197685791850089,0.012357397819461767,0.008763234368572011
1772639205400279600,8.275279541015625,0.09793605809509753,0.001997317576102796,-0.0006070442487485706
1772639205410325500,8.285325439453125,0.09688801034688949,-0.0026821180775557876,0.002659620263846591
1772639205420370700,8.29537060546875,0.0859644652724266,-0.007113119370010099,0.0050405331841669974
1772639205430415600,8.30541552734375,0.08177461236715317,0.0019199386368447448,-0.00003488865029066801
1772639205440460800,8.315460693359375,0.08716156610250472,-0.0023355765120737487,-0.00902462525111623
1772639205450506800,8.3255068359375,0.08776011651754378,0.0040771223789546635,-0.0034680688362102954
1772639205460551700,8.3355517578125,0.09180091634094714,-0.004213691580231534,0.004326083038188517
1772639205470596600,8.3455966796875,0.08267243798971176,-0.0012038810556696262,0.006062396178347989
1772639205480641500,8.3556416015625,0.08416764498353003,-0.007613435858252342,0.004870930504612624
1772639205490686700,8.365686767578126,0.08416822950541973,-0.008104169954929966,-0.0009011683571152389
1772639205500732700,8.375732666015624,0.07683598692119122,-0.005889252688948181,0.003148006568988785
1772639205510777600,8.385777587890624,0.07698504000306129,-0.004106768598547205,-0.005408690643124282
1772639205520822500,8.395822509765624,0.07668518027365208,0.0035508306284173156,-0.005050625319918617
1772639205530867500,8.405867431640624,0.0883563288450241,0.008983503793683484,-0.004836242783721536
1772639205540912600,8.41591259765625,0.10406710819602012,0.0008574673543509561,-0.0040261502435430885
1772639205550958600,8.42595849609375,0.08910393234193324,-0.005750122779470984,-0.000861028142971918
1772639205561003800,8.436003662109375,0.08132336146831512,0.004582604236903717,-0.0036411238481756296
1772639205571048700,8.446048583984375,0.07922785049378872,0.007772957818498252,-0.012966248149517922
1772639205581093600,8.45609375,0.08640987095236778,0.0040365888683445515,-0.006744670220930129
1772639205591139600,8.4661396484375,0.0923953751027584,0.011983392858318984,0.003591667816415429
1772639205601184500,8.4761845703125,0.09703414081931114,0.0023037263481295667,0.0028663218170870094
1772639205611229700,8.486229736328125,0.08820610671937465,0.001786398788759834,-0.0018470526387915013
1772639205621274600,8.496274658203125,0.08521393916606902,-0.0003071919400274055,-0.008704727380676194
1772639205631319600,8.506319580078125,0.08685995280742645,-0.003992946660262532,-0.011251498387195169
1772639205641365500,8.516365478515626,0.08371756312847137,-0.004552063538989751,-0.007646532697789371
1772639205651410700,8.52641064453125,0.09628712184429168,0.007113376239981152,-0.007951315197488292
1772639205661455600,8.53645556640625,0.09089958358705043,0.0015920464020833605,0.0015746745713520794
1772639205671500800,8.546500732421874,0.09434124847352504,-0.0039097322060843,0.00877993890820071
1772639205681545700,8.556545654296874,0.0840174228578806,0.013180366965878055,0.006022319896286353
1772639205691591700,8.566591796875,0.09868132350444793,0.018337059034244155,0.0003210212484467774
1772639205701636600,8.57663671875,0.08386661621034144,-0.0029069426634872795,0.006538991580996662
1772639205711681500,8.586681640625,0.08850538192689418,0.009812261647603009,-0.0037930904063396154
1772639205721726700,8.596726806640625,0.08880465713441371,0.008933040831636754,-0.004837046501319855
1772639205731772700,8.606772705078125,0.08671089972555637,0.0009725542345375288,0.004977961942506954
1772639205741817600,8.616817626953125,0.09389350470602512,0.00423047032674076,-0.005193266927311197
1772639205751862500,8.626862548828125,0.08985387392640114,-0.002895019330253126,0.0021934366573579606
1772639205761907500,8.636907470703125,0.0799777920782566,-0.002941806768425158,0.01611720472741872
1772639205771952600,8.64695263671875,0.08491641752421855,0.009940815364138688,0.0006002674480900168
1772639205781998600,8.65699853515625,0.08536533033549785,0.002195592652648338,-0.0056431295866612345
1772639205792043800,8.667043701171876,0.0912017814040184,-0.0038721561250742525,-0.009153731523500755
1772639205802088700,8.677088623046876,0.0932972923785448,-0.009646570241474545,0.00001866816785186529
1772639205812134000,8.6871337890625,0.08686229089498519,0.006578941140539246,-0.0004796184767968952
1772639205822178600,8.697178466796874,0.06815759042501449,0.002947004674994969,-0.0033337201331276444
1772639205832224500,8.707224609375,0.08491641752421855,0.004384530089757754,-0.004592387557867914
1772639205842269700,8.717269775390625,0.08566460554301739,0.0008404682704887818,-0.003695192122971639
1772639205852314600,8.727314697265625,0.08731003466248512,-0.003277003243518993,-0.002595149326045066
1772639205862359800,8.73735986328125,0.07668576479554176,-0.017427017817506565,-0.007103183068707585
1772639205872405800,8.74740576171875,0.07937164287865162,0.013487972751969937,-0.012370912604872136
1772639205882450700,8.75745068359375,0.019053660038113592,0.011915217284712707,-0.00026410342943854626
1772639205892495600,8.76749560546875,0.13187690614163874,-0.012204650376585777,0.005511173770064488
1772639205902540800,8.777540771484375,0.10359539903104305,-0.004433359358788584,0.01075689240382053
1772639205912585700,8.787585693359375,0.11407704555690287,-0.001021974304501782,0.0032559969881083813
1772639205922631700,8.797631591796875,0.11543372086286544,-0.0009050368188793071,0.0052347040493972595
1772639205932676900,8.8076767578125,0.06007423721253872,-0.0012978977483639026,-0.0014047613645438103
1772639205942721500,8.817721435546876,0.08506605512797832,-0.006809223927944549,0.001682801987789571
1772639205952766700,8.8277666015625,0.06037058981060981,0.011086987441289237,-0.01727828439604491
1772639205962811600,8.837811767578126,0.13115326804220676,-0.00011129205448087304,0.012167508120415732
