time,seconds_elapsed,z,y,x
1772731508070202600,0.10020263671875,0.25905133368074895,0.10057751251459121,0.5941461156655102
1772731508080230700,0.110230712890625,0.08023848884105682,0.21789207868799565,0.4848793929997831
1772731508090258700,0.1202587890625,0.053689504611492155,0.3676991937957704,0.45562173433341085
1772731508100286700,0.13028662109375,0.0426642527282238,0.4319989397488534,0.3524457297582179
1772731508110314500,0.140314453125,0.06662088237702846,0.4330965257272124,0.33608269704356786
1772731508120343800,0.15034375,0.1391688167154789,0.49216640820279717,0.22193433981612323
1772731508130371600,0.16037158203125,0.18239304141402243,0.5493175975754857,0.13958185449577867
1772731508140399600,0.170399658203125,0.11185995402932167,0.4563964450329542,0.20677951384745538
1772731508150427600,0.180427734375,0.11471417441666125,0.45674467394873497,0.3383976959876716
1772731508160455700,0.19045556640625,0.11462708065509795,0.5024069394491613,0.43928814690895374
1772731508170484500,0.200484375,-0.005328501546382904,0.38484161338508127,0.46395898924171924
1772731508180512300,0.21051220703125,0.11134323667883872,0.36620325614959,0.4398851629540324
1772731508190540300,0.220540283203125,0.34153263301253317,0.4318547089725733,0.4308292383823544
1772731508200568300,0.230568359375,0.39378246020972724,0.3710002811677754,0.4793837912581861
1772731508210596400,0.240596435546875,0.3467313706994056,0.35710268871858714,0.47381453975848853
1772731508220625200,0.250625244140625,0.2929547723263502,0.32226021565720436,0.340606896469742
1772731508230653200,0.260653076171875,0.27933541229665276,0.21343422249630092,0.35039179290309547
1772731508240681200,0.27068115234375,0.33523733226060864,0.06946048971712589,0.4391223618879914
1772731508250709200,0.280709228515625,0.4763777413100004,0.11425561699420213,0.365545449827984
1772731508260737300,0.2907373046875,0.5952724162817001,0.012138181561231613,0.2837538132607937
1772731508270766300,0.300766357421875,0.7403466576486826,-0.3488333114147186,0.5178504461660981
1772731508280794000,0.310794189453125,0.7041355265825986,-0.3652081076323986,0.596782382453233
1772731508290822100,0.320822265625,0.49026773497462267,-0.234358498711884,0.5900142765577883
1772731508300850200,0.33085009765625,0.26152853744924065,-0.22983225345909594,0.41541773423887784
1772731508310878200,0.340878173828125,0.07022387530505657,-0.2214461179077625,0.3704384095013141
1772731508320907300,0.3509072265625,-0.010936404556035995,-0.23454320762902497,0.3242404296889901
1772731508330935300,0.360935302734375,0.15074819535017012,-0.366893284240365,0.2978430558245629
1772731508340963000,0.370963134765625,0.3396270916521549,-0.43169864162802696,0.28446882966235276
1772731508350991400,0.380991455078125,0.4223486294806003,-0.3351815104201436,0.11685571649000048
1772731508361019100,0.39101904296875,0.43023909046947956,-0.2562882987082004,0.03577478547543287
1772731508371048200,0.401048095703125,0.3301630977362394,-0.31183658292889593,0.09364595968574285
1772731508381076200,0.411076171875,0.3871493058055639,-0.35510201642066236,0.11313158140033483
1772731508391104300,0.421104248046875,0.5300432805240154,-0.036136604525148865,0.007035999584011733
1772731508401132300,0.43113232421875,0.10969079329669475,-0.14781418772488833,-0.24074030870348215
1772731508411160300,0.441160400390625,-0.2553781981259584,-0.282956817664206,-0.25451350758802144
1772731508421189400,0.451189453125,0.1554074193328619,-0.10760317336767912,-0.49508879845552145
1772731508431217200,0.461217041015625,0.19874971745312212,-0.1633957877382636,-0.3639725744880736
1772731508441245400,0.471245361328125,0.060223874816298484,-0.3274140912890434,-0.07790639263167977
1772731508451273200,0.481273193359375,-0.3286421717792749,-0.28248978467434643,-0.026009068666584787
1772731508461301200,0.49130126953125,-0.4718728311061859,-0.12473258734494447,-0.12347739965207874
1772731508471330000,0.501330078125,-0.28794249712228775,0.2602095638051629,-0.438856404428184
1772731508481358300,0.5113583984375,-0.02461947747170925,0.4631681311249733,-0.47189226645901794
1772731508491386000,0.52138623046875,-0.15732932730615137,0.4403995422169566,-0.10033621457200496
1772731508501414400,0.531414306640625,-0.49613984187841415,0.39872488504797216,-0.08131937941294164
1772731508511442200,0.541442138671875,-0.5273766916632652,0.3028773236647248,-0.2661473198236897
1772731508521471200,0.55147119140625,-0.2593751588076353,0.1276066814765334,-0.3494920310517773
1772731508531499300,0.561499267578125,0.015137363377213477,0.08752396967411041,-0.36217140681762244
1772731508541527300,0.57152734375,-0.0026829554736614225,0.1909165396094322,-0.341916919622384
1772731508551555000,0.58155517578125,-0.23632453808784484,0.16606325338184832,-0.24450141480267046
1772731508561583400,0.591583251953125,-0.3086830873340368,0.1446472481265664,-0.18190211609192192
1772731508571612200,0.601612060546875,-0.13014146065115928,0.15257979469150304,-0.11784812506083399
1772731508581640200,0.61164013671875,0.09056757515370845,0.10577069724351167,-0.14581483060121536
1772731508591668200,0.621668212890625,0.29437691408395766,0.058144730454683304,-0.14482415732974185
1772731508601696300,0.6316962890625,0.352053442505002,0.22220453505963086,-0.1082150399220176
1772731508611724000,0.64172412109375,-0.10951485220789908,0.28890257432609795,-0.16738823664160443
1772731508621753000,0.651753173828125,-0.039245384195446965,-0.01866027680635452,-0.41819815873764454
1772731508631781400,0.661781494140625,0.16860417003631592,0.03412555696368217,-0.12347186496043577
1772731508641809200,0.67180908203125,0.46763913905918597,-0.06734072108417749,-0.1470536242817063
1772731508651837400,0.68183740234375,0.6270026025414467,-0.15522709432989357,-0.23990550184715537
1772731508661865200,0.691865234375,0.59971127551198,-0.1471849499106407,-0.1992407341067679
1772731508671894300,0.701894287109375,0.4445405875444412,-0.14601210673898457,-0.21837255568131803
1772731508681922300,0.71192236328125,0.5913818385839462,-0.38611791693121195,-0.25653734156582503
1772731508691950300,0.721950439453125,0.7146656884253024,-0.2285521505206823,-0.07408686174298636
1772731508701978000,0.73197802734375,0.6852899563372135,-0.17756956678032873,0.10871765568191184
1772731508712006400,0.74200634765625,0.5504892717033625,-0.3794640119999647,-0.22868883731132372
1772731508722035200,0.75203515625,0.48985097086727614,-0.30909780561476946,-0.30782731075491754
1772731508732063200,0.762063232421875,0.4211877690076828,-0.29461510675400493,-0.11566407728632912
1772731508742091300,0.77209130859375,0.2609077752023935,-0.2735027606204152,0.029648132988414726
1772731508752119300,0.782119384765625,0.1668739852428436,-0.21620675594955682,0.0011902783636469393
1772731508762148000,0.792148193359375,-0.01629705480635166,-0.16061755519658327,-0.1605032629008405
1772731508772176400,0.80217626953125,-0.24297347458302973,-0.2091135828182101,-0.32370380206163973
1772731508782204200,0.8122041015625,-0.3761486038416624,-0.1361573599398136,-0.13809543359661475
1772731508792232200,0.822232177734375,-0.308335881331563,-0.04941051211804151,0.13486213249750434
1772731508802260200,0.83226025390625,-0.12390285852253437,0.00329348858743906,0.1892409345474094
1772731508812289300,0.842289306640625,-0.07125906357169151,0.27810937763303517,-0.0338888255983591
1772731508822317000,0.852317138671875,-0.5694155059695244,2.781396558669209,-2.6453400287553666
1772731508832345300,0.862345458984375,-0.45170799495577807,1.2293573782995342,-2.0546718913987276
1772731508842373000,0.872373046875,-1.4225234504014252,-1.4570856452167034,0.24074125855155287
1772731508852401200,0.882401123046875,-1.6581494848310947,-0.7468804433315992,0.736671110941097
1772731508862430200,0.89243017578125,-0.5320511132150888,0.7366846280097961,0.2427059096880257
1772731508872458200,0.902458251953125,0.060219783163070674,0.7707195840805768,0.2443836336418986
1772731508882486300,0.912486328125,-0.16871172206401824,-0.14567279178202153,0.5550296916119754
1772731508892514300,0.922514404296875,-0.05836041903197765,-0.5749935983628034,0.6006809973269701
1772731508902542300,0.932542236328125,0.6172469322025775,-0.28931670808494087,0.3002289280477911
1772731508912571100,0.942571044921875,1.0587222869575024,0.0031692776858806607,0.06621047494523227
1772731508922599400,0.952599365234375,0.6885463277846574,-0.06977963866889476,0.04178673924133181
1772731508932627200,0.962627197265625,0.17840484856069086,-0.15605360828191042,0.056869815148040646
1772731508942655200,0.9726552734375,0.01596153924167156,-0.04039689231812954,-0.07880414518900215
1772731508952683300,0.982683349609375,-0.14963701923787592,0.08744476695805788,-0.22860439216457307
1772731508962712300,0.99271240234375,-0.289290404599905,0.03412351113706827,-0.16361673701256513
1772731508972740000,1.002739990234375,-0.3356798153311014,0.009912322205305099,-0.00036751813814043995
1772731508982768400,1.012768310546875,-0.2083937441110611,-0.06539250962585211,0.13922989925295115
1772731508992796200,1.022796142578125,0.08787000663280486,-0.1833709465354681,0.09768025670312344
1772731509002824200,1.03282421875,0.2800742479652166,-0.21766776841282842,0.13936039376482368
1772731509012853200,1.042853271484375,0.21409984679818153,-0.20438217038214204,0.13563048652149737
1772731509022881300,1.05288134765625,0.07785656214058399,-0.19151041384935377,0.25585962496735154
1772731509032909000,1.062908935546875,-0.0005190554380416869,-0.12948591935187578,0.17133805197961627
1772731509042937300,1.072937255859375,-0.028234745359420773,-0.07487929989546536,0.0870904736276716
1772731509052965000,1.082965087890625,-0.10203180297613143,-0.034661855797469616,0.08207045350857078
1772731509062994200,1.092994140625,-0.14863865585029123,-0.0020151392146945,-0.004147694263979792
1772731509073022200,1.103022216796875,-0.12688275111615657,0.12183306651115416,-0.04691270395293832
1772731509083050200,1.11305029296875,-0.15968319695591926,0.1951210055619478,0.15275858532451092
1772731509093078000,1.123078125,-0.19133797989189624,0.2415975100547075,0.15948555549196897
1772731509103106300,1.133106201171875,-0.17889467790424823,0.23597061008363962,0.04493066329024732
1772731509113135400,1.14313525390625,-0.10464169321358203,0.20843992134034633,-0.04927044606022536
1772731509123163100,1.1531630859375,0.0040928222715854645,0.29637802477329966,-0.05241086297780275
1772731509133191400,1.16319140625,0.12721943572461605,0.3564966856494546,-0.09297368644736706
1772731509143219200,1.17321923828125,0.2645820798009634,0.2966346298828721,-0.07571019776165484
1772731509153247200,1.183247314453125,0.3115150958895683,0.19796148968487975,-0.0748707512628287
1772731509163276300,1.1932763671875,0.2713449980646372,0.44989539257586,0.35681627299264074
1772731509173304300,1.20330419921875,0.2706301277935505,0.22497779916524885,0.15390169094502926
1772731509183332600,1.21333251953125,0.25932430540323254,-0.008280337089300155,-0.11210538015775381
1772731509193361000,1.22336083984375,0.38780630840957164,0.16921616445481777,-0.11519026749581097
1772731509203388700,1.233388671875,0.5959568914145231,0.0770829474195838,-0.21244126593619583
1772731509213417700,1.243417724609375,0.6036328328698873,-0.040139994947612286,-0.22475305049866437
1772731509223445800,1.25344580078125,0.5455623366951942,-0.055446577411890026,-0.06829721809141337
1772731509233473800,1.263473876953125,0.49790743607282634,-0.23885960952341556,-0.03400266123637557
1772731509243501600,1.27350146484375,0.868544583016634,-0.0798190943852067,-0.2305502655353397
1772731509253529900,1.28352978515625,1.055417984715104,-0.14092559725493192,-0.3738255677215755
1772731509263558700,1.29355859375,0.9675251817286014,-0.25401860021054745,-0.4448856746550649
1772731509273586700,1.303586669921875,1.3111825518101452,-1.1693266879677773,-1.3050889111101627
1772731509283614700,1.31361474609375,0.8526970255434513,-3.0288062621340153,-2.133425110118091
1772731509293642800,1.323642822265625,-0.2986088525652885,-1.229115386237204,-0.6740077340181917
1772731509303670500,1.33367041015625,-0.20173720883131027,1.1263184441074727,0.9144078509818762
1772731509313699800,1.343699951171875,-0.1717629263281822,1.4969108751267193,1.538786607825756
1772731509323728000,1.353727783203125,-0.20869185027480125,1.2376990901872515,1.6284849989295005
1772731509333755600,1.363755615234375,0.10216332040131092,0.7271347093760967,1.3370792096108197
1772731509343784000,1.373783935546875,0.26804712556302546,0.26137860758453607,1.067376791121438
1772731509353811700,1.383811767578125,0.28355858294963837,-0.047268531653285026,0.6026638417072594
1772731509363840800,1.3938408203125,0.13940963973402976,-0.15644523794800042,0.11491780722998082
1772731509373868800,1.403868896484375,-0.08905600154697894,-0.19742606763392687,0.027452216679602858
1772731509383896800,1.413896728515625,-0.045347792723774906,-0.13906214147061108,0.05773096202202141
1772731509393924600,1.423924560546875,0.08811433678269386,0.08155570891946554,0.22367168500274417
1772731509403953000,1.433952880859375,0.054361704784631724,0.3180459589630365,0.347539691407606
1772731509413981700,1.443981689453125,0.12036825465559958,0.3284288212895393,0.30234971959404644
1772731509424009700,1.454009765625,-0.03335223450362682,0.15206395412385462,0.24540442805700002
1772731509434037800,1.464037841796875,-0.16399346137046814,-0.06356470967680215,0.1975958712428808
1772731509444065800,1.474065673828125,-0.1623036085873842,-0.09972031116336584,0.2277716676674783
1772731509454093600,1.484093505859375,-0.3175292416125536,0.02061228765696287,0.33920733187012375
1772731509464123000,1.494122802734375,-0.11258417665064334,-0.03362403718233108,0.022442571824043987
1772731509474150700,1.504150634765625,-0.21535247720777986,0.07049655476659536,0.012679960287734866
1772731509484178700,1.5141787109375,-0.3957201502740383,0.11248013175427914,-0.08986395692899822
1772731509494206700,1.524206787109375,-0.47771688095927234,0.11719254722893237,-0.15384791493117808
1772731509504234800,1.53423486328125,-0.5576081637978554,0.09938859499096869,-0.022545959133282303
1772731509514263600,1.544263671875,-0.6013181261867284,-0.04503156638145447,0.098804730688408
1772731509524291800,1.554291748046875,-0.49802141784131526,-0.033005320762097834,0.34308417330347
1772731509534319600,1.564319580078125,-0.3944090676754713,-0.036303485524654386,0.23631021730154753
1772731509544347600,1.57434765625,-0.4602326621949672,0.058823360368609426,0.3266479292221367
1772731509554375700,1.584375732421875,-0.3972106810927391,0.05532616590261459,0.23133228275850415
1772731509564404700,1.59440478515625,-0.27030338005721566,0.05192366398274898,0.1114599218610674
1772731509574432800,1.604432861328125,-0.18387246631681917,0.060959203353524206,0.12714878164120016
1772731509584460800,1.614460693359375,-0.1535427945047617,0.09690466922074556,0.15116269443519412
1772731509594488600,1.624488525390625,0.04120294800400734,0.10850012220740318,0.19001966383494437
1772731509604516900,1.634516845703125,0.2509375853300094,0.0788362208276987,0.12432714834921062
1772731509614546000,1.6445458984375,0.2682628141403198,0.07716448822319508,0.10431509160771965
1772731509624573700,1.65457373046875,0.2100181304425001,0.10744564471840858,0.027662060038000345
1772731509634601700,1.664601806640625,0.2746627443104982,0.12571370733678341,-0.06084178751893341
1772731509644629800,1.674629638671875,0.3720657184422016,0.11611410434246063,-0.08421696401797235
1772731509654657800,1.68465771484375,0.3533428977936506,0.10394494312107562,-0.07948299429863691
1772731509664686600,1.6946865234375,0.28167233081161974,0.08724486047178506,-0.10097630257382989
1772731509674715000,1.70471484375,0.19366496153473853,0.05202244818210602,-0.06654525985755026
1772731509684742700,1.71474267578125,0.12454524807929993,0.08124883492738008,-0.06627228813506662
1772731509694770700,1.724770751953125,0.16798457683324813,-0.016182780776917934,-0.02742386736795306
1772731509704798700,1.734798828125,0.24112813897728919,-0.08186725908666849,0.03319134485349059
1772731509714827800,1.744827880859375,0.41467327254712577,-0.2113765593141317,0.21767207926176488
1772731509724855600,1.75485546875,0.5675280847877263,-0.734791946130991,0.7493450798794626
1772731509734883800,1.7648837890625,0.9007482320070266,-0.2901514053434133,0.43947497471794483
1772731509744911600,1.77491162109375,0.7563403455942869,0.5435179713860154,-0.2864025011386722
1772731509754940000,1.78493994140625,0.2127981165498495,0.43419045844376086,-0.7671583114024251
1772731509764968700,1.79496875,0.02880582324564457,0.14813976641744375,-0.719744526059553
1772731509774996700,1.804996826171875,-0.013441665375232696,0.0028580197796225547,-0.42852709891982377
1772731509785024800,1.815024658203125,0.04892448216676712,0.019835750326514242,-0.40890250712595877
1772731509795052800,1.825052734375,0.1158756194114685,0.15725217041671274,-0.5718032048236579
1772731509805080600,1.83508056640625,-0.12273439926505088,0.1488698342576623,-0.9758995537769048
1772731509815109600,1.845109619140625,-0.11017945359647273,0.1578147727355361,-0.4884654347930103
1772731509825138000,1.855137939453125,-0.11879647529423236,0.26785189525187014,0.027244346082583068
1772731509835165700,1.865165771484375,-0.35405250736773014,0.2399482815429568,-0.08131316886786372
1772731509845193700,1.87519384765625,-0.25996669495999813,0.22670418456643818,-0.1637360890759155
1772731509855221800,1.8852216796875,-0.17424714435935018,0.18142098151147365,-0.11282120027691125
1772731509865250800,1.895250732421875,-0.11051204655170441,0.10486264248788356,0.009758008426427841
1772731509875278600,1.905278564453125,0.034378070420026774,0.05737929904013872,0.17159246513210236
1772731509885307000,1.915306884765625,0.12515081275701523,-0.033901977340877056,0.24427293980903922
1772731509895334700,1.925334716796875,0.10739946748912334,-0.04731207853406667,0.4210023294381797
1772731509905363000,1.935363037109375,-0.04932487966120243,-0.011017945359647273,0.5613923585116863
1772731509915391700,1.945391845703125,-0.38555648365616796,-0.2125368352651596,0.15036299542486667
1772731509925419800,1.955419677734375,0.4758844048351049,-0.3776771285831928,0.3853834651768207
1772731509935447800,1.96544775390625,0.8753577701628208,0.05097644626051187,1.3249072719104587
1772731509945475800,1.975475830078125,0.16038053157031534,-0.09100041361302137,0.27054369161911307
1772731509955503600,1.985503662109375,0.2588619485884905,-0.259743115337193,-0.12658764062710107
1772731509965532700,1.99553271484375,0.2705155615031719,0.020597382348775863,0.15310155354328453
1772731509975560700,2.005560791015625,0.23827508763372895,0.011661503960192204,0.01654189641289413
1772731509985588700,2.015588623046875,0.18386019135713577,-0.017392156566679477,0.0008132891442626714
1772731509995616800,2.02561669921875,0.07530629313588141,0.057555532389879226,-0.03224083919562399
1772731510005644800,2.035644775390625,-0.11125497387349605,0.10934095694571733,-0.12359993005320428
1772731510015673600,2.045673583984375,-0.3078717709511518,0.16191460926979778,-0.1935810095783323
1772731510025702000,2.055701904296875,-0.4422527688682079,0.24041969844698904,-0.20803784334547817
1772731510035729700,2.065729736328125,-0.5139513929009437,0.28320816207677124,-0.15174962747767567
1772731510045757700,2.0757578125,-0.5148819517493247,0.24424217934459447,-0.03819097977168858
1772731510055785700,2.08578564453125,-0.5586188021451235,0.22897680567353962,0.06344327525421976
1772731510065814800,2.095814697265625,-0.6078747082233429,0.20846593256443738,0.12077106330282986
1772731510075842600,2.105842529296875,-0.6473012942045927,0.21929683091938496,0.12363127503953873
1772731510085870800,2.115870849609375,-0.667433397129178,0.215919171179831,0.10529716144762932
1772731510095898600,2.125898681640625,-0.560514406633377,0.20055179843902587,0.07645100619159638
1772731510105926700,2.1359267578125,-0.4950035313248634,0.1588584365695715,0.11603249047361314
1772731510115955700,2.145955810546875,-0.4729541966021061,0.08121873205006122,0.10911379712633788
1772731510125983700,2.155983642578125,-0.3356728010684252,0.09863748436272143,0.11765848424024879
1772731510136011800,2.16601171875,-0.21897709744572638,0.064704527361691,0.1049547046855092
1772731510146039800,2.176039794921875,-0.22899229550361633,0.019337153154611587,0.033551337272301314
1772731510156067800,2.18606787109375,-0.2158440601170063,0.10831307520270347,-0.022084917492792008
1772731510166096600,2.1960966796875,-0.10984861420691013,0.1762994007140398,-0.06779957076758146
1772731510176125000,2.206125,-0.11026187118291854,0.13487784152328966,-0.07830920127891004
1772731510186152400,2.21615234375,-0.06681260555684566,0.11095920579731464,-0.09267441123984753
1772731510196180200,2.22618017578125,0.06860533419251441,0.10171791472136973,-0.0384341408777982
1772731510206208500,2.23620849609375,0.15360650739073753,0.0683209642931819,0.031310791803896426
1772731510216237300,2.2462373046875,0.21631226215064525,0.0700789138764143,-0.017993775721639394
1772731510226265300,2.256265380859375,0.260940508428216,0.13798369858413934,-0.049195554193109274
1772731510236293400,2.26629345703125,0.2247580189347267,0.1613666199982166,-0.10453742912150919
1772731510246321400,2.2763212890625,0.23981705637872217,0.12925678677111863,-0.09960333372019231
1772731510256349400,2.286349365234375,0.2561421682357788,0.17002894214242695,-0.0949822497908026
1772731510266378500,2.29637841796875,0.2783528310000896,0.1658335362792015,-0.12821750685125588
1772731510276406300,2.30640625,0.24043606505990026,0.17040011354237794,-0.16722710952945052
1772731510286434300,2.316434326171875,0.25176877545714377,0.2211252153903246,-0.1792064837997779
1772731510296462300,2.32646240234375,0.2797761418014765,0.229276373142004,-0.12344452029578387
1772731510306490400,2.336490478515625,0.32271395077407355,0.1815779256388545,-0.08921557602286338
1772731510316519400,2.34651953125,0.37661622135341166,0.16080314089655875,-0.056140697155892844
1772731510326547500,2.35654736328125,0.39268531262278555,0.14203414301872253,-0.024313955186493694
1772731510336575500,2.366575439453125,0.4058323789656162,0.13453414265215397,-0.05635649533104151
1772731510346603500,2.376603515625,0.38376200145483014,0.12381108858585357,-0.05700341493245214
1772731510356631600,2.386631591796875,0.3194412127137184,0.0614236059948802,0.0060086658302694555
1772731510366660400,2.396660400390625,0.3165361389219761,-0.007860942633450031,0.029306868102960286
1772731510376688400,2.4066884765625,0.3972060049176216,-0.03032031946182251,0.05089402867406606
1772731510386716400,2.41671630859375,0.43087972646057604,-0.06290653802901507,0.06138535634372383
1772731510396744400,2.426744384765625,0.4482926335543394,-0.06327858621180057,0.04463646611664444
1772731510406772500,2.4367724609375,0.36085283503234383,-0.05100888722538948,0.08830708287581801
1772731510416801500,2.446801513671875,0.17326339401900767,-0.05986731646358966,0.06423928447011858
1772731510426829300,2.456829345703125,0.08300444642305374,0.0035790275305509567,0.04542695890720933
1772731510436857300,2.466857421875,0.0862999808371067,0.031582009960711,0.09912497561872005
1772731510446885400,2.476885498046875,0.04492284530997276,0.05992635317444801,0.057488714231364424
1772731510456913400,2.486913330078125,-0.04678980822563171,0.06558569411039351,0.019637633938528597
1772731510466942200,2.496942138671875,-0.07707856350541115,0.09616554129123688,0.012135660810582339
1772731510476970500,2.506970458984375,-0.16247195089161395,0.12237433378100394,0.0012176686940714716
1772731510486998300,2.516998291015625,-0.19518764105737207,0.13793021483123302,-0.005346767855435609
1772731510497026600,2.527026611328125,-0.1716723254352808,0.11553893480300903,-0.0033763810979202387
1772731510507054300,2.537054443359375,-0.10478431655466557,0.09215835147649049,0.006912665465287864
1772731510517083400,2.54708349609375,-0.06784720930159091,0.08913958817720413,0.006354739321582019
1772731510527111200,2.557111083984375,-0.03048398559093475,0.06150514679849147,0.018921448493190107
1772731510537139500,2.567139404296875,0.10150573327541351,0.04759031095355749,-0.006383125165849924
1772731510547167200,2.577167236328125,0.2617898187339306,0.00310176540762186,-0.05311137592997402
1772731510557195500,2.587195556640625,0.2640975111544132,-0.022945406779646873,-0.037233532916381956
1772731510567224600,2.597224609375,0.25363047767579555,-0.042810383200645445,-0.010369747116602957
1772731510577252400,2.60725244140625,0.26458324884474277,-0.04981500126570463,0.03506159570477903
1772731510587280400,2.6172802734375,0.11865619004070758,-0.03213175279796123,0.0682886329261586
1772731510597308400,2.627308349609375,0.009302081352472305,0.00035714287459850307,-0.0026784254290163514
1772731510607336400,2.63733642578125,0.007300093880295753,0.03463496779054403,-0.08899236172623932
1772731510617364500,2.647364501953125,0.046485272321105,0.0195566411241889,-0.18975374290775507
1772731510627393500,2.6573935546875,0.14344459433853626,0.015225333921611309,-0.1904864045638591
1772731510637421300,2.66742138671875,0.16472119112312794,0.02507248193621635,-0.16505235930625348
1772731510647449600,2.67744970703125,0.09475976614654064,0.031332126852869985,-0.15240505917910485
1772731510657477400,2.687477294921875,0.04249123424887657,0.02358721181452274,-0.1771297871235758
1772731510667505400,2.69750537109375,-0.008821604359149932,0.07820961336195469,-0.16727873011883349
1772731510677534500,2.707534423828125,-0.03185644298791885,0.10651187099963426,-0.1819817206667736
1772731510687562500,2.7175625,-0.06639817953705787,0.092114512334764,-0.24275548445079473
1772731510697590300,2.72759033203125,-0.056660044854879375,0.09669014968723058,-0.24737097888961432
1772731510707618600,2.73761865234375,-0.03439209894537926,0.10652677630782127,-0.2243097637105733
1772731510717646300,2.747646240234375,-0.04989303493797779,0.1270563541173935,-0.27864414209686217
1772731510727675400,2.75767529296875,-0.09705576812922954,0.1428583188831806,-0.2824543845674023
1772731510737703400,2.767703369140625,-0.13795008857548235,0.13424772692620754,-0.2805260103207081
1772731510747731500,2.7777314453125,-0.1450467688381672,0.13122750232219696,-0.31632176551893354
1772731510757759200,2.78775927734375,-0.0746884534984827,0.12961539095044136,-0.32603377937916667
1772731510767787500,2.79778759765625,-0.000678045392036438,0.12802812175899744,-0.33271391473021356
1772731510777816300,2.80781640625,0.010085340684652328,0.10989391465336083,-0.29024470965005456
1772731510787844400,2.81784423828125,0.0011024082839488983,0.10182312866151333,-0.2678508358059451
1772731510797872400,2.827872314453125,-0.000028057050704956055,0.08117489290833473,-0.23620865662321447
1772731510807900400,2.837900390625,0.007784662526845932,0.036168460968136786,-0.21315248294547198
1772731510817928200,2.84792822265625,0.04370587073564529,0.008376490940153598,-0.19567871250994504
1772731510827957500,2.85795751953125,0.04446984084546566,0.00820785637497902,-0.17501144326273352
1772731510837985500,2.867985595703125,0.07300853758752346,0.007046995902061462,-0.19796802902352065
1772731510848013300,2.878013427734375,0.007922025170922279,0.028509762908518314,-0.14763561628758906
1772731510858041300,2.888041259765625,-0.11353344019949435,-0.0013636895686388016,-0.13433759716674684
1772731510868069400,2.8980693359375,-0.1785819586932659,0.0027159809604287146,-0.13918679076358675
1772731510878098400,2.908098388671875,-0.11189794795215129,0.006577624824643135,-0.18469390223491935
1772731510888126500,2.91812646484375,-0.040816579034924506,0.03186170368492603,-0.18241704334411768
1772731510898154500,2.928154541015625,-0.09349836790859699,0.026940613895654678,-0.13385828921720386
1772731510908182300,2.938182373046875,-0.18036065880358218,-0.019363456639647482,-0.1256780515015125
1772731510918210600,2.94821044921875,-0.13027882329523563,-0.053740942537784574,-0.06295140008404851
1772731510928239400,2.9582392578125,-0.04331073393821716,-0.05769084920734167,-0.03627433249540627
1772731510938267400,2.968267333984375,0.02397591887116432,-0.06215016670376062,0.0208143495677039
1772731510948295400,2.97829541015625,-0.01509235519170761,-0.08646247792243957,0.0939716479761526
1772731510958323500,2.988323486328125,-0.12473930934667586,-0.10937076756209134,0.09786394270695746
1772731510968351500,2.9983515625,-0.13388883048593997,-0.09198270264863967,0.06768098588921129
1772731510978380500,3.008380615234375,-0.04576572587490082,-0.09437895013540983,0.022080022121965883
1772731510988408300,3.018408203125,0.1017675990819931,-0.08894815725833177,-0.02615180160552263
1772731510998436400,3.028436279296875,0.2699170110881328,-0.10887070908546446,-0.051406910099647936
1772731511008464400,3.03846435546875,0.4153519024610519,-0.09911971492171287,-0.0021372677570208904
1772731511018492400,3.048492431640625,0.3327694808423519,-0.075851652058959,0.07807349282689392
1772731511028521200,3.058521240234375,0.01783726998567581,-0.12406827821731567,0.15571100538931787
1772731511038549500,3.068549560546875,-0.1715361318349838,-0.1188385608702898,0.2195346947958693
1772731511048577300,3.078577392578125,-0.12351239790022372,-0.08557517369389533,0.1886908263839781
1772731511058605300,3.088605224609375,-0.046585810086131094,-0.07784633300751448,0.08344692949354648
1772731511068633300,3.09863330078125,0.01918751555085182,-0.015519932954013346,0.025576303272508084
1772731511078662400,3.108662353515625,0.0995411552041769,0.003939093014597893,0.022361359813995656
1772731511088690400,3.1186904296875,0.10063713374733925,-0.00930792657136917,0.05437208004817366
1772731511098718500,3.128718505859375,0.04465338071882725,0.004825812721252441,0.06176880270335823
1772731511108746200,3.138746337890625,-0.020158990931510926,0.023323884703218934,0.06169785635899752
1772731511118774500,3.1487744140625,-0.0071592241048812864,0.04770283141732216,0.038065672891587014
1772731511128803600,3.158803466796875,0.005267126747965812,0.05326543398052454,0.005419869624264538
1772731511138831400,3.168831298828125,0.0496703320980072,0.08995528847426175,0.020597893805429337
1772731511148859400,3.178859375,0.10652852987349033,0.12150368842631577,0.05273348252829164
1772731511158887400,3.188887451171875,0.11543664347231387,0.11674597250521182,0.10501980581097305
1772731511168915500,3.19891552734375,0.024774375772476195,0.1230889117911458,0.08632814748566597
1772731511178946000,3.208946044921875,-0.032927287089824675,0.1430181856200099,0.08334343258645385
1772731511188974000,3.21897412109375,0.07581541170179844,0.17269699230790136,0.05505067342948168
1772731511199002000,3.229002197265625,0.1705915444612503,0.17055092018991708,0.07303257605023682
1772731511209030000,3.23902978515625,0.22891747670173643,0.13251345047950744,0.12590539398398248
1772731511219058000,3.249057861328125,0.2143359936416149,0.11662351516932248,0.15604374447502195
1772731511229087200,3.259087158203125,0.16639701538085935,0.11795330246835946,0.17644765007831156
1772731511239115000,3.269114990234375,0.13506488852798937,0.11832388934642075,0.12369886038303375
1772731511249143000,3.27914306640625,0.22158406507372855,0.139103350263834,0.0512892020041123
1772731511259171000,3.289171142578125,0.3006950111895799,0.1553337695747614,0.020499986388906835
1772731511269199000,3.29919921875,0.3726695295542478,0.1278287997946143,0.03410791170913726
1772731511279228000,3.309227783203125,0.2631558463901281,0.1167579552039504,0.11541958273965865
1772731511289256200,3.319256103515625,0.06898994959592819,0.11095569866597652,0.1773148978995159
1772731511299284000,3.329283935546875,-0.030226795959472655,0.09090981272011994,0.12092457336410879
1772731511309312000,3.33931201171875,0.050469958043098444,0.12173515909463166,0.060135246684774754
1772731511319340000,3.349340087890625,0.11482055740058421,0.13319617204666137,0.020633038184046743
1772731511329369000,3.359369140625,0.08024258049428462,0.15430004261285066,0.045013482735492286
1772731511339396900,3.36939697265625,-0.06317395679354668,0.17043986103087663,0.0879127132633701
1772731511349425200,3.379425048828125,-0.19150632219612598,0.1500917772680521,0.08504713123179972
1772731511359453000,3.389452880859375,-0.1915086602836847,0.12019991235136986,0.04622154335100204
1772731511369481000,3.39948095703125,-0.07485211962759494,0.12656798607856035,0.0016580328727141022
1772731511379509000,3.409509033203125,-0.05361293224394321,0.131488491345942,0.001648607457242906
1772731511389538000,3.4195380859375,-0.08727847048044204,0.08870207354277372,0.023553419142775235
1772731511399565800,3.42956591796875,-0.06473638380467892,0.08501169459223747,0.0011467223497107625
1772731511409594000,3.439593994140625,-0.014421324062347411,0.10265548783242702,-0.019257073655724523
1772731511419622000,3.449621826171875,0.03272211990654468,0.09026625411957502,-0.02295154425948858
1772731511429650200,3.459650146484375,0.07848901482522487,0.0547179708763957,-0.011184424500353634
1772731511439679200,3.46967919921875,0.10898001467883586,0.03732318396121263,0.019439809811487792
1772731511449707000,3.47970703125,0.1195528466194868,0.03180821993201971,0.018049487964250148
1772731511459735000,3.489735107421875,0.14283493800759314,0.025911855369806287,0.030742088537849484
1772731511469763000,3.49976318359375,0.06856441766023635,0.020846388673782346,0.06580211334004998
1772731511479790800,3.509790771484375,-0.020443068569898606,0.020794073964655397,0.018385259257256984
1772731511489820000,3.51981982421875,-0.018369184905290603,0.012389233712852001,-0.020535824887268243
1772731511499848200,3.52984814453125,0.01404138483405113,0.017170915031433105,-0.0322726225733757
1772731511509876000,3.5398759765625,-0.05935118363499641,0.003610591712594032,0.01792414455153048
1772731511519904300,3.549904296875,-0.14177227721214294,0.029384499916434288,0.04239584758300334
1772731511529932000,3.55993212890625,-0.14926760140359402,0.010804302608966827,0.06356408862229436
1772731511539961000,3.569961181640625,-0.06590425854027271,-0.0075707275152206415,0.02452767100241035
1772731511549988900,3.57998876953125,0.03251052298247814,-0.004435644359886646,0.07722429211903363
1772731511560017200,3.59001708984375,-0.05483224490582943,-0.01011135190874338,0.1235197044238448
1772731511570045000,3.600044921875,-0.2819365347057581,0.0015007599517703055,0.15596158261690288
1772731511580073200,3.6100732421875,-0.36770284705758094,-0.021604221303761006,0.15057634591460228
1772731511590102000,3.62010205078125,-0.19234218849837778,-0.003003273469209671,0.1023320280317217
1772731511600130000,3.630130126953125,-0.010351298144459724,-0.01622311278730631,0.05160170201938599
1772731511610158000,3.640157958984375,0.19327508543431757,-0.044209436343610284,0.08665851195119322
1772731511620186000,3.65018603515625,0.18566344138681887,-0.030004093119502067,0.1729942947540432
1772731511630214000,3.6602138671875,-0.031523850032687185,-0.031201486210525035,0.20011574510931968
1772731511640243000,3.670242919921875,-0.09126607881188392,0.0010959785431623459,0.14044665463156997
1772731511650271000,3.68027099609375,0.06496493186354636,0.02009995422065258,0.07055285153109579
1772731511660299000,3.690299072265625,0.19032149632573125,0.010702303539216518,0.07158902617841958
1772731511670327000,3.7003271484375,0.15854162570536134,0.0009928104296326637,0.10358955381214618
1772731511680355000,3.71035498046875,0.08950023818314075,-0.003996960681676864,0.13386771463267505
1772731511690384000,3.7203837890625,0.08468377781212329,0.013109949202835558,0.1314958344021812
1772731511700412200,3.730412109375,0.15796177999079228,0.02968757451623678,0.10445241771917789
1772731511710440000,3.74043994140625,0.3093675624668598,0.06185936706364154,-0.008135704454220832
1772731511720468000,3.750468017578125,0.4417828132688999,0.06225625742673874,-0.07599829398803412
1772731511730496000,3.76049609375,0.43877720171213147,0.06559358515590429,-0.0553504966262728
1772731511740525000,3.770525146484375,0.29593115778863427,0.03262275118529796,0.0029774449082091447
1772731511750553000,3.780552978515625,0.16334464207291602,0.058956631359457966,0.018308358096145092
1772731511760581000,3.7905810546875,0.10644318967759608,0.10385171187967061,-0.03581924567166716
1772731511770609200,3.800609130859375,0.08869125988781451,0.12113836224526166,-0.09086253951229155
1772731511780637000,3.810636962890625,0.05040156898200512,0.12907120107114314,-0.12437526180725544
1772731511790666000,3.820666015625,0.026573534148931502,0.11351678132563829,-0.08497903443165122
1772731511800694000,3.830694091796875,0.02846855411529541,0.09824059399962425,-0.051263117714785034
1772731511810722000,3.84072216796875,-0.03151625124812126,0.09206979641020298,-0.003954948170855641
1772731511820750000,3.85075,-0.09774491943717002,0.07033581124693154,0.06579093435890972
1772731511830778000,3.860778076171875,-0.13005553593337535,0.05710223566442728,0.0032766835831105705
1772731511840807000,3.870806884765625,-0.10842881053686142,0.08013795107603072,-0.05835636391136795
1772731511850835200,3.880835205078125,-0.05546294402480125,0.09662994393259286,-0.08911463639903813
1772731511860863000,3.890863037109375,-0.012781740161776542,0.0791609227374196,-0.07852054247464985
1772731511870891000,3.90089111328125,-0.02814823611974716,0.06831716490089892,-0.0543230532746762
1772731511880919000,3.9109189453125,-0.05299450808465481,0.09076602033525705,-0.025937428202480076
1772731511890948000,3.920947998046875,-0.05010930803716183,0.08666706058382988,-0.024758082224801182
1772731511900975900,3.930975830078125,-0.057711599734425544,0.097245153221488,-0.019097608777694404
1772731511911004200,3.941004150390625,-0.046618543311953545,0.07961714207231999,-0.04791347849331796
1772731511921032000,3.951031982421875,0.046345571589469906,0.09001754005551338,-0.05750208516959101
1772731511931060000,3.96106005859375,0.14158406116366384,0.05046060569286346,-0.04541870253551751
1772731511941089000,3.971089111328125,0.20751462318897246,0.02259644721150398,-0.0018912571066990493
1772731511951117000,3.981116943359375,0.22795301558375358,0.0026069676280021667,0.02678556946441531
1772731511961144800,3.991144775390625,0.2598965523332357,-0.02018003371953964,0.0026654563495889304
1772731511971173000,4.001173095703125,0.2809580450624227,0.005240823262929916,-0.018943441129289567
1772731511981201000,4.011200927734375,0.23734745139479635,0.018920389047265052,-0.02150112625546753
1772731511991230000,4.02122998046875,0.19576865581572056,0.002989537204802036,0.009016177083179354
1772731512001258200,4.03125830078125,0.23815701421201227,-0.01891483608931303,0.06019267596043646
1772731512011286000,4.0412861328125,0.22902502872943878,-0.01795885053873062,0.08869728776980192
1772731512021314000,4.05131396484375,0.17298282351195812,-0.0024126140996813773,0.09208926829565316
1772731512031342000,4.061342041015625,0.17849018875658512,0.018284136970341206,0.02045950824804604
1772731512041371100,4.07137109375,0.13656418717503546,0.026181612221896647,-0.020811682686582206
1772731512051399000,4.08139892578125,0.13537234704196452,0.041135143464803695,0.0279324744772166
1772731512061427200,4.09142724609375,0.05371171644330024,0.05018909527510404,0.05656546190660446
1772731512071455000,4.101455078125,-0.1517956585764885,0.04323971452862024,0.04327124217804521
1772731512081483000,4.11148291015625,-0.14942308422625064,0.057931964486837385,-0.004663754027336836
1772731512091512000,4.121511962890625,-0.06023907238543033,0.08393295944482088,-0.04186400572862476
1772731512101540000,4.1315400390625,-0.005725391909480094,0.11540946320444345,-0.07447945039030164
1772731512111568000,4.14156787109375,0.01063771387040615,0.07272972064614296,-0.028316213097795844
1772731512121596200,4.15159619140625,0.032141689670085904,0.07138005960285664,0.009660210607759654
1772731512131624000,4.1616240234375,0.04750175588726997,0.0820692113995552,-0.005722213571704924
1772731512141652200,4.17165234375,0.08423954117596148,0.06703238578736782,-0.04166599893849343
1772731512151681000,4.181680908203125,0.07833470104634761,0.05473287618458271,-0.05690083134081214
1772731512161709000,4.191708984375,0.061816696965694425,0.06555734479874373,-0.06853044232539832
1772731512171736800,4.20173681640625,0.10926643040478229,0.05656476778686046,-0.05743022550977766
1772731512181764000,4.21176416015625,0.1462397780150175,0.06353226871192455,-0.058009523235075175
1772731512191792000,4.221792236328125,0.14899112254977226,0.05038958628326654,-0.04218556583318859
1772731512201821400,4.231821533203125,0.09121171827614306,0.01833177550435066,-0.03442578201927245
1772731512211849200,4.24184912109375,0.021077859342098236,0.056632280065119264,-0.009150470987334847
1772731512221877200,4.251877197265625,-0.003121346890926361,0.068412149707973,-0.007758907031081616
1772731512231905300,4.2619052734375,-0.04283317955434322,0.04835515784621239,-0.01579721552543342
1772731512241933300,4.271933349609375,-0.07154840190708636,0.05145516968816519,-0.017558745305240153
1772731512251962000,4.281962158203125,-0.10284604196846485,0.054851534128189085,-0.023200733247585592
1772731512261990400,4.291990478515625,-0.08156944518387317,0.018103227445483205,0.027382987368293105
1772731512272018200,4.30201806640625,-0.049750411596894265,0.006914893954992294,0.03798526459913701
1772731512282046200,4.312046142578125,-0.060171267846226686,0.014667700038850307,0.05807509928457438
1772731512292074200,4.32207421875,-0.0706932463824749,0.016639000111818313,0.050859541882574556
1772731512302103300,4.332103271484375,-0.004726444000005722,0.02120879224538803,0.0421282096227631
1772731512312131000,4.342131103515625,-0.0026619126856327053,0.008617606219649314,0.029912067454494533
1772731512322159400,4.352159423828125,-0.05586684865057468,0.0012868249401450157,0.012679521896317601
1772731512332187100,4.362187255859375,-0.06048281801342964,0.012629472209513187,0.027191739112511274
1772731512342215400,4.37221533203125,0.016679332122206687,0.012118892338871956,0.014740107687935232
1772731512352244200,4.382244140625,0.12282558467984199,0.007785247048735618,0.01778513793963939
1772731512362272300,4.392272216796875,0.12302841377556323,0.0030836452290415764,0.03206241388879716
1772731512372300000,4.402300048828125,0.12371990317106246,0.018242343655228612,0.025513467169366776
1772731512382328300,4.412328369140625,0.17611118466556072,0.017852467554807662,0.04474496799241751
1772731512392356000,4.422356201171875,0.11043255157470702,0.023786241517961024,0.04531772637907416
1772731512402385200,4.43238525390625,0.046887423381209374,0.03758738785535097,0.025532354532927272
1772731512412413200,4.4424130859375,0.030967969715595244,0.01996609870791435,-0.01426003255341202
1772731512422441200,4.452441162109375,0.10083820927739143,0.07097732402086257,-0.02441332390774041
1772731512432469200,4.46246923828125,0.10925824709832668,0.05800269163548946,-0.024885763725079595
1772731512442497300,4.472497314453125,0.08937456597685814,0.062164779751002784,-0.04304397276081145
1772731512452526300,4.4825263671875,0.04957973120510578,0.046831017018854615,-0.03127246908750385
1772731512462554000,4.49255419921875,0.025989596781134605,0.044914954264461994,-0.028383177386783063
1772731512472582400,4.50258251953125,0.06891863792538643,0.05092383929044008,-0.03399652375653386
1772731512482610200,4.512610107421875,0.01960486418008804,0.06234861188530921,-0.06638765814304351
1772731512492638500,4.522638427734375,-0.0932756650686264,0.07222703182101249,-0.09728694653660058
1772731512502667300,4.532667236328125,-0.10318915631771088,0.0977110171675682,-0.12014712271820753
1772731512512695300,4.5426953125,-0.03514262505173683,0.10269903471320867,-0.11371160977799445
1772731512522723000,4.55272314453125,0.055391632354259486,0.08606295721083879,-0.09658522800803183
1772731512532751400,4.56275146484375,0.043563247394561765,0.07948240977674723,-0.07332790573500096
1772731512542779100,4.572779052734375,-0.051418637070059774,0.09069880031794308,-0.07996854932587594
1772731512552808200,4.58280810546875,-0.07632160765826701,0.08529664901345968,-0.11700685193110257
1772731512562836200,4.592836181640625,-0.03256137638688087,0.08039981688261032,-0.12097535370327532
1772731512572864300,4.6028642578125,-0.0071843585461378095,0.07279694066345692,-0.05862093313168734
1772731512582892300,4.612892333984375,-0.07594283747375011,0.06478986755758523,-0.03385050288196653
1772731512592920300,4.62292041015625,-0.11219430055022239,0.05080547360777855,-0.013474508198909461
1772731512602949000,4.63294921875,-0.042756022664904594,0.0896174348220229,-0.0023021394625306127
1772731512612977200,4.64297705078125,-0.010793196693062782,0.09427256715148687,-0.04270111413989216
1772731512623005200,4.653005126953125,-0.07688976293504238,0.07802168957442045,-0.03503492689356208
1772731512633033200,4.663033203125,-0.10431903713047504,0.06166852066665887,0.04354322751984
1772731512643061200,4.673061279296875,-0.08267652964293956,0.057361178861558434,0.06768997291326523
1772731512653090300,4.68309033203125,-0.058930912396311756,0.0789320824176073,0.07558116455450653
1772731512663118000,4.6931181640625,0.019267010527849196,0.061628773178160186,0.06946487363129854
1772731512673146400,4.703146484375,0.07546820569932461,0.026006255654990672,0.0555206655614078
1772731512683174100,4.713174072265625,0.13030337321460247,-0.009110065911710262,0.05717942908648401
1772731512693202200,4.7232021484375,0.15646072777807712,-0.03440495842695236,0.03901526523400098
1772731512703231200,4.733231201171875,0.1456032336771488,-0.006610650311410427,0.09728409699238837
1772731512713259300,4.74325927734375,0.1173264027416706,-0.026966040597856043,0.10604326710719615
1772731512723287300,4.753287353515625,0.09293898046016692,-0.0497878209978342,0.1326665221493691
1772731512733315300,4.7633154296875,0.0663747986614704,-0.03788052558302879,0.13469404592160134
1772731512743343400,4.77334326171875,0.10392916103005409,-0.01792962444424629,0.13192227965332567
1772731512753372200,4.7833720703125,0.14545827224850655,-0.033499826280772686,0.12400657462533562
1772731512763400200,4.793400146484375,0.0933580826550722,-0.04045242189764976,0.09149521139264107
1772731512773428200,4.80342822265625,0.031259061616659166,-0.011716741278767585,0.1499425780557096
1772731512783456300,4.813456298828125,0.06361643986403942,-0.029271979452669617,0.1575583502890542
1772731512793484300,4.823484375,0.08084288447499274,0.012023030748963355,0.11351809649989009
1772731512803513300,4.833513427734375,0.034033202505111694,0.0058019642770290375,0.062865621496737
1772731512813541000,4.843541015625,-0.01633504872918129,-0.021276889045536516,0.0034635113921016453
1772731512823569400,4.8535693359375,0.034440614262223244,0.0198746210321784,0.035502836666256185
1772731512833597200,4.86359716796875,0.038574937587976456,0.03375876947790384,0.05051682939212769
1772731512843625200,4.873625244140625,-0.042024201259016986,-0.009278700476884841,0.012851371331885457
1772731512853654300,4.883654296875,-0.0035386955201625824,-0.02588262927532196,0.023458032476902008
1772731512863682300,4.893682373046875,0.11705343101918697,-0.00689589699357748,0.011043554724939167
1772731512873710000,4.9037099609375,0.16683014610111713,0.019464578926563263,0.012326689870655536
1772731512883738400,4.91373828125,0.1184855096489191,-0.024529168839752674,0.03370049995202571
1772731512893766100,4.92376611328125,0.057680035552382464,-0.03875175545960664,0.04446304577849805
1772731512903794200,4.933794189453125,0.01509235519170761,-0.013449848681688309,0.07477675283644349
1772731512913823200,4.9438232421875,-0.06088730716109275,-0.013138298514485358,0.04162172140534967
1772731512923851300,4.953851318359375,-0.13210662324428557,0.031213176648318765,-0.0490391215223819
1772731512933879000,4.963879150390625,-0.18958558326661587,0.049614217996597286,-0.10134345538578927
1772731512943907300,4.9739072265625,-0.19676935729086398,0.06177694947719574,-0.1078113544919528
1772731512953935000,4.98393505859375,-0.15137129568457602,0.030488077244162557,-0.05039166864249855
1772731512963964200,4.993964111328125,-0.09413198963701724,0.00857727420926094,0.024455263353325426
1772731512973992400,5.003992431640625,-0.028602409628033638,-0.017299509847164152,0.050899088441673665
1772731512984020200,5.014020263671875,0.019551672688126562,-0.015141455030441283,0.036991559120360756
1772731512994048300,5.02404833984375,-0.0007668927192687987,0.008339666061103344,0.05623098752154037
1772731513004076300,5.034076171875,-0.024876667103171348,0.0016620879933238028,0.057625492353551085
1772731513014105300,5.044105224609375,-0.05561667328178882,-0.005256020832061767,0.0993008801748976
1772731513024133000,5.054133056640625,-0.0407733244150877,-0.013567337581515312,0.09765430027795954
1772731513034161400,5.064161376953125,-0.008277999001741409,-0.03618628888577222,0.1450805249772966
1772731513044189200,5.074189208984375,-0.011381810235977173,-0.03453852167874574,0.1767033236061223
1772731513054217200,5.08421728515625,0.032437457746267315,-0.031251170571148394,0.13556819840762763
1772731513064246300,5.094246337890625,0.0977940192759037,-0.04566694167554378,0.12727238975455984
1772731513074274300,5.1042744140625,0.14556523975431918,-0.042948038105666636,0.1517146657621488
1772731513084302000,5.114302001953125,0.14833178185820578,-0.05593319188505411,0.18437310931533574
1772731513094330400,5.124330322265625,0.169624160733819,-0.05492343032062053,0.1937932458232157
1772731513104358100,5.134358154296875,0.2392752045869827,-0.031256723529100416,0.17642489025723188
1772731513114387200,5.14438720703125,0.2741793447077274,-0.02257335859686136,0.14385043519306928
1772731513124415200,5.154415283203125,0.22347148625552654,-0.017867080602049827,0.11112743850369006
1772731513134443300,5.164443359375,0.20164660793840883,-0.02736702261418104,0.1074973566393368
1772731513144471300,5.17447119140625,0.20688217050433158,-0.02564911278039217,0.10148187747579067
1772731513154499300,5.184499267578125,0.1686795733600855,-0.015481939031183719,0.10836953636398539
1772731513164528000,5.194528076171875,0.12139233700633048,-0.00009293898046016692,0.07876209614556283
1772731513174556200,5.20455615234375,0.09678688805997371,-0.0020186463460326195,0.04540025356337428
1772731513184584000,5.214583984375,0.07617372362017631,0.006155307759344577,0.05375248684510588
1772731513194611700,5.22461181640625,0.03224105839133262,0.034626199962198734,-0.00015173822930082678
1772731513204640000,5.234639892578125,0.03140343852341175,0.01863338879942894,-0.02561745726680383
1772731513214669000,5.2446689453125,0.058058221215009684,0.026041326968371865,-0.035439799633715297
1772731513224696800,5.25469677734375,0.055070729836821555,0.02487608258128166,-0.01409863144662231
1772731513234725000,5.26472509765625,0.07237608490288257,0.05529021780639887,-0.01423308974755928
1772731513244753000,5.2747529296875,0.09359715210795402,0.0855088304594159,-0.03139571187468245
1772731513254781000,5.284781005859375,-0.005554126995801926,0.1303542266190052,-0.06864749283380805
1772731513264809700,5.294809814453125,-0.10629179850816727,0.12285305720865726,-0.07133516101520508
1772731513274838000,5.304838134765625,-0.11203823320567607,0.10932400581091642,-0.03459671813938767
1772731513284865800,5.31486572265625,-0.036139819395542144,0.12262860080301762,-0.05196806938005611
1772731513294892800,5.324892822265625,0.10533844330608844,0.15420388876199723,-0.060643598065711554
1772731513304920800,5.3349208984375,0.18454349744617937,0.11165040293186902,-0.060623304196354
1772731513314950000,5.344949951171875,0.15622282736897466,0.045831192326545714,0.027562344256881623
1772731513324978000,5.35497802734375,0.1089735849380493,0.03860182559490204,0.08207934920107945
1772731513335006000,5.365005859375,0.13528934493362904,0.05275982254594564,0.09292900705542415
1772731513345034000,5.375033935546875,0.13571838400065897,0.04136223021894693,0.07608679425539448
1772731513355062000,5.38506201171875,0.1368026721060276,0.011240940460562706,0.06561954158106818
1772731513365090800,5.3950908203125,0.14331950665414334,-0.01630757620036602,0.10212925373492762
1772731513375118800,5.405118896484375,0.1650187127649784,-0.00485328525006771,0.11062133387876674
1772731513385147000,5.41514697265625,0.15547580839395522,-0.06785714617371559,0.11325047680595889
1772731513395175000,5.4251748046875,0.15784136848151684,-0.04789133972674608,0.08220237279254942
1772731513405203000,5.435202880859375,0.17039631415009499,-0.005989011281728744,0.05447952247802168
1772731513415231000,5.44523095703125,0.07716215013563632,-0.02430062078088522,0.03874338949006051
1772731513425259800,5.455259765625,0.058742696347832676,-0.04360007227361202,0.05729823316056281
1772731513435288000,5.4652880859375,0.11069266381561756,-0.021083412300050258,0.10065141800101846
1772731513445315800,5.47531591796875,0.10518412952721118,-0.03485825515240431,0.12225278976056723
1772731513455343900,5.48534375,0.05025310042202472,-0.05304974540323019,0.10712034002048894
1772731513465372000,5.495371826171875,0.022292495828866957,-0.0665711980164051,0.0844523071438074
1772731513475401000,5.50540087890625,0.028332360514998434,-0.038189737662672994,0.022463888606708494
1772731513485428700,5.5154287109375,-0.009511340188980102,-0.018994331066310405,-0.04426838172292336
1772731513495457000,5.52545703125,-0.05307692567110062,-0.04414718476235866,-0.10336845840737223
1772731513505484800,5.53548486328125,-0.0027618659287691116,-0.012934884896874428,-0.09378052758453413
1772731513515512800,5.545512939453125,0.058607671791315076,-0.02171148107051849,-0.07255827306937426
1772731513525542100,5.555542236328125,0.06864274359345436,-0.030256314314901826,-0.10998648830763995
1772731513535570000,5.56556982421875,0.1418137782663107,0.01082943705022335,-0.07756074839862995
1772731513545597700,5.57559765625,0.16960136438012122,0.014393267011642456,-0.0864972478417214
1772731513555626000,5.5856259765625,0.08889467350542544,-0.004921966572105884,-0.13753308700611813
1772731513565653800,5.59565380859375,0.09099778326451778,0.023124270477890965,-0.1685136422086507
1772731513575682800,5.605682861328125,0.11099661519825457,0.011901742456853388,-0.17861279222294688
1772731513585711000,5.615711181640625,0.08810089277923107,-0.0008484335228800773,-0.13944731399645097
1772731513595739000,5.62573876953125,0.05709434461891651,0.007330781279504299,-0.10614276369260624
1772731513605767000,5.635766845703125,-0.003183306211233139,-0.005533960990607738,-0.11225158369541167
1772731513615796000,5.6457958984375,-0.03506839077174664,-0.0036310499787330624,-0.081527277409425
1772731513625824000,5.655823974609375,-0.048348728105425835,-0.0012254501417279242,-0.10080424307570793
1772731513635851800,5.665851806640625,0.015281740283966063,0.022571020509302615,-0.10778617438492365
1772731513645880000,5.675880126953125,0.009421323817968367,-0.013727496579289436,-0.08424683856642805
1772731513655907800,5.685907958984375,0.011420388680696487,-0.02952069351673126,-0.0783659912337549
1772731513665936000,5.695935791015625,0.03326572526395321,0.0007166238367557525,-0.0665584116000682
1772731513675965700,5.705965576171875,-0.004947393274307251,-0.04066051169037819,-0.03843557478305883
1772731513685994000,5.715993896484375,-0.033249358651041984,-0.04656944347321987,0.00962791577335447
1772731513696021800,5.726021728515625,-0.03338496772944927,-0.06161328334808349,0.03351379087404348
1772731513706049800,5.7360498046875,-0.01352817461490631,-0.06268909588605165,-0.01233023353461176
1772731513716079000,5.7460791015625,0.05524900901317596,-0.02036123550534248,-0.03242879951577633
1772731513726107000,5.75610693359375,0.04447042536735534,-0.043672260726988314,-0.021298826882708816
1772731513736135000,5.766135009765625,0.04962181678116321,-0.045888767732679844,-0.00466274024718441
1772731513746163000,5.776162841796875,0.047910336688160894,-0.04687193355113268,-0.001754204989876598
1772731513756191000,5.78619091796875,0.05780336967110634,-0.03739332658797502,-0.026078987531061283
1772731513766219000,5.796218994140625,0.13038695984482765,-0.036947044125199315,0.004109385247319005
1772731513776248000,5.806248046875,0.1351595810741186,-0.0118140641734004,0.03744940415676683
1772731513786275800,5.81627587890625,0.08444470835924148,-0.02507920393794775,0.008555843262164853
1772731513796304000,5.826303955078125,0.10420622440576553,-0.017394202393293378,0.007438255675393156
1772731513806332000,5.836331787109375,0.09106324971616267,-0.0006903203517198563,-0.0010616972476476803
1772731513816360000,5.84635986328125,0.0874327842593193,0.003811374981701374,-0.020509087577392345
1772731513826388700,5.856388671875,0.10608896941244601,0.029429800362884995,-0.07491643530176952
1772731513836417000,5.8664169921875,0.15142740978598593,0.050670156790316105,-0.06939439764439594
1772731513846444800,5.87644482421875,0.11969839257001876,0.01822685382515192,-0.056254788522236046
1772731513856473000,5.88647314453125,0.1000198786318302,0.007058101817965507,-0.10840281757907941
1772731513866500900,5.8965009765625,0.11706219884753226,0.045538346859812735,-0.04996194002230186
1772731513876530000,5.906530029296875,0.1357733290582895,0.05583265412002802,-0.041798831537924706
1772731513886557700,5.9165576171875,0.14059855725765227,0.05181728099882602,-0.07853325582575052
1772731513896586000,5.9265859375,0.13370645965635775,0.04724222816824913,-0.10984452255368232
1772731513906613800,5.93661376953125,0.12411503996849059,0.06780921537876129,-0.15241156198512762
1772731513916642000,5.94664208984375,0.09061141429543494,0.04635930785387754,-0.16119747397638856
1772731513926670800,5.9566708984375,0.05158931746184826,0.05713701471686363,-0.13106316033964976
1772731513936699000,5.966698974609375,-0.030796704801917076,0.06586684913933277,-0.16128882378796114
1772731513946727000,5.976726806640625,0.2700444368600845,0.07919774761646986,0.23318286079494283
1772731513956755000,5.9867548828125,0.40202071172297,0.06072539459764957,1.1680607596851884
1772731513966782700,5.99678271484375,-1.0510936917752027,-0.1590279479175806,-1.9838538495928049
1772731513976811800,6.006811767578125,0.46578328205943104,0.07026040792316197,-0.4766667873844504
1772731513986840000,6.016840087890625,0.041277182283997536,0.333918066355586,-0.20268965071793643
1772731513996867800,6.026867919921875,-0.10141162525117396,0.041563305748999115,-0.6728543992646038
1772731514006896000,6.036896240234375,-0.2605944714695215,0.19019494733661413,-0.3932090807685628
1772731514016924000,6.046923828125,-0.334112127622962,0.18611352324187755,-0.11684925021659583
1772731514026953000,6.056952880859375,-0.32856618393361564,0.06362754577994346,-0.04491542005534284
1772731514036981000,6.06698095703125,-0.3039467064619064,0.07835778966099023,-0.046570685582235455
1772731514047009000,6.077009033203125,-0.3108440647602081,0.10720365265607833,-0.007993245509918779
1772731514057036800,6.087036865234375,-0.3192068194359541,0.1291208854317665,-0.0746681778954342
1772731514067065000,6.097065185546875,-0.3370253847211599,0.11903905187845229,-0.05810240741660818
1772731514077094000,6.107093994140625,-0.3736076871871948,0.058008244593441484,0.09522570315785706
1772731514087122000,6.117121826171875,-0.3057464493602514,-0.011977145780622958,0.406372952115722
1772731514097150000,6.12714990234375,1.3229548226684331,0.05495031832754611,3.21980258898139
1772731514107178000,6.137177978515625,-0.023159926313161848,0.14406711015105247,-0.053546333281137046
1772731514117205800,6.147205810546875,-0.42217327291369433,-0.8951438361287116,-1.9415591608293354
1772731514127234800,6.15723486328125,0.26662323023974893,-0.4669926578491926,0.46497324431817977
1772731514137262800,6.167262939453125,0.5438175388544798,0.4913236737683415,1.1410185851112007
1772731514147291000,6.177290771484375,0.057056935217976563,-0.22565935168862342,-0.4890722050471231
1772731514157319000,6.18731884765625,-0.10332651896178721,-0.42921208550930023,-0.4324744117734953
1772731514167347000,6.197346923828125,-0.005336100330948829,-0.07982260151654481,0.2259104403728619
1772731514177375700,6.207375732421875,0.11777823816239834,-0.11107055721729993,0.25522779333721846
1772731514187403300,6.2174033203125,0.10670505548417568,-0.20927666442543266,0.04707742952797562
1772731514197431300,6.227431396484375,0.15692600720226763,-0.20298574758768081,0.13172032734043895
1772731514207459300,6.237459228515625,0.274206232714653,-0.1003384430617094,0.1467568972242996
1772731514217487400,6.2474873046875,0.17059329802691936,-0.12614274640381334,-0.04690389959197491
1772731514227516200,6.25751611328125,0.18063655313551424,-0.1200455985724926,-0.02022843943852931
1772731514237544200,6.267544189453125,0.13574293392002582,-0.03746756086796522,0.016664079754147677
1772731514247572200,6.277572265625,0.050230304068326945,-0.04182166442424059,0.019059760985337196
1772731514257600300,6.287600341796875,0.08477145609557628,-0.03507598955631256,-0.05354567569401115
1772731514267628300,6.297628173828125,0.09006956250369548,0.03286825037896633,-0.12368749873880296
1772731514277657300,6.3076572265625,0.046159109106659886,0.04179652998298406,-0.21451379789393393
1772731514287685000,6.31768505859375,-0.034654549273848534,0.06929916167557239,-0.1592527696494013
1772731514297713200,6.327713134765625,-0.005915361523628235,0.09658873513936996,0.10686369837829843
1772731514307741200,6.3377412109375,0.10526946972310543,0.13672025451958178,0.11885700984243303
1772731514317769200,6.347769287109375,0.20547522631585596,0.06082651688456535,-0.27563047509780153
1772731514327798000,6.357798095703125,0.13207330549657345,0.1806963204987347,-0.3818389244377613
1772731514337826300,6.367826416015625,-0.007107786178588866,0.29069223422184587,-0.2907727521121502
1772731514347854000,6.37785400390625,-0.007445639830827713,0.2718035554870963,-0.34025486816167827
1772731514357882400,6.38788232421875,0.02324994268417358,0.23481910196095704,-0.23077349809827283
1772731514367910100,6.39791015625,0.04020633818209171,0.19011209135875104,-0.09038401701403781
1772731514377939200,6.407939208984375,0.10092471851706504,0.13620266038626433,0.007391023566760122
1772731514387967200,6.41796728515625,0.19527005864381788,0.09405570953041315,0.06317517150309868
1772731514397995300,6.427995361328125,0.3269002965480089,0.06777882024049758,0.0265087252844125
1772731514408023000,6.43802294921875,0.3526028930813074,0.028840163906663656,-0.08001579513424076
1772731514418051300,6.44805126953125,0.2913730560928583,0.025196108315885066,-0.09730683854715898
1772731514428080400,6.458080322265625,0.11557751324772834,0.051544747667759655,-0.15256017667558044
1772731514438108200,6.468108154296875,0.0460714308232069,0.079529463788867,-0.11667743731364608
1772731514448136400,6.478136474609375,0.001972176855802536,0.08555486155822872,0.017036717025400137
1772731514458164200,6.488164306640625,-0.041999066817760465,0.04700272032395005,0.054535531548154534
1772731514468192300,6.498192138671875,-0.03461713987290859,0.015618278761953115,0.05446778637445531
1772731514478221000,6.508220947265625,-0.04498480463027954,0.04082417781949043,0.1001565288898535
1772731514488249300,6.518249267578125,-0.03550795123279094,0.027173691999167204,0.10413845639917998
1772731514498277000,6.528277099609375,-0.00336626156270504,-0.008311170618981123,0.1170680988653563
1772731514508305400,6.538305419921875,0.028951953718066213,-0.00754573920443654,0.13770166677236556
1772731514518333200,6.548333251953125,0.04713935231566429,-0.04110284863039851,0.16719928994076325
1772731514528362200,6.5583623046875,0.04553951590359211,-0.06929916167557239,0.18743704519690946
1772731514538390300,6.568390380859375,0.07183540215492248,-0.045994566194713114,0.14974526538532226
1772731514548418300,6.578418212890625,0.0593342325001955,-0.039015520962327715,0.12460333494208753
1772731514558446000,6.588446044921875,0.015031564915180205,-0.034295214442163706,0.1390474553581327
1772731514568474400,6.598474365234375,-0.030340193206071852,-0.01170651214569807,0.15323453227318823
1772731514578503200,6.608503173828125,-0.0030260698229074476,-0.017415829703211785,0.13788415633295661
1772731514588531200,6.61853125,0.022744331249594688,0.03241597656682133,0.0954273175440263
1772731514598559200,6.628559326171875,0.012514613658189773,0.04367635238021612,0.05796639647940174
1772731514608587300,6.638587158203125,0.025859832921624182,0.034097353782504794,0.09769290612214244
1772731514618615000,6.648614990234375,0.013520575830340385,0.025505174265056847,0.12211687015490606
1772731514628644400,6.658644287109375,0.06020341655015945,0.04075330454036593,0.12173806343777105
1772731514638672400,6.66867236328125,0.12033902856111525,0.04333265350908041,0.07631982212655712
1772731514648700200,6.6787001953125,0.23211188882887362,0.018015695292502642,0.03174083780121291
1772731514658728200,6.688728271484375,0.35087095472216606,0.02635419230982661,0.009105300688336137
1772731514668756200,6.698756103515625,0.3329220410555601,0.03500686984285712,0.047312722421460784
1772731514678785300,6.708785400390625,0.16081541585624218,0.013840163173526524,0.08171335629974491
1772731514688813300,6.718813232421875,0.14303484449386597,0.03377484382987022,0.028624301799433306
1772731514698841300,6.72884130859375,0.2528571552157402,0.06074424542859196,-0.026994079382251946
1772731514708869000,6.738869140625,0.3195534409165382,0.04470525703653693,-0.07416786825705785
1772731514718897400,6.7488974609375,0.37594577474594115,0.037314562263339755,-0.07898667128221132
1772731514728926200,6.75892626953125,0.3668061904788017,0.04984218153357506,-0.03442107387811411
1772731514738954200,6.768954345703125,0.16421908681988714,0.03629661739245057,0.008700188202876597
1772731514748982300,6.778982177734375,0.044458150407671926,0.016132511894404886,0.004232285541202873
1772731514759010300,6.78901025390625,0.09282382964789866,0.040909664145857096,-0.07578357352511957
1772731514769038000,6.7990380859375,0.197190797573328,0.10612272555157541,-0.1640445339705795
1772731514779067400,6.8090673828125,0.22107436198592184,0.09095058312192558,-0.18308160820007324
1772731514789095200,6.81909521484375,0.2088368117034435,0.06394727925360202,-0.11657842478542588
1772731514799123200,6.829123291015625,0.16045008967518806,0.05812880223318934,-0.0582558078800328
1772731514809151200,6.839151123046875,0.09252747704982757,0.037437165729701516,-0.010006649425253271
1772731514819179300,6.84917919921875,0.02572130123376846,0.016959025846421717,-0.03782582712057046
1772731514829207300,6.859207275390625,0.026549568751454353,0.012457330513000488,-0.08935952367135323
1772731514839236400,6.869236328125,0.053093292284011835,0.018022271163761615,-0.07689305087067186
1772731514849264000,6.87926416015625,0.016621464455127716,-0.01610328579992056,-0.0222843307887204
1772731514859292200,6.889292236328125,-0.022052257332205772,-0.02375043955221772,0.0005382533288560808
1772731514869320200,6.8993203125,-0.035195816543698306,-0.03281988119259476,0.016519264455977827
1772731514879348200,6.90934814453125,-0.05752689081728458,-0.05353153757080435,0.018446031267475335
1772731514889377300,6.919377197265625,-0.11394026743471622,-0.045025428901612756,-0.013321947985701263
1772731514899405300,6.9294052734375,-0.15472528228759766,-0.06114025900885462,-0.01880184070151299
1772731514909433000,6.93943310546875,-0.14059154299497603,-0.05554185447990894,-0.0006764379568397999
1772731514919461400,6.94946142578125,-0.11624503724575042,-0.08209098483994602,0.03650569356586784
1772731514929489200,6.9594892578125,-0.07748948239386082,-0.0938049496397376,0.0026381664838641882
1772731514939518200,6.969518310546875,-0.053635144075751304,-0.10238792293742298,-0.009626326604466886
1772731514949546200,6.979546142578125,-0.011131634867191313,-0.08480345866903662,-0.0539055037160404
1772731514959574300,6.98957421875,-0.016087211447954178,-0.07023381217718123,-0.09174525889726355
1772731514969602300,6.999602294921875,-0.006178396373987197,-0.06295256912782787,-0.15787406517472116
1772731514979630300,7.00963037109375,0.015203414350748061,-0.10435951527133583,-0.1868554459166713
1772731514989659400,7.019659423828125,0.07477496273815631,-0.11013678349852561,-0.19431628331663087
1772731514999687200,7.029687255859375,0.05702887816727161,-0.12146569450348615,-0.18542722147814927
1772731515009715200,7.039715087890625,-0.014138999989628791,-0.1488927767418325,-0.09445444479072466
1772731515019743200,7.0497431640625,-0.14416063365340231,-0.15201456202417613,0.08295337382294238
1772731515029771300,7.059771240234375,-0.2903092262536287,-0.18437997744753956,0.14715828109942375
1772731515039800000,7.069800048828125,-0.3334709071099758,-0.14275924242287874,0.11124092708183451
1772731515049828400,7.079828369140625,-0.36643092742562294,-0.14548326055929064,0.013327957601379602
1772731515059856100,7.089856201171875,-0.4139882128924131,-0.1791935147203505,-0.02438123000273481
1772731515069884400,7.099884521484375,-0.5424971039056777,-0.17319018265232441,-0.005004712952114641
1772731515079912200,7.109912109375,-0.723426502507925,-0.1667393990777433,-0.0021872261122800407
1772731515089941200,7.119941162109375,-0.7775222498327493,-0.1655170176759362,-0.03305193638280034
1772731515099969000,7.129968994140625,-0.7264274378895759,-0.09303791078999638,-0.05095359510788694
1772731515109997300,7.139997314453125,-0.6506278082787991,-0.07004939552098512,-0.06791117791589349
1772731515120025000,7.150025146484375,-0.5449240387916565,-0.07042977314069866,-0.037286322549544275
1772731515130053400,7.160053466796875,-0.45148353855013845,-0.04388926447853446,0.006450600911490619
1772731515140082200,7.170082275390625,-0.4002157081276178,-0.04597118531912565,0.10091573149301111
1772731515150110200,7.180110107421875,-0.35267362022995946,-0.07489727394357323,0.13536546064345165
1772731515160138200,7.19013818359375,-0.2177946096628904,-0.07946794285997748,0.10276861108439042
1772731515170166300,7.200166259765625,-0.10810440088808536,-0.05855827969163656,0.060946435203496366
1772731515180194000,7.210194091796875,-0.020656419059634206,-0.04920929045751691,-0.019049367455486205
1772731515190223400,7.220223388671875,0.1404489196538925,-0.021038257984071967,-0.11618154355548321
1772731515200251400,7.23025146484375,0.2527969494611025,-0.02338482111021876,-0.1376779388369061
1772731515210279400,7.240279541015625,0.26759879727363584,-0.022361469411849973,-0.16852177071617916
1772731515220307500,7.250307373046875,0.22785949208140371,0.00012727964147925377,-0.1202063055595383
1772731515230335500,7.26033544921875,0.04243804275691509,0.04626066978499293,0.03131181471720337
1772731515240364300,7.2703642578125,-0.11875614328384398,0.08755947937890887,0.07559468162320554
1772731515250392300,7.280392333984375,-0.21654022568762302,0.13103577914237977,0.1275918857662007
1772731515260420400,7.29042041015625,-0.2025239752948284,0.17614976311028002,0.12993150769490747
1772731515270448400,7.300448486328125,-0.16792378655672072,0.19670783636197448,0.045990456275176256
1772731515280476400,7.310476318359375,-0.11437106006741524,0.20976751668229698,-0.03489438591171056
1772731515290505500,7.32050537109375,-0.016974515676498412,0.21007702102288603,-0.07045945589290932
1772731515300533200,7.330533203125,0.02743804202377796,0.20474267425760626,-0.03176428945874795
1772731515310561500,7.3405615234375,0.058900517258048055,0.19944135297909377,0.024584607087727636
1772731515320589300,7.35058935546875,0.08289397178590298,0.19308058577552437,0.019840499566867946
1772731515330617300,7.360617431640625,0.03885959974825382,0.18275018428862094,0.028321035403385757
1772731515340646400,7.370646484375,0.03426584221720695,0.21504297286719082,0.05633795502735302
1772731515350674400,7.38067431640625,0.04529810836315155,0.22403408857434987,0.11876308448128402
1772731515360702500,7.390702392578125,0.06126549282371997,0.20736995402127503,0.12902759939143432
1772731515370730500,7.40073046875,0.04863982000648975,0.21448212411403655,0.10423159630903973
1772731515380758300,7.41075830078125,0.07922668145000934,0.19830723438262937,0.09354620737200603
1772731515390787300,7.420787353515625,0.13132336391210556,0.20023177270442247,0.10756295095514505
1772731515400815400,7.4308154296875,0.17703005307614803,0.1726560757756233,0.1002183603459969
1772731515410843400,7.440843505859375,0.226400525444746,0.17138327936083078,0.14098207668252288
1772731515420871400,7.450871337890625,0.23433365653157232,0.15977233654409645,0.19653246152875944
1772731515430899500,7.4608994140625,0.2498293318271637,0.11153437533676623,0.234008461431507
1772731515440928500,7.470928466796875,0.3042202627062797,0.1298033147379756,0.22575777056179938
1772731515450956300,7.480956298828125,0.3921639190971851,0.11370762772262095,0.1896318700937554
1772731515460984600,7.490984619140625,0.46378363267481326,0.10672200661897659,0.1639817709326744
1772731515471012400,7.501012451171875,0.5331617048054933,0.11402151597738265,0.1617688441235572
1772731515481040400,7.511040283203125,0.5205909770458936,0.0937266237065196,0.22709197830762712
1772731515491069400,7.5210693359375,0.5446119041025638,0.10339140089154243,0.24889194137919693
1772731515501097500,7.531097412109375,0.5193494525521993,0.11280892531722783,0.3087181951800361
1772731515511125200,7.541125244140625,0.445807246479392,0.09453706330657005,0.29504392662532625
1772731515521153500,7.551153564453125,0.41856151215732096,0.14206044650375843,0.27358861227296294
1772731515531181300,7.561181396484375,0.3507254087716341,0.18145576056391,0.2195586236607283
1772731515541210400,7.57121044921875,0.26420155605077744,0.16966478500515222,0.21248684037728233
1772731515551238400,7.58123828125,0.2271586503356695,0.19575228920280932,0.22557435855260116
1772731515561266400,7.591266357421875,0.1914654056638479,0.20295710601508615,0.22763627778477966
1772731515571294200,7.601294189453125,0.21528233458101748,0.17682079423964023,0.22536245110128073
1772731515581322500,7.611322509765625,0.23917525134384632,0.14931640898138285,0.19408799098609014
1772731515591351600,7.6213515625,0.24348376219272613,0.16733751110136508,0.16629240422891453
1772731515601379300,7.63137939453125,0.253478501984477,0.16245996819287536,0.12588767566420137
1772731515611407600,7.64140771484375,0.23767303008735177,0.15525807399004696,0.13277139816279523
1772731515621435400,7.651435302734375,0.18267302739918231,0.15451953058242798,0.16093036573911085
1772731515631463200,7.661463134765625,0.1384194596529007,0.11285890193879604,0.194827173714526
1772731515641492500,7.671492431640625,0.11686346140503882,0.07290566173493862,0.2101509995745495
1772731515651520500,7.6815205078125,0.13224515493214128,0.08051116830259561,0.20920007379157468
1772731515661548300,7.69154833984375,0.10441899037361145,0.06422668071687221,0.1903530787740834
1772731515671576600,7.70157666015625,0.06489771184623241,0.05993336743712425,0.15808969895308836
1772731515681604400,7.711604248046875,0.042643794462084765,0.0661687546953559,0.1890927034494467
1772731515691633400,7.72163330078125,-0.09702595751285552,0.030361820515990255,0.28491197031997145
1772731515701661400,7.731661376953125,-0.1788560994595289,0.020138532665371894,0.30518282412812114
1772731515711689500,7.741689453125,-0.15768354757130146,0.02336421671360731,0.3003462708171457
1772731515721717200,7.75171728515625,-0.1240145022034645,0.03101999216377735,0.25657730825003233
1772731515731745500,7.76174560546875,-0.09661094697117804,0.0473676081135869,0.2895179297454655
1772731515741774300,7.7717744140625,-0.11310732374191283,0.03934679874330759,0.3231146405294537
1772731515751802400,7.78180224609375,-0.10637889226973056,0.031165245853364467,0.302991415031068
1772731515761830400,7.791830322265625,-0.05667290433645248,0.029713585740327834,0.3064916051717475
1772731515771858400,7.8018583984375,0.016546645653247833,0.03474135077446699,0.26598697816282507
1772731515781886500,7.811886474609375,0.09884440511167049,0.0021308745488524436,0.2682702667944133
1772731515791915500,7.82191552734375,0.20121347721815108,-0.022899521811306476,0.3182842977635562
1772731515801943300,7.831943359375,0.24335692094266415,-0.07021452295482158,0.3191711636006832
1772731515811971300,7.841971435546875,0.2843763290733099,-0.06110825643539428,0.25526576899373904
1772731515821999400,7.851999267578125,0.31529870608150956,-0.06026625265330076,0.2124353293857537
1772731515832027400,7.86202734375,0.27951486051678653,-0.06590981149822474,0.17722411434352398
1772731515842056400,7.872056396484375,0.1813660364538431,-0.09470014491379261,0.17584867953816427
1772731515852084500,7.88208447265625,0.11079261705875396,-0.08426146074682474,0.1737773348905146
1772731515862112500,7.892112548828125,0.05553893187046051,-0.07290829208344221,0.15186205660989507
1772731515872140300,7.902140380859375,-0.012784078249335288,-0.07757336128503084,0.15082211910290644
1772731515882168300,7.912168212890625,-0.10082008909881114,-0.08036854496151208,0.12368459439566358
1772731515892197400,7.922197265625,-0.09595277532339096,-0.08359130640029906,0.09364046152671798
1772731515902225400,7.932225341796875,-0.06460311281383037,-0.11007657774388789,0.0887789381712675
1772731515912253400,7.94225341796875,-0.05068155496716499,-0.14927315436154603,0.1193712429748848
1772731515922281500,7.952281494140625,-0.026528525963425635,-0.1576218805119395,0.12084451213153079
1772731515932309500,7.9623095703125,0.010661679267883301,-0.15297434696704149,0.10753367006173356
1772731515942338600,7.972338623046875,0.02529869190752506,-0.17158552393466234,0.11121234030816704
1772731515952366300,7.982366455078125,0.0033130700707435607,-0.16406740338951348,0.08618325912225991
1772731515962394400,7.992394287109375,0.008706453546881675,-0.12876754194945098,0.03297174728605896
1772731515972422400,8.00242236328125,-0.05866787754595279,-0.10795651684999465,-0.01516505510173738
1772731515982450400,8.012450439453126,-0.09979659126996994,-0.09386047921925783,-0.09770239546969532
1772731515992479200,8.022479248046874,-0.0998287399739027,-0.0550751137509942,-0.11397840748801827
1772731516002507500,8.032507568359375,-0.13009528342187404,-0.05060352129489183,-0.1185179506137967
1772731516012535300,8.042535400390625,-0.1703904689311981,-0.034116789135336875,-0.09994770844476297
1772731516022563600,8.0525634765625,-0.19958207662403582,-0.008556523682177066,-0.09579555720137432
1772731516032591400,8.06259130859375,-0.19774726241230964,0.0496527964413166,-0.0837757961217314
1772731516042620400,8.072620361328125,-0.23604981279969214,0.09579553893506526,-0.10105059165274724
1772731516052648200,8.082648193359375,-0.22583646182119846,0.11988602409660816,-0.12455849115336314
1772731516062676500,8.092676513671876,-0.189247729614377,0.15090221686810254,-0.16075869896663353
1772731516072704300,8.102704345703126,-0.1091004261881113,0.16695640282928942,-0.16618006642824037
1772731516082732500,8.112732666015624,-0.035059622943401335,0.14302461536079644,-0.15706092216093093
1772731516092761600,8.12276171875,0.05310206011235714,0.14707535205632447,-0.1395320240046829
1772731516102789400,8.132789306640625,0.12790683346688747,0.14656009601056574,-0.10071801696382462
1772731516112817400,8.1428173828125,0.11667933700978755,0.1323790104448795,-0.06974317911602557
1772731516122845400,8.152845458984375,0.04900456166565418,0.14439239658266306,-0.04537384048048407
1772731516132873200,8.162873291015625,0.001298223116993904,0.18839958835244178,-0.05215882444549352
1772731516142902300,8.17290234375,-0.05376373889148235,0.24881109469532964,-0.11418759325928986
1772731516152930600,8.1829306640625,-0.08092880919277667,0.28640082063823935,-0.13763806348424404
1772731516162958300,8.192958251953126,-0.0798994661450386,0.3260807968586683,-0.13902856799457222
1772731516172986600,8.202986572265624,-0.04718552954494953,0.33380057745575903,-0.16604447561614213
1772731516183014400,8.213014404296874,0.05651859055757522,0.32108342696279285,-0.16378113379403947
1772731516193043500,8.22304345703125,0.1802501841664314,0.3037733957216143,-0.15782324830293654
1772731516203071500,8.233071533203125,0.27763270003199575,0.2885080220505595,-0.16940445356853306
1772731516213099500,8.243099609375,0.3793243112683296,0.2900321628779173,-0.14831618243027478
1772731516223127600,8.25312744140625,0.426838342115283,0.29778292313516136,-0.14699947380851952
1772731516233155600,8.263155517578125,0.37988369871675964,0.29985446871221066,-0.11881517999470233
1772731516243184600,8.2731845703125,0.34250469291508195,0.31784371438920495,-0.14203249905090778
1772731516253212400,8.28321240234375,0.3041220630288124,0.32971184683740135,-0.15160587162543088
1772731516263240400,8.293240478515624,0.22313830877840518,0.34800796650648114,-0.16716960718855262
1772731516273268500,8.3032685546875,0.19480945539474487,0.3391381390914321,-0.19671916147358715
1772731516283296500,8.313296630859375,0.22516893782317637,0.3192427675321698,-0.14967424597572535
1772731516293325300,8.3233251953125,0.22976561796367168,0.27412615321576594,-0.1014240098087117
1772731516303353600,8.333353515625,0.25354338391423226,0.23331249679028987,-0.10523392348568886
1772731516313381400,8.34338134765625,0.2839221555650234,0.21461510284394025,-0.14112645358927547
1772731516323409700,8.35340966796875,0.28529344391822814,0.19007570487111805,-0.1612996922418475
1772731516333437400,8.3634375,0.2678799523025751,0.1467205472692847,-0.1094568749429658
1772731516343466500,8.373466552734374,0.16275018331110477,0.09406593866348266,-0.029315818594396113
1772731516353494500,8.38349462890625,0.09035247109830379,0.04085135808736086,0.06995251101776957
1772731516363522600,8.3935224609375,0.055633039894700045,0.0020969722792506217,0.06563837414570152
1772731516373550300,8.40355029296875,0.029020342779159543,-0.016002455773949622,0.0215866491144523
1772731516383578600,8.41357861328125,-0.02788812387883663,-0.008109948958456516,-0.010681881805695593
1772731516393607700,8.423607666015625,-0.09243219998180865,-0.020618132875859736,0.015065028793364762
1772731516403635500,8.433635498046876,-0.170856917399168,-0.04972615393847227,0.04009538862090557
1772731516413663700,8.443663818359376,-0.21265140155553816,-0.08597615571022033,0.12780698982160538
1772731516423691500,8.45369140625,-0.2145803237915039,-0.11664718830585478,0.19434556421004234
1772731516433719600,8.463719482421874,-0.17928572304844856,-0.14134645301550625,0.2056591315153986
1772731516443748400,8.473748291015625,-0.17066402517557144,-0.13301087860763072,0.2095098886594176
1772731516453776600,8.483776611328125,-0.20605565655231475,-0.11017127029001712,0.1799401318365708
1772731516463804400,8.493804443359375,-0.18007950377464294,-0.1283499010592699,0.12841094706412404
1772731516473832700,8.503832763671875,-0.17139526205956934,-0.11198650301843881,0.10124419626239686
1772731516483860500,8.513860595703125,-0.15306348655521868,-0.08932809648662805,0.10561327819209546
1772731516493889500,8.5238896484375,-0.11373042407631874,-0.08031886060088872,0.12783493727445602
1772731516503917600,8.53391748046875,-0.04549918389320373,-0.08360475040376186,0.09299096637573093
1772731516513945600,8.543945556640624,0.04800444471240043,-0.05990794073492288,0.03527549418378621
1772731516523973400,8.553973388671874,0.11893266889452933,-0.022970833481848238,0.01322283499278128
1772731516534001700,8.564001708984375,0.18087971424162386,-0.025355098269879816,0.008933686431497334
1772731516544030500,8.574030517578125,0.16109598636329173,-0.0049169981360435485,0.02338412699047476
1772731516554058500,8.58405859375,0.10837854165434836,0.018505963027477264,0.006689560766518115
1772731516564086500,8.59408642578125,0.08816577470898627,0.016452829889953134,0.019860555974207817
1772731516574114600,8.604114501953125,0.16378420253396034,0.03721475515067577,0.0030975276239216328
1772731516584142300,8.614142333984375,0.21992051577568053,0.0472217699021101,-0.030361309059336778
1772731516594171600,8.624171630859376,0.2913011599004268,0.059821723756194115,-0.08149795085024088
1772731516604199700,8.63419970703125,0.2824538365781307,0.06314736104756594,-0.06106702937586233
1772731516614227500,8.6442275390625,0.19491466933488844,0.06573036327809095,-0.06375919106928632
1772731516624255500,8.65425537109375,0.11919745731055736,0.08286123856008053,-0.06382979035377502
1772731516634283500,8.664283447265625,0.10128186139166355,0.07900134826153517,-0.03168346104118973
1772731516644312600,8.6743125,0.08126490927934646,0.0900230930134654,-0.04992496444620192
1772731516654340600,8.684340576171875,0.11472294224500655,0.10354045397341251,-0.09871626695366575
1772731516664368600,8.69436865234375,0.1835796208500862,0.10813333472162484,-0.11496668787300586
1772731516674396400,8.704396484375,0.1878968995273113,0.07869739687889814,-0.08701390126012265
1772731516684424700,8.7144248046875,0.1932353379458189,0.07600421227216721,-0.06878534866822883
1772731516694452500,8.724452392578126,0.13321253865957258,0.05562573337107896,-0.06643167994786053
1772731516704481500,8.7344814453125,0.0670505059659481,0.0372527490735054,-0.04179344297675416
1772731516714509600,8.744509521484375,0.05586684865057468,0.040539515659213064,-0.0608599442301318
1772731516724537600,8.75453759765625,0.07750701805055141,0.06362082377821207,-0.08714704438680783
1772731516734565400,8.7645654296875,0.06783025816679,0.05996259353160858,-0.11479900315590202
1772731516744593700,8.77459375,0.04149696251451969,0.061440264868736265,-0.10786222616266458
1772731516754622500,8.78462255859375,-0.010342530316114425,0.03880348564684391,-0.041979741062782704
1772731516764650500,8.794650390625,-0.058330608415603634,0.051615620946884155,-0.021791505770478396
1772731516774678500,8.804678466796876,-0.08272621400356292,0.054721185746788976,-0.025837621089816094
1772731516784706600,8.81470654296875,-0.06853285347819328,0.05759264952987432,-0.0420897773085162
1772731516794734600,8.824734619140624,-0.08405541678071021,0.08985212036073208,-0.08033224980542436
1772731516804763600,8.834763671875,-0.12931085504591464,0.07658785737901926,-0.06418161773243919
1772731516814791400,8.84479150390625,-0.13084171787500382,0.08521744629740714,-0.025115718289744106
1772731516824819500,8.8548193359375,-0.1600736575782299,0.0816620919033885,-0.008589055978599935
1772731516834847500,8.864847412109375,-0.1582125398814678,0.04725333408415317,0.004505147665832192
1772731516844875500,8.87487548828125,-0.10295300947427749,0.06171762050539255,-0.01984314818168059
1772731516854904300,8.884904296875,-0.04509878639876842,0.07597060226351023,-0.05270211927564814
1772731516864932600,8.8949326171875,0.02627951963841915,0.08486760994642972,-0.08096552447397261
1772731516874960400,8.90496044921875,0.06652268269956112,0.07267769819796085,-0.08107240064823999
1772731516884988700,8.91498876953125,0.06550561461150646,0.04562310253381729,-0.03859910391485318
1772731516895016400,8.925016357421875,0.09294365663528442,0.009031155456602573,-0.007368976131733506
1772731516905045500,8.93504541015625,0.10576923593878745,-0.0005441898792982101,0.03567216535117477
1772731516915073500,8.945073486328125,0.07547112830877303,-0.0034349428847432134,0.05680643105562776
1772731516925101600,8.9551015625,0.02791851901710033,0.006560673689842224,0.07159229584774002
1772731516935129600,8.965129638671876,0.011700959187746046,0.005688859291374683,0.07942680713199078
1772731516945157600,8.97515771484375,0.00660918900668621,0.015412965448200701,0.06496701422277838
1772731516955186700,8.985186767578124,0.02977203792929649,0.0047553778335452076,0.07805548224616796
1772731516965214500,8.99521435546875,0.062409986683726305,0.0006225158125162124,0.1259160432421602
1772731516975242500,9.005242431640625,0.0829489168435335,-0.031000410680472847,0.17084140930278227
1772731516985270500,9.0152705078125,0.11974164718985557,-0.03963847516626119,0.17480918042259289
1772731516995298600,9.025298583984375,0.0374181687682867,-0.03164250797629356,0.16221909037539733
1772731517005327400,9.035327392578125,0.030206337693333623,-0.030044425129890442,0.13119429417233913
1772731517015355600,9.045355712890625,0.030257191097736356,-0.021596330258250234,0.13462915485869162
1772731517025383400,9.055383544921876,-0.047585342517495154,-0.020190262852609157,0.1262341510143131
1772731517035411700,9.06541162109375,-0.03834229787588119,-0.002087327668070793,0.11128761576777324
1772731517045439500,9.075439453125,-0.060974400922656054,-0.014749825364351273,0.10578588567948899
1772731517055467500,9.085467529296874,-0.0625806670755148,-0.022403262726962567,0.10731831027800216
1772731517065496300,9.095496337890625,-0.059713002684712406,-0.015491291381418705,0.09384189324979669
1772731517075524600,9.105524658203125,-0.058331777459383005,-0.02177168682515621,0.11991087541007436
1772731517085552400,9.115552490234375,-0.046074353432655334,-0.010912146897614002,0.12374418822894803
1772731517095580700,9.12558056640625,-0.056714989912509915,0.027236966493725773,0.13560910580675117
1772731517105608400,9.1356083984375,-0.13175298750102518,0.029237784922122954,0.1543586957312189
1772731517115637500,9.145637451171876,-0.18395313033759592,0.04789630816280842,0.17071246742717922
1772731517125665500,9.15566552734375,-0.22418109582960605,0.09028934273421764,0.1264476019687485
1772731517135693600,9.165693603515624,-0.1838718817949295,0.11303513528853654,0.0637774482451845
1772731517145721300,9.175721435546874,-0.12742051125466822,0.13595774571448563,0.014240414537489414
1772731517155749600,9.18574951171875,-0.15440262620449066,0.14643091667294503,0.0031835071406327185
1772731517165778700,9.19577880859375,-0.14673895970880985,0.1599474008500576,0.009813172679767012
1772731517175806500,9.205806396484375,-0.02141571299433708,0.17849661849737167,-0.06207196863470599
1772731517185834800,9.215834716796875,0.15132570297718048,0.1825555384993553,-0.07369499461487866
1772731517195862500,9.225862548828125,0.2134071883589029,0.16744944704324005,-0.024546923692151904
1772731517205890300,9.235890380859376,0.26365970425903795,0.12590572277754544,-0.0001394632696174085
1772731517215919600,9.245919677734374,0.29651100350320336,0.1412616973415017,-0.02680106842764653
1772731517225947600,9.25594775390625,0.32553485341370103,0.11300210980176925,-0.027923012529127298
1772731517235975400,9.265975341796874,0.32673663041889667,0.09911240839809178,-0.030576467913668602
1772731517246003700,9.276003662109375,0.2780506331831217,0.11041297009140252,-0.05592600409244187
1772731517256031500,9.286031494140625,0.22689503096342087,0.11556260793954133,-0.07863453337629325
1772731517266060500,9.296060546875,0.1799672755718231,0.09122457775771617,-0.06687575218724086
1772731517276088600,9.306088623046875,0.1827735651642084,0.0888315451413393,-0.063423255379498
1772731517286116600,9.31611669921875,0.23091595704257487,0.06680588355511427,-0.021086554105207322
1772731517296143600,9.3261435546875,0.2635609200596809,0.05738222164958715,0.030045210581179708
1772731517306171400,9.33617138671875,0.2586176184386015,0.03595949439257383,0.08085406345613301
1772731517316199400,9.346199462890626,0.25929975548386575,0.04743453586995602,0.058354372883681206
1772731517326228700,9.356228759765624,0.21897008318305014,0.10185206249505281,0.004408034833753481
1772731517336256500,9.366256591796875,0.08766308588385581,0.11081161402016877,-0.018847232479508966
1772731517346284500,9.376284423828125,-0.030122166541218756,0.11762538568824529,-0.018838117591291666
1772731517356312600,9.3863125,-0.021981530183553696,0.13475333836078643,-0.05728421376836486
1772731517366340600,9.396340576171875,0.03745382460355758,0.15351210710555313,-0.10175175305888988
1772731517376369400,9.406369384765625,0.023932664251327514,0.17140081501752139,-0.12925491447444074
1772731517386397700,9.416397705078126,-0.05366963086724281,0.17443126875460147,-0.11575690666893497
1772731517396425500,9.426425537109376,-0.16933073074519633,0.19272621937990186,-0.11231596330166793
1772731517406453500,9.43645361328125,-0.2297036586433649,0.20426263565570116,-0.10166266826963982
1772731517416481500,9.4464814453125,-0.2291939555555582,0.2081777632728219,-0.11796094691869802
1772731517426509600,9.456509521484374,-0.2047469120413065,0.21538082651942966,-0.10633015775717794
1772731517436538400,9.466538330078125,-0.19264730892479418,0.22314853791147468,-0.05730171289243735
1772731517446566700,9.476566650390625,-0.17680384310483932,0.1866682345151901,-0.02364872361025773
1772731517456594400,9.486594482421875,-0.11761281846761702,0.1429702548250556,0.004009683165932074
1772731517466622500,9.49662255859375,-0.07173603343367577,0.11800532491654157,0.02126543606976047
1772731517476650500,9.506650390625,-0.08256780857145786,0.07749328178614377,0.026132137923827393
1772731517486679600,9.516679443359376,-0.08942658842504024,0.05208820689469575,0.05678598192264325
1772731517496707300,9.526707275390624,-0.0483458054959774,0.030248423269391058,0.09228171299467794
1772731517506735600,9.536735595703124,-0.017992168286442754,-0.014104220937192439,0.14600242559518664
1772731517516763400,9.546763427734374,0.007619242832064628,-0.033364801724255086,0.23703882383704183
1772731517526791700,9.556791748046875,0.04185936608612537,-0.005426116701960563,0.2983965067225508
1772731517536820500,9.566820556640625,0.039326048216223715,-0.10511515594422817,0.28829967652950433
1772731517546848500,9.5768486328125,0.06766834560334682,-0.050147594220936294,0.3282308875646442
1772731517556876500,9.58687646484375,0.06795008515417575,-0.037404432503879065,0.2991819397455081
1772731517566904600,9.596904541015626,0.010751111117005347,-0.056069677746295926,0.2541696991190314
1772731517576932400,9.606932373046876,0.00952536871433258,-0.033332945281267165,0.2077690180751495
1772731517586961400,9.61696142578125,0.08418985681533812,-0.02409545359760523,0.18766546539161352
1772731517596989700,9.62698974609375,0.1110264258146286,-0.03715221130847931,0.19634163339808583
1772731517607017500,9.637017578125,0.12933306687772272,-0.06238777485191822,0.20191923260102046
1772731517617045800,9.647045654296875,0.13020517353713512,-0.03560848899781704,0.176221147846058
1772731517627073500,9.657073486328125,0.05340893410444259,-0.010438099645078181,0.1225098606610205
1772731517637102600,9.6671025390625,-0.0032873511075973507,0.021134850226342677,0.06209910323680378
1772731517647131400,9.67713134765625,-0.043345805251598354,0.04328355367034673,0.03464210991738364
1772731517657159700,9.68715966796875,-0.09943827935159205,0.051427404898405076,0.028594454650441182
1772731517667187500,9.6971875,-0.10667232225835323,0.02315495787709951,0.03373608272206038
1772731517677215500,9.707215576171874,-0.09629413610696792,0.030312720677256582,0.0191882005374413
1772731517687244300,9.717244384765625,-0.038408933371305465,0.05073591550290584,-0.02307401072853245
1772731517697272600,9.7272724609375,0.014575053319334983,0.0477598223015666,-0.06070036975424736
1772731517707300400,9.73730029296875,-0.00495090040564537,0.06463993769288062,-0.08055712633617222
1772731517717328600,9.74732861328125,-0.00352875864803791,0.044077042135596274,-0.06618285628594457
1772731517727356400,9.7573564453125,0.04125730853974819,0.04234130438417196,-0.08299750522561371
1772731517737384400,9.767384521484376,0.13463409589529038,0.0504959692671895,-0.08082320252698846
1772731517747413800,9.777413818359374,0.12089724696576594,0.054739890447258945,0.10119609193750656
1772731517757441500,9.787441650390624,0.12537117750942706,-0.12659896573871374,0.20268296524882315
1772731517767469600,9.797469482421874,0.2955436197757721,-0.1750742428332567,0.14988062786855735
1772731517777497600,9.80749755859375,0.36414310874938965,0.11079904679954052,0.20316024563806132
1772731517787525400,9.817525390625,0.4007552218317985,-0.07264438045024871,0.1849588002488017
1772731517797554400,9.827554443359375,0.30278584598898883,-0.14554478148818015,0.24985576317636296
1772731517807582700,9.837582763671875,0.21141922941207886,0.008471475747227668,0.3061108256932348
1772731517817610500,9.847610595703125,0.20758885746896266,-0.017666881854832173,0.16392149211280047
1772731517827638500,9.857638427734376,0.10181903700828551,0.03220540255606174,0.0499751054645516
1772731517837666600,9.86766650390625,0.034604280391335486,0.12651216423809528,-0.07402781589897349
1772731517847695600,9.877695556640624,-0.020677461847662924,0.19231617727428674,-0.18922913451176135
1772731517857723400,9.887723388671875,-0.06449439174234867,0.23494389738440513,-0.2520626803698018
1772731517867751700,9.897751708984375,-0.13360533736944197,0.25785744772106406,-0.26908267915584144
1772731517877779500,9.907779541015625,-0.20461773270368575,0.23934096329957244,-0.26198139578327534
1772731517887807500,9.917807373046875,-0.15706921506524085,0.23406711454987525,-0.2699270210254937
1772731517897836500,9.92783642578125,-0.10582651908397674,0.19737667553424834,-0.31031437833029774
1772731517907864600,9.937864501953126,-0.00833586666882038,0.14925708000957966,-0.30501316664963957
1772731517917892400,9.947892333984376,0.05983575228154659,0.10391717833131552,-0.2397583849940449
1772731517927920600,9.957920654296874,0.11864391508102416,0.06865414177030324,-0.2513752460949123
1772731517937948400,9.967948486328124,0.13566402346491813,0.0525961564168334,-0.2382009629515931
1772731517947976700,9.977976806640624,0.14858955601155757,0.04892155955731869,-0.1561601739289239
1772731517958005500,9.988005615234375,0.14862521184682845,0.018166648070514203,-0.1313296201229561
1772731517968033500,9.998033447265625,0.13986732037365435,-0.028622867894172666,-0.08084349639634601
1772731517978061300,10.008061279296875,0.12611761196255683,-0.03525748360306025,-0.005448246335377917
1772731517988089600,10.018089599609375,0.09471417343914508,-0.06515110208541154,0.05508928384024184
1772731517998117400,10.028117431640625,0.06702946317791939,-0.07431143687963486,0.06701142519772983
1772731518008146400,10.038146484375,0.03290390621423721,-0.07574234646558761,0.06298905608016066
1772731518018174700,10.0481748046875,0.05248246690928936,-0.10443769507408142,0.06309167620441876
1772731518028202500,10.058202392578124,0.07575988212227822,-0.12417904511541128,0.10626662753429263
1772731518038230500,10.06823046875,0.11186813733577727,-0.1445534323632717,0.1385126908943057
1772731518048258600,10.078258544921875,0.08433832537531852,-0.15626637424975634,0.10250258969250134
1772731518058287600,10.08828759765625,0.14656711027324199,-0.1349927000746131,0.04783159519641194
1772731518068315400,10.0983154296875,0.17194237454831598,-0.10115092848837375,0.03750453644406516
1772731518078343700,10.10834375,0.18658289431929587,-0.08101677973717451,0.0032565404108026996
1772731518088371500,10.118371337890625,0.23308219516575335,-0.0630357173666358,-0.06622762700943276
1772731518098399700,10.128399658203126,0.20035247647464274,0.013232114277780056,-0.15220162729518488
1772731518108428500,10.138428466796874,0.16370763016641138,0.07101561020463705,-0.22397488746671004
1772731518118456600,10.14845654296875,0.1275952832996845,0.16809738955795764,-0.20817535212002694
1772731518128484600,10.158484619140625,-0.040116906332969667,0.3651873571053147,-0.30675149821694936
1772731518138512600,10.1685126953125,-0.19159926117658613,0.2032306622594595,-0.4463851194325834
1772731518148540400,10.17854052734375,-0.12493687774538993,0.3012932693436742,-0.27334453785140067
1772731518158569500,10.188569580078125,0.15066285515427588,0.30310031876564025,-0.10734234874071552
1772731518168597500,10.198597412109375,0.3761369134038687,0.03287964855581522,-0.08479714765925891
1772731518178625500,10.20862548828125,0.4017190984278917,0.08466594989448785,-0.06905690475176088
1772731518188655600,10.218655517578124,0.3636211307018995,0.0817249280065298,-0.04867511051557958
1772731518198683400,10.228683349609375,0.3938292219609022,-0.031307869194447994,0.008446450903825462
1772731518208711700,10.238711669921875,0.42069560157656666,-0.07566635861992836,0.11839666232168673
1772731518218740500,10.248740478515625,0.3879290580064058,-0.11186872185766697,0.2140801191844046
1772731518228768500,10.2587685546875,0.3253793705910444,-0.14411241059750318,0.23255177808348088
1772731518238796500,10.268796630859375,0.306496975466609,-0.18756985953003166,0.15315507382880894
1772731518248824600,10.278824462890626,0.2519914782971144,-0.16401596546322106,0.16871601464664562
1772731518258852600,10.2888525390625,0.10783084464371204,-0.11239040764421224,0.1614580428750254
1772731518268881700,10.298881591796874,-0.03815700443685054,-0.1294604926496744,0.15373835360947996
1772731518278909400,10.308909423828124,-0.156722009062767,-0.12380787371546029,0.13081570665091274
1772731518288937500,10.3189375,-0.16473755773603915,-0.14368950901031494,0.056579143372084945
1772731518298965500,10.328965576171875,-0.010868015494942665,-0.1205661153152585,-0.010428893425315618
1772731518308993500,10.33899365234375,0.06388239732384682,-0.0959071826159954,0.0036092400057241318
1772731518319022300,10.349022216796875,0.14974924744069576,-0.1498150061532855,0.08711736163459717
1772731518329050600,10.359050537109376,0.16536825685501097,-0.14061609291434288,0.09228007816001772
1772731518339078400,10.369078369140626,0.18185294318795203,-0.12044336571842432,-0.017280293690040707
1772731518349106400,10.3791064453125,0.1540869843840599,-0.05871025538295507,-0.10075454958193003
1772731518359134500,10.389134521484374,0.0947527518838644,-0.15584814883768558,-0.09681392219737171
1772731518369163500,10.39916357421875,0.08120353448092937,-0.1403045427471399,-0.01797455956451595
1772731518379191600,10.409191650390625,0.03408347138762474,-0.09201748170107603,-0.04770505990702659
1772731518389219600,10.419219482421875,0.038644495692849154,-0.11593524064421654,-0.07551913216896354
1772731518399247600,10.42924755859375,0.05621931535005569,-0.09899112010598182,-0.11509400404710322
1772731518409275600,10.439275634765625,0.04773205751180649,-0.016423311534523963,-0.1893570717403665
1772731518419303400,10.449303466796875,0.053529930135607716,-0.019960545749962328,-0.16585764780715107
1772731518429332500,10.45933251953125,0.00034136078357696533,-0.0238961316332221,-0.12769932819604873
1772731518439360500,10.469360595703124,-0.059766778698563575,0.0013768413111567496,-0.11443806088902056
1772731518449388500,10.479388427734374,-0.10941723705232143,0.013705577008426189,-0.05149480757880956
1772731518459416600,10.48941650390625,-0.18332886095941064,0.04822276363819837,-0.07116013324186206
1772731518469444600,10.499444580078125,-0.2594973238825798,0.05235708696395158,-0.13827289078906177
1772731518479473700,10.5094736328125,-0.2942144169986248,0.07518032866865396,-0.17867683390248565
1772731518489501400,10.51950146484375,-0.27391221820414063,0.054576516579091544,-0.1745495613720268
1772731518499529700,10.52952978515625,-0.1767828003168106,0.0025268881291151046,-0.10237897244598716
1772731518509557500,10.5395576171875,-0.14569208100438116,0.04949556005299091,-0.1578641283025965
1772731518519585500,10.54958544921875,-0.19113222818672657,0.08577624922394753,-0.1738278960339725
1772731518529614300,10.5596142578125,-0.13829378744661808,-0.02786328169852495,-0.016190489159338177
1772731518539642600,10.569642578125,-0.1254524260520935,-0.0681003072798252,0.03331044118851423
1772731518549670400,10.57967041015625,-0.10805354748368262,-0.03132248224169016,0.06430040354020893
1772731518559698700,10.58969873046875,-0.06973755309283733,-0.04297989454865456,0.035678741222433745
1772731518569726500,10.5997265625,-0.06972060195803642,-0.026728432449698445,0.04728614037521183
1772731518579755500,10.609755615234375,-0.12348667893707752,0.0033349896416068076,0.07257394556254149
1772731518589783600,10.619783447265625,-0.1718552807867527,-0.007698153287172317,0.08401486557461321
1772731518599811600,10.6298115234375,-0.1958972506314516,0.014401742579042911,0.09204393131658434
1772731518609839400,10.63983935546875,-0.17326923923790455,0.026521219439804553,0.0761716047283262
1772731518619867600,10.64986767578125,-0.13955927733778953,0.007929331694543362,0.10343860103413462
1772731518629896700,10.659896728515625,-0.0831628518551588,0.0034670915886759754,0.10105492076799273
1772731518639924500,10.669924560546875,-0.013775427374243735,0.02261485965102911,0.06919339974615722
1772731518649952500,10.679952392578125,0.03024257805049419,0.0528749733582139,0.017798326214775444
1772731518659980500,10.68998046875,0.016994389420747755,0.04685469015538692,-0.0006811871971935034
1772731518670008300,10.70000830078125,0.015527239477634429,0.037488603655993935,-0.000592376402579248
1772731518680036600,10.71003662109375,0.04587853859961032,0.03264057910293341,0.03440360672008246
1772731518690065700,10.720065673828126,0.09538345100283623,0.03019523177742958,0.02308108892329037
1772731518700093400,10.730093505859376,0.1360533150434494,0.04376081579327583,0.007368556006625294
1772731518710121700,10.740121826171874,0.10723930849134922,0.06591302636861801,0.011763466497324406
1772731518720149500,10.7501494140625,0.11363397796452045,0.03899579334855079,0.015809782746061683
1772731518730177500,10.760177490234375,0.10141396333873272,0.015280863501131534,0.03940134194213897
1772731518740206600,10.77020654296875,0.07245148822665214,0.0046259062349796294,0.09290800080001353
1772731518750234600,10.780234619140625,0.09674071083068847,-0.006097440092265606,0.08219039009381085
1772731518760262400,10.790262451171875,0.12977730351388453,0.003227437613904476,0.04786963935159146
1772731518770290700,10.800290771484375,0.15608195759356022,0.008930325430631637,-0.013779080636054276
1772731518780318500,10.810318359375,0.16497721171081065,0.01085953992754221,-0.05932889873795211
1772731518790347500,10.820347412109374,0.17632278158962725,0.007049918511509895,-0.03594473521485925
1772731518800375600,10.83037548828125,0.18585165743529797,-0.03756517602354288,0.05413366818241775
1772731518810403600,10.840403564453124,0.17747662779986859,-0.060385787379741665,0.08510061498470604
1772731518820431400,10.850431396484375,0.18348142117261884,-0.05195055198967456,0.0681191946433857
1772731518830459600,10.860459716796875,0.1767921526670456,-0.030756665052473542,0.033269743851944804
1772731518840488400,10.870488525390625,0.1064466968089342,-0.011625848124921321,0.010557597838900984
1772731518850516500,10.8805166015625,0.022828502401709555,-0.01596066245883703,0.023361805560812354
1772731518860544500,10.89054443359375,-0.0382809230774641,-0.018530220685899258,0.05696136588901281
1772731518870572500,10.900572509765626,-0.07875029610991477,0.0006225158125162124,0.05588752611242234
1772731518880600600,10.9106005859375,-0.07097089428007602,0.004288052582740783,0.066054772926867
1772731518890629600,10.920629638671874,-0.057497080200910565,-0.0026858780831098554,0.054965588961914176
1772731518900657400,10.930657470703125,-0.027681787651777267,0.003822773158550262,0.05930639464519918
1772731518910685400,10.940685546875,-0.035118075132369996,0.018607962097227572,0.03540755959823728
1772731518920713500,10.95071337890625,-0.04873568159639835,-0.0007338672325015068,0.08400715719219297
1772731518930741500,10.960741455078125,-0.034631752920150756,0.004575929613411426,0.10942436091285199
1772731518940770600,10.9707705078125,0.011325111612677574,-0.0017024200037121771,0.12328936626669018
1772731518950798600,10.980798583984376,0.09758709852695464,0.029499942989647386,0.14530235103443265
1772731518960826600,10.99082666015625,0.09717676416039467,0.05230477225482463,0.11413655719179659
1772731518970854400,11.0008544921875,0.07071370464861393,0.08356471065431832,0.05707797800600528
1772731518980882700,11.010882568359374,0.04063303916156292,0.09379472050666808,0.03483852753862739
1772731518990910500,11.020910400390624,0.10997662450075149,0.09265782543122768,0.08222546140719204
1772731519000939500,11.030939453125,0.15612287412583828,0.09032587535232305,0.13040303419679403
1772731519010967600,11.040967529296875,0.14613397955298424,0.08521949212402105,0.1821962767329067
1772731519020995600,11.05099560546875,0.1252735623538494,0.0660074266538024,0.1821011823279783
1772731519031023600,11.061023681640625,0.07054945399761199,0.08071692000776529,0.15278576559238136
1772731519041051600,11.0710517578125,0.00857552064359188,0.08758359090685844,0.10107976294830441
1772731519051080400,11.08108056640625,0.03501519927978516,0.07488982128947973,0.10368490394540131
1772731519061108500,11.0911083984375,0.07762392242848873,0.041810558508336544,0.16523798153884708
1772731519071136500,11.101136474609374,0.10684709430336951,-0.012783493727445602,0.2616989255800843
1772731519081164500,11.11116455078125,0.03535246841013431,-0.0590790886953473,0.32240364271588623
1772731519091192600,11.121192626953125,0.03637538171708583,-0.11817746661305427,0.3127344085514545
1772731519101221600,11.1312216796875,0.06802782656550407,-0.11723872445821762,0.369091232676059
1772731519111249400,11.14124951171875,0.03043956192731857,-0.13047463812828064,0.39079580908175554
1772731519121277700,11.151277587890625,-0.059361120507121085,-0.12619535337388516,0.3384058792941272
1772731519131305500,11.161305419921876,-0.14529343707561493,-0.07597995461374521,0.2855467793584801
1772731519141333500,11.17133349609375,-0.17166648021638392,-0.04360854784101247,0.19639650539048015
1772731519151362300,11.1813623046875,-0.18346563908159733,0.012094634680449962,0.1171201943787746
1772731519161390600,11.191390625,-0.16129764641523361,0.040677755086123944,0.041861886836774644
1772731519171418400,11.20141845703125,-0.06867547681927681,0.09418781147748231,-0.0006662088237702846
1772731519181446700,11.21144677734375,0.06174421625137329,0.11338029546439647,-0.059088495844509446
1772731519191472600,11.22147265625,0.11788286758065224,0.1410813723385334,-0.08128379664290696
1772731519201500400,11.23150048828125,0.13188216683864593,0.1485816649660468,-0.0938714938036166
1772731519211529500,11.241529541015625,0.15594927112460136,0.1678513058423996,-0.10544820555718615
1772731519221557500,11.2515576171875,0.17626549844443798,0.1354179397493601,-0.10170110971704124
1772731519231585500,11.26158544921875,0.22924831609129903,0.13363397894203663,-0.08246471352316438
1772731519241613600,11.271613525390626,0.2557435243070125,0.14358984802812336,-0.07763075402807444
1772731519251641600,11.2816416015625,0.22857260878682134,0.13645458932071924,-0.08336785464165732
1772731519261670700,11.291670654296874,0.1743734010875225,0.12540566430091857,-0.11300892313504592
1772731519271698400,11.301698486328124,0.09843231717944145,0.13810177200585602,-0.12602536710184067
1772731519281726700,11.311726806640625,0.021011223846673963,0.1321703361302614,-0.09094647320238873
1772731519291754500,11.32175439453125,-0.014209727138280868,0.10684008004069327,-0.04422246022196486
1772731519301782500,11.331782470703125,0.029581483793258666,0.0760541888937354,0.023886779282987117
1772731519311811300,11.341811279296875,0.041975685942173005,0.0482978747010231,0.0433471021595411
1772731519321839600,11.351839599609375,0.10387129336297511,0.06174480077326298,0.025966983090527355
1772731519331867400,11.361867431640626,0.1277788231730461,0.0638788901925087,0.059390638862550256
1772731519341895700,11.371895751953126,0.113513566455245,0.030636253543198107,0.10108831158094107
1772731519351923500,11.38192333984375,0.11583528740108012,0.04535597603023052,0.06299670053049922
1772731519361952500,11.391952392578125,0.10360065972805023,0.04022971905767917,0.08926628329679369
1772731519371980500,11.40198046875,0.07696458173692226,0.0538140077739954,0.11417561056055128
1772731519382008600,11.412008544921875,0.09492226323187351,0.04393938723057508,0.10586820280123502
1772731519392036400,11.422036376953125,0.17411328884661198,0.0917594152867794,0.03274283390101045
1772731519402064600,11.432064697265625,0.17845511744320391,0.10771773965805768,-0.051318281968124206
1772731519412093700,11.44209375,0.17885434589385985,0.09973609325438737,-0.04910239601694047
1772731519422121500,11.45212158203125,0.19862755237817764,0.0987654946565628,-0.04534711687033996
1772731519432149800,11.462149658203124,0.18760288501679898,0.09136778562068938,-0.000603043927066028
1772731519442177500,11.472177490234374,0.15185001911222934,0.08441255965530872,-0.01702299446072429
1772731519452205300,11.482205322265624,0.14112170434892177,0.07864975834488869,-0.03735588065441697
1772731519462234600,11.492234619140625,0.17869243333041668,0.08452946403324603,-0.10859202000824734
1772731519472262700,11.5022626953125,0.16669044536948202,0.07133212880790234,-0.08505688544083387
1772731519482290400,11.51229052734375,0.10272036976218223,0.039356151093542575,-0.022381854612752793
1772731519492318700,11.522318603515625,0.06183306357860565,0.02367313653230667,0.005180142584256827
1772731519502346500,11.532346435546875,0.11304653346538543,0.04441051187366247,-0.0338726051159203
1772731519512374500,11.54237451171875,0.1461135212868452,0.06072656364142894,-0.08280452167047188
1772731519522403600,11.552403564453124,0.11086977394819258,0.007913841864466666,-0.11075027575436978
1772731519532431600,11.562431640625,0.0644189884185791,0.0038020226314663887,-0.054841688587609676
1772731519542459400,11.57245947265625,0.024478023174405096,-0.007106617134809493,-0.007767875788826495
1772731519552487700,11.58248779296875,-0.002884615525603294,-0.011257891595363617,-0.0683919106375426
1772731519562515500,11.592515380859375,-0.003344634252786636,0.018759937788546083,-0.09172816163199021
1772731519572544500,11.60254443359375,-0.02649696178138256,0.010503273835778235,-0.1444150468058884
1772731519582572500,11.612572509765625,0.015667524731159208,0.029906185702979562,-0.16119608573690056
1772731519592600600,11.6226005859375,-0.009916413858532905,0.01424275262504816,-0.13596150857415049
1772731519602628400,11.63262841796875,-0.06840893483757972,0.010940203948318957,-0.1430585358967073
1772731519612656600,11.64265673828125,-0.08119242856502533,-0.020193477723002434,-0.11193334805909544
1772731519622685400,11.652685546875,-0.059251230391860005,-0.04611176283359527,-0.11443871847614645
1772731519632713500,11.66271337890625,-0.05740180313289165,-0.03713467565178871,-0.1269752882378176
1772731519642741500,11.672741455078125,-0.033550387424230575,-0.022661329141259193,-0.1243034021474421
1772731519652769500,11.68276953125,-0.06088672263920307,-0.012381050406396388,-0.11742365257106721
1772731519662797600,11.692797607421875,-0.11499532944560051,-0.013148527647554874,-0.13724879017202182
1772731519672826600,11.70282666015625,-0.0778249979585409,0.00025397476106882094,-0.1178850412714295
1772731519682854400,11.7128544921875,-0.05895780040323734,-0.020147885015606878,-0.09133532638950273
1772731519692882400,11.72288232421875,-0.03791384333074092,-0.027642624685168263,0.017847974042780695
1772731519702910500,11.732910400390624,-0.03369710241854191,-0.028330022427439688,0.041705234970338644
1772731519712938500,11.7429384765625,0.02300736609995365,-0.0313119608476758,0.02941469412529841
1772731519722967600,11.752967529296875,0.05271276853382587,-0.05863865145146847,0.022401308231893926
1772731519732995600,11.76299560546875,0.0601227525293827,-0.028132454028725624,0.029228688300214706
1772731519743023600,11.773023681640625,-0.058761401048302644,-0.001866378393769264,0.06661481796242297
1772731519753051400,11.783051513671875,-0.13063070547282696,-0.009930734644830226,0.08751766779748722
1772731519763079700,11.79307958984375,-0.10462006590366363,0.0721156804010272,0.0452883176214993
1772731519773107500,11.803107421875,-0.10737667113542557,0.048621407566964626,0.024161139244958756
1772731519783136500,11.813136474609376,0.06392799003124237,0.046483811016380785,0.04123931622533127
1772731519793164500,11.82316455078125,0.14120587550103664,0.08466390406787395,0.00676783190080896
1772731519803192600,11.833192626953124,0.1657037724196911,0.12654431294202803,-0.04096006089253351
1772731519813220600,11.843220703125,0.0772720402508974,0.1039826447829604,-0.07385868814345449
1772731519823248600,11.85324853515625,0.10278934334516525,0.1603767321780324,-0.26021992080239575
1772731519833277400,11.86327734375,0.13590601552724837,0.18988193586468696,-0.32554552093818784
1772731519843305500,11.873305419921875,0.024912907460331916,0.17861381513625382,-0.27025055389143526
1772731519853333500,11.88333349609375,0.02736789939701557,0.164879596555233,-0.2507668136066757
1772731519863361500,11.893361572265626,0.06656476827561855,0.16621522907316683,-0.26843261774927374
1772731519873389600,11.9033896484375,0.07075169857144355,0.13847235888391732,-0.23097269219849256
1772731519883418600,11.913418701171874,0.1319271750241518,0.07063128706216812,-0.11296103800586424
1772731519893446400,11.9234462890625,0.10614917516708373,-0.007262099957466125,0.04044222929719835
1772731519903474700,11.933474609375,0.07872399262487888,-0.056845338293910024,0.15324205799251794
1772731519913502500,11.94350244140625,0.07500818697214126,-0.07378624396175146,0.14685797384544275
1772731519923530500,11.953530517578125,0.0726315209686756,-0.044457273624837396,0.11512975121391937
1772731519933559300,11.963559326171875,0.06689151601195335,-0.02399023965746164,0.044991453566774725
1772731519943587600,11.973587646484376,0.011227496457099913,0.007597031000256538,0.092514973761281
1772731519953615400,11.983615478515626,-0.0380500369310379,-0.011391454847157001,0.14761291126543655
1772731519963643600,11.9936435546875,-0.07752806083858013,-0.0036231589332222937,0.16660141537915915
1772731519973671400,12.00367138671875,-0.08112228593826293,0.03772299693375826,0.20137102413373067
1772731519983700500,12.013700439453125,-0.009700140759348868,0.06273614989817142,0.20775624992512165
1772731519993728500,12.023728515625,0.013204349488019943,0.02931143468022346,0.18997418072540312
1772731520003756500,12.033756591796875,0.027950083199143407,0.010413841986656189,0.24873357247970998
1772731520013784600,12.04378466796875,0.01894318540096283,0.005405950696766376,0.2975838021001778
1772731520023812600,12.0538125,0.007775310176610946,0.011247370201349258,0.27318406832637265
1772731520033841700,12.063841552734376,-0.11328501839637756,0.09229775994718074,0.1140639486133121
1772731520043869400,12.073869384765626,0.11797171490788459,0.07784662526845931,-0.017242738158628344
1772731520053897700,12.083897705078124,0.3844949919044971,0.27007424747645853,0.168380316418875
1772731520063925500,12.093925537109374,0.29349253246486184,0.06838467717915774,0.20675538405319674
1772731520073953500,12.10395361328125,0.45138650791645046,0.0899123261153698,0.2890825340028852
1772731520083982600,12.113982666015625,0.22573066335916517,0.05416618221253156,0.34584034014381465
1772731520094010600,12.1240107421875,0.1046913775742054,-0.024430676901340483,0.3418105001058429
1772731520104038400,12.134038330078125,0.07009118883609772,-0.0026888006925582884,0.3493426857089624
1772731520114066700,12.144066650390625,-0.12949907109439374,-0.06688216366171837,0.3149885441537946
1772731520124094500,12.154094482421876,-0.2813952674359083,-0.02868511947542429,0.21938379681678488
1772731520134122500,12.16412255859375,-0.31833003660142417,-0.052126200817525385,0.158726225024648
1772731520144151600,12.174151611328124,-0.2403951485276222,-0.0035015783801674843,0.10696328629525377
