time,seconds_elapsed,z,y,x
1772731508070202600,0.10020263671875,0.8755255341529846,0.14502198994159698,0.027825405821204185
1772731508080230700,0.110230712890625,0.8693772554397583,0.14652185142040253,0.07624435424804688
1772731508090258700,0.1202587890625,0.8518944382667542,0.1384333074092865,0.10972615331411362
1772731508100286700,0.13028662109375,0.8417584896087646,0.1253034621477127,0.13261228799819946
1772731508110314500,0.140314453125,0.8071911931037903,0.13754121959209442,0.13800331950187683
1772731508120343800,0.15034375,0.7600920796394348,0.1438058465719223,0.13399070501327515
1772731508130371600,0.16037158203125,0.7222884893417358,0.1371639221906662,0.1497052162885666
1772731508140399600,0.170399658203125,0.6943597197532654,0.1492372304201126,0.16975830495357513
1772731508150427600,0.180427734375,0.6757458448410034,0.15728025138378143,0.20248110592365265
1772731508160455700,0.19045556640625,0.6695460677146912,0.1369106024503708,0.27017492055892944
1772731508170484500,0.200484375,0.650818407535553,0.10556173324584961,0.29612982273101807
1772731508180512300,0.21051220703125,0.6107463240623474,0.09678477048873901,0.27938735485076904
1772731508190540300,0.220540283203125,0.6051539778709412,0.07439744472503662,0.2409304976463318
1772731508200568300,0.230568359375,0.6184107065200806,0.06804409623146057,0.1955007016658783
1772731508210596400,0.240596435546875,0.6290958523750305,0.07405059039592743,0.15558338165283203
1772731508220625200,0.250625244140625,0.6261798739433289,0.09241166710853577,0.1501537263393402
1772731508230653200,0.260653076171875,0.6249119639396667,0.09446151554584503,0.1843061000108719
1772731508240681200,0.27068115234375,0.6119651794433594,0.10306832939386368,0.19870607554912567
1772731508250709200,0.280709228515625,0.5992515087127686,0.14616332948207855,0.198905810713768
1772731508260737300,0.2907373046875,0.6509149074554443,0.20028530061244965,0.20936112105846405
1772731508270766300,0.300766357421875,0.7115929126739502,0.23702946305274963,0.22508177161216736
1772731508280794000,0.310794189453125,0.7198618054389954,0.26358261704444885,0.24280455708503723
1772731508290822100,0.320822265625,0.6569425463676453,0.22856205701828003,0.26532453298568726
1772731508300850200,0.33085009765625,0.5926595330238342,0.11894962191581726,0.2756013870239258
1772731508310878200,0.340878173828125,0.5354716181755066,0.006293380632996559,0.26168185472488403
1772731508320907300,0.3509072265625,0.49242517352104187,-0.08329147100448608,0.21903690695762634
1772731508330935300,0.360935302734375,0.45097601413726807,-0.1619279533624649,0.15075425803661346
1772731508340963000,0.370963134765625,0.39566856622695923,-0.2568889558315277,0.0733439102768898
1772731508350991400,0.380991455078125,0.34978151321411133,-0.3196263611316681,0.00427242973819375
1772731508361019100,0.39101904296875,0.34876102209091187,-0.31381291151046753,-0.03924495726823807
1772731508371048200,0.401048095703125,0.36961543560028076,-0.2653351426124573,-0.06252471357584
1772731508381076200,0.411076171875,0.29586055874824524,-0.10803931206464767,-0.05426972731947899
1772731508391104300,0.421104248046875,0.26671090722084045,-0.1333284080028534,-0.01390366442501545
1772731508401132300,0.43113232421875,0.2700829803943634,-0.14352063834667206,0.03201562538743019
1772731508411160300,0.441160400390625,0.26484215259552,-0.03209558501839638,0.058283448219299316
1772731508421189400,0.451189453125,0.30054014921188354,0.12114445120096207,0.07553354650735855
1772731508431217200,0.461217041015625,0.3686978816986084,0.2264636754989624,0.10123038291931152
1772731508441245400,0.471245361328125,0.40768304467201233,0.25716984272003174,0.13188977539539337
1772731508451273200,0.481273193359375,0.3960495591163635,0.20425018668174744,0.14087767899036407
1772731508461301200,0.49130126953125,0.35591134428977966,0.07777136564254761,0.09307952970266342
1772731508471330000,0.501330078125,0.29766133427619934,-0.12121789902448654,-0.056919559836387634
1772731508481358300,0.5113583984375,0.2304549366235733,-0.3214665651321411,-0.2310524880886078
1772731508491386000,0.52138623046875,0.1752641201019287,-0.4295608103275299,-0.27902403473854065
1772731508501414400,0.531414306640625,0.1436077058315277,-0.43048325181007385,-0.17778846621513367
1772731508511442200,0.541442138671875,0.14033229649066925,-0.2912859320640564,-0.05851428210735321
1772731508521471200,0.55147119140625,0.16422739624977112,-0.11910015344619751,0.010755094699561596
1772731508531499300,0.561499267578125,0.18350575864315033,-0.016786303371191025,0.021245552226901054
1772731508541527300,0.57152734375,0.18314550817012787,0.004558291286230087,0.03500450402498245
1772731508551555000,0.58155517578125,0.16102902591228485,-0.06384100764989853,0.05322931334376335
1772731508561583400,0.591583251953125,0.12119230628013611,-0.15354867279529572,0.03528014197945595
1772731508571612200,0.601612060546875,0.08212586492300034,-0.2277376800775528,-0.0191053319722414
1772731508581640200,0.61164013671875,0.05465191975235939,-0.2781963050365448,-0.08729238063097
1772731508591668200,0.621668212890625,-0.07517585158348083,-0.38318371772766113,-0.22634375095367432
1772731508601696300,0.6316962890625,-0.12943615019321442,-0.37956568598747253,-0.1156342551112175
1772731508611724000,0.64172412109375,-0.20944230258464813,-0.4061727821826935,-0.031718578189611435
1772731508621753000,0.651753173828125,-0.21039286255836487,-0.3783395290374756,-0.003054190892726183
1772731508631781400,0.661781494140625,-0.2062700241804123,-0.3295387029647827,-0.020938115194439888
1772731508641809200,0.67180908203125,-0.21468502283096313,-0.2824832797050476,-0.04440777748823166
1772731508651837400,0.68183740234375,-0.23073722422122955,-0.2514688968658447,-0.059374209493398666
1772731508661865200,0.691865234375,-0.24230892956256866,-0.23716214299201965,-0.05986103415489197
1772731508671894300,0.701894287109375,-0.27537471055984497,-0.2460797280073166,-0.08954622596502304
1772731508681922300,0.71192236328125,-0.23045936226844788,-0.17912131547927856,-0.12305358797311783
1772731508691950300,0.721950439453125,-0.15976788103580475,-0.12498084455728531,-0.13627298176288605
1772731508701978000,0.73197802734375,-0.14701572060585022,-0.07776825875043869,-0.1421806812286377
1772731508712006400,0.74200634765625,-0.1414710283279419,-0.04203822836279869,-0.1480737179517746
1772731508722035200,0.75203515625,-0.11840137839317322,-0.04130230098962784,-0.1766374409198761
1772731508732063200,0.762063232421875,-0.10071692615747452,-0.0521557480096817,-0.2055090367794037
1772731508742091300,0.77209130859375,-0.09664066880941391,-0.02255476824939251,-0.20119313895702362
1772731508752119300,0.782119384765625,-0.08849725872278214,0.02636377140879631,-0.173146054148674
1772731508762148000,0.792148193359375,-0.0879788026213646,0.09904647618532181,-0.12397874891757965
1772731508772176400,0.80217626953125,-0.08876949548721313,0.20052677392959595,-0.04483093321323395
1772731508782204200,0.8122041015625,-0.05728909745812416,0.32629650831222534,0.019789056852459908
1772731508792232200,0.822232177734375,-0.03738037124276161,0.5511714816093445,0.059737272560596466
1772731508802260200,0.83226025390625,-0.0665566548705101,0.7284215688705444,0.08985469490289688
1772731508812289300,0.842289306640625,-0.6418942809104919,0.8454430103302002,0.1440577507019043
1772731508822317000,0.852317138671875,-1.0346571207046509,0.957286536693573,0.15567605197429657
1772731508832345300,0.862345458984375,-0.8630533814430237,0.9536688923835754,0.4021223187446594
1772731508842373000,0.872373046875,-0.5788542628288269,0.9481358528137207,0.6553955674171448
1772731508852401200,0.882401123046875,-0.5918099880218506,0.7773427963256836,0.6351441144943237
1772731508862430200,0.89243017578125,-0.6840125918388367,0.37308332324028015,0.46906912326812744
1772731508872458200,0.902458251953125,-0.6591061353683472,-0.03371158987283707,0.32721826434135437
1772731508882486300,0.912486328125,-0.5802136659622192,-0.2702261507511139,0.24006976187229156
1772731508892514300,0.922514404296875,-0.5492456555366516,-0.30573540925979614,0.14018897712230682
1772731508902542300,0.932542236328125,-0.5524097084999084,-0.25709521770477295,0.006615187041461468
1772731508912571100,0.942571044921875,-0.5386790037155151,-0.21155250072479248,-0.07318616658449173
1772731508922599400,0.952599365234375,-0.5218240022659302,-0.19370047748088837,-0.0888066440820694
1772731508932627200,0.962627197265625,-0.5300214886665344,-0.19487439095973969,-0.07989810407161713
1772731508942655200,0.9726552734375,-0.5671015381813049,-0.20202486217021942,-0.0625859722495079
1772731508952683300,0.982683349609375,-0.6011955738067627,-0.2442130595445633,-0.046776652336120605
1772731508962712300,0.99271240234375,-0.6238799691200256,-0.3156270980834961,-0.042040761560201645
1772731508972740000,1.002739990234375,-0.6148014664649963,-0.3500569760799408,-0.04464453458786011
1772731508982768400,1.012768310546875,-0.5964238047599792,-0.34600725769996643,-0.06498575955629349
1772731508992796200,1.022796142578125,-0.5804147124290466,-0.3029814660549164,-0.08582286536693573
1772731509002824200,1.03282421875,-0.5538593530654907,-0.23174242675304413,-0.09633461385965347
1772731509012853200,1.042853271484375,-0.5134796500205994,-0.18700052797794342,-0.08396529406309128
1772731509022881300,1.05288134765625,-0.48578473925590515,-0.15167666971683502,-0.06711283326148987
1772731509032909000,1.062908935546875,-0.47510865330696106,-0.13815873861312866,-0.05174852907657623
1772731509042937300,1.072937255859375,-0.46317824721336365,-0.15108133852481842,-0.036333851516246796
1772731509052965000,1.082965087890625,-0.4661189019680023,-0.166078120470047,-0.022143995389342308
1772731509062994200,1.092994140625,-0.476907879114151,-0.16628098487854004,-0.004529586061835289
1772731509073022200,1.103022216796875,-0.4746290147304535,-0.17090769112110138,0.014169267378747463
1772731509083050200,1.11305029296875,-0.47413739562034607,-0.16299106180667877,0.03429662436246872
1772731509093078000,1.123078125,-0.4855080246925354,-0.128977969288826,0.06113702431321144
1772731509103106300,1.133106201171875,-0.49725285172462463,-0.09499788284301758,0.08917292207479477
1772731509113135400,1.14313525390625,-0.500094473361969,-0.07710863649845123,0.11395736783742905
1772731509123163100,1.1531630859375,-0.5223749279975891,-0.08762707561254501,0.11205264925956726
1772731509133191400,1.16319140625,-0.5474144816398621,-0.1282631754875183,0.09858078509569168
1772731509143219200,1.17321923828125,-0.5635319352149963,-0.14453387260437012,0.08274779468774796
1772731509153247200,1.183247314453125,-0.505573034286499,-0.140580952167511,0.08072326332330704
1772731509163276300,1.1932763671875,-0.514397919178009,-0.10798289626836777,0.08417977392673492
1772731509173304300,1.20330419921875,-0.5335130095481873,-0.07670406997203827,0.10202987492084503
1772731509183332600,1.21333251953125,-0.5529490113258362,-0.032908204942941666,0.11149048805236816
1772731509193361000,1.22336083984375,-0.5877346992492676,-0.032710328698158264,0.0989730954170227
1772731509203388700,1.233388671875,-0.6281955242156982,-0.0278748981654644,0.09046242386102676
1772731509213417700,1.243417724609375,-0.6657697558403015,-0.0024100178852677345,0.09698264300823212
1772731509223445800,1.25344580078125,-0.7046641707420349,0.04977701976895332,0.12295085936784744
1772731509233473800,1.263473876953125,-0.7324987053871155,0.07763049006462097,0.07657084614038467
1772731509243501600,1.27350146484375,-0.7677183151245117,0.06178220361471176,0.009042407386004925
1772731509253529900,1.28352978515625,-0.8230600953102112,0.016016580164432526,-0.05309739708900452
1772731509263558700,1.29355859375,-1.0408713817596436,-0.13981693983078003,-0.14704440534114838
1772731509273586700,1.303586669921875,-1.3555864095687866,-0.24002237617969513,-0.17445126175880432
1772731509283614700,1.31361474609375,-1.3100138902664185,-0.1330370157957077,-0.0953015610575676
1772731509293642800,1.323642822265625,-1.0966532230377197,-0.12416575103998184,0.03709801658987999
1772731509303670500,1.33367041015625,-0.8783993721008301,-0.19363223016262054,0.19234858453273773
1772731509313699800,1.343699951171875,-0.6944154500961304,-0.2213517427444458,0.2860604226589203
1772731509323728000,1.353727783203125,-0.5516177415847778,-0.1999165564775467,0.29874932765960693
1772731509333755600,1.363755615234375,-0.432669997215271,-0.22284583747386932,0.28066593408584595
1772731509343784000,1.373783935546875,-0.3525637090206146,-0.2681843638420105,0.27154192328453064
1772731509353811700,1.383811767578125,-0.3288610279560089,-0.3162970244884491,0.27756837010383606
1772731509363840800,1.3938408203125,-0.3222030699253082,-0.3272061049938202,0.3249281942844391
1772731509373868800,1.403868896484375,-0.3147808313369751,-0.31743815541267395,0.34960025548934937
1772731509383896800,1.413896728515625,-0.3000996708869934,-0.22985151410102844,0.3188524544239044
1772731509393924600,1.423924560546875,-0.2809595465660095,-0.11887705326080322,0.2464645504951477
1772731509403953000,1.433952880859375,-0.28055647015571594,-0.06657169759273529,0.17821918427944183
1772731509413981700,1.443981689453125,-0.27459925413131714,-0.025018665939569473,0.13049188256263733
1772731509424009700,1.454009765625,-0.2568057179450989,-0.005341830663383007,0.10527148842811584
1772731509434037800,1.464037841796875,-0.21429233253002167,-0.006180193275213242,0.09231840819120407
1772731509444065800,1.474065673828125,-0.1669205278158188,0.01465396024286747,0.08287668228149414
1772731509454093600,1.484093505859375,-0.17718781530857086,-0.030930303037166595,0.04881032183766365
1772731509464123000,1.494122802734375,-0.19267277419567108,-0.02870383858680725,0.02250310406088829
1772731509474150700,1.504150634765625,-0.24207893013954163,-0.019219789654016495,0.02382776141166687
1772731509484178700,1.5141787109375,-0.2740783393383026,-0.012503674253821373,0.04324432462453842
1772731509494206700,1.524206787109375,-0.2829993963241577,0.018276076763868332,0.07429945468902588
1772731509504234800,1.53423486328125,-0.2455153614282608,0.02515878900885582,0.09597837179899216
1772731509514263600,1.544263671875,-0.1972024291753769,-0.0021756296046078205,0.10152973234653473
1772731509524291800,1.554291748046875,-0.17270249128341675,-0.05527175962924957,0.09143848717212677
1772731509534319600,1.564319580078125,-0.16102293133735657,-0.07234635204076767,0.09290269762277603
1772731509544347600,1.57434765625,-0.15729238092899323,-0.0911559909582138,0.1024722307920456
1772731509554375700,1.584375732421875,-0.14938758313655853,-0.09691214561462402,0.10019363462924957
1772731509564404700,1.59440478515625,-0.1396704614162445,-0.09791049361228943,0.09544814378023148
1772731509574432800,1.604432861328125,-0.1283712089061737,-0.09416848421096802,0.0909402146935463
1772731509584460800,1.614460693359375,-0.12147378921508789,-0.1127966046333313,0.07496629655361176
1772731509594488600,1.624488525390625,-0.10578404366970062,-0.13791793584823608,0.036281753331422806
1772731509604516900,1.634516845703125,-0.10070078074932098,-0.14415490627288818,0.005996813997626305
1772731509614546000,1.6445458984375,-0.11373481899499893,-0.1500290334224701,-0.009356576018035412
1772731509624573700,1.65457373046875,-0.12683916091918945,-0.17543070018291473,-0.02865329012274742
1772731509634601700,1.664601806640625,-0.14367567002773285,-0.19271008670330048,-0.05006244406104088
1772731509644629800,1.674629638671875,-0.1468120962381363,-0.1680522859096527,-0.0600849986076355
1772731509654657800,1.68465771484375,-0.14691010117530823,-0.17256580293178558,-0.06095558777451515
1772731509664686600,1.6946865234375,-0.17008964717388153,-0.1916854828596115,-0.0506797693669796
1772731509674715000,1.70471484375,-0.17912310361862183,-0.17926236987113953,-0.031019246205687523
1772731509684742700,1.71474267578125,-0.16310179233551025,-0.18318024277687073,-0.00998215563595295
1772731509694770700,1.724770751953125,-0.1361391544342041,-0.19740046560764313,-0.002739156363531947
1772731509704798700,1.734798828125,-0.07273092865943909,-0.1950092911720276,-0.012520144693553448
1772731509714827800,1.744827880859375,0.06636011600494385,-0.016935963183641434,0.019496643915772438
1772731509724855600,1.75485546875,0.1740272045135498,0.18144960701465607,0.05005375295877457
1772731509734883800,1.7648837890625,0.1565861701965332,0.09995554387569427,-0.07217202335596085
1772731509744911600,1.77491162109375,0.051119040697813034,-0.08029401302337646,-0.18993140757083893
1772731509754940000,1.78493994140625,-0.024207670241594315,-0.18139028549194336,-0.16869935393333435
1772731509764968700,1.79496875,-0.03774445131421089,-0.14683111011981964,-0.07889943569898605
1772731509774996700,1.804996826171875,-0.04063770920038223,-0.09251300990581512,-0.03454235941171646
1772731509785024800,1.815024658203125,-0.07393822818994522,-0.09154047816991806,-0.028581909835338593
1772731509795052800,1.825052734375,-0.16199564933776855,-0.22913749516010284,0.009302887134253979
1772731509805080600,1.83508056640625,-0.20355960726737976,-0.28091520071029663,0.03388626128435135
1772731509815109600,1.845109619140625,-0.20015044510364532,-0.28707244992256165,0.0744810700416565
1772731509825138000,1.855137939453125,-0.20389969646930695,-0.2920837998390198,0.14815236628055573
1772731509835165700,1.865165771484375,-0.21830233931541443,-0.22528132796287537,0.20858561992645264
1772731509845193700,1.87519384765625,-0.23121799528598785,-0.07131513953208923,0.26500147581100464
1772731509855221800,1.8852216796875,-0.21891312301158905,0.14174415171146393,0.3222695589065552
1772731509865250800,1.895250732421875,-0.178680419921875,0.3379480242729187,0.35563817620277405
1772731509875278600,1.905278564453125,-0.11656298488378525,0.4115263819694519,0.3536258935928345
1772731509885307000,1.915306884765625,-0.05508818104863167,0.42278122901916504,0.33212751150131226
1772731509895334700,1.925334716796875,0.0011234236881136894,0.3886682689189911,0.32663023471832275
1772731509905363000,1.935363037109375,0.025094175711274147,0.3350927531719208,0.3333160877227783
1772731509915391700,1.945391845703125,0.08486376702785492,0.31935960054397583,0.21240992844104767
1772731509925419800,1.955419677734375,0.22537516057491302,0.1686396449804306,0.07556469738483429
1772731509935447800,1.96544775390625,0.24404844641685486,0.06611727178096771,-0.0020304920617491007
1772731509945475800,1.975475830078125,0.2276439666748047,-0.07859313488006592,-0.07668501138687134
1772731509955503600,1.985503662109375,0.24162742495536804,-0.16916164755821228,-0.13772839307785034
1772731509965532700,1.99553271484375,0.24008809030056,-0.2178056687116623,-0.18606263399124146
1772731509975560700,2.005560791015625,0.24315285682678223,-0.2205260843038559,-0.20880097150802612
1772731509985588700,2.015588623046875,0.24567259848117828,-0.17084918916225433,-0.21242980659008026
1772731509995616800,2.02561669921875,0.240385964512825,-0.08284024149179459,-0.19282308220863342
1772731510005644800,2.035644775390625,0.22746044397354126,0.0028420323505997658,-0.1529686003923416
1772731510015673600,2.045673583984375,0.2017878293991089,0.06647160649299622,-0.11159372329711914
1772731510025702000,2.055701904296875,0.17879487574100494,0.10857924073934555,-0.07928826659917831
1772731510035729700,2.065729736328125,0.17062455415725708,0.13099320232868195,-0.0584317147731781
1772731510045757700,2.0757578125,0.16485217213630676,0.1447320282459259,-0.04653536155819893
1772731510055785700,2.08578564453125,0.16367265582084656,0.14301614463329315,-0.038915522396564484
1772731510065814800,2.095814697265625,0.16352927684783936,0.1530221700668335,-0.02983308956027031
1772731510075842600,2.105842529296875,0.15552541613578796,0.159035325050354,-0.01338034588843584
1772731510085870800,2.115870849609375,0.15035176277160645,0.14175908267498016,-0.008146422915160656
1772731510095898600,2.125898681640625,0.15321706235408783,0.11453865468502045,-0.003887229599058628
1772731510105926700,2.1359267578125,0.15207992494106293,0.08266060054302216,0.014149541035294533
1772731510115955700,2.145955810546875,0.1592734009027481,0.055211927741765976,0.017366906628012657
1772731510125983700,2.155983642578125,0.16687804460525513,0.04957258328795433,0.01645774208009243
1772731510136011800,2.16601171875,0.16877688467502594,0.033520378172397614,0.029285922646522522
1772731510146039800,2.176039794921875,0.1618393510580063,0.022047951817512512,0.045135702937841415
1772731510156067800,2.18606787109375,0.156106099486351,0.004297183360904455,0.04745238646864891
1772731510166096600,2.1960966796875,0.1460033804178238,-0.013024588115513325,0.053486309945583344
1772731510176125000,2.206125,0.14265179634094238,-0.02439415454864502,0.06284119933843613
1772731510186152400,2.21615234375,0.14740198850631714,-0.028646908700466156,0.05351719260215759
1772731510196180200,2.22618017578125,0.16415967047214508,-0.037300318479537964,0.040060773491859436
1772731510206208500,2.23620849609375,0.1760757863521576,-0.048806916922330856,0.01960795745253563
1772731510216237300,2.2462373046875,0.17473754286766052,-0.052599526941776276,-0.0036603466141968966
1772731510226265300,2.256265380859375,0.17111793160438538,-0.07116115838289261,-0.019644364714622498
1772731510236293400,2.26629345703125,0.16763052344322205,-0.0934361070394516,-0.03292102366685867
1772731510246321400,2.2763212890625,0.1608767807483673,-0.1186724454164505,-0.045143336057662964
1772731510256349400,2.286349365234375,0.1455790400505066,-0.14396847784519196,-0.05431153625249863
1772731510266378500,2.29637841796875,0.12171097099781036,-0.15267135202884674,-0.05507610738277435
1772731510276406300,2.30640625,0.10241663455963135,-0.15858197212219238,-0.05434586852788925
1772731510286434300,2.316434326171875,0.09281351417303085,-0.16887257993221283,-0.04573535546660423
1772731510296462300,2.32646240234375,0.0754273310303688,-0.17417839169502258,-0.045568905770778656
1772731510306490400,2.336490478515625,0.06302020698785782,-0.15934288501739502,-0.046844277530908585
1772731510316519400,2.34651953125,0.05375906452536583,-0.13290143013000488,-0.03987451642751694
1772731510326547500,2.35654736328125,0.0375656820833683,-0.0998581275343895,-0.03148530796170235
1772731510336575500,2.366575439453125,0.026568690314888954,-0.07121503353118896,-0.024692384526133537
1772731510346603500,2.376603515625,0.026366280391812325,-0.052373528480529785,-0.01036033220589161
1772731510356631600,2.386631591796875,0.024971051141619682,-0.04326445609331131,-0.007586117833852768
1772731510366660400,2.396660400390625,0.025214966386556625,-0.04228056222200394,-0.02447211742401123
1772731510376688400,2.4066884765625,0.02186577394604683,-0.04273649677634239,-0.05261613801121712
1772731510386716400,2.41671630859375,0.019555959850549698,-0.042309507727622986,-0.08296579867601395
1772731510396744400,2.426744384765625,0.020791400223970413,-0.04400540888309479,-0.10374751687049866
1772731510406772500,2.4367724609375,0.017665553838014603,-0.04246199503540993,-0.10681493580341339
1772731510416801500,2.446801513671875,0.015203728340566158,-0.03531274199485779,-0.10586684942245483
1772731510426829300,2.456829345703125,0.016190310940146446,-0.03359173238277435,-0.10469558089971542
1772731510436857300,2.466857421875,0.014843816868960857,-0.03777476027607918,-0.10616644471883774
1772731510446885400,2.476885498046875,0.008983938954770565,-0.033828254789114,-0.10218556970357895
1772731510456913400,2.486913330078125,0.00041015876922756433,-0.026040904223918915,-0.09257688373327255
1772731510466942200,2.496942138671875,-0.00972819048911333,-0.017019201070070267,-0.07850342243909836
1772731510476970500,2.506970458984375,-0.01836242526769638,-0.014200245030224323,-0.0534963458776474
1772731510486998300,2.516998291015625,-0.027079984545707703,-0.013428856618702412,-0.031084496527910233
1772731510497026600,2.527026611328125,-0.035211145877838135,-0.0061637526378035545,-0.019442223012447357
1772731510507054300,2.537054443359375,-0.04464077576994896,-0.007160949055105448,-0.009167486801743507
1772731510517083400,2.54708349609375,-0.044133976101875305,-0.011949312873184681,0.003936330322176218
1772731510527111200,2.557111083984375,-0.0402473509311676,-0.024428250268101692,0.0005900874966755509
1772731510537139500,2.567139404296875,-0.04111554101109505,-0.0401369072496891,-0.022408703342080116
1772731510547167200,2.577167236328125,-0.04252457246184349,-0.04138345271348953,-0.03946492448449135
1772731510557195500,2.587195556640625,-0.03726829215884209,-0.039597805589437485,-0.05662873014807701
1772731510567224600,2.597224609375,-0.02790633961558342,-0.0408623032271862,-0.07682429254055023
1772731510577252400,2.60725244140625,-0.011804068461060524,-0.03825800120830536,-0.0847163051366806
1772731510587280400,2.6172802734375,-0.008578951470553875,-0.04875204339623451,-0.0755946934223175
1772731510597308400,2.627308349609375,-0.021778374910354614,-0.05757829174399376,-0.0654272735118866
1772731510607336400,2.63733642578125,-0.033271465450525284,-0.04952055588364601,-0.05208936706185341
1772731510617364500,2.647364501953125,-0.0305385310202837,-0.03147444501519203,-0.050985220819711685
1772731510627393500,2.6573935546875,-0.030399899929761887,-0.014242919161915779,-0.05370962619781494
1772731510637421300,2.66742138671875,-0.033038824796676636,0.0033864076249301434,-0.05015324428677559
1772731510647449600,2.67744970703125,-0.027992580085992813,0.021608075127005577,-0.0430532805621624
1772731510657477400,2.687477294921875,-0.02309289574623108,0.030011147260665894,-0.0349133275449276
1772731510667505400,2.69750537109375,-0.026081714779138565,0.014124405570328236,-0.026128094643354416
1772731510677534500,2.707534423828125,-0.03590212017297745,-0.004035689868032932,-0.019369792193174362
1772731510687562500,2.7175625,-0.03855259343981743,-0.01178298331797123,-0.020321866497397423
1772731510697590300,2.72759033203125,-0.03983330726623535,-0.021455051377415657,-0.024544307962059975
1772731510707618600,2.73761865234375,-0.04879065230488777,-0.027680041268467903,-0.027605606243014336
1772731510717646300,2.747646240234375,-0.05172226205468178,-0.029242251068353653,-0.019126899540424347
1772731510727675400,2.75767529296875,-0.06308621913194656,-0.024473922327160835,-0.0017053186893463135
1772731510737703400,2.767703369140625,-0.07099634408950806,-0.018378479406237602,0.022119320929050446
1772731510747731500,2.7777314453125,-0.08242177963256836,-0.0010387261863797903,0.035986412316560745
1772731510757759200,2.78775927734375,-0.09414687752723694,0.015608428046107292,0.03754569590091705
1772731510767787500,2.79778759765625,-0.10443611443042755,0.02966279536485672,0.03592303767800331
1772731510777816300,2.80781640625,-0.11450206488370895,0.03429536521434784,0.030542388558387756
1772731510787844400,2.81784423828125,-0.11690456420183182,0.03167996183037758,0.023568887263536453
1772731510797872400,2.827872314453125,-0.11523982137441635,0.012140884064137936,0.01500442624092102
1772731510807900400,2.837900390625,-0.11439199000597,-0.012282099574804306,0.0037704219575971365
1772731510817928200,2.84792822265625,-0.1159810945391655,-0.033877138048410416,-0.007687295787036419
1772731510827957500,2.85795751953125,-0.11864548921585083,-0.04429250210523605,-0.02574511244893074
1772731510837985500,2.867985595703125,-0.12033925950527191,-0.045812636613845825,-0.03610161319375038
1772731510848013300,2.878013427734375,-0.12346596270799637,-0.04864773899316788,-0.028315624222159386
1772731510858041300,2.888041259765625,-0.13174013793468475,-0.038886457681655884,-0.0022209053859114647
1772731510868069400,2.8980693359375,-0.1402452141046524,-0.02083895169198513,0.01797759346663952
1772731510878098400,2.908098388671875,-0.1530907154083252,-0.0009464712347835302,0.021332111209630966
1772731510888126500,2.91812646484375,-0.16367270052433014,0.004603713285177946,0.02326023206114769
1772731510898154500,2.928154541015625,-0.1749410629272461,-0.013496194034814835,0.039843469858169556
1772731510908182300,2.938182373046875,-0.17983455955982208,-0.030956825241446495,0.04793068766593933
1772731510918210600,2.94821044921875,-0.1831938624382019,-0.040637947618961334,0.043438468128442764
1772731510928239400,2.9582392578125,-0.18455561995506287,-0.039724644273519516,0.03211177885532379
1772731510938267400,2.968267333984375,-0.1761472225189209,-0.030551915988326073,0.027466697618365288
1772731510948295400,2.97829541015625,-0.16167381405830383,-0.028823908418416977,0.048528045415878296
1772731510958323500,2.988323486328125,-0.15863408148288727,-0.04136473312973976,0.06742610037326813
1772731510968351500,2.9983515625,-0.16142936050891876,-0.054796427488327026,0.0748153105378151
1772731510978380500,3.008380615234375,-0.1688673049211502,-0.06590926647186279,0.0749516636133194
1772731510988408300,3.018408203125,-0.17138642072677612,-0.07087434083223343,0.06490007787942886
1772731510998436400,3.028436279296875,-0.17552576959133148,-0.04698258265852928,0.026062136515975
1772731511008464400,3.03846435546875,-0.16440176963806152,-0.013696040026843548,0.0002025771827902645
1772731511018492400,3.048492431640625,-0.14306026697158813,-0.0011576118413358927,0.018765076994895935
1772731511028521200,3.058521240234375,-0.11919039487838745,0.012748537585139275,0.050847381353378296
1772731511038549500,3.068549560546875,-0.10206174105405807,0.03199067339301109,0.07228449732065201
1772731511048577300,3.078577392578125,-0.09469889849424362,0.035977695137262344,0.07997730374336243
1772731511058605300,3.088605224609375,-0.09405414760112762,0.017513198778033257,0.07284535467624664
1772731511068633300,3.09863330078125,-0.09943734854459763,-0.005671285092830658,0.05163007602095604
1772731511078662400,3.108662353515625,-0.09886796027421951,-0.021465960890054703,0.02569461613893509
1772731511088690400,3.1186904296875,-0.09654801338911057,-0.03662365674972534,0.016270235180854797
1772731511098718500,3.128718505859375,-0.09422440081834793,-0.04757484421133995,0.02224903181195259
1772731511108746200,3.138746337890625,-0.08601724356412888,-0.05064717307686806,0.028922906145453453
1772731511118774500,3.1487744140625,-0.08693390339612961,-0.047390926629304886,0.032731495797634125
1772731511128803600,3.158803466796875,-0.08905470371246338,-0.04466574266552925,0.034744832664728165
1772731511138831400,3.168831298828125,-0.08540990203619003,-0.04951988905668259,0.024763572961091995
1772731511148859400,3.178859375,-0.08300802111625671,-0.0415663942694664,0.013553797267377377
1772731511158887400,3.188887451171875,-0.07662708312273026,-0.040339477360248566,0.009500998072326183
1772731511168915500,3.19891552734375,-0.07546686381101608,-0.046777598559856415,0.02612685225903988
1772731511178946000,3.208946044921875,-0.07833615690469742,-0.04677040874958038,0.035683076828718185
1772731511188974000,3.21897412109375,-0.0807480737566948,-0.04513869807124138,0.03577816113829613
1772731511199002000,3.229002197265625,-0.07536769658327103,-0.039692800492048264,0.015845999121665955
1772731511209030000,3.23902978515625,-0.06329093128442764,-0.051246095448732376,-0.005367133766412735
1772731511219058000,3.249057861328125,-0.05275200307369232,-0.06422501057386398,-0.011310243979096413
1772731511229087200,3.259087158203125,-0.04566846415400505,-0.06873852014541626,-0.003464063163846731
1772731511239115000,3.269114990234375,-0.04543330520391464,-0.06637736409902573,-0.0013140930095687509
1772731511249143000,3.27914306640625,-0.046578340232372284,-0.05272330343723297,-0.002027544192969799
1772731511259171000,3.289171142578125,-0.04373541474342346,-0.025554001331329346,-0.03613651171326637
1772731511269199000,3.29919921875,-0.03390903398394585,-0.032341137528419495,-0.06406961381435394
1772731511279228000,3.309227783203125,-0.021663285791873932,-0.053346551954746246,-0.06559693813323975
1772731511289256200,3.319256103515625,-0.009111856110394001,-0.06466826051473618,-0.05573311820626259
1772731511299284000,3.329283935546875,-0.008246595039963722,-0.06013263389468193,-0.058781106024980545
1772731511309312000,3.33931201171875,-0.013285413384437561,-0.05470557138323784,-0.07348547875881195
1772731511319340000,3.349340087890625,-0.012338659726083279,-0.05838579311966896,-0.09562060981988907
1772731511329369000,3.359369140625,-0.010350491851568222,-0.08162274956703186,-0.09801160544157028
1772731511339396900,3.36939697265625,-0.006979729048907757,-0.09664430469274521,-0.08733046799898148
1772731511349425200,3.379425048828125,-0.00798964686691761,-0.10134007036685944,-0.07528604567050934
1772731511359453000,3.389452880859375,-0.013299191370606422,-0.09909795224666595,-0.07444635033607483
1772731511369481000,3.39948095703125,-0.016406983137130737,-0.09211308509111404,-0.06965506076812744
1772731511379509000,3.409509033203125,-0.015496714040637016,-0.07361236959695816,-0.0499332956969738
1772731511389538000,3.4195380859375,-0.012297285720705986,-0.056998662650585175,-0.03535674139857292
1772731511399565800,3.42956591796875,-0.012948695570230484,-0.04686879739165306,-0.01868109218776226
1772731511409594000,3.439593994140625,-0.016628338024020195,-0.03214703127741814,-0.015488765202462673
1772731511419622000,3.449621826171875,-0.017465103417634964,-0.02085309848189354,-0.02139592356979847
1772731511429650200,3.459650146484375,-0.014740017242729664,-0.025408199056982994,-0.02467135339975357
1772731511439679200,3.46967919921875,-0.012266739271581173,-0.028353389352560043,-0.03045067936182022
1772731511449707000,3.47970703125,-0.012501715682446957,-0.022182900458574295,-0.04416194185614586
1772731511459735000,3.489735107421875,-0.004452577792108059,-0.02589454874396324,-0.048828598111867905
1772731511469763000,3.49976318359375,-0.006123374216258526,-0.027832679450511932,-0.03585154935717583
1772731511479790800,3.509790771484375,-0.011579392477869987,-0.020017366856336594,-0.03442196547985077
1772731511489820000,3.51981982421875,-0.013630801811814308,-0.011976446025073528,-0.03511092811822891
1772731511499848200,3.52984814453125,-0.016866808757185936,-0.002989076543599367,-0.03257559984922409
1772731511509876000,3.5398759765625,-0.016376668587327003,-0.011606070213019848,-0.02224307507276535
1772731511519904300,3.549904296875,-0.016585461795330048,-0.021601445972919464,-0.008230585604906082
1772731511529932000,3.55993212890625,-0.021393069997429848,-0.017215071246027946,-0.007341884076595306
1772731511539961000,3.569961181640625,-0.021384282037615776,-0.006556835025548935,-0.026965118944644928
1772731511549988900,3.57998876953125,-0.016389327123761177,-0.0002798819914460182,-0.04094511270523071
1772731511560017200,3.59001708984375,-0.015706758946180344,-0.01910070702433586,-0.021202566102147102
1772731511570045000,3.600044921875,-0.015723146498203278,-0.03428708761930466,0.009548698551952839
1772731511580073200,3.6100732421875,-0.01771785318851471,-0.03851538524031639,0.03564821183681488
1772731511590102000,3.62010205078125,-0.02213464304804802,-0.030361037701368332,0.04082430526614189
1772731511600130000,3.630130126953125,-0.0221431665122509,0.0030477859545499086,0.031458500772714615
1772731511610158000,3.640157958984375,-0.008777356706559658,0.03657830134034157,0.012806011363863945
1772731511620186000,3.65018603515625,0.004728598520159721,0.03809177502989769,0.03130246326327324
1772731511630214000,3.6602138671875,0.006319204345345497,0.020763924345374107,0.049005281180143356
1772731511640243000,3.670242919921875,-0.003975244704633951,0.011578414589166641,0.04191115126013756
1772731511650271000,3.68027099609375,-0.007316501811146736,0.0065491218119859695,0.020016493275761604
1772731511660299000,3.690299072265625,-0.00583498552441597,0.00006698817014694214,0.009519909508526325
1772731511670327000,3.7003271484375,0.003917275462299585,-0.0008756311144679785,0.016527501866221428
1772731511680355000,3.71035498046875,0.019364941865205765,0.012093431316316128,0.029259542003273964
1772731511690384000,3.7203837890625,0.028285495936870575,0.015520263463258743,0.03904587775468826
1772731511700412200,3.730412109375,0.025334445759654045,0.013249119743704796,0.030695270746946335
1772731511710440000,3.74043994140625,0.01922261156141758,0.019437700510025024,0.008115383796393871
1772731511720468000,3.750468017578125,0.017574114724993706,0.020040640607476234,-0.02352110482752323
1772731511730496000,3.76049609375,0.021631479263305664,0.019923970103263855,-0.03298254311084747
1772731511740525000,3.770525146484375,0.02665153704583645,0.024123774841427803,-0.02941123954951763
1772731511750553000,3.780552978515625,0.025364777073264122,0.0319286547601223,-0.021631866693496704
1772731511760581000,3.7905810546875,0.021547401323914528,0.042200732976198196,-0.020121589303016663
1772731511770609200,3.800609130859375,0.008774606510996819,0.045441169291734695,-0.01554896030575037
1772731511780637000,3.810636962890625,0.0012343991547822952,0.04071272537112236,-0.02074745111167431
1772731511790666000,3.820666015625,-0.0024226694367825985,0.03061807155609131,-0.02919684164226055
1772731511800694000,3.830694091796875,-0.0026911161839962006,0.010932519100606441,-0.03466351330280304
1772731511810722000,3.84072216796875,0.008388213813304901,0.004266439005732536,-0.03321635723114014
1772731511820750000,3.85075,0.012422370724380016,0.0005382804665714502,-0.02601196989417076
1772731511830778000,3.860778076171875,0.0072782086208462715,0.0004927401896566153,-0.01957830600440502
1772731511840807000,3.870806884765625,-0.0003416279796510935,0.003210762282833457,-0.018267497420310974
1772731511850835200,3.880835205078125,-0.0029977471567690372,0.0016388949006795883,-0.02464338205754757
1772731511860863000,3.890863037109375,-0.006151462439447641,-0.002887680195271969,-0.028701506555080414
1772731511870891000,3.90089111328125,-0.006183538120239973,-0.010900262743234634,-0.028160609304904938
1772731511880919000,3.9109189453125,-0.009789458476006985,-0.012145291082561016,-0.023219380527734756
1772731511890948000,3.920947998046875,-0.012478867545723915,-0.017055165022611618,-0.014858927577733994
1772731511900975900,3.930975830078125,-0.01732821762561798,-0.016022391617298126,-0.0019351390656083822
1772731511911004200,3.941004150390625,-0.023748701438307762,-0.011166246607899666,0.0038519413210451603
1772731511921032000,3.951031982421875,-0.030019380152225494,-0.0038185855373740196,0.0074778348207473755
1772731511931060000,3.96106005859375,-0.026533691212534904,-0.004600256681442261,0.0011000848608091474
1772731511941089000,3.971089111328125,-0.020532790571451187,-0.004018089734017849,-0.005678192712366581
1772731511951117000,3.981116943359375,-0.014434043318033218,-0.0016744132153689861,-0.013135070912539959
1772731511961144800,3.991144775390625,-0.017664190381765366,0.0029453726019710302,-0.021859053522348404
1772731511971173000,4.001173095703125,-0.020540349185466766,0.005088595673441887,-0.02830149233341217
1772731511981201000,4.011200927734375,-0.01922900788486004,0.005523757077753544,-0.02108805440366268
1772731511991230000,4.02122998046875,-0.015086368657648563,0.016966983675956726,-0.027254078537225723
1772731512001258200,4.03125830078125,-0.004380726721137762,0.026478197425603867,-0.034182026982307434
1772731512011286000,4.0412861328125,0.005956387147307396,0.015968212857842445,-0.03843507915735245
1772731512021314000,4.05131396484375,0.0022007974330335855,-0.0013300832360982895,-0.04743283614516258
1772731512031342000,4.061342041015625,-0.006085628643631935,-0.019839318469166756,-0.05750464275479317
1772731512041371100,4.07137109375,-0.002691695699468255,-0.019289908930659294,-0.07527485489845276
1772731512051399000,4.08139892578125,0.001261813915334642,-0.01739126443862915,-0.08079105615615845
1772731512061427200,4.09142724609375,0.006833945866674185,-0.011112328618764877,-0.05877923592925072
1772731512071455000,4.101455078125,0.007507240399718285,0.005357003770768642,-0.037591662257909775
1772731512081483000,4.11148291015625,0.00004479667404666543,0.008497669361531734,-0.03327334672212601
1772731512091512000,4.121511962890625,-0.011843696236610413,-0.003184520173817873,-0.03715409338474274
1772731512101540000,4.1315400390625,-0.01465626060962677,-0.02035844698548317,-0.04148758947849274
1772731512111568000,4.14156787109375,-0.014467590488493443,-0.028455859050154686,-0.04529804736375809
1772731512121596200,4.15159619140625,-0.012424414046108723,-0.027845462784171104,-0.043855149298906326
1772731512131624000,4.1616240234375,-0.011095566675066948,-0.01159603614360094,-0.043524112552404404
1772731512141652200,4.17165234375,-0.009316042996942997,0.006616789847612381,-0.03738126531243324
1772731512151681000,4.181680908203125,-0.01815924048423767,0.02096366137266159,-0.02842133305966854
1772731512161709000,4.191708984375,-0.015584230422973633,0.03221285343170166,-0.024705156683921814
1772731512171736800,4.20173681640625,-0.020110296085476875,0.0214011799544096,-0.0395224504172802
1772731512181764000,4.21176416015625,-0.022464530542492867,0.00551409088075161,-0.05699092522263527
1772731512191792000,4.221792236328125,-0.02722807414829731,-0.005170062184333801,-0.06980949640274048
1772731512201821400,4.231821533203125,-0.028384951874613762,-0.015681026503443718,-0.07010990381240845
1772731512211849200,4.24184912109375,-0.03065420687198639,-0.009781553409993649,-0.06181761994957924
1772731512221877200,4.251877197265625,-0.03542818874120712,0.00925525464117527,-0.053253427147865295
1772731512231905300,4.2619052734375,-0.038295526057481766,0.025532549247145653,-0.03938983753323555
1772731512241933300,4.271933349609375,-0.04240931198000908,0.03209218382835388,-0.03073056973516941
1772731512251962000,4.281962158203125,-0.04130477458238602,0.03486695885658264,-0.02956089936196804
1772731512261990400,4.291990478515625,-0.03973457217216492,0.02035512961447239,-0.03805745020508766
1772731512272018200,4.30201806640625,-0.038699131458997726,-0.0024203872308135033,-0.039758387953042984
1772731512282046200,4.312046142578125,-0.039479970932006836,-0.02211313135921955,-0.037727728486061096
1772731512292074200,4.32207421875,-0.04143979400396347,-0.015497145242989063,-0.04374942556023598
1772731512302103300,4.332103271484375,-0.04252583160996437,-0.00461546890437603,-0.042535822838544846
1772731512312131000,4.342131103515625,-0.039111025631427765,0.005079495720565319,-0.024430040270090103
1772731512322159400,4.352159423828125,-0.03878878429532051,0.014054881408810616,-0.007982357405126095
1772731512332187100,4.362187255859375,-0.03919542580842972,0.01791091077029705,-0.00162885629106313
1772731512342215400,4.37221533203125,-0.044900182634592056,0.015487434342503548,-0.011046060360968113
1772731512352244200,4.382244140625,-0.043068915605545044,0.004898129962384701,-0.0176371019333601
1772731512362272300,4.392272216796875,-0.04273229092359543,-0.0022934703156352043,-0.02113516442477703
1772731512372300000,4.402300048828125,-0.040853966027498245,-0.00021727010607719421,-0.03338756784796715
1772731512382328300,4.412328369140625,-0.03964724391698837,0.007922492921352386,-0.03649947792291641
1772731512392356000,4.422356201171875,-0.03302183374762535,0.007936768233776093,-0.02137567102909088
1772731512402385200,4.43238525390625,-0.03554624319076538,0.013877215795218945,-0.011798678897321224
1772731512412413200,4.4424130859375,-0.035496875643730164,0.019919922575354576,-0.015138535760343075
1772731512422441200,4.452441162109375,-0.03438473865389824,0.022964447736740112,-0.025983193889260292
1772731512432469200,4.46246923828125,-0.040811408311128616,0.01336839608848095,-0.03037448599934578
1772731512442497300,4.472497314453125,-0.03661160171031952,0.01053878664970398,-0.03160007297992706
1772731512452526300,4.4825263671875,-0.034376926720142365,0.006515488028526306,-0.030710330232977867
1772731512462554000,4.49255419921875,-0.0330384224653244,0.014503107406198978,-0.034202802926301956
1772731512472582400,4.50258251953125,-0.032092299312353134,0.022905755788087845,-0.04070144146680832
1772731512482610200,4.512610107421875,-0.037392787635326385,0.018996767699718475,-0.02830043062567711
1772731512492638500,4.522638427734375,-0.04657139256596565,0.004605271853506565,-0.01868055760860443
1772731512502667300,4.532667236328125,-0.05167347565293312,-0.004687562584877014,-0.013608567416667938
1772731512512695300,4.5426953125,-0.055430736392736435,-0.009972190484404564,-0.026802128180861473
1772731512522723000,4.55272314453125,-0.05860522389411926,-0.0053183166310191154,-0.036317601799964905
1772731512532751400,4.56275146484375,-0.05824499949812889,-0.006654415745288134,-0.028426136821508408
1772731512542779100,4.572779052734375,-0.06360328197479248,-0.005541747435927391,-0.018242210149765015
1772731512552808200,4.58280810546875,-0.07450828701257706,-0.004414600785821676,-0.01292357686907053
1772731512562836200,4.592836181640625,-0.07263369113206863,0.007628479972481728,-0.019405977800488472
1772731512572864300,4.6028642578125,-0.06997735798358917,0.006007997784763575,-0.014753995463252068
1772731512582892300,4.612892333984375,-0.06569978594779968,-0.006716852076351643,-0.0024893395602703094
1772731512592920300,4.62292041015625,-0.06732524186372757,-0.015008900314569473,-0.0038622086867690086
1772731512602949000,4.63294921875,-0.07495999336242676,-0.022281993180513382,-0.012556363828480244
1772731512612977200,4.64297705078125,-0.08063217997550964,-0.032464902848005295,-0.00591602548956871
1772731512623005200,4.653005126953125,-0.08308042585849762,-0.03245771303772926,0.0035821381025016308
1772731512633033200,4.663033203125,-0.08092214912176132,-0.02362808771431446,0.012093883939087391
1772731512643061200,4.673061279296875,-0.07901239395141602,-0.027446795254945755,0.024661341682076454
1772731512653090300,4.68309033203125,-0.07611885666847229,-0.031394463032484055,0.026820611208677292
1772731512663118000,4.6931181640625,-0.08279886096715927,-0.03697485104203224,0.025437097996473312
1772731512673146400,4.703146484375,-0.07478989660739899,-0.039077430963516235,0.01954403705894947
1772731512683174100,4.713174072265625,-0.07469668984413147,-0.046783559024333954,0.013590007089078426
1772731512693202200,4.7232021484375,-0.07487161457538605,-0.050589777529239655,0.007303382270038128
1772731512703231200,4.733231201171875,-0.07024117559194565,-0.04939401522278786,0.006997118704020977
1772731512713259300,4.74325927734375,-0.05809159204363823,-0.05722241476178169,0.011400124989449978
1772731512723287300,4.753287353515625,-0.0527263879776001,-0.06683482974767685,0.011721035465598106
1772731512733315300,4.7633154296875,-0.04881754517555237,-0.07028944790363312,0.00482132937759161
1772731512743343400,4.77334326171875,-0.04320067539811134,-0.07441175729036331,-0.004439014010131359
1772731512753372200,4.7833720703125,-0.03664448484778404,-0.07304136455059052,-0.007854807190597057
1772731512763400200,4.793400146484375,-0.026593979448080063,-0.08469748497009277,-0.010711046867072582
1772731512773428200,4.80342822265625,-0.020521530881524086,-0.11780009418725967,-0.02679384872317314
1772731512783456300,4.813456298828125,-0.019295411184430122,-0.1218813881278038,-0.03106795623898506
1772731512793484300,4.823484375,-0.0161583311855793,-0.10543879866600037,-0.02724500000476837
1772731512803513300,4.833513427734375,-0.019263043999671936,-0.09446950256824493,-0.01486875768750906
1772731512813541000,4.843541015625,-0.018874026834964752,-0.10172966122627258,-0.020081888884305954
1772731512823569400,4.8535693359375,-0.019907599315047264,-0.10654838383197784,-0.018447240814566612
1772731512833597200,4.86359716796875,-0.0183942262083292,-0.09579373896121979,-0.007208981551229954
1772731512843625200,4.873625244140625,-0.017438417300581932,-0.09217317402362823,-0.010480674915015697
1772731512853654300,4.883654296875,-0.02373327873647213,-0.12902553379535675,-0.035237934440374374
1772731512863682300,4.893682373046875,-0.03251052647829056,-0.16897375881671906,-0.06350152939558029
1772731512873710000,4.9037099609375,-0.03052894026041031,-0.19498389959335327,-0.08278254419565201
1772731512883738400,4.91373828125,-0.026339787989854813,-0.20017413794994354,-0.08891234546899796
1772731512893766100,4.92376611328125,-0.01803000643849373,-0.19029787182807922,-0.08446410298347473
1772731512903794200,4.933794189453125,-0.007556060794740915,-0.15756256878376007,-0.06781189143657684
1772731512913823200,4.9438232421875,-0.009675930254161358,-0.1048092320561409,-0.03602437674999237
1772731512923851300,4.953851318359375,-0.017673403024673462,-0.04888470843434334,0.0024977156426757574
1772731512933879000,4.963879150390625,-0.027034971863031387,-0.0016623742412775755,0.03608710318803787
1772731512943907300,4.9739072265625,-0.030626244843006134,0.016222883015871048,0.05357794463634491
1772731512953935000,4.98393505859375,-0.027992499992251396,0.00854548905044794,0.05331960693001747
1772731512963964200,4.993964111328125,-0.025471286848187447,-0.01149959210306406,0.04249971732497215
1772731512973992400,5.003992431640625,-0.02458813600242138,-0.030867084860801697,0.023572362959384918
1772731512984020200,5.014020263671875,-0.02285068854689598,-0.048553936183452606,0.011869099922478199
1772731512994048300,5.02404833984375,-0.022124754264950752,-0.05902998894453049,0.009557235054671764
1772731513004076300,5.034076171875,-0.016373123973608017,-0.054796624928712845,0.0167714711278677
1772731513014105300,5.044105224609375,-0.015497121959924698,-0.04502996429800987,0.023852789774537086
1772731513024133000,5.054133056640625,-0.00563996285200119,-0.03645458444952965,0.02742568589746952
1772731513034161400,5.064161376953125,0.002003026893362403,-0.027508853003382683,0.035622406750917435
1772731513044189200,5.074189208984375,0.007083539385348558,-0.026259563863277435,0.03584078699350357
1772731513054217200,5.08421728515625,0.010205921716988087,-0.031156806275248528,0.03119434043765068
1772731513064246300,5.094246337890625,0.01735650934278965,-0.02941962517797947,0.021894048899412155
1772731513074274300,5.1042744140625,0.028026536107063293,-0.029330559074878693,0.016749614849686623
1772731513084302000,5.114302001953125,0.04238816723227501,-0.020141055807471275,0.01637117937207222
1772731513094330400,5.124330322265625,0.05413854122161865,-0.007432223297655582,0.006018142215907574
1772731513104358100,5.134358154296875,0.06337011605501175,0.005677186418324709,-0.009942182339727879
1772731513114387200,5.14438720703125,0.06734444946050644,0.014191468246281147,-0.017245907336473465
1772731513124415200,5.154415283203125,0.07376053929328918,0.018655193969607353,-0.02239433117210865
1772731513134443300,5.164443359375,0.08367642760276794,0.024683494120836258,-0.03245949372649193
1772731513144471300,5.17447119140625,0.08608925342559814,0.02578204683959484,-0.04202236980199814
1772731513154499300,5.184499267578125,0.09177786856889725,0.022396733984351158,-0.04188012704253197
1772731513164528000,5.194528076171875,0.09084150195121765,0.02691745012998581,-0.0430857390165329
1772731513174556200,5.20455615234375,0.09348957985639572,0.0319344662129879,-0.03734610229730606
1772731513184584000,5.214583984375,0.0903923287987709,0.03904377669095993,-0.02933158352971077
1772731513194611700,5.22461181640625,0.08719813078641891,0.041350606828927994,-0.01795322820544243
1772731513204640000,5.234639892578125,0.08503857254981995,0.034682583063840866,-0.017518866807222366
1772731513214669000,5.2446689453125,0.08887214213609695,0.02808532305061817,-0.013729983940720558
1772731513224696800,5.25469677734375,0.08896295726299286,0.02356727235019207,-0.01807759329676628
1772731513234725000,5.26472509765625,0.08629667013883591,0.024472063407301903,-0.02861492894589901
1772731513244753000,5.2747529296875,0.07535453885793686,0.013797314837574959,-0.02795473113656044
1772731513254781000,5.284781005859375,0.06322678923606873,0.004031808115541935,-0.013865280896425247
1772731513264809700,5.294809814453125,0.054270319640636444,-0.004095360636711121,0.0054612793028354645
1772731513274838000,5.304838134765625,0.037465523928403854,-0.01942058466374874,0.011137252673506737
1772731513284865800,5.31486572265625,0.017737625166773796,-0.04097727686166763,0.0021392309572547674
1772731513294892800,5.324892822265625,0.006729715038090944,-0.055557284504175186,-0.009638066403567791
1772731513304920800,5.3349208984375,0.011280074715614319,-0.06442901492118835,-0.01943127252161503
1772731513314950000,5.344949951171875,0.016957951709628105,-0.06325622648000717,-0.01408633217215538
1772731513324978000,5.35497802734375,0.019359856843948364,-0.054846495389938354,-0.015359323471784592
1772731513335006000,5.365005859375,0.020875010639429092,-0.04383851960301399,-0.011622869409620762
1772731513345034000,5.375033935546875,0.021892337128520012,-0.03172406554222107,-0.006606805603951216
1772731513355062000,5.38506201171875,0.026251202449202538,-0.023013656958937645,-0.006339986342936754
1772731513365090800,5.3950908203125,0.03511260449886322,-0.00932740606367588,-0.0006062006577849388
1772731513375118800,5.405118896484375,0.044585712254047394,0.0030092233791947365,0.00391640467569232
1772731513385147000,5.41514697265625,0.051765330135822296,0.01828191988170147,0.002524903044104576
1772731513395175000,5.4251748046875,0.04962005093693733,0.022121135145425797,-0.0027825257275253534
1772731513405203000,5.435202880859375,0.04629456251859665,0.02064228244125843,0.003637024201452732
1772731513415231000,5.44523095703125,0.048121705651283264,0.023548673838377,0.003980820532888174
1772731513425259800,5.455259765625,0.05295134708285332,0.018035665154457092,-0.00544384028762579
1772731513435288000,5.4652880859375,0.059193264693021774,0.016137097030878067,-0.010507574304938316
1772731513445315800,5.47531591796875,0.07028506696224213,0.008890101686120033,-0.01537530031055212
1772731513455343900,5.48534375,0.07839789986610413,0.008207878097891808,-0.01890851929783821
1772731513465372000,5.495371826171875,0.07970231771469116,0.00642009824514389,-0.017593450844287872
1772731513475401000,5.50540087890625,0.07358971238136292,0.005706177093088627,-0.008289421908557415
1772731513485428700,5.5154287109375,0.06518344581127167,0.0011657532304525375,0.007713512517511845
1772731513495457000,5.52545703125,0.061544157564640045,-0.006341652013361454,0.01629207283258438
1772731513505484800,5.53548486328125,0.05808764323592186,-0.019210578873753548,0.01659407466650009
1772731513515512800,5.545512939453125,0.05249369144439697,-0.02405376359820366,0.017977053299546242
1772731513525542100,5.555542236328125,0.05698245018720627,-0.025483082979917526,0.0063161361031234264
1772731513535570000,5.56556982421875,0.06013805419206619,-0.02457277476787567,-0.0019178269430994987
1772731513545597700,5.57559765625,0.060447245836257935,-0.0222795270383358,-0.0034936193842440844
1772731513555626000,5.5856259765625,0.051787376403808594,-0.02642006054520607,-0.003253130940720439
1772731513565653800,5.59565380859375,0.044806431978940964,-0.0285966619849205,-0.003580966033041477
1772731513575682800,5.605682861328125,0.041251156479120255,-0.025818374007940292,-0.014594205655157566
1772731513585711000,5.615711181640625,0.03941250964999199,-0.028544651344418526,-0.017456570640206337
1772731513595739000,5.62573876953125,0.03721277415752411,-0.031153343617916107,-0.014043978415429592
1772731513605767000,5.635766845703125,0.035917676985263824,-0.031924061477184296,-0.008782371878623962
1772731513615796000,5.6457958984375,0.03223069757223129,-0.02904970571398735,-0.0005979575798846781
1772731513625824000,5.655823974609375,0.028107058256864548,-0.02639506570994854,0.0009895527036860585
1772731513635851800,5.665851806640625,0.027613308280706406,-0.022565972059965134,0.0003703677502926439
1772731513645880000,5.675880126953125,0.021254070103168488,-0.021953415125608444,0.002289186231791973
1772731513655907800,5.685907958984375,0.018231481313705444,-0.025812340900301933,-0.002148691564798355
1772731513665936000,5.695935791015625,0.01183057390153408,-0.028664318844676018,-0.003891464089974761
1772731513675965700,5.705965576171875,0.01803765259683132,-0.03171728923916817,-0.001168918563053012
1772731513685994000,5.715993896484375,0.02036152593791485,-0.0362987257540226,0.005528132431209087
1772731513696021800,5.726021728515625,0.01952904835343361,-0.03786611557006836,0.007105278316885233
1772731513706049800,5.7360498046875,0.018319707363843918,-0.030379969626665115,0.008559630252420902
1772731513716079000,5.7460791015625,0.0178906861692667,-0.02283221110701561,0.011156433261930943
1772731513726107000,5.75610693359375,0.018618794158101082,-0.013522599823772907,0.012683489359915257
1772731513736135000,5.766135009765625,0.019437963142991066,-0.015734024345874786,0.01825644262135029
1772731513746163000,5.776162841796875,0.013808042742311954,-0.01587463915348053,0.02073025330901146
1772731513756191000,5.78619091796875,0.018652088940143585,-0.015555819496512413,0.012628115713596344
1772731513766219000,5.796218994140625,0.023270810022950172,-0.020081063732504845,0.003229820402339101
1772731513776248000,5.806248046875,0.025873713195323944,-0.028987588360905647,-0.0016267138998955488
1772731513786275800,5.81627587890625,0.028278013691306114,-0.030180949717760086,0.001481727696955204
1772731513796304000,5.826303955078125,0.025773771107196808,-0.026067547500133514,0.0033139889128506184
1772731513806332000,5.836331787109375,0.026530109345912933,-0.02013322524726391,0.007650680374354124
1772731513816360000,5.84635986328125,0.0242207832634449,-0.009844631887972355,0.007605924271047115
1772731513826388700,5.856388671875,0.02264419198036194,-0.005312730558216572,0.006561965681612492
1772731513836417000,5.8664169921875,0.019193675369024277,-0.006432622205466032,0.004754733294248581
1772731513846444800,5.87644482421875,0.015307857654988766,-0.02111489698290825,0.006821346003562212
1772731513856473000,5.88647314453125,0.012904911302030087,-0.03420429304242134,-0.00013509843847714365
1772731513866500900,5.8965009765625,0.013955794274806976,-0.03924965113401413,-0.010168291628360748
1772731513876530000,5.906530029296875,0.013162082061171532,-0.04134294390678406,-0.014493235386908054
1772731513886557700,5.9165576171875,0.010166293010115623,-0.03661290183663368,-0.021787898615002632
1772731513896586000,5.9265859375,0.00435865530744195,-0.02917688712477684,-0.02373257651925087
1772731513906613800,5.93661376953125,-0.0009873739909380674,-0.017885616049170494,-0.022316573187708855
1772731513916642000,5.94664208984375,-0.00039641858893446624,-0.028404302895069122,-0.021519755944609642
1772731513926670800,5.9566708984375,-0.010606978088617325,-0.04266473278403282,-0.015631508082151413
1772731513936699000,5.966698974609375,0.021622268483042717,0.04573500156402588,-0.05612988397479057
1772731513946727000,5.976726806640625,0.16703511774539948,-0.045635659247636795,-0.055709633976221085
1772731513956755000,5.9867548828125,-0.013045290485024452,-0.08300154656171799,0.02623925916850567
1772731513966782700,5.99678271484375,-0.08421400934457779,-0.13647277653217316,-0.04739155247807503
1772731513976811800,6.006811767578125,-0.09853772073984146,-0.16098397970199585,-0.03437880426645279
1772731513986840000,6.016840087890625,-0.17625755071640015,-0.23318760097026825,-0.030327867716550827
1772731513996867800,6.026867919921875,-0.2236730009317398,-0.296364426612854,-0.014041305519640446
1772731514006896000,6.036896240234375,-0.23526494204998016,-0.3726775646209717,0.00684187188744545
1772731514016924000,6.046923828125,-0.24270744621753693,-0.41103094816207886,0.005179773550480604
1772731514026953000,6.056952880859375,-0.24527207016944885,-0.4368215501308441,0.003015156602486968
1772731514036981000,6.06698095703125,-0.2500777542591095,-0.4493379294872284,0.009469595737755299
1772731514047009000,6.077009033203125,-0.27006372809410095,-0.4492737352848053,0.021210674196481705
1772731514057036800,6.087036865234375,-0.28227779269218445,-0.43690061569213867,0.04286086559295654
1772731514067065000,6.097065185546875,-0.27534717321395874,-0.42588526010513306,0.07445341348648071
1772731514077094000,6.107093994140625,-0.2462041676044464,-0.38363316655158997,0.1090630292892456
1772731514087122000,6.117121826171875,0.08482275903224945,-0.20213980972766876,-0.017825409770011902
1772731514097150000,6.12714990234375,0.13053742051124573,-0.19011898338794708,0.002198105910792947
1772731514107178000,6.137177978515625,-0.056512098759412766,-0.16732925176620483,-0.021733058616518974
1772731514117205800,6.147205810546875,-0.026622986420989037,-0.08175251632928848,-0.025429807603359222
1772731514127234800,6.15723486328125,0.09495910257101059,0.007789879105985165,-0.020327189937233925
1772731514137262800,6.167262939453125,0.04634782299399376,0.050433896481990814,-0.023798881098628044
1772731514147291000,6.177290771484375,0.000008021423127502203,0.08079499751329422,-0.001283187186345458
1772731514157319000,6.18731884765625,0.030080726370215416,0.10164199024438858,0.022181658074259758
1772731514167347000,6.197346923828125,0.04641655460000038,0.10074716806411743,0.0182830560952425
1772731514177375700,6.207375732421875,0.04651778191328049,0.08770570904016495,0.013582042418420315
1772731514187403300,6.2174033203125,0.06307811290025711,0.08772514760494232,-0.004282176494598389
1772731514197431300,6.227431396484375,0.07351470738649368,0.09846902638673782,-0.02413923107087612
1772731514207459300,6.237459228515625,0.07255464047193527,0.09810230880975723,-0.04036986827850342
1772731514217487400,6.2474873046875,0.07106650620698929,0.0971044972538948,-0.05844927579164505
1772731514227516200,6.25751611328125,0.08390720188617706,0.09165088087320328,-0.06199314445257187
1772731514237544200,6.267544189453125,0.093009814620018,0.09730944037437439,-0.05932411551475525
1772731514247572200,6.277572265625,0.09308305382728577,0.1092103123664856,-0.05473921820521355
1772731514257600300,6.287600341796875,0.08687765151262283,0.11546532064676285,-0.05096285790205002
1772731514267628300,6.297628173828125,0.07643380016088486,0.126875102519989,-0.03787795081734657
1772731514277657300,6.3076572265625,0.07805060595273972,0.1371234655380249,-0.013186716474592686
1772731514287685000,6.31768505859375,0.10757014900445938,0.17193683981895447,-0.004820662550628185
1772731514297713200,6.327713134765625,0.1310838758945465,0.19936348497867584,-0.010295047424733639
1772731514307741200,6.3377412109375,0.10174595564603806,0.1681877225637436,-0.025469470769166946
1772731514317769200,6.347769287109375,0.06519822776317596,0.1348968893289566,-0.03734718635678291
1772731514327798000,6.357798095703125,0.029295893386006355,0.10473818331956863,-0.03003520704805851
1772731514337826300,6.367826416015625,-0.01176457665860653,0.08605005592107773,-0.024032434448599815
1772731514347854000,6.37785400390625,-0.03197850286960602,0.07678545266389847,-0.009859624318778515
1772731514357882400,6.38788232421875,-0.03130956366658211,0.08411705493927002,0.007605656050145626
1772731514367910100,6.39791015625,-0.01675298996269703,0.10262362658977509,0.015692612156271935
1772731514377939200,6.407939208984375,-0.00017783825751394033,0.12516607344150543,0.013133055530488491
1772731514387967200,6.41796728515625,0.011627155356109142,0.14784447848796844,-0.0059801856987178326
1772731514397995300,6.427995361328125,0.00894160196185112,0.15728066861629486,-0.03124716505408287
1772731514408023000,6.43802294921875,0.006683508399873972,0.1459374576807022,-0.043680135160684586
1772731514418051300,6.44805126953125,-0.01729963906109333,0.12230251729488373,-0.0480852872133255
1772731514428080400,6.458080322265625,-0.03550606966018677,0.09775429964065552,-0.043240197002887726
1772731514438108200,6.468108154296875,-0.04129551723599434,0.08401931077241898,-0.040647611021995544
1772731514448136400,6.478136474609375,-0.03978310897946358,0.07493021339178085,-0.03147648274898529
1772731514458164200,6.488164306640625,-0.04024592414498329,0.06751168519258499,-0.026322226971387863
1772731514468192300,6.498192138671875,-0.038038164377212524,0.062409862875938416,-0.021409492939710617
1772731514478221000,6.508220947265625,-0.03489619866013527,0.0582975372672081,-0.018628904595971107
1772731514488249300,6.518249267578125,-0.028987707570195198,0.05759419500827789,-0.021692337468266487
1772731514498277000,6.528277099609375,-0.015156378038227558,0.06766412407159805,-0.026731546968221664
1772731514508305400,6.538305419921875,-0.004465651232749224,0.07106631249189377,-0.03144800662994385
1772731514518333200,6.548333251953125,0.008698815479874611,0.07743700593709946,-0.03655701130628586
1772731514528362200,6.5583623046875,0.013052018359303474,0.0836152732372284,-0.04198027029633522
1772731514538390300,6.568390380859375,0.015271567739546299,0.076222725212574,-0.05233411118388176
1772731514548418300,6.578418212890625,0.021601902320981026,0.06642255932092667,-0.052188172936439514
1772731514558446000,6.588446044921875,0.029231254011392593,0.05954829230904579,-0.045625340193510056
1772731514568474400,6.598474365234375,0.03127629682421684,0.059439901262521744,-0.040689703077077866
1772731514578503200,6.608503173828125,0.02849678322672844,0.057462915778160095,-0.03958100825548172
1772731514588531200,6.61853125,0.020887333899736404,0.05483917146921158,-0.03591756150126457
1772731514598559200,6.628559326171875,0.017494775354862213,0.05189341679215431,-0.035217978060245514
1772731514608587300,6.638587158203125,0.02001172862946987,0.04515881463885307,-0.029809363186359406
1772731514618615000,6.648614990234375,0.022449204698204994,0.032316967844963074,-0.02704896219074726
1772731514628644400,6.658644287109375,0.019564202055335045,0.025056924670934677,-0.025138145312666893
1772731514638672400,6.66867236328125,0.018575409427285194,0.02529034949839115,-0.028499368578195572
1772731514648700200,6.6787001953125,0.015147387981414795,0.041920993477106094,-0.041765373200178146
1772731514658728200,6.688728271484375,0.021714121103286743,0.0654105544090271,-0.05322093516588211
1772731514668756200,6.698756103515625,0.03618333861231804,0.07455025613307953,-0.03833892196416855
1772731514678785300,6.708785400390625,0.03871745988726616,0.07357200980186462,-0.02844049409031868
1772731514688813300,6.718813232421875,0.02969733253121376,0.05479911342263222,-0.043147534132003784
1772731514698841300,6.72884130859375,0.016664354130625725,0.03411141410470009,-0.06255665421485901
1772731514708869000,6.738869140625,0.010657859966158867,0.031207237392663956,-0.08912381529808044
1772731514718897400,6.7488974609375,0.010721824131906033,0.03898800536990166,-0.11094336956739426
1772731514728926200,6.75892626953125,0.020381374284625053,0.05524527281522751,-0.10375336557626724
1772731514738954200,6.768954345703125,0.02874145098030567,0.07568270713090897,-0.07981898635625839
1772731514748982300,6.778982177734375,0.026647940278053284,0.08730580657720566,-0.06679879128932953
1772731514759010300,6.78901025390625,0.01310200896114111,0.0915110632777214,-0.07562240213155746
1772731514769038000,6.7990380859375,-0.001672942191362381,0.0826997309923172,-0.09263148158788681
1772731514779067400,6.8090673828125,-0.012963633053004742,0.07294491678476334,-0.10545486956834793
1772731514789095200,6.81909521484375,-0.012664027512073517,0.07060639560222626,-0.11456580460071564
1772731514799123200,6.829123291015625,-0.007072117179632187,0.08129963278770447,-0.112480029463768
1772731514809151200,6.839151123046875,-0.004970083944499493,0.09853294491767883,-0.09822865575551987
1772731514819179300,6.84917919921875,-0.008180104196071625,0.12520521879196167,-0.085404172539711
1772731514829207300,6.859207275390625,-0.012858745642006397,0.14236050844192505,-0.08500602841377258
1772731514839236400,6.869236328125,-0.011885360814630985,0.15044985711574554,-0.0910109207034111
1772731514849264000,6.87926416015625,-0.010584140196442604,0.1296745389699936,-0.09602858871221542
1772731514859292200,6.889292236328125,-0.012119161896407604,0.10220033675432205,-0.1062583178281784
1772731514869320200,6.8993203125,-0.007511361036449671,0.08970584720373154,-0.11518976092338562
1772731514879348200,6.90934814453125,-0.010175198316574097,0.08343707025051117,-0.11309651285409927
1772731514889377300,6.919377197265625,-0.012255392968654633,0.08881452679634094,-0.09544427692890167
1772731514899405300,6.9294052734375,-0.008505281992256641,0.09417448937892914,-0.08091889321804047
1772731514909433000,6.93943310546875,-0.0001362983020953834,0.09777375310659409,-0.07402849942445755
1772731514919461400,6.94946142578125,0.0067638857290148735,0.08867532014846802,-0.06901214271783829
1772731514929489200,6.9594892578125,0.012290211394429207,0.07546603679656982,-0.07416828721761703
1772731514939518200,6.969518310546875,0.0152556411921978,0.06304346024990082,-0.07785197347402573
1772731514949546200,6.979546142578125,0.014257264323532581,0.05541027709841728,-0.07829008996486664
1772731514959574300,6.98957421875,0.008625891990959644,0.05085793882608414,-0.07169821858406067
1772731514969602300,6.999602294921875,0.005604269448667765,0.05420313775539398,-0.05994009971618652
1772731514979630300,7.00963037109375,0.00024940440198406577,0.05280064046382904,-0.053558364510536194
1772731514989659400,7.019659423828125,-0.0032073785550892353,0.05550561472773552,-0.04626636207103729
1772731514999687200,7.029687255859375,0.0029895948246121407,0.04989941045641899,-0.031775325536727905
1772731515009715200,7.039715087890625,0.017715545371174812,0.04662824794650078,-0.014336682856082916
1772731515019743200,7.0497431640625,0.03730936720967293,0.02293284237384796,0.001629775040782988
1772731515029771300,7.059771240234375,0.04732764884829521,0.0032432919833809137,0.0017789119156077504
1772731515039800000,7.069800048828125,0.042531028389930725,-0.020435404032468796,-0.0066720969043672085
1772731515049828400,7.079828369140625,0.04122421517968178,-0.034272391349077225,-0.02305719442665577
1772731515059856100,7.089856201171875,0.03822121024131775,-0.036291107535362244,-0.025717424228787422
1772731515069884400,7.099884521484375,0.03912881761789322,-0.02014356106519699,0.003230869071558118
1772731515079912200,7.109912109375,0.03474000468850136,-0.018945984542369843,0.03565353527665138
1772731515089941200,7.119941162109375,0.030850987881422043,-0.023833418264985085,0.06338103860616684
1772731515099969000,7.129968994140625,0.017266707494854927,-0.03143901750445366,0.08162447810173035
1772731515109997300,7.139997314453125,0.00925272237509489,-0.038084134459495544,0.1019771546125412
1772731515120025000,7.150025146484375,0.00224553095176816,-0.04330027103424072,0.11422635614871979
1772731515130053400,7.160053466796875,0.009102905169129372,-0.051086291670799255,0.13058029115200043
1772731515140082200,7.170082275390625,0.02049921080470085,-0.05526762455701828,0.15320520102977753
1772731515150110200,7.180110107421875,0.02277887798845768,-0.0630808025598526,0.16543284058570862
1772731515160138200,7.19013818359375,0.029972868040204048,-0.07198785245418549,0.17674461007118225
1772731515170166300,7.200166259765625,0.02408701553940773,-0.07616741955280304,0.18216493725776672
1772731515180194000,7.210194091796875,0.022562693804502487,-0.07028144598007202,0.17999711632728577
1772731515190223400,7.220223388671875,0.016469646245241165,-0.04929307475686073,0.17096179723739624
1772731515200251400,7.23025146484375,0.008792923763394356,-0.012733099982142448,0.15923887491226196
1772731515210279400,7.240279541015625,0.012902714312076569,0.017195504158735275,0.1465931236743927
1772731515220307500,7.250307373046875,0.02180582284927368,0.04297000914812088,0.14603115618228912
1772731515230335500,7.26033544921875,0.027312707155942917,0.041992899030447006,0.15011191368103027
1772731515240364300,7.2703642578125,0.03255151957273483,0.022659245878458023,0.1561400294303894
1772731515250392300,7.280392333984375,0.033582694828510284,0.003210978815332055,0.15744763612747192
1772731515260420400,7.29042041015625,0.02954757586121559,-0.014378677122294903,0.15857702493667603
1772731515270448400,7.300448486328125,0.024226579815149307,-0.02365340292453766,0.16084258258342743
1772731515280476400,7.310476318359375,0.016289914026856422,-0.025228608399629593,0.15949691832065582
1772731515290505500,7.32050537109375,0.011718064546585083,-0.0167379193007946,0.1626777946949005
1772731515300533200,7.330533203125,0.009647935628890991,-0.010745454579591751,0.15434740483760834
1772731515310561500,7.3405615234375,0.010135560296475887,-0.004848151002079248,0.1410670280456543
1772731515320589300,7.35058935546875,0.007902429439127445,-0.006439773365855217,0.13869629800319672
1772731515330617300,7.360617431640625,0.004701843019574881,-0.0186663456261158,0.13487571477890015
1772731515340646400,7.370646484375,0.005083183757960796,-0.030070841312408447,0.1356099545955658
1772731515350674400,7.38067431640625,0.009085648693144321,-0.030576307326555252,0.13241176307201385
1772731515360702500,7.390702392578125,0.00898841954767704,-0.028760869055986404,0.1317017674446106
1772731515370730500,7.40073046875,0.005603807978332043,-0.03513248264789581,0.13200776278972626
1772731515380758300,7.41075830078125,0.0030534942634403706,-0.03192855045199394,0.13170230388641357
1772731515390787300,7.420787353515625,-0.0022342121228575706,-0.04781030863523483,0.12239881604909897
1772731515400815400,7.4308154296875,-0.0087332958355546,-0.07096021622419357,0.10845077037811279
1772731515410843400,7.440843505859375,-0.00039254172588698566,-0.08338306099176407,0.10727791488170624
1772731515420871400,7.450871337890625,0.00630848528817296,-0.0901210606098175,0.10720363259315491
1772731515430899500,7.4608994140625,0.010969549417495728,-0.08332973718643188,0.10828035324811935
1772731515440928500,7.470928466796875,0.01958254538476467,-0.06910045444965363,0.10659587383270264
1772731515450956300,7.480956298828125,0.022312551736831665,-0.061629489064216614,0.10118326544761658
1772731515460984600,7.490984619140625,0.026929674670100212,-0.04355061799287796,0.09599782526493073
1772731515471012400,7.501012451171875,0.031644802540540695,-0.03367535024881363,0.08310146629810333
1772731515481040400,7.511040283203125,0.045964185148477554,-0.03899741917848587,0.06019829586148262
1772731515491069400,7.5210693359375,0.061310119926929474,-0.037507377564907074,0.04040328413248062
1772731515501097500,7.531097412109375,0.07537777721881866,-0.040213871747255325,0.026205437257885933
1772731515511125200,7.541125244140625,0.0809917226433754,-0.04570211470127106,0.006592319812625647
1772731515521153500,7.551153564453125,0.08086292445659637,-0.04414736479520798,-0.009053471498191357
1772731515531181300,7.561181396484375,0.07813611626625061,-0.052505429834127426,-0.018565483391284943
1772731515541210400,7.57121044921875,0.07697131484746933,-0.056325990706682205,-0.01782488450407982
1772731515551238400,7.58123828125,0.07182928174734116,-0.05875319615006447,-0.01891518197953701
1772731515561266400,7.591266357421875,0.07208267599344254,-0.05941043049097061,-0.01762726716697216
1772731515571294200,7.601294189453125,0.06964588910341263,-0.04924807697534561,-0.026492396369576454
1772731515581322500,7.611322509765625,0.06943648308515549,-0.03979833424091339,-0.025317691266536713
1772731515591351600,7.6213515625,0.06501244008541107,-0.026985865086317062,-0.029019752517342567
1772731515601379300,7.63137939453125,0.06027395650744438,-0.003810018766671419,-0.03647685796022415
1772731515611407600,7.64140771484375,0.05771598964929581,0.012836335226893425,-0.03638337925076485
1772731515621435400,7.651435302734375,0.056434910744428635,0.02186482772231102,-0.031287144869565964
1772731515631463200,7.661463134765625,0.05663358420133591,0.024363938719034195,-0.03275614604353905
1772731515641492500,7.671492431640625,0.05639506131410599,0.02815883420407772,-0.036493100225925446
1772731515651520500,7.6815205078125,0.052530549466609955,0.028977489098906517,-0.043955810368061066
1772731515661548300,7.69154833984375,0.0453910231590271,0.024554746225476265,-0.05141613632440567
1772731515671576600,7.70157666015625,0.035137053579092026,0.02513318508863449,-0.06443819403648376
1772731515681604400,7.711604248046875,0.036385055631399155,0.02820947952568531,-0.05659838020801544
1772731515691633400,7.72163330078125,0.04092760756611824,0.03615395352244377,-0.04125058278441429
1772731515701661400,7.731661376953125,0.04002097621560097,0.04363541677594185,-0.032182782888412476
1772731515711689500,7.741689453125,0.038439322263002396,0.053533852100372314,-0.026743540540337563
1772731515721717200,7.75171728515625,0.033694636076688766,0.06056086719036102,-0.024460412561893463
1772731515731745500,7.76174560546875,0.03756394237279892,0.05795123800635338,-0.017193445935845375
1772731515741774300,7.7717744140625,0.03170496225357056,0.0534382089972496,-0.009182389825582504
1772731515751802400,7.78180224609375,0.027068933472037315,0.05058063566684723,-0.007759994827210903
1772731515761830400,7.791830322265625,0.027559706941246986,0.04677809774875641,0.00039886889862827957
1772731515771858400,7.8018583984375,0.027543995529413223,0.042485080659389496,0.001207670895382762
1772731515781886500,7.811886474609375,0.03383663669228554,0.04584069550037384,-0.004911196418106556
1772731515791915500,7.82191552734375,0.038881994783878326,0.05343123897910118,-0.012077230960130692
1772731515801943300,7.831943359375,0.04244876652956009,0.06533050537109375,-0.021834785118699074
1772731515811971300,7.841971435546875,0.04226578027009964,0.07351915538311005,-0.03250766918063164
1772731515821999400,7.851999267578125,0.04120165482163429,0.08794614672660828,-0.04012458026409149
1772731515832027400,7.86202734375,0.04529120400547981,0.10054530203342438,-0.039296869188547134
1772731515842056400,7.872056396484375,0.04460541531443596,0.11033184081315994,-0.03266453370451927
1772731515852084500,7.88208447265625,0.04462752118706703,0.11252442002296448,-0.03200114145874977
1772731515862112500,7.892112548828125,0.04860282316803932,0.11061866581439972,-0.026466025039553642
1772731515872140300,7.902140380859375,0.04119923338294029,0.10450351238250732,-0.01483893021941185
1772731515882168300,7.912168212890625,0.03506575524806976,0.09877460449934006,-0.007839081808924675
1772731515892197400,7.922197265625,0.03251125290989876,0.10094454884529114,-0.00326670054346323
1772731515902225400,7.932225341796875,0.034765906631946564,0.10381200909614563,0.005955291911959648
1772731515912253400,7.94225341796875,0.041158825159072876,0.10982116311788559,0.011416103690862656
1772731515922281500,7.952281494140625,0.049271225929260254,0.10807900130748749,0.01143262442201376
1772731515932309500,7.9623095703125,0.0602080300450325,0.09665244072675705,0.01110691949725151
1772731515942338600,7.972338623046875,0.06783547252416611,0.08855357021093369,0.0085444375872612
1772731515952366300,7.982366455078125,0.07382172346115112,0.08099312335252762,0.0030617874581366777
1772731515962394400,7.992394287109375,0.07884977012872696,0.0733148604631424,0.010214217007160187
1772731515972422400,8.00242236328125,0.0768958106637001,0.0688503310084343,0.014140781946480274
1772731515982450400,8.012450439453126,0.06900841742753983,0.06927792727947235,0.020972048863768578
1772731515992479200,8.022479248046874,0.06683021783828735,0.0700843334197998,0.027443531900644302
1772731516002507500,8.032507568359375,0.06446322798728943,0.0715099573135376,0.03519812226295471
1772731516012535300,8.042535400390625,0.06247837096452713,0.07600990682840347,0.04667581245303154
1772731516022563600,8.0525634765625,0.06608591973781586,0.07324941456317902,0.05767149105668068
1772731516032591400,8.06259130859375,0.06406404823064804,0.06965601444244385,0.06647882610559464
1772731516042620400,8.072620361328125,0.05971623212099075,0.0627717524766922,0.08177067339420319
1772731516052648200,8.082648193359375,0.047155700623989105,0.056980181485414505,0.08868636935949326
1772731516062676500,8.092676513671876,0.037430860102176666,0.053674958646297455,0.09841439127922058
1772731516072704300,8.102704345703126,0.03221133351325989,0.054101064801216125,0.10163787752389908
1772731516082732500,8.112732666015624,0.028577785938978195,0.055595479905605316,0.09394267201423645
1772731516092761600,8.12276171875,0.03260155767202377,0.05870365351438522,0.07493222504854202
1772731516102789400,8.132789306640625,0.035926975309848785,0.06299788504838943,0.06197941675782204
1772731516112817400,8.1428173828125,0.04328502342104912,0.058964263647794724,0.0486026257276535
1772731516122845400,8.152845458984375,0.04760682210326195,0.05158547684550285,0.04237215965986252
1772731516132873200,8.162873291015625,0.044218216091394424,0.03964439779520035,0.02817724458873272
1772731516142902300,8.17290234375,0.03657947853207588,0.030320245772600174,0.030374908819794655
1772731516152930600,8.1829306640625,0.032926153391599655,0.022380029782652855,0.03667887672781944
1772731516162958300,8.192958251953126,0.020705677568912506,0.01813933253288269,0.0486641451716423
1772731516172986600,8.202986572265624,0.009369133040308952,0.01440424844622612,0.052278053015470505
1772731516183014400,8.213014404296874,0.003997028339654207,0.01582561619579792,0.0433330275118351
1772731516193043500,8.22304345703125,0.0020284196361899376,0.012777095660567284,0.03300182893872261
1772731516203071500,8.233071533203125,0.0001339652226306498,0.016384277492761612,0.01022673025727272
1772731516213099500,8.243099609375,-0.00011290982365608215,0.015799447894096375,-0.008290228433907032
1772731516223127600,8.25312744140625,-0.002449645195156336,0.012249233201146126,-0.021293925121426582
1772731516233155600,8.263155517578125,-0.005232914816588163,0.014653535559773445,-0.029747864231467247
1772731516243184600,8.2731845703125,-0.014697297476232052,0.01702776737511158,-0.043607197701931
1772731516253212400,8.28321240234375,-0.026484981179237366,0.01136988215148449,-0.04235471040010452
1772731516263240400,8.293240478515624,-0.041883233934640884,0.0037895329296588898,-0.03763345256447792
1772731516273268500,8.3032685546875,-0.04984661564230919,0.0001394045539200306,-0.038018811494112015
1772731516283296500,8.313296630859375,-0.05111890658736229,0.001508274581283331,-0.03839273005723953
1772731516293325300,8.3233251953125,-0.05683644488453865,0.0032174913212656975,-0.038296591490507126
1772731516303353600,8.333353515625,-0.06392762064933777,0.007066330872476101,-0.03772081807255745
1772731516313381400,8.34338134765625,-0.07436108589172363,0.015317870303988457,-0.04165111109614372
1772731516323409700,8.35340966796875,-0.0826970785856247,0.018834002315998077,-0.052843041718006134
1772731516333437400,8.3634375,-0.08129066228866577,0.01469544880092144,-0.050393734127283096
1772731516343466500,8.373466552734374,-0.06959716975688934,0.012669539079070091,-0.05006721615791321
1772731516353494500,8.38349462890625,-0.05984361469745636,0.012492971494793892,-0.048008326441049576
1772731516363522600,8.3935224609375,-0.05949800834059715,0.017749030143022537,-0.048337772488594055
1772731516373550300,8.40355029296875,-0.06254652887582779,0.016635296866297722,-0.050023555755615234
1772731516383578600,8.41357861328125,-0.06195935234427452,0.01589406095445156,-0.04500668868422508
1772731516393607700,8.423607666015625,-0.06398256123065948,0.013313723728060722,-0.034125275909900665
1772731516403635500,8.433635498046876,-0.05557335540652275,0.006966877728700638,-0.02711663581430912
1772731516413663700,8.443663818359376,-0.04264158010482788,-0.000056676799431443214,-0.01611511781811714
1772731516423691500,8.45369140625,-0.02680482156574726,-0.006824460346251726,-0.018710613250732422
1772731516433719600,8.463719482421874,-0.01304613333195448,-0.01086527481675148,-0.023594850674271584
1772731516443748400,8.473748291015625,0.0013203367125242949,-0.030450884252786636,-0.02435864880681038
1772731516453776600,8.483776611328125,0.0055435774847865105,-0.048729486763477325,-0.02646387740969658
1772731516463804400,8.493804443359375,0.008409428410232067,-0.06006066873669624,-0.0238310806453228
1772731516473832700,8.503832763671875,0.015103816986083984,-0.06390121579170227,-0.01552201621234417
1772731516483860500,8.513860595703125,0.02462289109826088,-0.06508006900548935,-0.006704057101160288
1772731516493889500,8.5238896484375,0.028850391507148743,-0.05715449899435043,0.0006159078329801559
1772731516503917600,8.53391748046875,0.03239598870277405,-0.057232122868299484,0.0029299610760062933
1772731516513945600,8.543945556640624,0.03071899525821209,-0.05396708846092224,0.0019520483911037445
1772731516523973400,8.553973388671874,0.027867134660482407,-0.05564708262681961,-0.007556512486189604
1772731516534001700,8.564001708984375,0.028165675699710846,-0.055489957332611084,-0.010813292115926743
1772731516544030500,8.574030517578125,0.029802674427628517,-0.051662273705005646,-0.006727998610585928
1772731516554058500,8.58405859375,0.03115049935877323,-0.049680616706609726,-0.0004770272644236684
1772731516564086500,8.59408642578125,0.030199559405446053,-0.05257231742143631,0.0018194339936599135
1772731516574114600,8.604114501953125,0.0279699619859457,-0.05403519421815872,-0.006617993116378784
1772731516584142300,8.614142333984375,0.015587490983307362,-0.05265311524271965,-0.018866438418626785
1772731516594171600,8.624171630859376,0.01619655452668667,-0.061164576560258865,-0.037653710693120956
1772731516604199700,8.63419970703125,0.011478213593363762,-0.05705045908689499,-0.04250303655862808
1772731516614227500,8.6442275390625,0.00436810590326786,-0.05428742989897728,-0.03905104473233223
1772731516624255500,8.65425537109375,0.0032577142119407654,-0.046069372445344925,-0.03125330060720444
1772731516634283500,8.664283447265625,0.004650281276553869,-0.038300931453704834,-0.02194182388484478
1772731516644312600,8.6743125,-0.005206224508583546,-0.0387798435986042,-0.019603047519922256
1772731516654340600,8.684340576171875,-0.016239967197179794,-0.0420006699860096,-0.026214877143502235
1772731516664368600,8.69436865234375,-0.021672703325748444,-0.047838229686021805,-0.03642173856496811
1772731516674396400,8.704396484375,-0.025406720116734505,-0.04905209690332413,-0.045679155737161636
1772731516684424700,8.7144248046875,-0.02385602705180645,-0.045942604541778564,-0.047470372170209885
1772731516694452500,8.724452392578126,-0.022119911387562752,-0.03682047873735428,-0.04696064069867134
1772731516704481500,8.7344814453125,-0.023575792089104652,-0.033262111246585846,-0.04038902744650841
1772731516714509600,8.744509521484375,-0.028986269608139992,-0.02786228619515896,-0.040684640407562256
1772731516724537600,8.75453759765625,-0.033947207033634186,-0.027421001344919205,-0.043325431644916534
1772731516734565400,8.7645654296875,-0.04516417533159256,-0.03130575269460678,-0.04972260817885399
1772731516744593700,8.77459375,-0.047219209372997284,-0.03344050794839859,-0.050330065190792084
1772731516754622500,8.78462255859375,-0.04513715207576752,-0.035943880677223206,-0.044016242027282715
1772731516764650500,8.794650390625,-0.04395527020096779,-0.03644363582134247,-0.03723585233092308
1772731516774678500,8.804678466796876,-0.048806216567754745,-0.03429765999317169,-0.038524024188518524
1772731516784706600,8.81470654296875,-0.05333736538887024,-0.03906213119626045,-0.03553861752152443
1772731516794734600,8.824734619140624,-0.06078809127211571,-0.04415276646614075,-0.030760906636714935
1772731516804763600,8.834763671875,-0.0643317848443985,-0.048353031277656555,-0.02998027391731739
1772731516814791400,8.84479150390625,-0.06349395960569382,-0.05482717603445053,-0.021823810413479805
1772731516824819500,8.8548193359375,-0.06365442276000977,-0.05596533790230751,-0.01443198136985302
1772731516834847500,8.864847412109375,-0.06352393329143524,-0.06088153272867203,-0.00356921274214983
1772731516844875500,8.87487548828125,-0.06918846070766449,-0.06634054332971573,0.002252698875963688
1772731516854904300,8.884904296875,-0.07698406279087067,-0.06627636402845383,0.0007237781537696719
1772731516864932600,8.8949326171875,-0.08332192152738571,-0.06522027403116226,0.0008422946557402611
1772731516874960400,8.90496044921875,-0.08412699401378632,-0.06105402112007141,0.002053234027698636
1772731516884988700,8.91498876953125,-0.08509717881679535,-0.06149493157863617,0.003908148966729641
1772731516895016400,8.925016357421875,-0.07803953438997269,-0.05711163580417633,0.0005722733912989497
1772731516905045500,8.93504541015625,-0.06824472546577454,-0.052724383771419525,0.0005411166930571198
1772731516915073500,8.945073486328125,-0.06438207626342773,-0.050505705177783966,-0.0003313348861411214
1772731516925101600,8.9551015625,-0.06281652301549911,-0.04900771379470825,0.003925448749214411
1772731516935129600,8.965129638671876,-0.058790888637304306,-0.05548318848013878,0.007725246716290712
1772731516945157600,8.97515771484375,-0.060719795525074005,-0.06373069435358047,0.012348491698503494
1772731516955186700,8.985186767578124,-0.05671519786119461,-0.06290537863969803,0.012175120413303375
1772731516965214500,8.99521435546875,-0.05202941223978996,-0.05481237545609474,0.005559033248573542
1772731516975242500,9.005242431640625,-0.04360450059175491,-0.04777630418539047,-0.0008511950727552176
1772731516985270500,9.0152705078125,-0.03599459305405617,-0.052298203110694885,-0.0019100613426417112
1772731516995298600,9.025298583984375,-0.031170008704066277,-0.04696149379014969,-0.003852571127936244
1772731517005327400,9.035327392578125,-0.027026714757084846,-0.05085255578160286,-0.008019904606044292
1772731517015355600,9.045355712890625,-0.025163834914565086,-0.04657046124339104,-0.002775873988866806
1772731517025383400,9.055383544921876,-0.02589854784309864,-0.042854100465774536,0.0017078430391848087
1772731517035411700,9.06541162109375,-0.022569863125681877,-0.029202736914157867,0.004865286406129599
1772731517045439500,9.075439453125,-0.01893462799489498,-0.014874465763568878,0.011891745962202549
1772731517055467500,9.085467529296874,-0.018301062285900116,-0.008102846331894398,0.011491472832858562
1772731517065496300,9.095496337890625,-0.015116888098418713,-0.007987536489963531,0.010697332210838795
1772731517075524600,9.105524658203125,-0.014440977945923805,-0.005018910858780146,-0.000886086723767221
1772731517085552400,9.115552490234375,-0.011064503341913223,-0.007379609625786543,-0.009594367817044258
1772731517095580700,9.12558056640625,-0.008919326588511467,-0.011029738001525402,-0.011307578533887863
1772731517105608400,9.1356083984375,-0.0049197678454220295,-0.008784388191998005,-0.005527988541871309
1772731517115637500,9.145637451171876,-0.00471470458433032,-0.011340223252773285,0.008206198923289776
1772731517125665500,9.15566552734375,-0.009818577207624912,-0.004732698202133179,0.013590861111879349
1772731517135693600,9.165693603515624,-0.02096204273402691,0.0004444869700819254,0.01624390110373497
1772731517145721300,9.175721435546874,-0.030204281210899353,-0.0002642860636115074,0.03076343424618244
1772731517155749600,9.18574951171875,-0.03799855336546898,0.001111502991989255,0.045466747134923935
1772731517165778700,9.19577880859375,-0.04608529061079025,-0.0025861081667244434,0.05851703882217407
1772731517175806500,9.205806396484375,-0.05694379657506943,-0.00414592120796442,0.058537811040878296
1772731517185834800,9.215834716796875,-0.06142072007060051,0.0006953675765544176,0.05605920031666756
1772731517195862500,9.225862548828125,-0.060425493866205215,0.005385993048548698,0.05262451991438866
1772731517205890300,9.235890380859376,-0.06170223280787468,0.0016986466944217682,0.047671329230070114
1772731517215919600,9.245919677734374,-0.059633489698171616,0.0043040174059569836,0.04194580018520355
1772731517225947600,9.25594775390625,-0.05858280137181282,0.0028479164466261864,0.03236054256558418
1772731517235975400,9.265975341796874,-0.053495630621910095,0.002725411206483841,0.03199861943721771
1772731517246003700,9.276003662109375,-0.05749405175447464,0.00582993496209383,0.03455151990056038
1772731517256031500,9.286031494140625,-0.0570109561085701,0.0008644720073789358,0.03582397848367691
1772731517266060500,9.296060546875,-0.051158607006073,0.0007823649793863297,0.040712498128414154
1772731517276088600,9.306088623046875,-0.04900970309972763,-0.0015207366086542606,0.03377735987305641
1772731517286116600,9.31611669921875,-0.03617994859814644,-0.006382908206433058,0.019358476623892784
1772731517296143600,9.3261435546875,-0.018504014238715172,-0.011466083116829395,0.0035398316103965044
1772731517306171400,9.33617138671875,-0.003714977065101266,-0.01736806146800518,-0.014725746586918831
1772731517316199400,9.346199462890626,0.003718970576301217,-0.022950846701860428,-0.03584647923707962
1772731517326228700,9.356228759765624,0.007323340512812138,-0.02999722585082054,-0.037866491824388504
1772731517336256500,9.366256591796875,0.011390519328415394,-0.03798484802246094,-0.03626886010169983
1772731517346284500,9.376284423828125,0.017385711893439293,-0.042803917080163956,-0.029908396303653717
1772731517356312600,9.3863125,0.015830958262085915,-0.04143745079636574,-0.03999032825231552
1772731517366340600,9.396340576171875,0.010069982148706913,-0.03370990604162216,-0.053237445652484894
1772731517376369400,9.406369384765625,0.008838536217808723,-0.029864300042390823,-0.056606877595186234
1772731517386397700,9.416397705078126,0.0011992347426712513,-0.028870714828372,-0.050888001918792725
1772731517396425500,9.426425537109376,-0.007517024874687195,-0.03447427228093147,-0.04208039492368698
1772731517406453500,9.43645361328125,-0.0187398511916399,-0.037612274289131165,-0.03167249634861946
1772731517416481500,9.4464814453125,-0.034897785633802414,-0.03169579431414604,-0.029392829164862633
1772731517426509600,9.456509521484374,-0.0493166483938694,-0.046901874244213104,-0.017749756574630737
1772731517436538400,9.466538330078125,-0.05543552711606026,-0.047279242426157,-0.0013350977096706629
1772731517446566700,9.476566650390625,-0.061914946883916855,-0.03773120045661926,0.005946779623627663
1772731517456594400,9.486594482421875,-0.06964956969022751,-0.029500167816877365,0.014529081992805004
1772731517466622500,9.49662255859375,-0.07738997787237167,-0.016473466530442238,0.025702636688947678
1772731517476650500,9.506650390625,-0.08208539336919785,-0.003193880431354046,0.04104963317513466
1772731517486679600,9.516679443359376,-0.09210274368524551,0.0045556859113276005,0.04961730167269707
1772731517496707300,9.526707275390624,-0.0839896947145462,0.011628774926066399,0.058444082736968994
1772731517506735600,9.536735595703124,-0.0870901420712471,0.009570950642228127,0.05974823236465454
1772731517516763400,9.546763427734374,-0.07654739171266556,0.011308817192912102,0.05947711318731308
1772731517526791700,9.556791748046875,-0.06370386481285095,0.0061849020421504974,0.057973213493824005
1772731517536820500,9.566820556640625,-0.046828750520944595,0.009380162693560123,0.05862009525299072
1772731517546848500,9.5768486328125,-0.03721321001648903,0.012390749529004097,0.05661793798208237
1772731517556876500,9.58687646484375,-0.03288370743393898,0.01781427673995495,0.06065955013036728
1772731517566904600,9.596904541015626,-0.0276609156280756,0.019583266228437424,0.06534351408481598
1772731517576932400,9.606932373046876,-0.02219317853450775,0.01829615980386734,0.0620419904589653
1772731517586961400,9.61696142578125,-0.012059725821018219,0.014201315119862556,0.05313505977392197
1772731517596989700,9.62698974609375,0.002791924402117729,0.011345075443387032,0.04568034037947655
1772731517607017500,9.637017578125,0.018737917765975,0.011986017227172852,0.03175841644406319
1772731517617045800,9.647045654296875,0.026559622958302498,0.012345544062554836,0.030140547081828117
1772731517627073500,9.657073486328125,0.03190719708800316,0.008531978353857994,0.027211051434278488
1772731517637102600,9.6671025390625,0.029299432411789894,0.010695797391235828,0.030007904395461082
1772731517647131400,9.67713134765625,0.02982032112777233,0.004534002859145403,0.035084955394268036
1772731517657159700,9.68715966796875,0.03136974945664406,0.00012726988643407822,0.04430348798632622
1772731517667187500,9.6971875,0.034055400639772415,-0.001920772367157042,0.05241253599524498
1772731517677215500,9.707215576171874,0.038271717727184296,-0.0015854802913963795,0.056481581181287766
1772731517687244300,9.717244384765625,0.03929964825510979,0.0065514640882611275,0.058704257011413574
1772731517697272600,9.7272724609375,0.03624500334262848,0.0032845642417669296,0.06543806195259094
1772731517707300400,9.73730029296875,0.03756638616323471,-0.0001521992962807417,0.07745849341154099
1772731517717328600,9.74732861328125,0.03483717888593674,-0.009166200645267963,0.07829365879297256
1772731517727356400,9.7573564453125,0.0319354273378849,-0.023915443569421768,0.07540547847747803
1772731517737384400,9.767384521484376,0.0203059371560812,-0.017077244818210602,0.06878858804702759
1772731517747413800,9.777413818359374,0.06626001000404358,0.06331054866313934,0.11041271686553955
1772731517757441500,9.787441650390624,0.0737576112151146,0.04094558581709862,0.10578334331512451
1772731517767469600,9.797469482421874,0.06426843255758286,0.05733945965766907,0.0797424465417862
1772731517777497600,9.80749755859375,0.08195634931325912,0.022507712244987488,0.0473962277173996
1772731517787525400,9.817525390625,0.09771306067705154,-0.006084325723350048,0.026490671560168266
1772731517797554400,9.827554443359375,0.10769112408161163,-0.013153420761227608,0.00553958211094141
1772731517807582700,9.837582763671875,0.12151890993118286,-0.030071916058659554,-0.008438538759946823
1772731517817610500,9.847610595703125,0.129222109913826,-0.024366891011595726,-0.015369681641459465
1772731517827638500,9.857638427734376,0.12535691261291504,-0.014535106718540192,-0.016843484714627266
1772731517837666600,9.86766650390625,0.11639511585235596,-0.00791102647781372,-0.014092439785599709
1772731517847695600,9.877695556640624,0.09709954261779785,0.0005394464824348688,-0.015218676067888737
1772731517857723400,9.887723388671875,0.07831333577632904,-0.003518678480759263,-0.00826196651905775
1772731517867751700,9.897751708984375,0.06275323778390884,-0.010311256162822247,0.006092718802392483
1772731517877779500,9.907779541015625,0.04788454249501228,-0.019477857276797295,0.01354078110307455
1772731517887807500,9.917807373046875,0.031522300094366074,-0.02518162503838539,0.013139979913830757
1772731517897836500,9.92783642578125,0.018536994233727455,-0.02517416886985302,0.01568516343832016
1772731517907864600,9.937864501953126,0.012096837162971497,-0.02046010084450245,0.014454236254096031
1772731517917892400,9.947892333984376,0.005797928664833307,-0.01385279931128025,0.013786581344902515
1772731517927920600,9.957920654296874,0.0034243774134665728,-0.011590943671762943,0.01065418217331171
1772731517937948400,9.967948486328124,-0.0015362927224487066,-0.01127429399639368,0.005774739198386669
1772731517947976700,9.977976806640624,-0.009515052661299706,-0.014943480491638184,0.001928329817019403
1772731517958005500,9.988005615234375,-0.011011483147740364,-0.02485896274447441,-0.004052863456308842
1772731517968033500,9.998033447265625,-0.011962855234742165,-0.03614228591322899,-0.010849217884242535
1772731517978061300,10.008061279296875,-0.009381720796227455,-0.04492272809147835,-0.019648035988211632
1772731517988089600,10.018089599609375,-0.009385451674461365,-0.057462867349386215,-0.02305877022445202
1772731517998117400,10.028117431640625,-0.009542311541736126,-0.060959331691265106,-0.019023282453417778
1772731518008146400,10.038146484375,-0.01227221917361021,-0.06062670424580574,-0.011797312647104263
1772731518018174700,10.0481748046875,-0.01036965660750866,-0.051268357783555984,-0.006558076478540897
1772731518028202500,10.058202392578124,-0.0024207523092627525,-0.04534894600510597,-0.007760508917272091
1772731518038230500,10.06823046875,0.0005454763304442167,-0.036161575466394424,-0.005183101631700993
1772731518048258600,10.078258544921875,0.0000011444790288805962,-0.027233123779296875,-0.006857187021523714
1772731518058287600,10.08828759765625,-0.0030495065730065107,-0.023493513464927673,-0.00381452520377934
1772731518068315400,10.0983154296875,-0.0055400007404387,-0.018170230090618134,-0.005627345759421587
1772731518078343700,10.10834375,-0.006099530961364508,-0.005223538726568222,-0.015935109928250313
1772731518088371500,10.118371337890625,-0.014762857928872108,0.007841914892196655,-0.015239201486110687
1772731518098399700,10.128399658203126,-0.022998152300715446,0.022647492587566376,-0.010346975177526474
1772731518108428500,10.138428466796874,-0.0516328439116478,0.007851575501263142,-0.013229303993284702
1772731518118456600,10.14845654296875,-0.0833662748336792,0.0038176854141056538,0.00016772819799371064
1772731518128484600,10.158484619140625,-0.09501932561397552,0.012305576354265213,0.038269806653261185
1772731518138512600,10.1685126953125,-0.12277159839868546,0.022119591012597084,0.060597483068704605
1772731518148540400,10.17854052734375,-0.11938712745904922,0.07659031450748444,0.07424885779619217
1772731518158569500,10.188569580078125,-0.10092796385288239,0.14170940220355988,0.07790138572454453
1772731518168597500,10.198597412109375,-0.09240409731864929,0.2023155689239502,0.0920632854104042
1772731518178625500,10.20862548828125,-0.08563407510519028,0.26003026962280273,0.11309879273176193
1772731518188655600,10.218655517578124,-0.07648375630378723,0.28920239210128784,0.11797556281089783
1772731518198683400,10.228683349609375,-0.06287473440170288,0.2814222276210785,0.08715213090181351
1772731518208711700,10.238711669921875,-0.04950641095638275,0.23739288747310638,0.04495862126350403
1772731518218740500,10.248740478515625,-0.041091352701187134,0.16308057308197021,-0.010783471167087555
1772731518228768500,10.2587685546875,-0.03777448460459709,0.09640392661094666,-0.07693718373775482
1772731518238796500,10.268796630859375,-0.037490058690309525,0.0359744057059288,-0.12704801559448242
1772731518248824600,10.278824462890626,-0.029374653473496437,0.01506451889872551,-0.14604035019874573
1772731518258852600,10.2888525390625,-0.01734968274831772,0.04943447932600975,-0.1307697892189026
1772731518268881700,10.298881591796874,0.0012121133040636778,0.1127891018986702,-0.09056831151247025
1772731518278909400,10.308909423828124,0.012569695711135864,0.16893386840820312,-0.04700112342834473
1772731518288937500,10.3189375,0.01632458157837391,0.21424290537834167,-0.03043547086417675
1772731518298965500,10.328965576171875,0.020978987216949463,0.24902404844760895,-0.026849258691072464
1772731518308993500,10.33899365234375,0.02991572767496109,0.24762311577796936,-0.029393395408988
1772731518319022300,10.349022216796875,0.031455036252737045,0.21939492225646973,-0.050678711384534836
1772731518329050600,10.359050537109376,0.0202533770352602,0.1734086573123932,-0.07655874639749527
1772731518339078400,10.369078369140626,0.0014133770018815994,0.12322777509689331,-0.1108701154589653
1772731518349106400,10.3791064453125,-0.0021852166391909122,0.08687363564968109,-0.10833534598350525
1772731518359134500,10.389134521484374,0.005074027925729752,0.057045694440603256,-0.11279693990945816
1772731518369163500,10.39916357421875,0.0027310610748827457,0.061030641198158264,-0.10406200587749481
1772731518379191600,10.409191650390625,0.011879552155733109,0.06653246283531189,-0.0897805318236351
1772731518389219600,10.419219482421875,0.013585258275270462,0.07960478216409683,-0.07766900956630707
1772731518399247600,10.42924755859375,0.006204041186720133,0.08528796583414078,-0.07241672277450562
1772731518409275600,10.439275634765625,0.0013109676074236631,0.07181788235902786,-0.0746345967054367
1772731518419303400,10.449303466796875,-0.00039638482849113643,0.058669593185186386,-0.08390133082866669
1772731518429332500,10.45933251953125,0.0012163127539679408,0.04514692723751068,-0.08023367822170258
1772731518439360500,10.469360595703124,0.008625759743154049,0.03148438036441803,-0.07725919783115387
1772731518449388500,10.479388427734374,0.0066497791558504105,0.030264971777796745,-0.0738559141755104
1772731518459416600,10.48941650390625,0.0030553110409528017,0.03137977048754692,-0.054098453372716904
1772731518469444600,10.499444580078125,-0.004881299566477537,0.02209009975194931,-0.03826650604605675
1772731518479473700,10.5094736328125,-0.013186899945139885,0.03531855344772339,-0.017346041277050972
1772731518489501400,10.51950146484375,-0.006722846534103155,0.029129508882761,-0.0026155454106628895
1772731518499529700,10.52952978515625,-0.022804077714681625,0.016993485391139984,-0.010143768973648548
1772731518509557500,10.5395576171875,-0.043566036969423294,-0.0059112198650836945,-0.013521993532776833
1772731518519585500,10.54958544921875,-0.0372769795358181,-0.02467186003923416,-0.008492614142596722
1772731518529614300,10.5596142578125,-0.03299347683787346,-0.03432745859026909,-0.00562623655423522
1772731518539642600,10.569642578125,-0.02589268982410431,-0.033037688583135605,-0.005284819286316633
1772731518549670400,10.57967041015625,-0.02253824844956398,-0.0363740548491478,-0.00910966843366623
1772731518559698700,10.58969873046875,-0.015569553710520267,-0.03693464770913124,-0.013151015155017376
1772731518569726500,10.5997265625,-0.01470850594341755,-0.0433378741145134,-0.01905151829123497
1772731518579755500,10.609755615234375,-0.00918138213455677,-0.060361865907907486,-0.016604339703917503
1772731518589783600,10.619783447265625,-0.00624815234914422,-0.06900857388973236,-0.014255434274673462
1772731518599811600,10.6298115234375,-0.0011239642044529319,-0.07575516402721405,-0.011242333799600601
1772731518609839400,10.63983935546875,0.0034353232476860285,-0.07006422430276871,-0.0025694554205983877
1772731518619867600,10.64986767578125,0.005833499599248171,-0.06549397110939026,0.01061638817191124
1772731518629896700,10.659896728515625,0.010278578847646713,-0.058109939098358154,0.011530360206961632
1772731518639924500,10.669924560546875,0.005217773839831352,-0.0525982603430748,0.00950236339122057
1772731518649952500,10.679952392578125,0.000986419734545052,-0.05786415934562683,0.009767070412635803
1772731518659980500,10.68998046875,-0.0009933742694556713,-0.05407155305147171,0.013525056652724743
1772731518670008300,10.70000830078125,-0.004940783139318228,-0.053136102855205536,0.01472774613648653
1772731518680036600,10.71003662109375,-0.0006467018974944949,-0.051916636526584625,0.012962336651980877
1772731518690065700,10.720065673828126,-0.00540179992094636,-0.0501326285302639,0.006176338065415621
1772731518700093400,10.730093505859376,-0.012045588344335556,-0.04975632205605507,0.0013568154536187649
1772731518710121700,10.740121826171874,-0.02080710418522358,-0.05268772691488266,-0.002442737575620413
1772731518720149500,10.7501494140625,-0.023448161780834198,-0.05570854991674423,-0.001800116733647883
1772731518730177500,10.760177490234375,-0.018465479835867882,-0.051978949457407,0.0029056952334940434
1772731518740206600,10.77020654296875,-0.019397320225834846,-0.05600884556770325,0.00758034223690629
1772731518750234600,10.780234619140625,-0.015947604551911354,-0.05204256623983383,0.004131559282541275
1772731518760262400,10.790262451171875,-0.027570970356464386,-0.05198051780462265,0.0018827859312295914
1772731518770290700,10.800290771484375,-0.03988835588097572,-0.052358418703079224,0.0043709771707654
1772731518780318500,10.810318359375,-0.042585339397192,-0.05325137823820114,0.003414103528484702
1772731518790347500,10.820347412109374,-0.03482099249958992,-0.05065212398767471,0.0027187399100512266
1772731518800375600,10.83037548828125,-0.027688249945640564,-0.04514950141310692,0.0016894279979169369
1772731518810403600,10.840403564453124,-0.022202735766768456,-0.044977739453315735,-0.0027849224861711264
1772731518820431400,10.850431396484375,-0.02084905095398426,-0.045218754559755325,-0.010832728818058968
1772731518830459600,10.860459716796875,-0.026719558984041214,-0.04101361706852913,-0.015154520981013775
1772731518840488400,10.870488525390625,-0.025053750723600388,-0.03969375789165497,-0.008774385787546635
1772731518850516500,10.8805166015625,-0.022157052531838417,-0.03370381146669388,0.003469765419140458
1772731518860544500,10.89054443359375,-0.020992718636989594,-0.036889754235744476,0.008999553509056568
1772731518870572500,10.900572509765626,-0.019498663023114204,-0.034804459661245346,0.018221812322735786
1772731518880600600,10.9106005859375,-0.01627197675406933,-0.02754042111337185,0.02547040395438671
1772731518890629600,10.920629638671874,-0.014600453898310661,-0.01788909174501896,0.02928672544658184
1772731518900657400,10.930657470703125,-0.02085541933774948,-0.008158966898918152,0.03236480802297592
1772731518910685400,10.940685546875,-0.017139410600066185,-0.012676490470767021,0.038147345185279846
1772731518920713500,10.95071337890625,-0.011180855333805084,-0.009755535051226616,0.047594908624887466
1772731518930741500,10.960741455078125,-0.006742387544363737,-0.00813982542604208,0.045839857310056686
1772731518940770600,10.9707705078125,-0.0008482795092277229,-0.002609771443530917,0.03762533888220787
1772731518950798600,10.980798583984376,0.0005850575980730355,0.004269746132194996,0.028143949806690216
1772731518960826600,10.99082666015625,0.0016836116556078196,0.000777542358264327,0.02925502136349678
1772731518970854400,11.0008544921875,-0.0019149465952068567,0.00265012145973742,0.030734414234757423
1772731518980882700,11.010882568359374,-0.003798600286245346,0.004980387166142464,0.02981722168624401
1772731518990910500,11.020910400390624,0.0008992392686195672,0.009528306312859058,0.02299739606678486
1772731519000939500,11.030939453125,0.00974519457668066,0.0168573260307312,0.014913370832800865
1772731519010967600,11.040967529296875,0.01686709187924862,0.02086629904806614,0.011513573117554188
1772731519020995600,11.05099560546875,0.024975618347525597,0.01979277841746807,0.011868572793900967
1772731519031023600,11.061023681640625,0.024111397564411163,0.007681748364120722,0.015822304412722588
1772731519041051600,11.0710517578125,0.023776639252901077,-0.00227288156747818,0.021660752594470978
1772731519051080400,11.08108056640625,0.02618437260389328,-0.009403903037309647,0.019723284989595413
1772731519061108500,11.0911083984375,0.04081631079316139,0.0031632878817617893,0.02277926169335842
1772731519071136500,11.101136474609374,0.059683434665203094,0.018184872344136238,0.04055801406502724
1772731519081164500,11.11116455078125,0.07137977331876755,-0.0009667177218943834,0.0361185260117054
1772731519091192600,11.121192626953125,0.08168359100818634,-0.029658574610948563,0.01903565600514412
1772731519101221600,11.1312216796875,0.09408299624919891,-0.04050855711102486,-0.0002144707104889676
1772731519111249400,11.14124951171875,0.10916858911514282,-0.04491695761680603,-0.007618332281708717
1772731519121277700,11.151277587890625,0.11666805297136307,-0.04553401097655296,-0.002792151877656579
1772731519131305500,11.161305419921876,0.11783546954393387,-0.04044507443904877,0.003349923063069582
1772731519141333500,11.17133349609375,0.11988051235675812,-0.031149575486779213,0.016899555921554565
1772731519151362300,11.1813623046875,0.1186346560716629,-0.02110869809985161,0.03419838473200798
1772731519161390600,11.191390625,0.11698509752750397,-0.001802112441509962,0.04750939831137657
1772731519171418400,11.20141845703125,0.11189933121204376,0.015783922746777534,0.0538644902408123
1772731519181446700,11.21144677734375,0.10801218450069427,0.018844960257411003,0.05342400446534157
1772731519191472600,11.22147265625,0.1069720983505249,0.012584738433361053,0.04413331300020218
1772731519201500400,11.23150048828125,0.10508871078491211,0.011348498985171318,0.03696328401565552
1772731519211529500,11.241529541015625,0.09966360777616501,0.0025586718693375587,0.030214810743927956
1772731519221557500,11.2515576171875,0.09909076243638992,-0.010282025672495365,0.016428159549832344
1772731519231585500,11.26158544921875,0.09970558434724808,-0.018809357658028603,-0.003189744194969535
1772731519241613600,11.271613525390626,0.09768770635128021,-0.02239290624856949,-0.013708697631955147
1772731519251641600,11.2816416015625,0.0941760241985321,-0.015444692224264145,-0.021093618124723434
1772731519261670700,11.291670654296874,0.0782841369509697,-0.0016990528674796224,-0.018585452809929848
1772731519271698400,11.301698486328124,0.0747159868478775,0.010736661031842232,-0.007508585229516029
1772731519281726700,11.311726806640625,0.06987036019563675,0.028885837644338608,0.008677841164171696
1772731519291754500,11.32175439453125,0.07034826278686523,0.036155764013528824,0.014133871532976627
1772731519301782500,11.331782470703125,0.0681343749165535,0.030658738687634468,0.01490405760705471
1772731519311811300,11.341811279296875,0.06199535354971886,0.015106404200196266,0.00630552414804697
1772731519321839600,11.351839599609375,0.05323408916592598,0.00030375667847692966,-0.00043040906894020736
1772731519331867400,11.361867431640626,0.053771790117025375,-0.003090613055974245,-0.005501111503690481
1772731519341895700,11.371895751953126,0.05391986295580864,0.001729442272335291,-0.010479092597961426
1772731519351923500,11.38192333984375,0.053851936012506485,-0.0030205086804926395,-0.008264919742941856
1772731519361952500,11.391952392578125,0.06074366346001625,-0.007719922810792923,-0.0036941359285265207
1772731519371980500,11.40198046875,0.0651915967464447,-0.005856196396052837,-0.007160520646721125
1772731519382008600,11.412008544921875,0.06407120823860168,-0.006496686954051256,-0.01485146302729845
1772731519392036400,11.422036376953125,0.06001405790448189,-0.006281553767621517,-0.019474683329463005
1772731519402064600,11.432064697265625,0.051812853664159775,-0.007025641389191151,-0.02552272193133831
1772731519412093700,11.44209375,0.05350729823112488,-0.011751455254852772,-0.03542809560894966
1772731519422121500,11.45212158203125,0.05164681375026703,-0.01754729263484478,-0.04630338028073311
1772731519432149800,11.462149658203124,0.05291067808866501,-0.025703338906168938,-0.04498457536101341
1772731519442177500,11.472177490234374,0.054889142513275146,-0.02349690906703472,-0.043315041810274124
1772731519452205300,11.482205322265624,0.04822026565670967,-0.020246706902980804,-0.04864457622170448
1772731519462234600,11.492234619140625,0.04585191607475281,-0.015470858663320541,-0.05105074122548103
1772731519472262700,11.5022626953125,0.045139066874980927,-0.007861719466745853,-0.04572334140539169
1772731519482290400,11.51229052734375,0.053009770810604095,-0.006178868003189564,-0.03811655193567276
1772731519492318700,11.522318603515625,0.052171166986227036,-0.010262787342071533,-0.04209451749920845
1772731519502346500,11.532346435546875,0.04358114302158356,-0.008043574169278145,-0.05248457193374634
1772731519512374500,11.54237451171875,0.03294703736901283,-0.010780764743685722,-0.061538003385066986
1772731519522403600,11.552403564453124,0.03389512374997139,-0.011820996180176735,-0.06097074970602989
1772731519532431600,11.562431640625,0.037776462733745575,-0.007087148725986481,-0.062033090740442276
1772731519542459400,11.57245947265625,0.03746167570352554,-0.003488152986392379,-0.054931506514549255
1772731519552487700,11.58248779296875,0.03645570948719978,0.0025575992185622454,-0.050626762211322784
1772731519562515500,11.592515380859375,0.03379574418067932,0.0027224489022046328,-0.04290812462568283
1772731519572544500,11.60254443359375,0.02687091939151287,0.006174054928123951,-0.045326266437768936
1772731519582572500,11.612572509765625,0.023319061845541,0.010784253478050232,-0.04571695253252983
1772731519592600600,11.6226005859375,0.017749562859535217,0.006914537865668535,-0.04092807322740555
1772731519602628400,11.63262841796875,0.021542968228459358,0.005878834519535303,-0.033543661236763
1772731519612656600,11.64265673828125,0.018529633060097694,0.005086153745651245,-0.03291034325957298
1772731519622685400,11.652685546875,0.019799960777163506,0.0022757197730243206,-0.035697340965270996
1772731519632713500,11.66271337890625,0.016262682154774666,0.004387598484754562,-0.03818949684500694
1772731519642741500,11.672741455078125,0.014026157557964325,0.004326346330344677,-0.03816499561071396
1772731519652769500,11.68276953125,0.006181356497108936,0.00366013846360147,-0.026089699938893318
1772731519662797600,11.692797607421875,-0.004222015850245953,0.0034830381628125906,-0.01707836054265499
1772731519672826600,11.70282666015625,-0.007193645462393761,0.0018132785335183144,-0.010458027012646198
1772731519682854400,11.7128544921875,-0.006697765085846186,0.006366218440234661,-0.002234717831015587
1772731519692882400,11.72288232421875,-0.005516197066754103,0.01086221169680357,0.0069875274784862995
1772731519702910500,11.732910400390624,-0.005225912667810917,0.008682414889335632,0.013757016509771347
1772731519712938500,11.7429384765625,-0.006388593465089798,0.011410849168896675,0.01689159870147705
1772731519722967600,11.752967529296875,-0.005564345046877861,0.023876840248703957,0.02218596264719963
1772731519732995600,11.76299560546875,-0.003044925630092621,0.04523007199168205,0.04005201533436775
1772731519743023600,11.773023681640625,0.006551508791744709,0.019615255296230316,0.05255928263068199
1772731519753051400,11.783051513671875,0.005179837346076965,0.017419781535863876,0.06685008853673935
1772731519763079700,11.79307958984375,0.009556476026773453,0.011583463288843632,0.07437724620103836
1772731519773107500,11.803107421875,0.0160295981913805,-0.009104265831410885,0.05868268013000488
1772731519783136500,11.813136474609376,0.014418918639421463,-0.050110820680856705,0.02309459075331688
1772731519793164500,11.82316455078125,0.0048985555768013,-0.1094139814376831,-0.03653091564774513
1772731519803192600,11.833192626953124,0.006752382032573223,-0.14026804268360138,-0.06494125723838806
1772731519813220600,11.843220703125,0.005094954278320074,-0.143317312002182,-0.05977470800280571
1772731519823248600,11.85324853515625,-0.00014028768055140972,-0.12113025784492493,-0.048556938767433167
1772731519833277400,11.86327734375,-0.0010781781747937202,-0.0743902325630188,-0.02592191845178604
1772731519843305500,11.873305419921875,-0.005900363903492689,-0.03757548704743385,-0.0077572958543896675
1772731519853333500,11.88333349609375,-0.017686234787106514,-0.011378156952559948,0.0035408795811235905
1772731519863361500,11.893361572265626,-0.03277970105409622,-0.0013297840487211943,0.008396620862185955
1772731519873389600,11.9033896484375,-0.03480019047856331,-0.0016926954267546535,0.0020694793201982975
1772731519883418600,11.913418701171874,-0.03335409611463547,-0.005951356142759323,-0.009132841601967812
1772731519893446400,11.9234462890625,-0.02079811505973339,-0.009496329352259636,-0.007938412018120289
1772731519903474700,11.933474609375,-0.015454480424523354,-0.006772181484848261,-0.01074565015733242
1772731519913502500,11.94350244140625,-0.01271702442318201,-0.0009524791967123747,-0.0152493417263031
1772731519923530500,11.953530517578125,-0.02201278880238533,0.000779374735429883,-0.022132014855742455
1772731519933559300,11.963559326171875,-0.03107622265815735,0.0050220494158566,-0.021489381790161133
1772731519943587600,11.973587646484376,-0.030154237523674965,0.004555463325232267,-0.013872475363314152
1772731519953615400,11.983615478515626,-0.02628120221197605,0.004094470292329788,-0.0072515904903411865
1772731519963643600,11.9936435546875,-0.022075537592172623,0.008247936144471169,0.004289750941097736
1772731519973671400,12.00367138671875,-0.01549430564045906,0.00991468783468008,0.00560856843367219
1772731519983700500,12.013700439453125,-0.013777099549770355,0.0050653377547860146,0.0010052946163341403
1772731519993728500,12.023728515625,-0.0075429813005030155,-0.007380369585007429,-0.004283759742975235
1772731520003756500,12.033756591796875,0.009377678856253624,-0.0222083181142807,-0.012415455654263496
1772731520013784600,12.04378466796875,0.017618095502257347,-0.03274376690387726,-0.017388932406902313
1772731520023812600,12.0538125,0.023379843682050705,0.08247203379869461,0.09388832747936249
1772731520033841700,12.063841552734376,0.00738711329177022,0.1403023600578308,0.11011845618486404
1772731520043869400,12.073869384765626,-0.00243568979203701,0.12855996191501617,0.0868123397231102
1772731520053897700,12.083897705078124,0.004787863232195377,0.07236635684967041,0.05464532598853111
1772731520063925500,12.093925537109374,0.010181296616792679,0.005371611565351486,-0.020394563674926758
1772731520073953500,12.10395361328125,0.022324245423078537,-0.06772790104150772,-0.06563874334096909
1772731520083982600,12.113982666015625,0.033681031316518784,-0.11976340413093567,-0.0985088124871254
