time,seconds_elapsed,z,y,x
1772642780299041300,0.061041259765625,-0.3012321868062019,0.6778533765956759,0.21171446776529773
1772642780309086200,0.071086181640625,-0.20553718563616274,0.5660541397776454,0.17971494477856903
1772642780319131400,0.08113134765625,-0.03307283304035664,0.45087939864452925,0.09576287877447903
1772642780329176000,0.091176025390625,0.22201076605319975,0.39569304307140407,0.03693201095284894
1772642780339221200,0.10122119140625,0.4170476004630327,0.3749253821896389,0.1186416774581652
1772642780349266200,0.11126611328125,0.3787456345975399,0.0359494228064199,0.04349111374011263
1772642780359311400,0.121311279296875,0.7131710659533739,-0.005572575967945158,-0.10619848506837151
1772642780369356300,0.131356201171875,0.9616402153432368,0.04714344853546936,-0.09729050846686586
1772642780379400200,0.141400146484375,1.1559317843437193,0.07735406511169858,0.16239855686184018
1772642780389445400,0.1514453125,1.1451590459167957,-0.06094283674061298,0.38729667838700116
1772642780399490300,0.161490234375,1.2144172910600899,-0.18908884925823657,0.3914253026243299
1772642780409535200,0.17153515625,1.4181751920640469,-0.17967821123106403,0.31918230604920533
1772642780419580200,0.181580078125,1.5143091691732407,-0.23337876695953308,0.32344434740785505
1772642780429625300,0.191625244140625,1.6108324378609655,-0.281818662213441,0.35910438392981886
1772642780439670300,0.201670166015625,1.628133116751909,-0.2873030667075887,0.3707666916076094
1772642780449715500,0.211715576171875,1.5947990024268626,-0.29743551620328795,0.385224475222826
1772642780459760000,0.221760009765625,1.6030109504550694,-0.28350396668557076,0.40014446952231225
1772642780469804300,0.23180419921875,1.5682342361062764,-0.3312452669497579,0.45392815522328017
1772642780479849200,0.24184912109375,1.5358318496733903,-0.38334907327238466,0.5474876056693494
1772642780489894400,0.251894287109375,1.49672324360013,-0.4245217357359826,0.5830924414053559
1772642780499939300,0.261939208984375,1.475344355484843,-0.4314102166080847,0.5386680836694315
1772642780509984300,0.271984375,1.5093091689288616,-0.437044861494191,0.4637324870094657
1772642780520029200,0.282029296875,1.5900141062378883,-0.47430422297157343,0.29792348238332195
1772642780530074400,0.292074462890625,1.7235200748860835,-0.4348888890367001,0.11702011327147484
1772642780540119300,0.302119384765625,1.8854530965954064,-0.36381172137055545,0.04262324486440047
1772642780550163200,0.3121630859375,2.102685980722308,-0.2669468361709267,-0.018954437447339295
1772642780560208400,0.32220849609375,2.2919290341615675,-0.18650776499016208,-0.0573453967705369
1772642780570253300,0.33225341796875,2.372731586626172,-0.12454601526428014,-0.04245556928045116
1772642780580298200,0.34229833984375,2.4634593207776545,-0.06567221248322166,-0.015746672648284582
1772642780590343200,0.35234326171875,2.553079970470071,0.06530445688306354,-0.06300530852864031
1772642780600388400,0.362388427734375,2.4473610034137963,0.2546629077297635,-0.02522975714044878
1772642780610433300,0.372433349609375,2.140305225020647,0.36158114930689333,0.1536863128949888
1772642780620478500,0.382478515625,1.9047592700898646,0.4115833437077701,0.37495486401245
1772642780630523100,0.392523193359375,1.6995236977487802,0.382055416732654,0.5886380928337573
1772642780640567300,0.4025673828125,1.5527999356091022,0.1600807266398333,0.8075310921926051
1772642780650612500,0.412612548828125,1.583266970065236,0.011841481903288513,0.8269391916915774
1772642780660657200,0.4226572265625,1.6002081679940223,0.09220387111864983,0.5270905316656455
1772642780670702300,0.432702392578125,1.1567524530768394,0.278565414304845,0.121598728032317
1772642780680747300,0.442747314453125,0.18085984049737452,0.5392554916359484,-0.19497016238179057
1772642780690792400,0.45279248046875,-0.8935685496360063,0.9391927481483667,-0.43176538672130554
1772642780700837400,0.46283740234375,-1.962495419743657,1.3521958224609494,-0.5236055025614798
1772642780710882300,0.47288232421875,-3.0207120952665805,1.5610136372029781,-0.45731089299675076
1772642780720927200,0.48292724609375,-3.714243810248375,1.5760075004562735,-0.3775138643128797
1772642780730971400,0.492971435546875,-4.044250256118178,1.5900234585881232,-0.43198987965956326
1772642780741016300,0.503016357421875,-4.07561570071876,1.598568437962979,-0.5588570678804069
1772642780751061200,0.513061279296875,-4.043504990708827,1.495760097656399,-0.5928703966412693
1772642780761106200,0.523106201171875,-4.11332554591,1.2656187782481312,-0.5024786529785021
1772642780771151400,0.5331513671875,-4.4128591121047736,0.9213308551780879,-0.3690432653484866
1772642780781196300,0.5431962890625,-4.808129765045643,0.6050599430635571,-0.1715258296366781
1772642780791241200,0.5532412109375,-5.093060805392265,0.4164809064909816,0.016012191716674715
1772642780801286100,0.5632861328125,-5.414333325186371,0.2052303116440773,0.2683373589475639
1772642780811331300,0.573331298828125,-5.748108768200874,-0.1518929814711213,0.5572805758113041
1772642780821375500,0.58337548828125,-6.193465932825207,-0.5740495955109596,0.8621164496652781
1772642780831420200,0.593420166015625,-6.668970398432016,-0.944504371625185,1.0601238243184983
1772642780841465300,0.60346533203125,-7.106867894700169,-1.1392477760463953,0.9572165536820888
1772642780851510300,0.61351025390625,-7.632263641679287,-1.1252854477979242,0.6630168958611786
1772642780861555500,0.623555419921875,-8.073698079901932,-1.1358366524286567,0.5538637165725231
1772642780871600400,0.633600341796875,-8.220134257271885,-1.1363799655251203,0.5880185726959258
1772642780881645300,0.643645263671875,-7.94261320092082,-1.1246231844969092,0.6031036944292485
1772642780891690200,0.653690185546875,-7.441624165445566,-1.223557459849119,0.6486643992513418
1772642780901735400,0.6637353515625,-6.791492031729221,-1.3676647558800876,0.5956079318463802
1772642780911779000,0.673779052734375,-5.96802051614821,-1.510824249666929,0.4489171951934695
1772642780921824300,0.68382421875,-5.166467986908555,-1.7844477140575645,0.363562386251986
1772642780931869200,0.693869140625,-4.501625190794468,-2.1399235322266814,0.3936085649475455
1772642780941914400,0.703914306640625,-3.9413481000483035,-2.400122282376885,0.5022632931947708
1772642780951959300,0.713959228515625,-3.4377737242549657,-2.458517772722244,0.5904615088686347
1772642780962004200,0.724004150390625,-2.800675844156742,-2.229491867209971,0.5627995949611068
1772642780972049200,0.734049072265625,-1.4857716414749622,-1.5802970143437385,0.5285244003936648
1772642780982094300,0.74409423828125,0.25794366469979285,-0.7990408386796712,0.4897831663280725
1772642780992139300,0.75413916015625,1.7027490895360706,-0.22231471743583678,0.621434739281237
1772642781002183200,0.76418310546875,2.638321382164955,0.1408081083551049,0.7858215838834642
1772642781012228400,0.774228271484375,3.273424289053678,0.29460429309904573,0.9233052239909768
1772642781022273300,0.784273193359375,3.6671693398624656,0.2578472185879946,0.9790487385228276
1772642781032318500,0.794318359375,3.9394332063376902,0.20557780990749597,0.9615861470684408
1772642781042363100,0.804363037109375,4.304963970053196,0.41663317444324494,1.022295467314124
1772642781052408300,0.814408203125,4.927976041653752,0.9107222212716937,1.363239194522798
1772642781062453200,0.824453369140625,5.587875536146759,1.367797003957629,1.616870841242373
1772642781072498400,0.83449853515625,6.5033291698545215,1.6707383327692746,1.7700167453840374
1772642781082543400,0.84454345703125,7.431117969000339,1.8533432633683085,2.018591400974989
1772642781092587300,0.854587158203125,8.388230477786063,2.12632141559273,2.063365777724981
1772642781102632200,0.864632080078125,8.764494232439993,2.516711603015661,2.135093920113146
1772642781112677400,0.874677490234375,8.661428994762897,2.7980750140085813,2.1630165307834743
1772642781122722300,0.884722412109375,8.346672140473126,3.0654464322671293,2.1790976047515866
1772642781132767200,0.894767333984375,7.979680072033405,3.3589053547233343,2.263393552289903
1772642781142812200,0.904812255859375,7.612852254244685,3.642712943997979,2.439376726661622
1772642781152857300,0.914857421875,7.240164604511857,3.9074323864430185,2.67710440954566
1772642781162902300,0.92490234375,6.98319767588973,4.109319817399978,2.811507327033579
1772642781172947200,0.934947265625,6.7995508350223295,4.265981620708108,2.7847382703125474
1772642781182991400,0.944991455078125,6.564722672972083,4.445750158837438,2.5268112644866108
1772642781193036300,0.955036376953125,6.3034904881209135,4.665503209091723,2.224884957936406
1772642781203081500,0.96508154296875,6.085476098227501,4.849047758628427,1.970170192155242
1772642781213126000,0.9751259765625,5.812144310259819,4.931704706788063,1.80829576876536
1772642781223171000,0.985171142578125,5.50493772521913,4.935715111473202,1.6672316398225724
1772642781233216000,0.995216064453125,5.105290756890177,4.958198745959997,1.4892853486843407
1772642781243261200,1.00526123046875,4.60857866808176,4.99183798071146,1.2749853031389415
1772642781253306000,1.01530615234375,4.25982309807837,5.0495945886313915,1.0385695796363055
1772642781263351000,1.02535107421875,3.941609965854883,4.905060445490479,0.8987126345261931
1772642781273395000,1.03539501953125,3.6511037557244297,4.398890207985043,0.9347554232880473
1772642781283440000,1.045440185546875,3.5382793405771253,3.634749125511944,0.939485666680336
1772642781293484800,1.05548486328125,3.765212365463376,2.761003174459934,0.8756357103213668
1772642781303530000,1.065530029296875,4.170711566951871,1.9820061758995056,0.8932105299785733
1772642781313575000,1.075574951171875,4.1584442060530185,1.2815803174898028,0.9678782329499721
1772642781323620000,1.0856201171875,3.5692344508111473,0.654671238450706,1.041243182759732
1772642781333665000,1.0956650390625,2.2940239606142043,-0.11363339344263076,1.2929432768948375
1772642781343710000,1.1057099609375,0.9669967739403247,-0.9695780226051807,1.4337136835880577
1772642781353754000,1.115754150390625,0.11774784302413463,-1.3465823664933443,1.0308078595936299
1772642781363799000,1.125799072265625,-0.4654951127678156,-1.3411580033570527,0.30460590102300045
1772642781373844200,1.13584423828125,-1.4578478617608546,-1.3863549894332885,-0.24370602664127944
1772642781383889000,1.145888916015625,-2.9351252311348914,-1.6634145657524466,-0.4859232760295272
1772642781393934000,1.15593408203125,-4.645874671775102,-1.8981559263020753,-0.611417057005316
1772642781403979000,1.16597900390625,-6.570396042433381,-2.38854991800487,-0.4995440973639488
1772642781414024200,1.176024169921875,-8.178058033564687,-3.6197225290328263,-0.1949507635615766
1772642781424068900,1.18606884765625,-8.656319104403257,-4.166633942249417,-0.6520246694646775
1772642781434114000,1.196114013671875,-8.53258809531629,-3.8698616574615237,-1.6266862789444625
1772642781444158000,1.206157958984375,-9.062881551209092,-3.751932904912531,-2.1622551910221577
1772642781454203100,1.216203125,-10.133135870528221,-3.5404181061714883,-2.300845038805902
1772642781464248000,1.226248046875,-11.235125636804103,-3.0508593962490558,-2.25709591345042
1772642781474293000,1.23629296875,-11.984057167446613,-2.818460214911401,-1.9883415164008735
1772642781484338000,1.246337890625,-12.177639126873016,-3.0477678599745035,-1.5218061007998882
1772642781494383000,1.256383056640625,-11.405849283212422,-3.7623911705628035,-1.177980169218406
1772642781504428000,1.266427978515625,-9.860608384680747,-4.585923184159398,-1.4575783971697092
1772642781514473000,1.276472900390625,-8.500618255081772,-5.114657720172405,-2.1403788747787473
1772642781524517000,1.28651708984375,-7.703228106218576,-5.290795208323002,-2.7568495619118214
1772642781534562000,1.29656201171875,-7.1747361467897885,-5.29464019331336,-2.894730092382431
1772642781544607000,1.30660693359375,-6.6926786062777035,-5.208242597320676,-2.709969152793288
1772642781554652000,1.31665185546875,-6.118584002581239,-5.237960274714231,-2.312372687253356
1772642781564697000,1.326697021484375,-5.2644636662364,-5.253707294422388,-1.8420352490209042
1772642781574742000,1.336741943359375,-4.278776804873347,-5.055347453069687,-1.488622793122381
1772642781584787200,1.346787109375,-3.6241549585223196,-4.691747365155816,-0.9976527550972998
1772642781594832000,1.356831787109375,-3.3087188897967335,-4.1183243771106,-0.3408325219191611
1772642781604877000,1.366876953125,-3.1949130623966453,-3.4534935636952517,0.3804983234837651
1772642781614921200,1.376921142578125,-3.0832939313858745,-2.7960031761705872,0.9751971776612103
1772642781624966100,1.386966064453125,-3.002650368875265,-2.1341201066449282,1.3960016464397311
1772642781635011000,1.397010986328125,-2.7990058651179073,-1.5808718916222453,1.6284870447561144
1772642781645056000,1.407055908203125,-2.4731606305807827,-1.1435200465381146,1.9105854920253156
1772642781655101200,1.41710107421875,-2.0363006606668232,-0.8383449673250317,2.3110428999543187
1772642781665146000,1.42714599609375,-1.4008423644691705,-0.5774541432574392,2.6063436508849263
1772642781675191000,1.43719091796875,-0.4513678032159805,-0.32389673081785436,2.663155963692069
1772642781685236000,1.447236083984375,0.5856652145028114,-0.15857523571401833,2.4882684756025673
1772642781695280000,1.457280029296875,1.5353168858885764,-0.015911562620103358,2.039668968056142
1772642781705325000,1.467324951171875,2.385223403930664,0.15078735831677914,1.4801187302798031
1772642781715370000,1.477369873046875,3.181461460149288,0.35825434297174213,0.8842065547898411
1772642781725415000,1.487414794921875,3.7850925394535064,0.594481850425899,0.3221589472398162
1772642781735460000,1.497460205078125,4.1398891431868075,0.8297805525973438,-0.033875381594896316
1772642781745505000,1.507505126953125,4.343786744922399,1.0006567592188715,-0.3798024501740932
1772642781755550200,1.51755029296875,4.427323106265068,1.0930603176280855,-0.6126528824105858
1772642781765595000,1.527594970703125,4.568917688822746,1.3030913075521589,-0.6478650655671954
1772642781775640000,1.53764013671875,4.66329751574099,1.5302619405865667,-0.35513065799325705
1772642781785685000,1.54768505859375,4.728595625081658,1.6376213683262466,0.24047639707028864
1772642781795729000,1.55772900390625,4.886540453937649,1.707439293178916,0.92324326467067
1772642781805774000,1.567774169921875,5.210463195979595,1.91259157115072,1.4703852717727421
1772642781815819000,1.577819091796875,5.640366186362504,2.14316207575649,1.8059969903036952
1772642781825864200,1.5878642578125,5.964099543312192,2.2591613215476274,2.006815330724418
1772642781835909000,1.5979091796875,6.234234581065177,2.211828200225532,2.157849357278645
1772642781845954000,1.6079541015625,6.56512014785707,2.148990928040445,2.2330884303972125
1772642781855999000,1.6179990234375,6.944117711389064,2.101163885721564,2.2376462398320434
1772642781866044200,1.628044189453125,7.337924721518158,2.114318843109906,2.3080931102380156
1772642781876088000,1.638088134765625,7.710243537938594,2.269470241855085,2.3564818780928847
1772642781886133000,1.648133056640625,7.984605837997794,2.5351298877596853,2.4607427552953363
1772642781896178000,1.658177978515625,8.187530210787058,2.7518735270649195,2.5968440011337397
1772642781906223000,1.66822314453125,8.270762036225198,2.840872537727654,2.631725344900787
1772642781916268000,1.67826806640625,8.27257054695189,2.885113830514252,2.611575121797621
1772642781926313000,1.68831298828125,8.161345968216658,2.953694322526455,2.5012404776394366
1772642781936358000,1.69835791015625,7.920666742050647,3.075780487015843,2.3672350350365043
1772642781946403000,1.708403076171875,7.5972636399686335,3.213193984496593,2.2090181112408636
1772642781956447200,1.718447265625,7.327266549381613,3.441708433355391,1.9891066555544732
1772642781966492000,1.728491943359375,6.9966323270022865,3.7132349254667756,1.7739125837787986
1772642781976537000,1.738537109375,6.50377983623147,3.858348914322257,1.718400978306681
1772642781986582000,1.74858203125,5.8993865403831,3.8974116354271766,1.7638213978752493
1772642781996627200,1.758627197265625,5.093893749085068,3.740799224218726,1.9357023976251482
1772642782006672100,1.768672119140625,3.821894037628174,3.155379216648638,2.3571568547450004
1772642782016717000,1.778717041015625,2.5114947451502085,2.1635516605734826,2.8854771108686923
1772642782026762000,1.788761962890625,2.270051548874378,1.1874904134288429,3.344074865338206
1772642782036807200,1.79880712890625,3.0173136849999427,0.5900283781483769,3.223800426445901
1772642782046850800,1.808850830078125,3.410165001839399,0.2017293177857995,2.5914006410360333
1772642782056896000,1.81889599609375,2.003402599671483,-0.5806085156351327,1.9092203411519526
1772642782066941000,1.82894091796875,-0.6149602825701236,-1.362263627488911,1.2293490488626062
1772642782076986000,1.838986083984375,-3.517414831724763,-1.052792020125687,0.25700083089172837
1772642782087031000,1.849031005859375,-5.530784698659181,0.6260030701100826,-1.1331842382237314
1772642782097076000,1.859075927734375,-5.6067614384025335,1.9626509025663137,-1.9000424707010388
1772642782107121000,1.869120849609375,-5.1791287310391665,1.8808935335949062,-2.002033941666782
1772642782117166000,1.879166015625,-6.420766037458181,0.593068184235692,-1.2924699602946639
1772642782127211000,1.8892109375,-7.532146732413769,0.06520633940398693,-1.1327033228389918
1772642782137255000,1.8992548828125,-8.156294530045985,0.08145634019821882,-1.0708021624602377
1772642782147300000,1.909300048828125,-8.870645161172748,-0.419477165697515,-0.6767969994105398
1772642782157345000,1.919344970703125,-9.134404234153031,-1.0431532541647552,-0.34305136701241135
1772642782167390200,1.92939013671875,-8.797208169040083,-1.4804139138340948,-0.07131298571601509
1772642782177435000,1.939434814453125,-8.381331950443982,-1.8466592555597423,0.7176645779803394
1772642782187480000,1.94947998046875,-7.86950471009016,-2.5784987816259264,1.8149902979679404
1772642782197525000,1.95952490234375,-7.275440500554442,-3.5652561948299404,1.820116993331909
1772642782207570000,1.96956982421875,-6.819409966224431,-4.369292649839818,0.3084994013302028
1772642782217613800,1.97961376953125,-7.011103335425258,-4.841052375960349,-1.6491021088920532
1772642782227659000,1.989658935546875,-8.190716439607739,-4.938754040777683,-2.978841331003606
1772642782237703700,1.99970361328125,-9.796436649021505,-4.081284394004941,-3.3691175366580484
1772642782247748900,2.009748779296875,-10.451062002503871,-2.8388737651258706,-2.7204247880950567
1772642782257793800,2.019793701171875,-10.2452986068964,-2.0027710237696765,-1.680610907486081
1772642782267839000,2.0298388671875,-10.280745183330774,-1.485699160760641,-1.2634864423945544
1772642782277884000,2.0398837890625,-10.002579399335383,-1.0954933899939059,-1.2944813001170754
1772642782287928800,2.0499287109375,-8.859858978742361,-0.9755772630199789,-1.2445002946346997
1772642782297973800,2.059973876953125,-7.603449635127187,-1.0648688268885016,-1.0466541018925606
1772642782308018000,2.070017822265625,-6.642003481051326,-1.2340925901278852,-0.9460562772423028
1772642782318063000,2.08006298828125,-5.622231394734978,-1.2788041307747364,-0.9516393380716442
1772642782328107800,2.090107666015625,-4.477517754498124,-1.4372148235768079,-0.8143661258444189
1772642782338153000,2.100153076171875,-3.361070423802733,-1.7590800485670566,-0.5623401607558131
1772642782348198000,2.110197998046875,-2.3434365185588595,-2.0258470711916683,-0.29713322705477474
1772642782358243000,2.1202431640625,-1.3860831867545842,-2.077661137320101,-0.17640972922071813
1772642782368287700,2.130287841796875,-0.5572399150073528,-1.8043806411482393,-0.077120795211941
1772642782378333000,2.1403330078125,0.1631628557652235,-1.1480101975642143,0.05285056956931948
1772642782388376800,2.150376953125,0.5433575201272964,-0.41142917605936524,0.3222501326546073
1772642782398422000,2.160422119140625,0.6148749423742293,0.11941475332304835,0.7483874868936836
1772642782408466700,2.170466796875,0.6644499974042177,0.388838866327703,1.1865649691469966
1772642782418512000,2.180511962890625,1.0397060363203285,0.6516314323633909,1.394969526913017
1772642782428556800,2.190556884765625,1.6653917110443115,1.0202180765181779,1.3900354315117
1772642782438602000,2.20060205078125,2.2394570886462923,1.3212602937102318,1.4325148291923104
1772642782448647000,2.21064697265625,2.876779425150156,1.4069555866524577,1.5687551912404596
1772642782458691800,2.22069189453125,3.4005303275316954,1.367666947837174,1.743049535742402
1772642782468736800,2.23073681640625,3.6694559894949195,1.4533134332016109,1.9340534613743423
1772642782478781000,2.240781005859375,3.51950858913362,1.3583591673962772,2.1283453226357696
1772642782488825900,2.250825927734375,3.4211475836247205,1.2699136989630757,2.340692188286781
1772642782498870800,2.260870849609375,3.1900287974864243,1.329538584972918,2.4864023894697427
1772642782508916000,2.270916015625,2.8857717099010944,1.420661602052301,2.40936415797472
1772642782518961000,2.2809609375,3.200820240613818,1.7373485476218162,2.4149790752470492
1772642782529006000,2.291006103515625,4.407340056422353,2.1927486750938,2.565629070919752
1772642782539050800,2.30105078125,5.92454670060277,2.6006232274115084,3.077231854867935
1772642782549096000,2.311095947265625,7.208499300181865,2.762879781986773,3.4887244515523315
1772642782559139800,2.321139892578125,8.32493786304891,2.721758082525432,3.6476968698903915
1772642782569185000,2.33118505859375,9.067950525036453,2.596488904085755,3.715789286124706
1772642782579230000,2.34122998046875,9.377299382802844,2.341475739879906,3.605731997603178
1772642782589275000,2.35127490234375,9.252075504809618,1.8668191232740878,3.4080960866108536
1772642782599319800,2.36131982421875,8.914389025831222,1.4295043953299522,2.8867317871049045
1772642782609365000,2.371364990234375,8.726015740963817,2.041293646648526,2.3667732627436515
1772642782619410000,2.381409912109375,8.498724404159187,2.3892042902603743,1.4760741310641168
1772642782629454800,2.391454833984375,7.916455846357345,2.2406430835604665,1.0567296518355607
1772642782639499800,2.401499755859375,7.4574734764844175,2.2013629203125835,0.9900973712816834
1772642782649544000,2.4115439453125,7.129274372297525,2.307657641430199,1.0571148517608642
1772642782659588900,2.4215888671875,6.901784882572293,2.5319945123434064,1.1551572928398848
1772642782669633800,2.4316337890625,6.648207011866569,2.7871818640723824,1.2548977700084447
1772642782679679000,2.441678955078125,6.34001258483231,2.8268831753417847,1.38612819494009
1772642782689724000,2.451723876953125,5.995335808575153,2.54899708507061,1.5706532799467443
1772642782699769000,2.46176904296875,5.8086833561509845,2.1564546880498527,1.6545891620010136
1772642782709813800,2.471813720703125,5.828422660365701,1.7356126637399196,1.5232073458999396
1772642782719859000,2.48185888671875,5.894097201803326,1.1935282322883605,1.136283081021905
1772642782729903000,2.491903076171875,6.12656447994113,0.6967658745974302,0.5610474905967712
1772642782739947800,2.50194775390625,6.5065165677189825,0.6136012691766023,-0.09433306516706944
1772642782749993000,2.511992919921875,6.002265900099277,0.6390495986878871,-0.6868547214359044
1772642782760038000,2.522037841796875,4.113247219976783,0.07320785955190658,-1.0315215608209372
1772642782770083000,2.5320830078125,1.8534195434749126,-0.5825011975139379,-1.238653322172165
1772642782780128000,2.5421279296875,-0.09840835178196429,-0.5933899635359644,-1.4687544557005165
1772642782790173000,2.5521728515625,-1.6949878078848122,-0.01394727680981159,-1.93223033760041
1772642782800217900,2.5622177734375,-1.9873826082408428,0.20727964538931845,-2.631265910695493
1772642782810263000,2.572262939453125,-2.141203635165095,-0.455221848295629,-2.995585252794623
1772642782820307000,2.582306884765625,-4.001365638637543,-1.5098992437765002,-3.3926910122081635
1772642782830352000,2.592351806640625,-5.818024015948176,-2.121927564547956,-4.163125934128463
1772642782840396800,2.602396728515625,-7.6770450326919555,-2.157511795887351,-4.409094206613302
1772642782850442000,2.61244189453125,-10.362917270582914,-2.055615894250572,-4.013461150100827
1772642782860487000,2.62248681640625,-13.132336391210556,-1.9789441579803824,-3.204038910399377
1772642782870531800,2.63253173828125,-15.634541329967975,-2.1428769752047954,-2.5180334992691873
1772642782880576800,2.64257666015625,-17.13160710339546,-2.3871970420911905,-2.372747076456249
1772642782890622000,2.6526220703125,-17.239547253632544,-2.406706336942315,-2.793234295979142
1772642782900666000,2.662666015625,-16.414994957077504,-2.100129720368236,-3.57702554307878
1772642782910710800,2.672710693359375,-15.608540627270935,-1.6681151446588336,-4.090605764579773
1772642782920756000,2.682755859375,-15.00352423108816,-1.3989774473801255,-4.072953788033128
1772642782930801000,2.69280078125,-14.457745621293782,-1.3087005257360635,-3.783561676624417
1772642782940846000,2.70284619140625,-13.890870447456836,-1.26819958852157,-3.257112036678195
1772642782950891000,2.71289111328125,-12.794392722600698,-1.2517203090161084,-2.619883808198571
1772642782960936000,2.72293603515625,-11.15208378098011,-1.3977945212058722,-2.0735075247719883
1772642782970980900,2.73298095703125,-9.289014950150252,-1.7047393865704537,-1.7766876014500856
1772642782981026000,2.743026123046875,-7.627735350599885,-2.0957466829784215,-1.6461749693989753
1772642782991069700,2.753069580078125,-6.445221848800778,-2.585647776597738,-1.6531158745780585
1772642783001115000,2.763114990234375,-5.572170017492771,-3.174249629074335,-1.6446020209938286
1772642783011159800,2.773159912109375,-4.378811881074309,-3.5596444924280046,-1.5918080039173363
1772642783021205000,2.783205078125,-2.5523230146229268,-3.4417224618807434,-1.42402508713603
1772642783031250000,2.79325,-0.6336965472221374,-2.7972695428445933,-0.9276827084228396
1772642783041294800,2.803294921875,0.8624661398857831,-1.678335656030476,-0.1028133087426424
1772642783051339800,2.81333984375,1.6890420512229203,-0.23943010288774966,1.0506596842721103
1772642783061385000,2.823385009765625,1.9321277540087698,1.1024974235370755,2.349202534739673
1772642783071430000,2.833429931640625,1.8824200125098227,1.993625886544585,3.4753301324501633
1772642783081473800,2.843473876953125,1.722763703560829,2.229441598327458,4.044551577152312
1772642783091519000,2.85351904296875,1.8053168990850448,2.244386946263909,3.9528964990228412
1772642783101564000,2.86356396484375,2.384607317858934,2.356777938430011,3.374144424909353
1772642783111609000,2.873609130859375,3.2430817577600477,2.4822139978691933,2.624853997826576
1772642783121653800,2.88365380859375,4.0095705724030735,2.704523746868968,1.7592685568764805
1772642783131699000,2.893698974609375,4.5705525965481995,2.983522766818106,1.0290072399124504
1772642783141743900,2.903743896484375,5.095493000975251,3.243225257883966,0.5218687418967485
1772642783151789000,2.9137890625,5.781468016967177,3.5128704662933945,0.3636465574041009
1772642783161832700,2.923832763671875,6.593614420935511,3.787398770569265,0.5495522831141948
1772642783171878000,2.9338779296875,7.5078540026783935,4.04038656642735,0.965987304636836
1772642783181922800,2.9439228515625,8.248463110655546,4.215263240861892,1.530472368466854
1772642783191968000,2.953968017578125,8.845078758239746,4.433783242189884,2.071048587312549
1772642783202013000,2.964012939453125,9.34019101063609,4.697262621445954,2.417067718089372
1772642783212058400,2.974058349609375,9.422780446517468,4.555420786128938,2.2733592121176422
1772642783222103300,2.984103271484375,9.200866711097955,4.1804795122504235,1.2430753763981164
1772642783232148500,2.9941484375,9.196745247253775,5.357321398153901,1.480688054600358
1772642783242193200,3.004193115234375,9.249184459543228,6.098049748596549,1.452222130833566
1772642783252237300,3.0142373046875,9.195104494309424,6.273855228313804,1.3808638446711003
1772642783262282500,3.024282470703125,8.535955525922775,6.1575254353940485,1.765153523261845
1772642783272327400,3.034327392578125,7.959276166430115,5.889398814854025,1.9850293231129645
1772642783282372400,3.044372314453125,7.391695474672317,6.048380001020432,2.1607462477639316
1772642783292417300,3.054417236328125,6.907090587764978,6.365962434124946,2.0849628386355934
1772642783302462500,3.06446240234375,6.527233192533254,6.563063799849152,1.9020351058229803
1772642783312507400,3.07450732421875,6.177442434263229,6.6379492372244595,1.6972712426468728
1772642783322552300,3.08455224609375,5.8046811347723,6.5867766838699575,1.5563437456957996
1772642783332596200,3.09459619140625,5.212718281430006,6.298304025393724,1.4453883392907678
1772642783342641400,3.104641357421875,4.525429844751954,5.601231276804208,1.493035787259042
1772642783352686300,3.114686279296875,4.187304389834404,4.6463481345057485,1.5845485343083738
1772642783362731300,3.124731201171875,4.51286730029881,3.7891976366847753,1.7416281246371565
1772642783372776200,3.134776123046875,5.33971676788032,3.103974315842986,1.9146677929028868
1772642783382821400,3.1448212890625,5.783432595038414,2.2952339209258557,1.929108844579011
1772642783392866300,3.1548662109375,5.3205567248582835,1.318778998288512,1.7744724096186457
1772642783402911500,3.164911376953125,3.9743437761992215,0.32810031998753547,1.596511505433172
1772642783412956200,3.1749560546875,2.2832120592206717,-0.5078700271606446,1.4513573306977747
1772642783423000300,3.185000244140625,0.9445791904270648,-0.9677835404038428,1.3468179288148878
1772642783433045500,3.19504541015625,0.5112994170874356,-1.017856608083844,0.9837998785726726
1772642783443090400,3.20509033203125,0.6989531555086373,-1.1049036078959702,0.4732090481460094
1772642783453135400,3.21513525390625,0.9079711689978838,-1.5953575130924582,-0.13963351161777973
1772642783463180300,3.22518017578125,0.48443712912499903,-2.6990169661462304,-0.6923534649826586
1772642783473225500,3.2352255859375,-1.6913409758150577,-3.921836759370565,-0.9109316262386739
1772642783483270400,3.2452705078125,-4.680436282068491,-3.9209593920141455,-1.413543294479698
1772642783493315300,3.2553154296875,-7.572567590129375,-3.2305943243697284,-1.86107093501091
1772642783503359200,3.265359130859375,-9.992743064975738,-2.813568351216614,-2.114465265843272
1772642783513404400,3.275404296875,-11.449722327208518,-2.536767718094587,-2.0671999490603805
1772642783523449300,3.285449462890625,-12.18636019346714,-2.1869448111206293,-1.7313192043296992
1772642783533494300,3.295494384765625,-12.721115889465809,-2.0350994681835175,-0.8114191126070917
1772642783543539200,3.305539306640625,-13.090783899116515,-2.4978105031907556,0.2425716157838702
1772642783553584400,3.31558447265625,-13.22061556316614,-3.2262332065507766,0.26421719201132654
1772642783563629300,3.32562939453125,-13.603306720519065,-3.5036554787024854,-1.0443884950481355
1772642783573674500,3.335674560546875,-14.254891975653171,-3.4326562351107595,-2.7414164304584263
1772642783583719200,3.34571923828125,-15.00930749066472,-3.149892601931095,-3.8215456625819204
1772642783593763300,3.355763427734375,-15.024969170176982,-2.4537705781951544,-4.016176254278421
1772642783603808500,3.36580859375,-14.265083699321746,-2.0388187809675933,-3.2907337357729673
1772642783613853200,3.375853271484375,-12.7367986117661,-2.066651667527854,-2.115866072551906
1772642783623898400,3.3858984375,-10.619086326825618,-2.111032076524198,-1.1736033423736691
1772642783633943300,3.395943359375,-8.547469438105821,-2.434474341572821,-0.3913065716154873
1772642783643988500,3.405988525390625,-6.602386925455927,-2.839991955500841,0.15840718567073345
1772642783654033400,3.416033447265625,-4.987274033796787,-3.1016639930739998,0.354513402877748
1772642783664078300,3.426078369140625,-3.8463931035906076,-3.1927474087953565,0.39696342833340165
1772642783674122200,3.436122314453125,-3.064744129216671,-3.111485129864514,0.4724034308515489
1772642783684167400,3.44616748046875,-2.5446634397804737,-2.915467467723787,0.7371076757274567
1772642783694212400,3.45621240234375,-2.135165524044633,-2.6232997541218994,1.0513403600126505
1772642783704257300,3.46625732421875,-1.656734941858053,-2.298973984237015,1.3619424327105283
1772642783714302200,3.47630224609375,-1.0291899030029774,-1.8838231573060154,1.5723469321221113
1772642783724347400,3.486347412109375,-0.17779460770785807,-1.2748209063574671,1.5926463544376193
1772642783734392300,3.496392333984375,0.7831184624046087,-0.534195431767404,1.5466324990205467
1772642783744437200,3.506437255859375,1.699607868900895,0.2231897467046976,1.4783634110450743
1772642783754481400,3.5164814453125,2.383622398474812,0.818135415250063,1.2842217719092965
1772642783764526300,3.5265263671875,2.739706703931093,1.3211965808242558,0.8973612199172377
1772642783774571500,3.536571533203125,2.822320689731836,1.819604075373709,0.5160436890050768
1772642783784616200,3.5466162109375,2.9125878206342457,2.2126956307098267,0.1851283115968108
1772642783794661400,3.556661376953125,3.148264708468318,2.431430736093223,-0.001167728605121374
1772642783804706300,3.566706298828125,3.4456741221159692,2.4725141493707894,0.033943040003627536
1772642783814751500,3.57675146484375,3.8441853644132613,2.340058274297416,0.20738880485221742
1772642783824796400,3.58679638671875,4.3736160659968855,2.1511500057704747,0.5170296313025057
1772642783834841300,3.59684130859375,5.13771769324243,2.016012636528164,0.8346154254078865
1772642783844885200,3.60688525390625,5.988921265357733,2.014605838470161,1.12148897812441
1772642783854930400,3.616930419921875,6.761078773286938,2.0203959661789237,1.4375785423226655
1772642783864975000,3.62697509765625,7.4691113073080775,2.00629890563488,1.7056632234171032
1772642783875020300,3.637020263671875,8.095267522153257,1.9823712098196147,1.840102381262183
1772642783885065200,3.647065185546875,8.519912738138437,1.9407143805682658,1.925637515206635
1772642783895110400,3.6571103515625,8.807246747973561,1.9549036494404077,1.9240832715019582
1772642783905155300,3.6671552734375,9.061370562124251,2.0130434114590288,1.7498593618877232
1772642783915200300,3.6772001953125,9.230793062806129,1.9721756867587565,1.3678832209363578
1772642783925245200,3.6872451171875,9.313579482564329,1.8981912898764013,0.9264901376374065
1772642783935289300,3.697289306640625,9.402474740591645,1.8677780314341186,0.5844846264161169
1772642783945334500,3.70733447265625,9.441661088076234,1.9454975231915712,0.43411710094660516
1772642783955379200,3.717379150390625,9.366779157832264,2.1175871972560882,0.3940988326825201
1772642783965424400,3.72742431640625,9.2336624807626,2.2944956697791814,0.4702909687422216
1772642783975469300,3.73746923828125,9.140489107024669,2.4349998267516493,0.5462997110590339
1772642783985514500,3.747514404296875,8.905790124312043,2.601676243595779,0.5990621639534831
1772642783995559200,3.75755908203125,8.489242874586582,2.7923434846192596,0.6680689185537397
1772642784005604400,3.767604248046875,7.997848765930533,2.9896260521292684,0.7840291475087404
1772642784015648300,3.777648193359375,7.229476621758938,2.9821304356768725,0.8692653715718537
1772642784025693400,3.787693359375,6.200005563727021,2.590620304313302,1.0240824237961321
1772642784035738000,3.797738037109375,5.326011483132839,2.0322212823987007,1.22997141854465
1772642784045783300,3.807783203125,4.993782685038447,1.4801608158558606,1.3246657182395458
1772642784055828200,3.817828125,4.95101146480441,0.8892685143545269,1.3333021752901375
1772642784065873400,3.827873291015625,4.757596094116568,0.15642302611619233,1.4791323495909572
1772642784075918300,3.83791845703125,4.248991322940587,-0.46104836249202485,1.556025473526865
1772642784085963300,3.84796337890625,2.994897270530462,-0.8758546137690544,1.309811409587413
1772642784096007400,3.85800732421875,1.5765934836506843,-1.0790554654121398,0.6386022933118045
1772642784106052400,3.86805224609375,0.4608680374890566,-0.7989563752666116,-0.3890747209101915
1772642784116097300,3.87809716796875,-0.6041343526512384,-0.21320961996018886,-1.424173409565538
1772642784126142200,3.88814208984375,-1.9017589192301034,0.3599281214028597,-2.1498870000973342
1772642784136187400,3.8981875,-3.2473511056423185,0.42132542391270394,-2.604647076100111
1772642784146232300,3.908232421875,-5.183521997562051,-0.46408962988406416,-2.552020524545014
1772642784156277500,3.918277587890625,-6.734931940117478,-1.6455530381083487,-2.4545032763838766
1772642784166322200,3.928322265625,-7.405833305618167,-2.128300314450264,-2.5122215981200338
1772642784176367400,3.938367431640625,-8.51134773888886,-2.306651533127576,-2.665345582690835
1772642784186411300,3.948411376953125,-10.667169097471236,-2.134563612628728,-2.8070401184916496
1772642784196456400,3.95845654296875,-13.7996639898777,-1.4838625929832459,-2.692523512473702
1772642784206501000,3.968501220703125,-16.533173592734336,-0.6833502204462886,-1.9821034987941384
1772642784216545800,3.9785458984375,-17.781960186386108,-0.47084977166876196,-1.1679589067459106
1772642784226591000,3.988591064453125,-17.537611331796644,-0.8737390829198062,-1.2472862720914184
1772642784236636000,3.998635986328125,-16.11366573963761,-1.5808068635620176,-2.571453539289534
1772642784246681000,4.00868115234375,-14.460758247113228,-2.35428086091727,-4.155162115642428
1772642784256725800,4.018725830078125,-13.180904315024614,-2.5646897442430254,-5.4603392895579335
1772642784266770000,4.02877001953125,-12.322920873510837,-2.446396396165341,-5.812789622426033
1772642784276814800,4.03881494140625,-11.534873138010502,-2.5095062016814946,-4.8853088663160795
1772642784286860000,4.048860107421875,-10.38239587803483,-2.734068990305066,-3.405564814567566
1772642784296904700,4.05890478515625,-8.789088575470448,-3.092430008521676,-2.0043875190556046
1772642784306950000,4.068949951171875,-6.774630328777432,-3.6919016300588843,-0.8147022259309887
1772642784316994800,4.078994873046875,-4.706994618648291,-4.385077078948915,-0.14530761173143983
1772642784327040000,4.0890400390625,-2.996842559379339,-4.816707623776793,0.014522884740680456
1772642784337085000,4.0990849609375,-1.853702452069521,-4.669912842227518,-0.21393530388623475
1772642784347128800,4.10912890625,-1.1809189260840416,-3.9343712467730043,-0.5733943464726209
1772642784357174000,4.119174072265625,-0.6433107632637024,-2.76567350435853,-0.7710559764280914
1772642784367219000,4.129218994140625,-0.12136954065263271,-1.5774270118653773,-0.5941080486774444
1772642784377264000,4.13926416015625,0.2978565728932619,-0.47155996576473114,-0.177410576826334
1772642784387308800,4.149308837890625,0.5352794276118278,0.48125966813266274,0.35924423079192636
1772642784397354000,4.15935400390625,0.9094541010320186,1.120090947894752,0.7827917146682739
1772642784407399000,4.16939892578125,1.331567752712965,1.4675202377304435,1.027006421484053
1772642784417444000,4.179444091796875,1.8020798168599605,1.6209198243722318,1.080677805916965
1772642784427488800,4.18948876953125,2.358667989960313,1.559481459199637,1.00222620049268
1772642784437533000,4.199532958984375,2.8731670798718927,1.309368488125503,0.9293316446736455
1772642784447577900,4.209577880859375,3.2953882835805413,0.884068242297694,0.97037209559232
1772642784457623000,4.219623046875,3.5671681659311054,0.43975203809365626,1.104675059837103
1772642784467667700,4.229667724609375,3.7852000914812085,0.07213478696029633,1.3081328088507056
1772642784477713000,4.239712890625,4.233985476988554,-0.15629370064809917,1.3819389265567064
1772642784487757800,4.2497578125,4.84875462090075,-0.2834867598224431,1.3644237281322478
1772642784497803000,4.259802978515625,5.24780946855545,-0.5339225331101566,1.3379185830444096
1772642784507848000,4.269847900390625,5.752493266895413,-0.6457167284268885,1.306888069486618
1772642784517891800,4.279891845703125,6.369780531108379,-0.5600466795237734,1.3854656393781304
1772642784527937000,4.28993701171875,6.896673238646984,-0.4612767644204199,1.5452769927583634
1772642784537982000,4.29998193359375,7.395768423199653,-0.3446626016013324,1.7698028103724122
1772642784548027000,4.31002685546875,7.799695845326781,-0.15790749252028763,2.0018372500509023
1772642784558071800,4.32007177734375,8.150168740642071,0.11628909558318555,2.1586324704803523
1772642784568117000,4.330116943359375,8.517764620193839,0.44343503745533525,2.241724449056387
1772642784578162000,4.340161865234375,8.772009430375695,0.7311777742218226,2.2458128874137997
1772642784588207000,4.35020703125,8.943458468449116,0.985493384617567,2.1586327627412976
1772642784598250800,4.360250732421875,9.058581223666668,1.2118543087042868,1.9768325726538896
1772642784608296000,4.3702958984375,8.940188068476319,1.410886204099655,1.7659389745511114
1772642784618340900,4.3803408203125,8.554526955401897,1.5581984336517751,1.6009939115442335
1772642784628386000,4.390385986328125,8.08345901093781,1.7234857342250645,1.512236162291467
1772642784638430700,4.4004306640625,7.629249262294173,2.00157158485204,1.5006607291795313
1772642784648476000,4.410475830078125,7.262030983883142,2.3474269033692776,1.4646208630271256
1772642784658520800,4.420520751953125,6.982087084299326,2.711981661659479,1.350606361312419
1772642784668566000,4.43056591796875,6.71597940236628,3.09950973764956,1.1520659026958047
1772642784678610000,4.44060986328125,6.54753246871829,3.496471996939182,1.0956548641659318
1772642784688654800,4.45065478515625,6.107987789765,3.6362984007805585,1.3885966308802364
1772642784698700000,4.460699951171875,5.384889204037189,3.3682395847797393,1.8705654701955616
1772642784708745000,4.470744873046875,4.840025371000171,3.0417566368609665,2.109579978019744
1772642784718790000,4.480789794921875,4.527870808163285,2.642336463025212,2.0623025324076414
1772642784728834800,4.490834716796875,4.268870912408828,1.9226815880104897,1.923100251813978
1772642784738880000,4.5008798828125,3.9040620332270857,1.1223854885727167,1.8515115178965031
1772642784748925000,4.510925048828125,3.554028113850951,0.5645347481906414,1.5863498846419155
1772642784758970000,4.52097021484375,2.9443361270725728,0.3054156099706888,1.1228976758785545
1772642784769013800,4.531013671875,1.319071843755245,0.16290391256809234,0.8237184760794043
1772642784779059000,4.541058837890625,-1.1413099692732096,0.19250512397512792,0.5851224859282375
1772642784789103900,4.551103759765625,-3.929047421401739,0.7250194707877934,0.19179054596498607
1772642784799148800,4.561148681640625,-6.46866117657721,1.6076051463775336,-0.35729864968210456
1772642784809193700,4.57119384765625,-7.964953627544641,2.106825710875541,-0.7319520465299487
1772642784819239000,4.581239013671875,-8.842519721406697,1.7644848302200435,-0.6227730021476745
1772642784829283800,4.591283935546875,-9.325082873353361,0.7068959312066435,-0.19673224015086888
1772642784839329000,4.6013291015625,-9.1193019420892,-0.24286957581713794,-0.10892390057742594
1772642784849373000,4.611373046875,-8.760713544857502,-0.6684820293992757,-0.664958531448245
1772642784859417900,4.62141796875,-8.696942791214585,-0.8714937882110476,-1.3955696847632526
1772642784869463000,4.631463134765625,-9.347119933116435,-1.0865705172173679,-1.945327719582617
1772642784879508000,4.641508056640625,-10.620722988116741,-0.9414907959576696,-2.190746541491151
1772642784889553000,4.651552978515625,-11.9904962605834,-0.3655127896673977,-1.8957418508976698
1772642784899597800,4.661597900390625,-13.734915331113339,-0.20804507680386303,-0.7202068098090588
1772642784909643000,4.67164306640625,-14.716327583897113,-0.4630886361479759,-0.3063983373977244
1772642784919688000,4.68168798828125,-14.6076579503417,-0.7607109618939459,-1.1603846720993518
1772642784929732900,4.69173291015625,-13.322507080888748,-0.9328303735096007,-2.479691201393306
1772642784939777000,4.701777099609375,-11.80120001565218,-1.2443912813022733,-3.1959885826736687
1772642784949822000,4.711822021484375,-10.682960540843009,-1.2422026852168142,-3.4130285745769737
1772642784959867000,4.721866943359375,-9.426164828258752,-0.7984625273350626,-3.414167807739973
1772642784969911800,4.731911865234375,-8.124891676044463,-0.4369249979741871,-3.042052989459038
1772642784979957000,4.74195703125,-7.050491342961788,-0.439886770389229,-2.3104379197984932
1772642784990002000,4.752001953125,-6.005849603804946,-0.4475036751337349,-1.5437386772751807
1772642785000046800,4.762046875,-4.7692450308561325,-0.4441704390577972,-0.825424549344927
1772642785010092000,4.772092041015625,-3.3883664270073175,-0.7005220122605562,-0.0351363414414227
1772642785020136000,4.782135986328125,-1.783120849367976,-1.0071884990751743,0.6501888323396444
1772642785030180900,4.792180908203125,-0.20613748961687087,-1.223051410023123,1.155943036390096
1772642785040226000,4.80222607421875,0.9760077633917331,-1.4403566287338734,1.4856722727537155
1772642785050270700,4.812270751953125,1.6772142507851122,-1.488751387938112,1.5276901904024183
1772642785060316000,4.82231591796875,1.944186440593004,-1.2954615433260799,1.3570000078722835
1772642785070360800,4.83236083984375,1.918205027118325,-1.0299554805479942,0.9994821624815463
1772642785080406000,4.842406005859375,1.9505565601468084,-0.7197823738519102,0.2862117278069258
1772642785090451000,4.852450927734375,2.1764812847733497,-0.3304262787170708,-0.6122004624679684
1772642785100494800,4.862494873046875,2.5325264272630212,0.02190298505462706,-1.3961314102992415
1772642785110540000,4.8725400390625,3.0735826847106216,0.3265966374263167,-1.9507745868116617
1772642785120585000,4.8825849609375,3.662412500724196,0.5968281943563372,-2.088877235600352
1772642785130630100,4.892630126953125,4.1681718193411825,0.748409114203602,-1.8958584630146622
1772642785140674800,4.9026748046875,4.4905075844526285,0.7739999939907342,-1.4838637620270252
1772642785150720000,4.912719970703125,4.576488416337966,0.6919524829663336,-0.8759066362172365
1772642785160765000,4.922764892578125,4.169037496259809,0.37238410020899027,-0.04735270280539989
1772642785170810000,4.93281005859375,3.2889684796661136,-0.07878171416148542,0.8105027284145355
1772642785180853800,4.942853759765625,2.506373748874664,-0.3384821594007313,1.46868285176903
1772642785190899000,4.95289892578125,1.9252876788556574,-0.4892032475482672,1.9635738626301287
1772642785200943900,4.96294384765625,1.6955150466293096,-0.6438928009353577,2.354726558858156
1772642785210989600,4.972989501953125,2.267469131165743,-0.6482764959122985,2.6632036022260785
1772642785221034500,4.983034423828125,3.331260391950607,-0.5753624316751956,2.8959231015592812
1772642785231079700,4.99307958984375,4.525065103092789,-0.5031097904888913,3.028046091416478
1772642785241124600,5.00312451171875,5.783351931017637,-0.4673155696606263,3.1492505046352743
1772642785251169500,5.01316943359375,6.887388108429312,-0.37669925999436527,3.2243171437963842
1772642785261213400,5.02321337890625,7.674793454372883,-0.25709515811167655,3.1353029355645177
1772642785271258600,5.033258544921875,8.23886818383634,-0.14218739735167474,2.846440400987863
1772642785281303600,5.043303466796875,8.74430367732644,0.05279080220609903,2.3576517986550924
1772642785291348500,5.053348388671875,9.170285694873332,0.25275427936315537,1.7804811485141514
1772642785301393400,5.063393310546875,9.496453585493564,0.5354837910775095,1.2039157707899808
1772642785311438600,5.0734384765625,9.749866036504507,0.8978857552479952,0.6852662832006812
1772642785321483500,5.0834833984375,9.86498762267828,1.2177785841867328,0.2451727381929755
1772642785331528400,5.093528564453125,9.727095401769876,1.4162515305250882,-0.04926102064475417
1772642785341573400,5.103573486328125,9.343208312630653,1.5404776296526193,-0.19406082898452875
1772642785351617500,5.113617431640625,8.621836989086866,1.6013590915948153,-0.2530138070821762
1772642785361662700,5.123662841796875,7.564272639992833,1.448263894727081,-0.10445829947069286
1772642785371707400,5.133707275390625,6.70374535921514,1.064033691238612,0.15921236457377672
1772642785381752600,5.143752685546875,6.179657772225141,0.5447836074076593,0.3425045467846095
1772642785391797500,5.153797607421875,6.04987286992669,0.10834960782080888,0.40716742696166036
1772642785401842700,5.1638427734375,6.2780526800036425,0.034588936691731215,0.4518085327208042
1772642785411887600,5.1738876953125,6.508638966700435,0.30041078742071986,0.38171295997053384
1772642785421932500,5.1839326171875,6.361396733644605,0.7305065238967537,0.061295741831511256
1772642785431976400,5.1939765625,5.555248108786344,0.8054764246851205,-0.3680520988866687
1772642785442021600,5.204021728515625,4.41586823079288,0.8088286577224731,-0.9749088622391223
1772642785452066300,5.21406640625,3.185681708192825,1.120033080227673,-1.5497088377259671
1772642785462111500,5.224111572265625,1.7382196313679217,1.4519348383247852,-1.5398102517850696
1772642785472156400,5.234156494140625,0.10449439369738102,1.3247696170054375,-0.8377211363382637
1772642785482201600,5.24420166015625,-1.2712918554484844,1.0293597066119313,-0.011065145502239465
1772642785492246500,5.25424658203125,-1.8072142571389673,1.2870048267565666,0.1516208865314722
1772642785502291500,5.26429150390625,-1.8805624019443987,1.811023586294055,-0.30613895580917594
1772642785512335600,5.274335693359375,-2.4848364553272724,1.9684898378528652,-0.975177011656016
1772642785522380500,5.284380615234375,-3.805688168236613,2.084643835814297,-1.1600387812711297
1772642785532425700,5.29442578125,-5.530789374834299,2.311374616126716,-0.7454742297954857
1772642785542470400,5.304470458984375,-6.944926105162501,2.9894819674834605,-0.05689663008973002
1772642785552515600,5.314515625,-8.36906225145757,3.062223963089287,1.016781818459183
1772642785562560500,5.324560546875,-9.743318222296237,2.377785655145347,1.901619803020358
1772642785572605700,5.334605712890625,-10.518734439760445,1.4959509440533816,1.9540745051398871
1772642785582650400,5.344650390625,-10.812067397749423,0.7804583763498812,0.6808071118347346
1772642785592694500,5.354694580078125,-11.258882944488525,0.0536952036999166,-0.9430103336751461
1772642785602739500,5.364739501953125,-11.628320652514695,-0.45732641935944557,-2.268090624064952
1772642785612784600,5.37478466796875,-11.936229248344898,-0.546245679316856,-3.2801196950390934
1772642785622829300,5.384829345703125,-12.049294486510753,-0.2432211657337844,-4.095585306558013
1772642785632874500,5.39487451171875,-12.131412797749041,0.14900624705366788,-4.626945514899492
1772642785642919400,5.40491943359375,-12.187480137407778,0.37222814246229824,-4.520324630567432
1772642785652964600,5.414964599609375,-11.620825912845135,0.3866097555687651,-3.4876334414452312
1772642785663009500,5.425009521484375,-10.522469534635544,0.24961627359837293,-2.201583869586885
1772642785673053400,5.435053466796875,-9.546914191186428,-0.10734393790960312,-1.1874511043317615
1772642785683098600,5.4450986328125,-8.411964404594897,-0.5548121398711576,-0.5707093451723456
1772642785693143600,5.4551435546875,-7.472674552747606,-0.8445009326715022,-0.40944925428852436
1772642785703188500,5.4651884765625,-6.888155001148581,-1.0071912755541503,-0.37201997960433364
1772642785713233400,5.4752333984375,-6.51142655159235,-1.0394627290837466,-0.20308993861451743
1772642785723278600,5.485278564453125,-6.1980713807940475,-0.9990046080976724,0.06821779617965221
1772642785733323500,5.495323486328125,-5.808961588570475,-0.8640294436797499,0.28097353489249943
1772642785743368700,5.50536865234375,-5.299751837238669,-0.5499533747283741,0.4400988057047128
1772642785753412600,5.51541259765625,-4.539132791411876,-0.1604268183974549,0.6480399837426841
1772642785763457500,5.52545751953125,-3.5256589284569024,0.24624500706698743,1.0466301364950834
1772642785773502500,5.53550244140625,-2.5087135899990796,0.5732740445611998,1.5673196054793894
1772642785783547600,5.545547607421875,-1.5987199752628802,0.7805160248212516,2.107774974424392
1772642785793592600,5.555592529296875,-0.379795435911417,1.2199692260988055,2.2906841486670078
1772642785803637500,5.565637451171875,1.2450357166856527,1.8229468099303543,2.267125140033662
1772642785813682400,5.575682373046875,3.031285511729121,2.4285280003890395,2.2136776274845005
1772642785823727600,5.5857275390625,4.637310257047415,2.8349615601181983,2.231845152337849
1772642785833772500,5.5957724609375,5.896834517812729,2.8886282683759927,2.350731205611676
1772642785843816400,5.60581640625,6.76062810690999,2.6935338585600257,2.365099776573479
1772642785853861600,5.615861572265625,7.315116677382588,2.400460428290069,2.1175793062105774
1772642785863906600,5.625906494140625,7.568832495254278,2.118350436713546,1.6163254823192954
1772642785873951500,5.635951416015625,7.522152577143907,2.00854186225608,1.0172641951486467
1772642785883996400,5.645996337890625,7.25767161962986,2.0143853275872767,0.45302609181702136
1772642785894041600,5.65604150390625,6.841829303303361,2.060011937252432,0.03212795340567827
1772642785904086500,5.66608642578125,6.295172157108784,2.015472976693511,-0.22454539909735322
1772642785914131700,5.676131591796875,5.704387699896097,1.9200135378450154,-0.2389301905415952
1772642785924175600,5.686175537109375,5.27716532689929,1.7621859056279061,-0.06028247313573956
1772642785934220500,5.696220458984375,5.182742245361209,1.6524585797131062,0.10420300953537225
1772642785944265700,5.706265625,5.363140898087621,1.602968864879012,0.15244988470152018
1772642785954310400,5.716310302734375,5.900547400856018,1.5465835453122854,0.2017285871334374
1772642785964355600,5.72635546875,6.590952508249878,1.3935619982026517,0.2756793740071356
1772642785974400500,5.736400390625,7.250049454188346,1.1884763557262719,0.26094854560419917
1772642785984445700,5.74644580078125,7.86605427737534,1.0368772426351904,0.15960750137120486
1772642785994490600,5.75649072265625,8.423231064018607,0.9514854626841842,0.05779591701701283
1772642786004534500,5.766534423828125,8.943567774042487,0.9372498704522848,0.018127631234377623
1772642786014579500,5.776579345703125,9.35591581851244,0.9751428171254694,0.10230915861278772
1772642786024624600,5.786624755859375,9.46332171574235,1.0330094612911342,0.3443681486994028
1772642786034669600,5.796669677734375,9.245781957623363,1.1028485750623047,0.6190986975491046
1772642786044714500,5.806714599609375,8.801217989203334,1.097341648209095,0.8084953341148793
1772642786054759400,5.816759521484375,8.009291366443037,1.1050152515769005,0.8283950895883142
1772642786064804600,5.8268046875,6.9368450900375835,1.0275932814612985,0.8061531549029052
1772642786074849500,5.836849609375,5.858620230230689,0.7981909438520669,0.9174502143524587
1772642786084893400,5.8468935546875,4.931946114328503,0.49866687613800165,1.173451805073768
1772642786094938600,5.856938720703125,4.1145390133529895,0.39129488117769357,1.20626730235219
1772642786104983600,5.866983642578125,3.222853793245554,0.4527902372345328,0.9520476266115904
1772642786115028700,5.87702880859375,2.2754338264346123,0.3914711145274341,0.6520820987403393
1772642786125073400,5.887073486328125,0.9767249717503785,0.2649021055355668,0.40447117361500856
1772642786135118600,5.89711865234375,-0.6768839470416307,0.12227730314731597,0.30784765942320225
1772642786145163500,5.90716357421875,-1.8722914172053335,0.021688684716820717,0.3367230407737195
1772642786155208700,5.917208740234375,-2.082118993511796,0.09144245829209685,0.39732597803547975
1772642786165252400,5.92725244140625,-1.4044424347877502,0.15950886330232023,0.404919794165343
1772642786175297500,5.937297607421875,-0.6630798780947923,-0.007012362980097532,0.484398989071697
1772642786185342500,5.947342529296875,-0.3855108909487724,-0.1441064192481339,0.5245886683799326
1772642786195387600,5.9573876953125,-1.2529174098461866,-0.0807588594533503,0.30294059815928337
1772642786205432300,5.967432373046875,-3.0108705002099274,-0.1256441492319107,0.07732508561238646
1772642786215477200,5.977477294921875,-4.5872254989296195,-0.27560484746620056,-0.21475538809746503
1772642786225522000,5.98752197265625,-5.6979450996279715,-0.27823724179640413,-0.7333170512728393
1772642786235567000,5.997567138671875,-6.20056612021923,-0.18844708075597882,-1.3251796591110527
1772642786245611300,6.007611328125,-6.359843658983707,-0.41184228690490127,-1.7676082229375838
1772642786255656200,6.01765625,-6.518900248473883,-0.8278649282343685,-1.9004945983827113
1772642786265701000,6.027701171875,-6.642807198649645,-1.0826225833091885,-1.7631370688728987
1772642786275746000,6.03774609375,-6.759941293689608,-1.0898274731867015,-1.3429915023945271
1772642786285791200,6.047791259765625,-7.015204341003298,-0.9427749174840748,-0.7786698124326765
1772642786295836200,6.057836181640625,-7.2590177735418075,-0.8333509584300219,-0.22250673287659883
1772642786305881300,6.06788134765625,-7.458608617994189,-1.0345210348978637,0.14804244352281093
1772642786315926000,6.077926025390625,-7.401082896220684,-1.1896372892644256,0.022228052290529012
1772642786325970200,6.08797021484375,-7.421883692187071,-1.1452667440749704,-0.7754450051672757
1772642786336015000,6.09801513671875,-8.028705091965199,-1.3972609988510607,-1.5666815998367964
1772642786346060000,6.10806005859375,-8.795407841619848,-1.5043778500065206,-2.5107559094816443
1772642786356105200,6.118105224609375,-9.515558098936081,-1.4220792137652636,-3.4934219617187976
1772642786366150100,6.128150146484375,-10.313806910455225,-1.4137136826105414,-4.195111848714947
1772642786376195000,6.138195068359375,-10.58172719476819,-1.4114350701540708,-4.415884597405791
1772642786386240300,6.148240234375,-9.905459918320178,-1.3028490232288836,-4.26090446357429
1772642786396285200,6.15828515625,-8.727208165618777,-1.1679640943776814,-3.908233181431889
1772642786406329000,6.1683291015625,-7.57587715306878,-1.0469545461438596,-3.33477921372652
1772642786416374300,6.178374267578125,-6.487836417168379,-0.767956402977556,-2.6669354822307825
1772642786426419200,6.188419189453125,-5.48192276033461,-0.44917423869445916,-1.976933256549388
1772642786436464000,6.198464111328125,-4.668652905294299,-0.28668869766891003,-1.1989433892048895
1772642786446509000,6.208509033203125,-4.022245929580927,-0.21358897466659546,-0.44039179730191824
1772642786456554200,6.21855419921875,-3.442672017690539,-0.18758447257727384,0.2199228538632393
1772642786466599200,6.22859912109375,-3.059270081719756,-0.2739319458179176,0.8256064817830919
1772642786476644000,6.23864404296875,-2.7200439720839262,-0.51982379206568,1.4020412188649176
1772642786486688300,6.248688232421875,-2.2713094399809837,-0.9077829529494047,1.6795754269585013
1772642786496733200,6.258733154296875,-1.5293699601829052,-1.2014720308996736,1.5047843849807976
1772642786506778400,6.2687783203125,-0.2503501408308744,-1.269804247239232,1.0613181486696004
1772642786516823000,6.278822998046875,1.1251537842422723,-1.1440056380979715,0.7357204591527581
1772642786526868200,6.2888681640625,2.3564637579143044,-0.7869241382978857,0.769824096545577
1772642786536913200,6.2989130859375,3.239282365477085,-0.3403035296089947,1.143759992773831
1772642786546958300,6.308958251953125,3.843938111653924,0.192982386098057,1.7550889331042765
1772642786557003300,6.319003173828125,4.146209578379988,0.721493342488259,2.387001227258146
1772642786567047200,6.329047119140625,4.222311990329623,1.1733636883988976,2.982002717643976
1772642786577092000,6.339092041015625,4.192781359940767,1.468898101954907,3.437211121936142
1772642786587137300,6.34913720703125,4.1029929524660105,1.4896001137219368,3.654654433943331
1772642786597182200,6.35918212890625,4.0731297291219235,1.3534050521202385,3.545397063627839
1772642786607227100,6.36922705078125,3.944733650833368,1.1688028102241457,3.1052187629461288
1772642786617272000,6.37927197265625,3.8303643443316218,0.9785001647293567,2.5440254341378807
1772642786627317200,6.389317138671875,3.877095700368285,0.80318816761747,2.114511443072557
1772642786637362200,6.399362060546875,4.0885470784842965,0.5741146235711873,1.952497172820568
1772642786647407000,6.409406982421875,4.515312355363369,0.4338322926558554,1.975589879116416
1772642786657451300,6.419451171875,5.15301170848608,0.5736205564439296,2.1208143426090476
1772642786667496200,6.42949609375,5.854398813143372,0.8379154898665845,2.3947563714295623
1772642786677541400,6.439541259765625,6.645976476335525,1.0901065823890268,2.7097949652701616
1772642786687586000,6.4495859375,7.479080328136682,1.4051008986964821,3.0396888906762003
1772642786697631200,6.45963134765625,8.073771145138144,1.733218754340708,3.262859348158538
1772642786707676200,6.46967626953125,8.310397296521067,1.9767589228957891,3.209186502420902
1772642786717721300,6.479721435546875,8.178750107482076,2.0530460437625644,2.9308649433419105
1772642786727766300,6.489766357421875,8.224164535701274,2.1050337128922343,3.4258076843902465
1772642786737810200,6.49981005859375,8.280739824882149,2.315354041151702,2.4841926044657825
1772642786747855000,6.509855224609375,8.124277343538402,2.2586127477541567,1.2925298737883566
1772642786757900300,6.519900390625,7.402853413024545,2.1276626010686157,1.1136652987614273
1772642786767945000,6.529945068359375,6.566766746020317,2.0840347640052435,1.0282292412772773
1772642786777990100,6.539990234375,5.811603042989969,2.1050153004527092,0.8300850885018706
1772642786788035000,6.55003515625,5.15150130392313,2.071669203428924,0.4007219040840864
1772642786798080300,6.560080322265625,4.565332816073298,1.9641621839120984,0.025910978586971757
1772642786808125200,6.570125244140625,4.0600440375775095,1.8791995891585944,-0.036003333534300325
1772642786818169000,6.580169189453125,3.5168355705320833,1.892483141362667,0.08694675430804491
1772642786828214300,6.59021435546875,2.9003730667054652,2.043000158305466,0.1554135568127036
1772642786838259200,6.60025927734375,2.069084155371785,2.284414128486812,-0.017217092260718346
1772642786848304400,6.610304443359375,0.6387088224261999,2.307553012011945,-0.3142997581720352
1772642786858349000,6.62034912109375,-1.224596155247092,2.0411232585176826,-0.6076859076529741
1772642786868394200,6.630394287109375,-2.259141447803378,1.9295374452546237,-0.8856289888083935
1772642786878439200,6.640439208984375,-1.8253993176490066,2.325146244108677,-1.0925202194020152
1772642786888484400,6.650484375,-0.5950181492596864,2.3754767936810848,-0.6817755184754729
1772642786898528000,6.660528076171875,0.4424421539604664,1.7815233510434627,0.07012304527908564
1772642786908573200,6.6705732421875,0.843973036339879,1.1808651500701903,0.5574412827983498
1772642786918618000,6.6806181640625,0.5191068759679794,0.7781535334736108,0.6808367763206362
1772642786928663300,6.690663330078125,-0.6409294210851192,0.6293818988934159,0.48754357070773835
1772642786938708000,6.7007080078125,-2.258569200873375,0.3176756643459201,0.2684466462746262
1772642786948753200,6.710753173828125,-4.3213750066280365,-0.16691197916567324,0.21181232038289308
1772642786958798000,6.720798095703125,-6.227836404460668,-0.5700871216207742,0.060279112134873865
1772642786968843300,6.73084326171875,-6.748820764738321,-0.8256205103084444,-0.3208528330773115
1772642786978887200,6.74088720703125,-4.784291208818555,-1.3880278910815715,-0.5478934099912643
1772642786988932000,6.75093212890625,-2.5550363652348516,-2.2058751370400187,-0.3851929110407829
1772642786998977300,6.760977294921875,-2.496848964682221,-2.6131930783882735,-0.79233841843158
1772642787009022200,6.771022216796875,-4.239185968241095,-2.6231898640066382,-1.4092232393234967
1772642787019067100,6.781067138671875,-6.228378256252408,-2.6592478503376245,-1.647604125419259
1772642787029112000,6.791112060546875,-7.761314969006181,-2.3879364622816444,-2.1149717540606856
1772642787039157200,6.8011572265625,-9.259931479007005,-1.8633726360820233,-2.828462261226773
1772642787049202200,6.8112021484375,-10.84100006224513,-1.3845607994928955,-3.44079657920748
1772642787059246000,6.82124609375,-12.170380534046888,-1.0444931244663893,-3.681038583000004
1772642787069291000,6.831291015625,-12.756928376603126,-0.9635694298401475,-3.5831980942338704
1772642787079336200,6.841336181640625,-12.440664624881745,-1.1160337814584373,-3.2469781806766984
1772642787089381000,6.851381103515625,-11.534676738655566,-1.1427066843286156,-3.1399431625857948
1772642787099426300,6.86142626953125,-10.594693059325218,-1.3125633386440574,-3.0456472145587203
1772642787109471000,6.871470947265625,-9.419221292731166,-1.4327214576803147,-2.9068551222011445
1772642787119516200,6.88151611328125,-7.950905812969803,-1.3851413758598268,-2.7107109110713004
1772642787129561000,6.89156103515625,-6.362341321018338,-1.296137835152447,-2.3117843659713864
1772642787139605000,6.90160498046875,-4.865681790304183,-1.197948532948643,-1.604794911262393
1772642787149650200,6.911650146484375,-3.6458529955893755,-1.156014786452055,-0.6885735080525278
1772642787159695000,6.921695068359375,-2.7143022135615347,-1.023223541944474,0.157464351862669
1772642787169740300,6.931740234375,-2.102387290036678,-0.8202434934452175,0.9273365253336727
1772642787179785200,6.94178515625,-1.5771195533514022,-0.6000380232483148,1.5984623472400008
1772642787189830100,6.951830078125,-1.0825637657940388,-0.4598104912601411,2.1052081926763058
1772642787199875000,6.961875,-0.6223907248318195,-0.4575868238613009,2.3263959519088266
1772642787209920300,6.971920166015625,0.01892740330994129,-0.47568011443465946,2.2466462694980205
1772642787219963600,6.981963623046875,0.8532669343858956,-0.46368046456128353,1.9651758909992874
1772642787230008600,6.992008544921875,1.5412480295032263,-0.4177694849967956,1.5847434723585843
1772642787240053500,7.002053466796875,1.874327306947112,-0.39724619079753754,1.1939552255287766
1772642787250098400,7.012098388671875,1.9615818120300768,-0.3355944751352072,0.874733354654163
1772642787260143600,7.0221435546875,2.1206921775341034,-0.17303996052667497,0.9055288904123008
1772642787270188500,7.0321884765625,2.4224551102161405,0.022527181367576123,1.218093056963384
1772642787280233700,7.042233642578125,2.888579753059149,0.20194442184120415,1.4963365823701023
1772642787290278400,7.0522783203125,3.5214901183396576,0.4065367278426885,1.525089798645675
1772642787300322600,7.062322509765625,4.189796206650137,0.5300592087455094,1.306479780946672
1772642787310367500,7.072367431640625,4.613586851632594,0.5282447066694498,0.9200953220337629
1772642787320412700,7.08241259765625,4.7145413807660335,0.49993265829011796,0.4116051171481609
1772642787330457300,7.092457275390625,4.530906814858317,0.6068045947737991,-0.1553283627472818
1772642787340502500,7.10250244140625,4.070940110123157,0.7678286849446594,-0.4887400870159268
1772642787350547500,7.11254736328125,3.5625334918677805,0.9232958716407418,-0.4688645892009139
1772642787360592600,7.122592529296875,3.295584682935476,1.1140347165957092,-0.13615019954666494
1772642787370637300,7.13263720703125,3.4464170494377613,1.3868876350052655,0.27912323085069657
1772642787380681500,7.142681396484375,3.9087808784425255,1.6356230341158806,0.599236789868027
1772642787390726700,7.1527265625,4.554454863706231,1.770968639281392,0.7934957717731594
1772642787400771600,7.162771484375,5.236702383607626,1.815069500683993,0.8478050157181918
1772642787410816500,7.17281640625,5.809128177309036,1.7794998823918402,0.5770560838505625
1772642787420861400,7.182861328125,6.174006030073762,1.6860545598447323,0.1813571224950254
1772642787430906600,7.19290673828125,6.424718574476242,1.6876609721280633,-0.21747750653773545
1772642787440951600,7.20295166015625,6.5605924412995575,1.7516468298263848,-0.48554165630079804
1772642787450995500,7.212995361328125,6.573592792648077,1.8091076696701347,-0.5536502199523151
1772642787461040400,7.223040283203125,6.556560993826389,1.9303291801542042,-0.5039289613846689
1772642787471085600,7.23308544921875,6.534286618176102,2.0402546589896082,-0.2943354130297899
1772642787481130500,7.243130615234375,6.614219986590743,2.065514772452414,-0.0708397421810776
1772642787491175400,7.253175537109375,6.805113145324587,2.0686153688162565,0.028744448447227476
1772642787501220400,7.263220458984375,6.800882375887036,2.0448323421686885,-0.08242167809903621
1772642787511265500,7.273265625,6.45797436286807,1.9283000124141574,-0.29105697588101026
1772642787521310500,7.283310546875,5.68457591496706,1.577373528112471,-0.45307745667807753
1772642787531355600,7.293355712890625,4.713893730512261,1.1063166895642875,-0.46076388299483806
1772642787541399600,7.303399658203125,4.031735642459989,0.6477262416183948,-0.39499899639263747
1772642787551444500,7.313444580078125,4.1966444651097055,0.2914396915882826,-0.3918166765620932
1772642787561489700,7.32348974609375,4.535193698397278,-0.0664794280797243,-0.5298369077643379
1772642787571534600,7.33353466796875,4.259094199281931,-0.31162410922199485,-0.7711011307440697
1772642787581579500,7.34357958984375,2.9917712474644182,-0.4045940693423152,-0.8493548755086958
1772642787591624400,7.35362451171875,1.2590011136740444,-0.2977101501598954,-0.8200675523564219
1772642787601669600,7.363669677734375,-0.26957974195778367,0.11504968998134135,-0.8760325276192277
1772642787611713500,7.373713623046875,-1.1964379822552202,0.31326252407878635,-0.7745610619395971
1772642787621758500,7.383758544921875,-1.1197516329377888,0.03962824603319168,-0.6254840877372772
1772642787631803400,7.393803466796875,-0.45738253346085544,-0.282568987390399,-0.5858668014895171
1772642787641848600,7.4038486328125,0.19638181927800177,-0.24022446813583373,-0.8707235344909131
1772642787651893500,7.4138935546875,0.23105156612098215,-0.2541831431224942,-1.2762111916720866
1772642787661938400,7.4239384765625,-0.666545508378744,-0.3264350171238184,-1.6329384712070225
1772642787671983400,7.4339833984375,-2.236487132924795,-0.3038137277320027,-1.7462739046163855
1772642787682028500,7.444028564453125,-4.0020992136091,-0.13145721942484379,-1.5980783163584769
1772642787692072700,7.45407275390625,-5.292224948865175,-0.009440320779383182,-0.926009587578848
1772642787702117400,7.464117431640625,-5.906733980536461,-0.025685937659442423,0.21412730106068772
1772642787712162600,7.47416259765625,-5.930231175979972,-0.20164748472124336,1.1762503497511148
1772642787722207500,7.48420751953125,-5.562978995299339,-0.7198169337086379,1.8038436116620897
1772642787732252700,7.494252685546875,-5.256301402568817,-1.1767128526963293,2.198321945181489
1772642787742297600,7.504297607421875,-5.220884636750817,-1.52434847875908,2.147153483480215
1772642787752342500,7.514342529296875,-5.695177388480305,-1.7846195634931326,1.5914046838134526
1772642787762387500,7.524387451171875,-6.812918850639462,-1.8890670493088662,0.9196401986774057
1772642787772431600,7.534431640625,-8.03934923557639,-1.7579140735276042,0.4578119378540665
1772642787782476500,7.5444765625,-8.970731090778111,-1.5055062695145607,0.11953206869293935
1772642787792521500,7.554521484375,-9.16172829440832,-1.2959192239657045,-0.07121158943446353
1772642787802566700,7.564566650390625,-8.605763806164264,-1.08150782700032,0.07164908580258489
1772642787812611600,7.574611572265625,-7.363850605413317,-1.0373100810945033,0.6098593792345375
1772642787822656500,7.584656494140625,-5.96967880474925,-1.1240401239119469,1.067396518735215
1772642787832701400,7.594701416015625,-4.798879121619462,-1.2565128039896487,1.0452692234054206
1772642787842746600,7.60474658203125,-3.9376434003114698,-1.4700339741170405,0.6638207595899701
1772642787852790500,7.61479052734375,-3.352732219046354,-1.7503871851541102,0.15896492915134877
1772642787862835700,7.624835693359375,-3.0722026285290718,-1.9112639758087693,-0.370723583118245
1772642787872880400,7.63488037109375,-2.9607600231289863,-1.97733526147902,-0.6262580677844584
1772642787882925600,7.644925537109375,-2.8608611405283213,-1.894807931048423,-0.6363512995146214
1772642787892970500,7.654970458984375,-2.6824112837821246,-1.6554150914311407,-0.480778022095561
1772642787903015700,7.665015625,-2.4592682988286017,-1.2046144205786287,-0.24408896154426038
1772642787913060400,7.675060302734375,-2.0738030005872248,-0.6746360219843686,0.010457608063146471
1772642787923105500,7.68510546875,-1.45431325789392,-0.13723098052069543,0.172448716635257
1772642787933149700,7.695149658203125,-0.7412631879717111,0.2909345185451209,0.35224143935777247
1772642787943194600,7.705194580078125,-0.11590250741839409,0.5128796720162033,0.519908328543976
1772642787953239600,7.715239501953125,0.3806798175305128,0.6158943485498428,0.604058291740343
1772642787963284500,7.725284423828125,0.7534855406850576,0.6383791520804166,0.696516283750534
1772642787973329700,7.73532958984375,0.9786772748619318,0.5894644606553018,0.8884779484987259
1772642787983374600,7.74537451171875,1.1537760676145552,0.47735257769152517,1.0541269219912588
1772642787993419500,7.75541943359375,1.5333283424198627,0.38459640645235776,1.0263289606139063
1772642788003464400,7.76546435546875,2.285553653910756,0.339764015904814,0.881008343270421
1772642788013508600,7.775508544921875,3.0694816791325805,0.2925574435718357,0.7040211064226924
1772642788023553500,7.785553466796875,3.8046652549296613,0.22529592520371078,0.5553564393483102
1772642788033598500,7.795598388671875,4.454855256313086,0.20639511763975024,0.4666599187634885
1772642788043643400,7.805643310546875,4.988525495162606,0.2868506102323532,0.3880712429560721
1772642788053688600,7.8156884765625,5.3053825366020195,0.46532750111594795,0.38664106402248144
1772642788063733500,7.8257333984375,5.349816137090325,0.6320991950280964,0.4830627720318734
1772642788073778700,7.83577880859375,5.111331206098199,0.7450292625069618,0.6770218942075967
1772642788083823400,7.8458232421875,4.730144023567438,0.8182099417909979,0.9152560653090477
1772642788093867500,7.855867431640625,4.651147059220075,0.9763318807795643,1.0547755951583384
1772642788103912700,7.86591259765625,4.675170324364304,1.2029510174110531,1.15782841174528
1772642788113957600,7.87595751953125,4.698064877739548,1.3425062030956147,1.3186713001303374
1772642788124002600,7.88600244140625,4.951775434914231,1.4431531275846063,1.4513041392058132
1772642788134047500,7.896047607421875,5.410958880317211,1.4658913213543594,1.3614062800072133
1772642788144092700,7.9060927734375,5.768387001597881,1.4199487776078283,1.079640571823716
1772642788154137600,7.9161376953125,5.9903626963377,1.3655175147183238,0.7859647186812013
1772642788164182500,7.9261826171875,6.236465701118111,1.3509300403088331,0.600992182167992
1772642788174226400,7.936226318359375,6.498815491822362,1.3328306122556328,0.5725144948981702
1772642788184271600,7.946271728515625,6.794044054299593,1.3165892331592737,0.6031001142326742
1772642788194316500,7.956316650390625,6.938438496708869,1.3190563539251685,0.5953749998733401
1772642788204361500,7.966361572265625,6.849729701164365,1.3637234709084034,0.4960195764996111
1772642788214407200,7.9764072265625,6.479539713466167,1.4620669407606124,0.3728404291417449
1772642788224452400,7.986452392578125,5.769342694887518,1.584319840119034,0.3876178001001477
1772642788234497000,7.9964970703125,5.087739318108558,1.5876342253640292,0.4766164454367012
1772642788244542200,8.006542236328125,4.522606019502878,1.3702034805774688,0.6459176578264683
1772642788254586000,8.016586181640625,3.9461937865138053,0.9614519992947578,0.8906696133241057
1772642788264631300,8.02663134765625,3.3414106145650146,0.391197996674478,0.9631416328821331
1772642788274676000,8.036676025390625,2.888672692039609,-0.16685644958615303,0.8199342083003371
1772642788284721200,8.04672119140625,2.671478970879316,-0.6866153597220778,0.7003624377846718
1772642788294766000,8.05676611328125,2.2261434335649013,-1.651589687924087,0.8409235125761478
1772642788304811300,8.066811279296875,2.3968659109294412,-2.564511757327616,0.8404880437683313
1772642788314856000,8.07685595703125,2.1415572709083555,-2.186106752861291,0.057536023971810936
1772642788324901000,8.086901123046875,0.4024918363660574,-1.3598326009497046,-0.38326274669580157
1772642788334945300,8.0969453125,-1.3347545660555362,-1.0761290565714239,0.06513199552614242
1772642788344990200,8.106990234375,-2.723642873358726,-0.5046024036668241,0.33898422717135396
1772642788355035100,8.11703515625,-4.090481845939159,0.2697568520903587,0.6332207464039326
1772642788365080000,8.127080078125,-4.730570724546909,0.4902412853591144,1.3261375443577765
1772642788375125200,8.137125244140625,-4.705846033135056,0.2505954938940704,1.9508704484015702
1772642788385170200,8.147170166015625,-4.273107527065277,-0.15750336869880557,2.187648283214867
1772642788395215400,8.15721533203125,-3.699328565189242,-0.34965120366886254,1.8209018600992857
1772642788405259000,8.167259033203125,-3.116106067663431,-0.1661035853922367,0.8973021832063793
1772642788415304200,8.17730419921875,-2.6972493719518185,-0.023110826474428175,0.12794468125924469
1772642788425349000,8.18734912109375,-2.5103484977245327,-0.10727496432662009,0.052607189267501235
1772642788435394000,8.19739404296875,-2.690294145986438,-0.24671061528474092,0.16540698143020272
1772642788445439000,8.20743896484375,-3.055802697870135,-0.186547238484025,0.0691783117748797
1772642788455484200,8.217484130859376,-3.4488977603375908,-0.13720949934124946,0.1803248568378389
