time,seconds_elapsed,z,y,x
1772642780288996000,0.05099609375,-1.0386505126953125,0.0689544677734375,-0.004241943359375
1772642780299041300,0.061041259765625,-1.0290985107421875,0.0569610595703125,-0.0027923583984375
1772642780309086200,0.071086181640625,-1.0159759521484375,0.0475311279296875,-0.0048828125
1772642780319131400,0.08113134765625,-0.9994049072265625,0.038055419921875,-0.0131378173828125
1772642780329176000,0.091176025390625,-0.9678955078125,0.03814697265625,-0.011962890625
1772642780339221200,0.10122119140625,-0.9608001708984375,0.0302886962890625,-0.00238037109375
1772642780349266200,0.11126611328125,-0.954681396484375,0.0004425048828125,-0.0100860595703125
1772642780359311400,0.121311279296875,-0.9191131591796875,0.0046844482421875,-0.021270751953125
1772642780369356300,0.131356201171875,-0.897369384765625,0.012542724609375,-0.0109405517578125
1772642780379400200,0.141400146484375,-0.8794403076171875,0.016143798828125,0.0199432373046875
1772642780389445400,0.1514453125,-0.884796142578125,0.000030517578125,0.0382232666015625
1772642780399490300,0.161490234375,-0.870941162109375,-0.00701904296875,0.034210205078125
1772642780409535200,0.17153515625,-0.851654052734375,-0.005035400390625,0.0272674560546875
1772642780419580200,0.181580078125,-0.84271240234375,-0.01116943359375,0.027618408203125
1772642780429625300,0.191625244140625,-0.8345184326171875,-0.0130462646484375,0.0290069580078125
1772642780439670300,0.201670166015625,-0.834228515625,-0.0119781494140625,0.0279388427734375
1772642780449715500,0.211715576171875,-0.8366851806640625,-0.01141357421875,0.028167724609375
1772642780459760000,0.221760009765625,-0.8367156982421875,-0.0098419189453125,0.0270233154296875
1772642780469804300,0.23180419921875,-0.84100341796875,-0.01458740234375,0.0325469970703125
1772642780479849200,0.24184912109375,-0.843902587890625,-0.01934814453125,0.03961181640625
1772642780489894400,0.251894287109375,-0.84832763671875,-0.0226287841796875,0.0377197265625
1772642780499939300,0.261939208984375,-0.8486480712890625,-0.02178955078125,0.0308990478515625
1772642780509984300,0.271984375,-0.8439178466796875,-0.025115966796875,0.019073486328125
1772642780520029200,0.282029296875,-0.83416748046875,-0.028839111328125,0.00030517578125
1772642780530074400,0.292074462890625,-0.82073974609375,-0.02471923828125,-0.0159149169921875
1772642780540119300,0.302119384765625,-0.802337646484375,-0.0168304443359375,-0.0208892822265625
1772642780550163200,0.3121630859375,-0.779815673828125,-0.0090179443359375,-0.024566650390625
1772642780560208400,0.32220849609375,-0.76251220703125,-0.0019683837890625,-0.0238189697265625
1772642780570253300,0.33225341796875,-0.7557373046875,0.001861572265625,-0.016143798828125
1772642780580298200,0.34229833984375,-0.7461090087890625,0.007171630859375,-0.0112152099609375
1772642780590343200,0.35234326171875,-0.738922119140625,0.0207672119140625,-0.009735107421875
1772642780600388400,0.362388427734375,-0.758026123046875,0.0363922119140625,0.0013885498046875
1772642780610433300,0.372433349609375,-0.789398193359375,0.03985595703125,0.026031494140625
1772642780620478500,0.382478515625,-0.81121826171875,0.03778076171875,0.05120849609375
1772642780630523100,0.392523193359375,-0.8314056396484375,0.0216217041015625,0.0749053955078125
1772642780640567300,0.4025673828125,-0.8423004150390625,-0.0118560791015625,0.0956268310546875
1772642780650612500,0.412612548828125,-0.8355865478515625,-0.030670166015625,0.0866546630859375
1772642780660657200,0.4226572265625,-0.8421173095703125,-0.0299835205078125,0.0462799072265625
1772642780670702300,0.432702392578125,-0.902069091796875,-0.0190277099609375,-0.0009002685546875
1772642780680747300,0.442747314453125,-1.0084075927734375,0.000457763671875,-0.0391082763671875
1772642780690792400,0.45279248046875,-1.1147918701171875,0.0343780517578125,-0.069000244140625
1772642780700837400,0.46283740234375,-1.2255859375,0.061126708984375,-0.08135986328125
1772642780710882300,0.47288232421875,-1.3248443603515625,0.0638427734375,-0.0787811279296875
1772642780720927200,0.48292724609375,-1.3826446533203125,0.050933837890625,-0.0782928466796875
1772642780730971400,0.492971435546875,-1.4068756103515625,0.03955078125,-0.0898895263671875
1772642780741016300,0.503016357421875,-1.40435791015625,0.02642822265625,-0.1024322509765625
1772642780751061200,0.513061279296875,-1.4014129638671875,0.001739501953125,-0.1021575927734375
1772642780761106200,0.523106201171875,-1.412200927734375,-0.03369140625,-0.0876922607421875
1772642780771151400,0.5331513671875,-1.446197509765625,-0.0777587890625,-0.068511962890625
1772642780781196300,0.5431962890625,-1.4826812744140625,-0.114501953125,-0.0431365966796875
1772642780791241200,0.5532412109375,-1.511932373046875,-0.1362152099609375,-0.0191650390625
1772642780801286100,0.5632861328125,-1.544097900390625,-0.1665191650390625,0.0118865966796875
1772642780811331300,0.573331298828125,-1.5784454345703125,-0.2082977294921875,0.043701171875
1772642780821375500,0.58337548828125,-1.6262054443359375,-0.2554473876953125,0.072021484375
1772642780831420200,0.593420166015625,-1.6715087890625,-0.2926025390625,0.0774078369140625
1772642780841465300,0.60346533203125,-1.717529296875,-0.311370849609375,0.0447235107421875
1772642780851510300,0.61351025390625,-1.7690582275390625,-0.31463623046875,-0.0030059814453125
1772642780861555500,0.623555419921875,-1.804718017578125,-0.3262481689453125,-0.0316925048828125
1772642780871600400,0.633600341796875,-1.803955078125,-0.333648681640625,-0.0549774169921875
1772642780881645300,0.643645263671875,-1.760589599609375,-0.3436279296875,-0.0820770263671875
1772642780891690200,0.653690185546875,-1.698944091796875,-0.367584228515625,-0.1087799072265625
1772642780901735400,0.6637353515625,-1.618804931640625,-0.3905487060546875,-0.14886474609375
1772642780911779000,0.673779052734375,-1.5248870849609375,-0.414459228515625,-0.1922454833984375
1772642780921824300,0.68382421875,-1.4369354248046875,-0.449432373046875,-0.2273712158203125
1772642780931869200,0.693869140625,-1.3643951416015625,-0.48779296875,-0.24932861328125
1772642780941914400,0.703914306640625,-1.299468994140625,-0.509979248046875,-0.26300048828125
1772642780951959300,0.713959228515625,-1.2417144775390625,-0.5116119384765625,-0.277740478515625
1772642780962004200,0.724004150390625,-1.156341552734375,-0.4775238037109375,-0.300018310546875
1772642780972049200,0.734049072265625,-0.99786376953125,-0.4049072265625,-0.3200225830078125
1772642780982094300,0.74409423828125,-0.8155517578125,-0.3292999267578125,-0.3337249755859375
1772642780992139300,0.75413916015625,-0.6773223876953125,-0.2787322998046875,-0.329620361328125
1772642781002183200,0.76418310546875,-0.585601806640625,-0.2477264404296875,-0.3231048583984375
1772642781012228400,0.774228271484375,-0.522705078125,-0.240325927734375,-0.3177490234375
1772642781022273300,0.784273193359375,-0.4845123291015625,-0.249847412109375,-0.3192291259765625
1772642781032318500,0.794318359375,-0.455718994140625,-0.25421142578125,-0.3210296630859375
1772642781042363100,0.804363037109375,-0.40985107421875,-0.231536865234375,-0.306121826171875
1772642781052408300,0.814408203125,-0.3462371826171875,-0.18548583984375,-0.261444091796875
1772642781062453200,0.824453369140625,-0.2735137939453125,-0.155059814453125,-0.23382568359375
1772642781072498400,0.83449853515625,-0.1792449951171875,-0.138916015625,-0.20306396484375
1772642781082543400,0.84454345703125,-0.0789642333984375,-0.1332855224609375,-0.1739959716796875
1772642781092587300,0.854587158203125,0.008636474609375,-0.1132354736328125,-0.1616668701171875
1772642781102632200,0.864632080078125,0.0326690673828125,-0.0864410400390625,-0.148162841796875
1772642781112677400,0.874677490234375,0.01702880859375,-0.0701141357421875,-0.1403350830078125
1772642781122722300,0.884722412109375,-0.016357421875,-0.049591064453125,-0.131134033203125
1772642781132767200,0.894767333984375,-0.0537109375,-0.026702880859375,-0.113677978515625
1772642781142812200,0.904812255859375,-0.09356689453125,-0.0041656494140625,-0.0825958251953125
1772642781152857300,0.914857421875,-0.1323699951171875,0.01763916015625,-0.04791259765625
1772642781162902300,0.92490234375,-0.1591033935546875,0.0351715087890625,-0.0229949951171875
1772642781172947200,0.934947265625,-0.1846923828125,0.0505218505859375,-0.016998291015625
1772642781182991400,0.944991455078125,-0.2153472900390625,0.0706787109375,-0.0308074951171875
1772642781193036300,0.955036376953125,-0.24591064453125,0.0931854248046875,-0.045166015625
1772642781203081500,0.96508154296875,-0.2742462158203125,0.1103515625,-0.0537261962890625
1772642781213126000,0.9751259765625,-0.30743408203125,0.116241455078125,-0.0536041259765625
1772642781223171000,0.985171142578125,-0.3424224853515625,0.1177520751953125,-0.0550079345703125
1772642781233216000,0.995216064453125,-0.39093017578125,0.1185302734375,-0.0615386962890625
1772642781243261200,1.00526123046875,-0.4402008056640625,0.12115478515625,-0.0731201171875
1772642781253306000,1.01530615234375,-0.473358154296875,0.1192779541015625,-0.084228515625
1772642781263351000,1.02535107421875,-0.5065765380859375,0.0905303955078125,-0.0828857421875
1772642781273395000,1.03539501953125,-0.5304718017578125,0.022735595703125,-0.06683349609375
1772642781283440000,1.045440185546875,-0.533233642578125,-0.06951904296875,-0.060302734375
1772642781293484800,1.05548486328125,-0.49578857421875,-0.1673126220703125,-0.0595855712890625
1772642781303530000,1.065530029296875,-0.4578857421875,-0.2534942626953125,-0.0522308349609375
1772642781313575000,1.075574951171875,-0.4673919677734375,-0.33001708984375,-0.048187255859375
1772642781323620000,1.0856201171875,-0.544403076171875,-0.400115966796875,-0.03985595703125
1772642781333665000,1.0956650390625,-0.680694580078125,-0.4874725341796875,-0.0165252685546875
1772642781343710000,1.1057099609375,-0.8040924072265625,-0.5684967041015625,-0.0182037353515625
1772642781353754000,1.115754150390625,-0.8806610107421875,-0.5903778076171875,-0.076751708984375
1772642781363799000,1.125799072265625,-0.946502685546875,-0.581695556640625,-0.1516876220703125
1772642781373844200,1.13584423828125,-1.0672760009765625,-0.5845489501953125,-0.198272705078125
1772642781383889000,1.145888916015625,-1.2312469482421875,-0.603729248046875,-0.2143402099609375
1772642781393934000,1.15593408203125,-1.4167633056640625,-0.6120147705078125,-0.2199859619140625
1772642781403979000,1.16597900390625,-1.6233062744140625,-0.67303466796875,-0.1885833740234375
1772642781414024200,1.176024169921875,-1.7682342529296875,-0.783111572265625,-0.1614990234375
1772642781424068900,1.18606884765625,-1.7960205078125,-0.79815673828125,-0.220855712890625
1772642781434114000,1.196114013671875,-1.7964019775390625,-0.7557830810546875,-0.3094482421875
1772642781444158000,1.206157958984375,-1.875335693359375,-0.7388916015625,-0.3441925048828125
1772642781454203100,1.216203125,-1.9911041259765625,-0.70025634765625,-0.3514251708984375
1772642781464248000,1.226248046875,-2.1009368896484375,-0.6484375,-0.338470458984375
1772642781474293000,1.23629296875,-2.164031982421875,-0.636444091796875,-0.3062744140625
1772642781484338000,1.246337890625,-2.1615142822265625,-0.6766204833984375,-0.2572174072265625
1772642781494383000,1.256383056640625,-2.053558349609375,-0.76495361328125,-0.24066162109375
1772642781504428000,1.266427978515625,-1.8876800537109375,-0.852386474609375,-0.2912139892578125
1772642781514473000,1.276472900390625,-1.757598876953125,-0.903961181640625,-0.3743133544921875
1772642781524517000,1.28651708984375,-1.682769775390625,-0.9256134033203125,-0.4367523193359375
1772642781534562000,1.29656201171875,-1.625335693359375,-0.927978515625,-0.45147705078125
1772642781544607000,1.30660693359375,-1.5733795166015625,-0.9264984130859375,-0.4354095458984375
1772642781554652000,1.31665185546875,-1.5055694580078125,-0.9354705810546875,-0.3975830078125
1772642781564697000,1.326697021484375,-1.4095458984375,-0.9331817626953125,-0.3593597412109375
1772642781574742000,1.336741943359375,-1.3125,-0.9084930419921875,-0.32928466796875
1772642781584787200,1.346787109375,-1.25421142578125,-0.8642120361328125,-0.2819366455078125
1772642781594832000,1.356831787109375,-1.22845458984375,-0.7990875244140625,-0.221923828125
1772642781604877000,1.366876953125,-1.216644287109375,-0.7273712158203125,-0.1639556884765625
1772642781614921200,1.376921142578125,-1.2032928466796875,-0.6565093994140625,-0.1218109130859375
1772642781624966100,1.386966064453125,-1.1908111572265625,-0.5879669189453125,-0.101654052734375
1772642781635011000,1.397010986328125,-1.1623687744140625,-0.53125,-0.0957794189453125
1772642781645056000,1.407055908203125,-1.124237060546875,-0.485748291015625,-0.076690673828125
1772642781655101200,1.41710107421875,-1.0748138427734375,-0.4517364501953125,-0.049713134765625
1772642781665146000,1.42714599609375,-1.0006866455078125,-0.416961669921875,-0.0363311767578125
1772642781675191000,1.43719091796875,-0.8977508544921875,-0.3855743408203125,-0.0459136962890625
1772642781685236000,1.447236083984375,-0.7946014404296875,-0.3609619140625,-0.0784912109375
1772642781695280000,1.457280029296875,-0.7024383544921875,-0.335479736328125,-0.1381072998046875
1772642781705325000,1.467324951171875,-0.6174468994140625,-0.306549072265625,-0.2029876708984375
1772642781715370000,1.477369873046875,-0.5394744873046875,-0.2756195068359375,-0.27435302734375
1772642781725415000,1.487414794921875,-0.48614501953125,-0.2406158447265625,-0.332672119140625
1772642781735460000,1.497460205078125,-0.453826904296875,-0.2078399658203125,-0.3758392333984375
1772642781745505000,1.507505126953125,-0.438079833984375,-0.1836395263671875,-0.4128265380859375
1772642781755550200,1.51755029296875,-0.4314117431640625,-0.1655426025390625,-0.43585205078125
1772642781765595000,1.527594970703125,-0.418701171875,-0.1346282958984375,-0.4313507080078125
1772642781775640000,1.53764013671875,-0.4140625,-0.1079864501953125,-0.3893585205078125
1772642781785685000,1.54768505859375,-0.4102325439453125,-0.0953826904296875,-0.317047119140625
1772642781795729000,1.55772900390625,-0.3942718505859375,-0.082855224609375,-0.2413177490234375
1772642781805774000,1.567774169921875,-0.3612823486328125,-0.058441162109375,-0.1831512451171875
1772642781815819000,1.577819091796875,-0.3207244873046875,-0.03802490234375,-0.14324951171875
1772642781825864200,1.5878642578125,-0.2936248779296875,-0.0334625244140625,-0.1162109375
1772642781835909000,1.5979091796875,-0.265960693359375,-0.0453948974609375,-0.094146728515625
1772642781845954000,1.6079541015625,-0.23101806640625,-0.05877685546875,-0.081329345703125
1772642781855999000,1.6179990234375,-0.1909942626953125,-0.0721282958984375,-0.073272705078125
1772642781866044200,1.628044189453125,-0.149078369140625,-0.07879638671875,-0.0614776611328125
1772642781876088000,1.638088134765625,-0.1104278564453125,-0.070770263671875,-0.0518646240234375
1772642781886133000,1.648133056640625,-0.0812225341796875,-0.0563507080078125,-0.036346435546875
1772642781896178000,1.658177978515625,-0.0596771240234375,-0.04925537109375,-0.0211334228515625
1772642781906223000,1.66822314453125,-0.0514678955078125,-0.052581787109375,-0.01800537109375
1772642781916268000,1.67826806640625,-0.049163818359375,-0.0577239990234375,-0.0181121826171875
1772642781926313000,1.68831298828125,-0.0623016357421875,-0.0586090087890625,-0.02691650390625
1772642781936358000,1.69835791015625,-0.0879058837890625,-0.053192138671875,-0.03497314453125
1772642781946403000,1.708403076171875,-0.119873046875,-0.0442962646484375,-0.0476837158203125
1772642781956447200,1.718447265625,-0.1468658447265625,-0.0234832763671875,-0.063079833984375
1772642781966492000,1.728491943359375,-0.1845550537109375,-0.0023040771484375,-0.0747528076171875
1772642781976537000,1.738537109375,-0.23828125,0.005401611328125,-0.06787109375
1772642781986582000,1.74858203125,-0.3036956787109375,0.001739501953125,-0.0532073974609375
1772642781996627200,1.758627197265625,-0.39630126953125,-0.0265960693359375,-0.0223541259765625
1772642782006672100,1.768672119140625,-0.53546142578125,-0.104095458984375,0.03131103515625
1772642782016717000,1.778717041015625,-0.6495208740234375,-0.217010498046875,0.0934600830078125
1772642782026762000,1.788761962890625,-0.6396484375,-0.314117431640625,0.1331787109375
1772642782036807200,1.79880712890625,-0.554901123046875,-0.3688201904296875,0.101898193359375
1772642782046850800,1.808850830078125,-0.5483551025390625,-0.4135284423828125,0.0247344970703125
1772642782056896000,1.81889599609375,-0.7358856201171875,-0.4994964599609375,-0.0551910400390625
1772642782066941000,1.82894091796875,-1.0167999267578125,-0.5539703369140625,-0.137237548828125
1772642782076986000,1.838986083984375,-1.306182861328125,-0.473724365234375,-0.2608642578125
1772642782087031000,1.849031005859375,-1.46966552734375,-0.2816925048828125,-0.39471435546875
1772642782097076000,1.859075927734375,-1.4456634521484375,-0.1652984619140625,-0.455810546875
1772642782107121000,1.869120849609375,-1.4410247802734375,-0.1981353759765625,-0.4380340576171875
1772642782117166000,1.879166015625,-1.60186767578125,-0.3122406005859375,-0.3565216064453125
1772642782127211000,1.8892109375,-1.699371337890625,-0.3216094970703125,-0.3419952392578125
1772642782137255000,1.8992548828125,-1.7770538330078125,-0.313934326171875,-0.309356689453125
1772642782147300000,1.909300048828125,-1.8521881103515625,-0.3614501953125,-0.2494354248046875
1772642782157345000,1.919344970703125,-1.8674468994140625,-0.4099884033203125,-0.20245361328125
1772642782167390200,1.92939013671875,-1.8310699462890625,-0.4426727294921875,-0.1538238525390625
1772642782177435000,1.939434814453125,-1.7930755615234375,-0.4812164306640625,-0.0446624755859375
1772642782187480000,1.94947998046875,-1.73614501953125,-0.565582275390625,0.0556640625
1772642782197525000,1.95952490234375,-1.676849365234375,-0.6661834716796875,0.0099945068359375
1772642782207570000,1.96956982421875,-1.6374664306640625,-0.7378692626953125,-0.17974853515625
1772642782217613800,1.97961376953125,-1.681915283203125,-0.781402587890625,-0.3811798095703125
1772642782227659000,1.989658935546875,-1.820068359375,-0.768951416015625,-0.506591796875
1772642782237703700,1.99970361328125,-1.97052001953125,-0.6614837646484375,-0.525665283203125
1772642782247748900,2.009748779296875,-2.0041656494140625,-0.540069580078125,-0.4428863525390625
1772642782257793800,2.019793701171875,-1.9827423095703125,-0.4663543701171875,-0.3501739501953125
1772642782267839000,2.0298388671875,-1.9900054931640625,-0.41455078125,-0.3250885009765625
1772642782277884000,2.0398837890625,-1.9390411376953125,-0.3787841796875,-0.326019287109375
1772642782287928800,2.0499287109375,-1.812164306640625,-0.37066650390625,-0.313629150390625
1772642782297973800,2.059973876953125,-1.6933135986328125,-0.382904052734375,-0.2916107177734375
1772642782308018000,2.070017822265625,-1.5975494384765625,-0.39459228515625,-0.2864532470703125
1772642782318063000,2.08006298828125,-1.490081787109375,-0.3978729248046875,-0.2869110107421875
1772642782328107800,2.090107666015625,-1.370849609375,-0.418182373046875,-0.275543212890625
1772642782338153000,2.100153076171875,-1.2590179443359375,-0.448760986328125,-0.2558135986328125
1772642782348198000,2.110197998046875,-1.1547088623046875,-0.4683685302734375,-0.2410125732421875
1772642782358243000,2.1202431640625,-1.061126708984375,-0.460052490234375,-0.2397003173828125
1772642782368287700,2.130287841796875,-0.979583740234375,-0.411895751953125,-0.2379913330078125
1772642782378333000,2.1403330078125,-0.9127655029296875,-0.326934814453125,-0.2284393310546875
1772642782388376800,2.150376953125,-0.8872528076171875,-0.239013671875,-0.200531005859375
1772642782398422000,2.160422119140625,-0.8870697021484375,-0.174072265625,-0.155029296875
1772642782408466700,2.170466796875,-0.8814697265625,-0.129852294921875,-0.1125335693359375
1772642782418512000,2.180511962890625,-0.8371429443359375,-0.081146240234375,-0.096343994140625
1772642782428556800,2.190556884765625,-0.776824951171875,-0.0262603759765625,-0.096282958984375
1772642782438602000,2.20060205078125,-0.717193603515625,0.01373291015625,-0.0926971435546875
1772642782448647000,2.21064697265625,-0.65325927734375,0.0258331298828125,-0.0857086181640625
1772642782458691800,2.22069189453125,-0.599822998046875,0.02850341796875,-0.0832366943359375
1772642782468736800,2.23073681640625,-0.5782012939453125,0.035675048828125,-0.083984375
1772642782478781000,2.240781005859375,-0.5870361328125,0.015838623046875,-0.0900726318359375
1772642782488825900,2.250825927734375,-0.5874176025390625,0.0012054443359375,-0.091339111328125
1772642782498870800,2.260870849609375,-0.606475830078125,-0.003936767578125,-0.10595703125
1772642782508916000,2.270916015625,-0.6199493408203125,-0.006256103515625,-0.1287994384765625
1772642782518961000,2.2809609375,-0.5581817626953125,0.0148162841796875,-0.13409423828125
1772642782529006000,2.291006103515625,-0.414093017578125,0.042816162109375,-0.1141204833984375
1772642782539050800,2.30105078125,-0.2598724365234375,0.062103271484375,-0.05853271484375
1772642782549096000,2.311095947265625,-0.129730224609375,0.05487060546875,-0.0215606689453125
1772642782559139800,2.321139892578125,-0.019866943359375,0.0333251953125,-0.0050201416015625
1772642782569185000,2.33118505859375,0.0457763671875,0.0030059814453125,0.00201416015625
1772642782579230000,2.34122998046875,0.0681915283203125,-0.037841796875,-0.0105743408203125
1772642782589275000,2.35127490234375,0.0497589111328125,-0.099456787109375,-0.0300140380859375
1772642782599319800,2.36131982421875,0.01336669921875,-0.1348114013671875,-0.08447265625
1772642782609365000,2.371364990234375,0.0056610107421875,-0.0660247802734375,-0.1449127197265625
1772642782619410000,2.381409912109375,-0.0326080322265625,-0.0594329833984375,-0.22369384765625
1772642782629454800,2.391454833984375,-0.0896759033203125,-0.0800323486328125,-0.2481842041015625
1772642782639499800,2.401499755859375,-0.1345672607421875,-0.08758544921875,-0.2426300048828125
1772642782649544000,2.4115439453125,-0.1643829345703125,-0.0804290771484375,-0.224884033203125
1772642782659588900,2.4215888671875,-0.18994140625,-0.06146240234375,-0.205535888671875
1772642782669633800,2.4316337890625,-0.21649169921875,-0.0451812744140625,-0.18701171875
1772642782679679000,2.441678955078125,-0.249847412109375,-0.0579833984375,-0.163482666015625
1772642782689724000,2.451723876953125,-0.281341552734375,-0.100250244140625,-0.1390228271484375
1772642782699769000,2.46176904296875,-0.2919158935546875,-0.149993896484375,-0.1310577392578125
1772642782709813800,2.471813720703125,-0.28570556640625,-0.204742431640625,-0.1478424072265625
1772642782719859000,2.48185888671875,-0.27362060546875,-0.270233154296875,-0.191619873046875
1772642782729903000,2.491903076171875,-0.239044189453125,-0.3197784423828125,-0.254638671875
1772642782739947800,2.50194775390625,-0.2075958251953125,-0.3218231201171875,-0.3249359130859375
1772642782749993000,2.511992919921875,-0.295806884765625,-0.3310699462890625,-0.38531494140625
1772642782760038000,2.522037841796875,-0.5111541748046875,-0.3962860107421875,-0.41925048828125
1772642782770083000,2.5320830078125,-0.734893798828125,-0.445526123046875,-0.443634033203125
1772642782780128000,2.5421279296875,-0.9300384521484375,-0.4203338623046875,-0.4727020263671875
1772642782790173000,2.5521728515625,-1.073486328125,-0.3492279052734375,-0.5277862548828125
1772642782800217900,2.5622177734375,-1.079498291015625,-0.3333587646484375,-0.5956878662109375
1772642782810263000,2.572262939453125,-1.144561767578125,-0.399932861328125,-0.621795654296875
1772642782820307000,2.582306884765625,-1.3659210205078125,-0.479156494140625,-0.669647216796875
1772642782830352000,2.592351806640625,-1.54718017578125,-0.4953460693359375,-0.7361602783203125
1772642782840396800,2.602396728515625,-1.772857666015625,-0.46356201171875,-0.7327117919921875
1772642782850442000,2.61244189453125,-2.0637054443359375,-0.422088623046875,-0.6690521240234375
1772642782860487000,2.62248681640625,-2.350921630859375,-0.394622802734375,-0.5766448974609375
1772642782870531800,2.63253173828125,-2.59442138671875,-0.396484375,-0.51116943359375
1772642782880576800,2.64257666015625,-2.7149810791015625,-0.4052581787109375,-0.50762939453125
1772642782890622000,2.6526220703125,-2.6962738037109375,-0.3929901123046875,-0.5644378662109375
1772642782900666000,2.662666015625,-2.603179931640625,-0.3540191650390625,-0.64764404296875
1772642782910710800,2.672710693359375,-2.5260162353515625,-0.31488037109375,-0.691436767578125
1772642782920756000,2.682755859375,-2.46142578125,-0.300384521484375,-0.689056396484375
1772642782930801000,2.69280078125,-2.4057464599609375,-0.30169677734375,-0.66015625
1772642782940846000,2.70284619140625,-2.3343048095703125,-0.3086090087890625,-0.6063385009765625
1772642782950891000,2.71289111328125,-2.2034912109375,-0.3214111328125,-0.5441131591796875
1772642782960936000,2.72293603515625,-2.02447509765625,-0.352752685546875,-0.4948272705078125
1772642782970980900,2.73298095703125,-1.8333587646484375,-0.399932861328125,-0.4684906005859375
1772642782981026000,2.743026123046875,-1.6711883544921875,-0.4515228271484375,-0.4586944580078125
1772642782991069700,2.753069580078125,-1.5611572265625,-0.5160980224609375,-0.4597015380859375
1772642783001115000,2.763114990234375,-1.4686126708984375,-0.5862579345703125,-0.4525604248046875
1772642783011159800,2.773159912109375,-1.3280487060546875,-0.62664794921875,-0.441131591796875
1772642783021205000,2.783205078125,-1.131072998046875,-0.612457275390625,-0.4109649658203125
1772642783031250000,2.79325,-0.9411468505859375,-0.54443359375,-0.3456878662109375
1772642783041294800,2.803294921875,-0.8030853271484375,-0.42742919921875,-0.2490081787109375
1772642783051339800,2.81333984375,-0.7344512939453125,-0.286285400390625,-0.1211395263671875
1772642783061385000,2.823385009765625,-0.7188262939453125,-0.1629638671875,0.0104522705078125
1772642783071430000,2.833429931640625,-0.726165771484375,-0.0939178466796875,0.11376953125
1772642783081473800,2.843473876953125,-0.7396087646484375,-0.085540771484375,0.153228759765625
1772642783091519000,2.85351904296875,-0.7163848876953125,-0.0853424072265625,0.1282806396484375
1772642783101564000,2.86356396484375,-0.6461334228515625,-0.0797271728515625,0.0645294189453125
1772642783111609000,2.873609130859375,-0.5559844970703125,-0.07177734375,-0.01397705078125
1772642783121653800,2.88365380859375,-0.4798583984375,-0.0547943115234375,-0.100921630859375
1772642783131699000,2.893698974609375,-0.421844482421875,-0.0374755859375,-0.1684417724609375
1772642783141743900,2.903743896484375,-0.3607940673828125,-0.0266265869140625,-0.210418701171875
1772642783151789000,2.9137890625,-0.28094482421875,-0.0153656005859375,-0.2154693603515625
1772642783161832700,2.923832763671875,-0.185882568359375,-0.00579833984375,-0.1887359619140625
1772642783171878000,2.9338779296875,-0.08612060546875,-0.0027923583984375,-0.138671875
1772642783181922800,2.9439228515625,-0.004547119140625,-0.005126953125,-0.07989501953125
1772642783191968000,2.953968017578125,0.064544677734375,-0.0011138916015625,-0.0267333984375
1772642783202013000,2.964012939453125,0.11859130859375,0.00494384765625,0.003173828125
1772642783212058400,2.974058349609375,0.1206512451171875,-0.0539093017578125,-0.042999267578125
1772642783222103300,2.984103271484375,0.11572265625,-0.0645294189453125,-0.12249755859375
1772642783232148500,2.9941484375,0.1229095458984375,0.045501708984375,-0.086151123046875
1772642783242193200,3.004193115234375,0.139404296875,0.089447021484375,-0.0966033935546875
1772642783252237300,3.0142373046875,0.1237945556640625,0.090423583984375,-0.088226318359375
1772642783262282500,3.024282470703125,0.053436279296875,0.0640716552734375,-0.041900634765625
1772642783272327400,3.034327392578125,0.00067138671875,0.039520263671875,-0.01702880859375
1772642783282372400,3.044372314453125,-0.05767822265625,0.0623931884765625,0.004364013671875
1772642783292417300,3.054417236328125,-0.1045379638671875,0.091552734375,-0.001678466796875
1772642783302462500,3.06446240234375,-0.1455230712890625,0.1086578369140625,-0.012298583984375
1772642783312507400,3.07450732421875,-0.1829986572265625,0.11572265625,-0.0233612060546875
1772642783322552300,3.08455224609375,-0.2288970947265625,0.10821533203125,-0.02789306640625
1772642783332596200,3.09459619140625,-0.2989501953125,0.07122802734375,-0.0258636474609375
1772642783342641400,3.104641357421875,-0.3669891357421875,-0.009368896484375,-0.0080718994140625
1772642783352686300,3.114686279296875,-0.3873138427734375,-0.1072235107421875,0.00994873046875
1772642783362731300,3.124731201171875,-0.3363800048828125,-0.19091796875,0.0330963134765625
1772642783372776200,3.134776123046875,-0.2516326904296875,-0.2618255615234375,0.0484771728515625
1772642783382821400,3.1448212890625,-0.226348876953125,-0.35015869140625,0.039215087890625
1772642783392866300,3.1548662109375,-0.29840087890625,-0.4477691650390625,0.014617919921875
1772642783402911500,3.164911376953125,-0.4546661376953125,-0.542022705078125,-0.010650634765625
1772642783412956200,3.1749560546875,-0.6286468505859375,-0.61248779296875,-0.027862548828125
1772642783423000300,3.185000244140625,-0.7503509521484375,-0.6357421875,-0.04412841796875
1772642783433045500,3.19504541015625,-0.7809906005859375,-0.62548828125,-0.08660888671875
1772642783443090400,3.20509033203125,-0.7670440673828125,-0.6257781982421875,-0.140289306640625
1772642783453135400,3.21513525390625,-0.7613525390625,-0.672515869140625,-0.2094573974609375
1772642783463180300,3.22518017578125,-0.855224609375,-0.776153564453125,-0.2599639892578125
1772642783473225500,3.2352255859375,-1.12530517578125,-0.853790283203125,-0.2917633056640625
1772642783483270400,3.2452705078125,-1.44256591796875,-0.79461669921875,-0.3521881103515625
1772642783493315300,3.2553154296875,-1.7433624267578125,-0.69989013671875,-0.3930511474609375
1772642783503359200,3.265359130859375,-1.9791412353515625,-0.6383209228515625,-0.408905029296875
1772642783513404400,3.275404296875,-2.115936279296875,-0.5824432373046875,-0.390228271484375
1772642783523449300,3.285449462890625,-2.191619873046875,-0.5253448486328125,-0.334259033203125
1772642783533494300,3.295494384765625,-2.2522735595703125,-0.5040435791015625,-0.21954345703125
1772642783543539200,3.305539306640625,-2.2853851318359375,-0.5505523681640625,-0.1264190673828125
1772642783553584400,3.31558447265625,-2.3029632568359375,-0.6063690185546875,-0.167755126953125
1772642783563629300,3.32562939453125,-2.3491058349609375,-0.614349365234375,-0.335418701171875
1772642783573674500,3.335674560546875,-2.4210968017578125,-0.6024169921875,-0.511260986328125
1772642783583719200,3.34571923828125,-2.483917236328125,-0.5619354248046875,-0.6119384765625
1772642783593763300,3.355763427734375,-2.459991455078125,-0.4926300048828125,-0.6152801513671875
1772642783603808500,3.36580859375,-2.3624114990234375,-0.47137451171875,-0.5264434814453125
1772642783613853200,3.375853271484375,-2.183746337890625,-0.4817047119140625,-0.4100341796875
1772642783623898400,3.3858984375,-1.9638519287109375,-0.4982147216796875,-0.3175201416015625
1772642783633943300,3.395943359375,-1.754913330078125,-0.542327880859375,-0.238861083984375
1772642783643988500,3.405988525390625,-1.5612945556640625,-0.5863189697265625,-0.189910888671875
1772642783654033400,3.416033447265625,-1.4069671630859375,-0.6128082275390625,-0.1767578125
1772642783664078300,3.426078369140625,-1.30072021484375,-0.6209716796875,-0.174652099609375
1772642783674122200,3.436122314453125,-1.226226806640625,-0.611846923828125,-0.1652374267578125
1772642783684167400,3.44616748046875,-1.176788330078125,-0.589599609375,-0.1386260986328125
1772642783694212400,3.45621240234375,-1.1332550048828125,-0.560211181640625,-0.1104583740234375
1772642783704257300,3.46625732421875,-1.080413818359375,-0.524871826171875,-0.08551025390625
1772642783714302200,3.47630224609375,-1.00933837890625,-0.475860595703125,-0.074493408203125
1772642783724347400,3.486347412109375,-0.919586181640625,-0.4070587158203125,-0.07989501953125
1772642783734392300,3.496392333984375,-0.8207550048828125,-0.3240966796875,-0.0897216796875
1772642783744437200,3.506437255859375,-0.7332611083984375,-0.242706298828125,-0.100921630859375
1772642783754481400,3.5164814453125,-0.6733245849609375,-0.17559814453125,-0.1301116943359375
1772642783764526300,3.5265263671875,-0.647796630859375,-0.112884521484375,-0.1719970703125
1772642783774571500,3.536571533203125,-0.6468353271484375,-0.05145263671875,-0.20904541015625
1772642783784616200,3.5466162109375,-0.6367950439453125,-0.0047607421875,-0.2364959716796875
1772642783794661400,3.556661376953125,-0.615875244140625,0.0237274169921875,-0.241119384765625
1772642783804706300,3.566706298828125,-0.5879058837890625,0.032623291015625,-0.22308349609375
1772642783814751500,3.57675146484375,-0.5495758056640625,0.0219879150390625,-0.18768310546875
1772642783824796400,3.58679638671875,-0.4937896728515625,0.006683349609375,-0.1401214599609375
1772642783834841300,3.59684130859375,-0.4137420654296875,-0.0039825439453125,-0.0934600830078125
1772642783844885200,3.60688525390625,-0.3309478759765625,-0.0056915283203125,-0.0508880615234375
1772642783854930400,3.616930419921875,-0.2548065185546875,-0.01092529296875,-0.0075531005859375
1772642783864975000,3.62697509765625,-0.1828155517578125,-0.0201873779296875,0.024261474609375
1772642783875020300,3.637020263671875,-0.1225128173828125,-0.03289794921875,0.04193115234375
1772642783885065200,3.647065185546875,-0.0811767578125,-0.04742431640625,0.0523529052734375
1772642783895110400,3.6571103515625,-0.051300048828125,-0.0562896728515625,0.0495452880859375
1772642783905155300,3.6671552734375,-0.023284912109375,-0.0638427734375,0.0271453857421875
1772642783915200300,3.6772001953125,-0.0051116943359375,-0.0813446044921875,-0.0166015625
1772642783925245200,3.6872451171875,0.00665283203125,-0.099700927734375,-0.0604248046875
1772642783935289300,3.697289306640625,0.0185699462890625,-0.1121978759765625,-0.0903778076171875
1772642783945334500,3.70733447265625,0.023162841796875,-0.109588623046875,-0.1016845703125
1772642783955379200,3.717379150390625,0.015594482421875,-0.1007080078125,-0.1009674072265625
1772642783965424400,3.72742431640625,0.00494384765625,-0.0910186767578125,-0.0908355712890625
1772642783975469300,3.73746923828125,-0.00396728515625,-0.082244873046875,-0.079864501953125
1772642783985514500,3.747514404296875,-0.032073974609375,-0.070404052734375,-0.071380615234375
1772642783995559200,3.75755908203125,-0.076568603515625,-0.0532379150390625,-0.0583343505859375
1772642784005604400,3.767604248046875,-0.13055419921875,-0.0383758544921875,-0.0425872802734375
1772642784015648300,3.777648193359375,-0.217498779296875,-0.0507049560546875,-0.0301971435546875
1772642784025693400,3.787693359375,-0.32220458984375,-0.1004180908203125,-0.007965087890625
1772642784035738000,3.797738037109375,-0.39898681640625,-0.1606903076171875,0.0151214599609375
1772642784045783300,3.807783203125,-0.417755126953125,-0.2216949462890625,0.0218963623046875
1772642784055828200,3.817828125,-0.42364501953125,-0.2900543212890625,0.0223236083984375
1772642784065873400,3.827873291015625,-0.444671630859375,-0.3683929443359375,0.0293731689453125
1772642784075918300,3.83791845703125,-0.5113525390625,-0.425933837890625,0.017730712890625
1772642784085963300,3.84796337890625,-0.6506805419921875,-0.4634246826171875,-0.035430908203125
1772642784096007400,3.85800732421875,-0.7865447998046875,-0.4693603515625,-0.1305389404296875
1772642784106052400,3.86805224609375,-0.8965911865234375,-0.4198455810546875,-0.253570556640625
1772642784116097300,3.87809716796875,-1.012176513671875,-0.3456268310546875,-0.36492919921875
1772642784126142200,3.88814208984375,-1.1521453857421875,-0.276580810546875,-0.44091796875
1772642784136187400,3.8981875,-1.299652099609375,-0.2747039794921875,-0.4856109619140625
1772642784146232300,3.908232421875,-1.51495361328125,-0.363006591796875,-0.4739837646484375
1772642784156277500,3.918277587890625,-1.6461029052734375,-0.4447021484375,-0.4712066650390625
1772642784166322200,3.928322265625,-1.7233734130859375,-0.456268310546875,-0.4774932861328125
1772642784176367400,3.938367431640625,-1.8644256591796875,-0.4425506591796875,-0.49420166015625
1772642784186411300,3.948411376953125,-2.1209564208984375,-0.386199951171875,-0.5051116943359375
1772642784196456400,3.95845654296875,-2.4500732421875,-0.2899627685546875,-0.477691650390625
1772642784206501000,3.968501220703125,-2.698699951171875,-0.2017364501953125,-0.3948974609375
1772642784216545800,3.9785458984375,-2.787200927734375,-0.1917877197265625,-0.325103759765625
1772642784226591000,3.988591064453125,-2.7262725830078125,-0.2403411865234375,-0.37371826171875
1772642784236636000,3.998635986328125,-2.5633087158203125,-0.32403564453125,-0.5304107666015625
1772642784246681000,4.00868115234375,-2.3967742919921875,-0.397430419921875,-0.7005462646484375
1772642784256725800,4.018725830078125,-2.2767181396484375,-0.4154205322265625,-0.824188232421875
1772642784266770000,4.02877001953125,-2.190338134765625,-0.412384033203125,-0.8342742919921875
1772642784276814800,4.03881494140625,-2.102630615234375,-0.437652587890625,-0.715362548828125
1772642784286860000,4.048860107421875,-1.971588134765625,-0.4710235595703125,-0.5641937255859375
1772642784296904700,4.05890478515625,-1.7963714599609375,-0.52471923828125,-0.4187774658203125
1772642784306950000,4.068949951171875,-1.5838775634765625,-0.5986175537109375,-0.3075103759765625
1772642784316994800,4.078994873046875,-1.377532958984375,-0.6730804443359375,-0.2527313232421875
1772642784327040000,4.0890400390625,-1.2145843505859375,-0.7064666748046875,-0.252166748046875
1772642784337085000,4.0990849609375,-1.11212158203125,-0.6754913330078125,-0.2874298095703125
1772642784347128800,4.10912890625,-1.047271728515625,-0.58154296875,-0.330657958984375
1772642784357174000,4.119174072265625,-0.9941558837890625,-0.4511871337890625,-0.3478851318359375
1772642784367219000,4.129218994140625,-0.9421234130859375,-0.3206024169921875,-0.329345703125
1772642784377264000,4.13926416015625,-0.9065399169921875,-0.19610595703125,-0.2870635986328125
1772642784387308800,4.149308837890625,-0.882598876953125,-0.0897064208984375,-0.2371978759765625
1772642784397354000,4.15935400390625,-0.8433074951171875,-0.014862060546875,-0.200225830078125
1772642784407399000,4.16939892578125,-0.8017425537109375,0.0335693359375,-0.18084716796875
1772642784417444000,4.179444091796875,-0.7539825439453125,0.06146240234375,-0.179931640625
1772642784427488800,4.18948876953125,-0.6990966796875,0.0649871826171875,-0.1883392333984375
1772642784437533000,4.199532958984375,-0.650421142578125,0.048980712890625,-0.1931304931640625
1772642784447577900,4.209577880859375,-0.6113128662109375,0.0149078369140625,-0.1848602294921875
1772642784457623000,4.219623046875,-0.588775634765625,-0.021453857421875,-0.1665191650390625
1772642784467667700,4.229667724609375,-0.5638885498046875,-0.0510711669921875,-0.1446380615234375
1772642784477713000,4.239712890625,-0.5108642578125,-0.06719970703125,-0.1368255615234375
1772642784487757800,4.2497578125,-0.4549102783203125,-0.0833740234375,-0.13336181640625
1772642784497803000,4.259802978515625,-0.416259765625,-0.111846923828125,-0.13116455078125
1772642784507848000,4.269847900390625,-0.3612060546875,-0.121246337890625,-0.1249847412109375
1772642784517891800,4.279891845703125,-0.30303955078125,-0.1189727783203125,-0.1054229736328125
1772642784527937000,4.28993701171875,-0.25091552734375,-0.1172637939453125,-0.0797882080078125
1772642784537982000,4.29998193359375,-0.2038116455078125,-0.1133575439453125,-0.0475311279296875
1772642784548027000,4.31002685546875,-0.1649322509765625,-0.1029510498046875,-0.0175323486328125
1772642784558071800,4.32007177734375,-0.1300811767578125,-0.08294677734375,0.005035400390625
1772642784568117000,4.330116943359375,-0.094451904296875,-0.0609893798828125,0.017547607421875
1772642784578162000,4.340161865234375,-0.0708160400390625,-0.043670654296875,0.02008056640625
1772642784588207000,4.35020703125,-0.054046630859375,-0.02777099609375,0.0126495361328125
1772642784598250800,4.360250732421875,-0.044830322265625,-0.01361083984375,-0.0057373046875
1772642784608296000,4.3702958984375,-0.0637969970703125,-0.001373291015625,-0.0266876220703125
1772642784618340900,4.3803408203125,-0.1065826416015625,0.0066375732421875,-0.041290283203125
1772642784628386000,4.390385986328125,-0.1535491943359375,0.0218963623046875,-0.0455780029296875
1772642784638430700,4.4004306640625,-0.199127197265625,0.0470123291015625,-0.0445709228515625
1772642784648476000,4.410475830078125,-0.23388671875,0.079132080078125,-0.045196533203125
1772642784658520800,4.420520751953125,-0.2620849609375,0.1104278564453125,-0.0531005859375
1772642784668566000,4.43056591796875,-0.287689208984375,0.145599365234375,-0.066375732421875
1772642784678610000,4.44060986328125,-0.3054046630859375,0.1780853271484375,-0.0577239990234375
1772642784688654800,4.45065478515625,-0.3620147705078125,0.1727142333984375,-0.0133209228515625
1772642784698700000,4.460699951171875,-0.432373046875,0.1324462890625,0.03839111328125
1772642784708745000,4.470744873046875,-0.480743408203125,0.08990478515625,0.06036376953125
1772642784718790000,4.480789794921875,-0.5061798095703125,0.032470703125,0.05157470703125
1772642784728834800,4.490834716796875,-0.5333251953125,-0.057342529296875,0.0383758544921875
1772642784738880000,4.5008798828125,-0.5680999755859375,-0.14422607421875,0.0223846435546875
1772642784748925000,4.510925048828125,-0.6018829345703125,-0.1973419189453125,-0.0240020751953125
1772642784758970000,4.52097021484375,-0.6804351806640625,-0.2214508056640625,-0.0831451416015625
1772642784769013800,4.531013671875,-0.8692626953125,-0.2313385009765625,-0.126800537109375
1772642784779059000,4.541058837890625,-1.1321563720703125,-0.2128143310546875,-0.1667633056640625
1772642784789103900,4.551103759765625,-1.4180450439453125,-0.1360015869140625,-0.220703125
1772642784799148800,4.561148681640625,-1.65625,-0.0385589599609375,-0.2776641845703125
1772642784809193700,4.57119384765625,-1.7885589599609375,0.0048675537109375,-0.3020172119140625
1772642784819239000,4.581239013671875,-1.8777618408203125,-0.0424346923828125,-0.2663726806640625
1772642784829283800,4.591283935546875,-1.9131317138671875,-0.143096923828125,-0.212615966796875
1772642784839329000,4.6013291015625,-1.8871612548828125,-0.2150726318359375,-0.2047882080078125
1772642784849373000,4.611373046875,-1.8598785400390625,-0.2349090576171875,-0.2573699951171875
1772642784859417900,4.62141796875,-1.871307373046875,-0.24102783203125,-0.3177032470703125
1772642784869463000,4.631463134765625,-1.9622955322265625,-0.2439117431640625,-0.3584136962890625
1772642784879508000,4.641508056640625,-2.0981903076171875,-0.2013092041015625,-0.371368408203125
1772642784889553000,4.651552978515625,-2.248565673828125,-0.133514404296875,-0.3146514892578125
1772642784899597800,4.661597900390625,-2.42138671875,-0.1252899169921875,-0.1991119384765625
1772642784909643000,4.67164306640625,-2.491668701171875,-0.1529693603515625,-0.1937103271484375
1772642784919688000,4.68168798828125,-2.4503326416015625,-0.1800537109375,-0.3073272705078125
1772642784929732900,4.69173291015625,-2.2984619140625,-0.203704833984375,-0.43597412109375
1772642784939777000,4.701777099609375,-2.154815673828125,-0.2373046875,-0.4954833984375
1772642784949822000,4.711822021484375,-2.03997802734375,-0.2304534912109375,-0.5145263671875
1772642784959867000,4.721866943359375,-1.905853271484375,-0.1883087158203125,-0.5106658935546875
1772642784969911800,4.731911865234375,-1.7758331298828125,-0.1686553955078125,-0.4685211181640625
1772642784979957000,4.74195703125,-1.668212890625,-0.1817779541015625,-0.3961944580078125
1772642784990002000,4.752001953125,-1.55426025390625,-0.1886138916015625,-0.3276214599609375
1772642785000046800,4.762046875,-1.4206085205078125,-0.200714111328125,-0.26190185546875
1772642785010092000,4.772092041015625,-1.273162841796875,-0.24005126953125,-0.1905059814453125
1772642785020136000,4.782135986328125,-1.102264404296875,-0.27130126953125,-0.1351470947265625
1772642785030180900,4.792180908203125,-0.9470977783203125,-0.2947540283203125,-0.09844970703125
1772642785040226000,4.80222607421875,-0.83575439453125,-0.3107757568359375,-0.0836944580078125
1772642785050270700,4.812270751953125,-0.7738800048828125,-0.30096435546875,-0.0980377197265625
1772642785060316000,4.82231591796875,-0.7541351318359375,-0.2650299072265625,-0.1340789794921875
1772642785070360800,4.83236083984375,-0.7588653564453125,-0.223541259765625,-0.1880645751953125
1772642785080406000,4.842406005859375,-0.7501068115234375,-0.1716766357421875,-0.2785491943359375
1772642785090451000,4.852450927734375,-0.72259521484375,-0.1101226806640625,-0.3746795654296875
1772642785100494800,4.862494873046875,-0.6832122802734375,-0.05352783203125,-0.454315185546875
1772642785110540000,4.8725400390625,-0.625946044921875,0.0002288818359375,-0.50042724609375
1772642785120585000,4.8825849609375,-0.5692138671875,0.0495452880859375,-0.5050506591796875
1772642785130630100,4.892630126953125,-0.5199127197265625,0.083648681640625,-0.4792327880859375
1772642785140674800,4.9026748046875,-0.491302490234375,0.103302001953125,-0.43560791015625
1772642785150720000,4.912719970703125,-0.489501953125,0.1083526611328125,-0.3741912841796875
1772642785160765000,4.922764892578125,-0.5438385009765625,0.0823211669921875,-0.292755126953125
1772642785170810000,4.93281005859375,-0.6328277587890625,0.0484619140625,-0.2171173095703125
1772642785180853800,4.942853759765625,-0.7030029296875,0.0319366455078125,-0.159576416015625
1772642785190899000,4.95289892578125,-0.759002685546875,0.0155029296875,-0.1134490966796875
1772642785200943900,4.96294384765625,-0.765289306640625,-0.0015716552734375,-0.073394775390625
1772642785210989600,4.972989501953125,-0.690185546875,-0.0092315673828125,-0.0389404296875
1772642785221034500,4.983034423828125,-0.5803375244140625,-0.015869140625,-0.01141357421875
1772642785231079700,4.99307958984375,-0.459075927734375,-0.027984619140625,0.0067291259765625
1772642785241124600,5.00312451171875,-0.33319091796875,-0.0438079833984375,0.02301025390625
1772642785251169500,5.01316943359375,-0.2293853759765625,-0.0548553466796875,0.030609130859375
1772642785261213400,5.02321337890625,-0.1561431884765625,-0.0640411376953125,0.018829345703125
1772642785271258600,5.033258544921875,-0.102081298828125,-0.072784423828125,-0.0107574462890625
1772642785281303600,5.043303466796875,-0.0508270263671875,-0.0706634521484375,-0.057708740234375
1772642785291348500,5.053348388671875,-0.0128936767578125,-0.0666656494140625,-0.10736083984375
1772642785301393400,5.063393310546875,0.0172882080078125,-0.0487213134765625,-0.15301513671875
1772642785311438600,5.0734384765625,0.038848876953125,-0.0244293212890625,-0.1907196044921875
1772642785321483500,5.0834833984375,0.0408935546875,-0.004241943359375,-0.2188262939453125
1772642785331528400,5.093528564453125,0.019439697265625,0.0056610107421875,-0.2297515869140625
1772642785341573400,5.103573486328125,-0.0297393798828125,0.0112457275390625,-0.2286224365234375
1772642785351617500,5.113617431640625,-0.114349365234375,0.0069427490234375,-0.217559814453125
1772642785361662700,5.123662841796875,-0.2246551513671875,-0.021209716796875,-0.1840972900390625
1772642785371707400,5.133707275390625,-0.3037872314453125,-0.0733489990234375,-0.1457061767578125
1772642785381752600,5.143752685546875,-0.34912109375,-0.13555908203125,-0.1216888427734375
1772642785391797500,5.153797607421875,-0.35052490234375,-0.1833343505859375,-0.108489990234375
1772642785401842700,5.1638427734375,-0.321380615234375,-0.1908416748046875,-0.101837158203125
1772642785411887600,5.1738876953125,-0.300506591796875,-0.16656494140625,-0.11724853515625
1772642785421932500,5.1839326171875,-0.329620361328125,-0.13458251953125,-0.162322998046875
1772642785431976400,5.1939765625,-0.4227752685546875,-0.139984130859375,-0.2186737060546875
1772642785442021600,5.204021728515625,-0.538421630859375,-0.1338958740234375,-0.2949371337890625
1772642785452066300,5.21406640625,-0.6665496826171875,-0.0953369140625,-0.352752685546875
1772642785462111500,5.224111572265625,-0.821014404296875,-0.065887451171875,-0.339752197265625
1772642785472156400,5.234156494140625,-0.9864044189453125,-0.0848236083984375,-0.2619476318359375
1772642785482201600,5.24420166015625,-1.1102447509765625,-0.0966796875,-0.1928558349609375
1772642785492246500,5.25424658203125,-1.14447021484375,-0.045684814453125,-0.2009735107421875
1772642785502291500,5.26429150390625,-1.1624755859375,0.0129241943359375,-0.2613067626953125
1772642785512335600,5.274335693359375,-1.2417449951171875,0.0479888916015625,-0.330963134765625
1772642785522380500,5.284380615234375,-1.4008026123046875,0.0804290771484375,-0.326873779296875
1772642785532425700,5.29442578125,-1.573089599609375,0.146148681640625,-0.2769775390625
1772642785542470400,5.304470458984375,-1.71826171875,0.237396240234375,-0.1874847412109375
1772642785552515600,5.314515625,-1.870025634765625,0.2511444091796875,-0.0700225830078125
1772642785562560500,5.324560546875,-2.00140380859375,0.19683837890625,0.01275634765625
1772642785572605700,5.334605712890625,-2.0648345947265625,0.1329345703125,-0.0077972412109375
1772642785582650400,5.344650390625,-2.0955352783203125,0.083099365234375,-0.1549530029296875
1772642785592694500,5.354694580078125,-2.1410064697265625,0.0263824462890625,-0.3153076171875
1772642785602739500,5.364739501953125,-2.1764373779296875,-0.0028228759765625,-0.44268798828125
1772642785612784600,5.37478466796875,-2.2017364501953125,0.008697509765625,-0.5452423095703125
1772642785622829300,5.384829345703125,-2.20892333984375,0.04937744140625,-0.6288909912109375
1772642785632874500,5.39487451171875,-2.21832275390625,0.08807373046875,-0.6762542724609375
1772642785642919400,5.40491943359375,-2.2135009765625,0.1035003662109375,-0.64642333984375
1772642785652964600,5.414964599609375,-2.134521484375,0.0952911376953125,-0.526336669921875
1772642785663009500,5.425009521484375,-2.02581787109375,0.0711517333984375,-0.401947021484375
1772642785673053400,5.435053466796875,-1.9224395751953125,0.0214385986328125,-0.3079071044921875
1772642785683098600,5.4450986328125,-1.8071136474609375,-0.0275115966796875,-0.258087158203125
1772642785693143600,5.4551435546875,-1.7210693359375,-0.06097412109375,-0.2515106201171875
1772642785703188500,5.4651884765625,-1.6682281494140625,-0.0798797607421875,-0.246307373046875
1772642785713233400,5.4752333984375,-1.63311767578125,-0.0881195068359375,-0.22760009765625
1772642785723278600,5.485278564453125,-1.5992889404296875,-0.089019775390625,-0.2013092041015625
1772642785733323500,5.495323486328125,-1.5579071044921875,-0.0770111083984375,-0.1822509765625
1772642785743368700,5.50536865234375,-1.4995880126953125,-0.04962158203125,-0.166839599609375
1772642785753412600,5.51541259765625,-1.4153289794921875,-0.0191650390625,-0.141510009765625
1772642785763457500,5.52545751953125,-1.3074188232421875,0.01129150390625,-0.09954833984375
1772642785773502500,5.53550244140625,-1.208343505859375,0.027740478515625,-0.044891357421875
1772642785783547600,5.545547607421875,-1.1095733642578125,0.0373992919921875,0.0010986328125
1772642785793592600,5.555592529296875,-0.9720001220703125,0.0727996826171875,0.0079193115234375
1772642785803637500,5.565637451171875,-0.79766845703125,0.1185455322265625,-0.0001983642578125
1772642785813682400,5.575682373046875,-0.6147003173828125,0.1605682373046875,-0.0105743408203125
1772642785823727600,5.5857275390625,-0.45458984375,0.1779937744140625,-0.0123443603515625
1772642785833772500,5.5957724609375,-0.33270263671875,0.1620941162109375,-0.0075225830078125
1772642785843816400,5.60581640625,-0.2498931884765625,0.1289215087890625,-0.018218994140625
1772642785853861600,5.615861572265625,-0.1986541748046875,0.0922088623046875,-0.056671142578125
1772642785863906600,5.625906494140625,-0.1798858642578125,0.06494140625,-0.1154937744140625
1772642785873951500,5.635951416015625,-0.1916351318359375,0.059814453125,-0.17626953125
1772642785883996400,5.645996337890625,-0.2245025634765625,0.066650390625,-0.2266998291015625
1772642785894041600,5.65604150390625,-0.2742767333984375,0.0761260986328125,-0.2574310302734375
1772642785904086500,5.66608642578125,-0.335205078125,0.078094482421875,-0.2670440673828125
1772642785914131700,5.676131591796875,-0.3978729248046875,0.072723388671875,-0.248565673828125
1772642785924175600,5.686175537109375,-0.4378204345703125,0.0597991943359375,-0.213897705078125
1772642785934220500,5.696220458984375,-0.443389892578125,0.050933837890625,-0.18487548828125
1772642785944265700,5.706265625,-0.41766357421875,0.0425567626953125,-0.1669921875
1772642785954310400,5.716310302734375,-0.358184814453125,0.027587890625,-0.1484375
1772642785964355600,5.72635546875,-0.288299560546875,-0.0020294189453125,-0.132720947265625
1772642785974400500,5.736400390625,-0.2205047607421875,-0.035003662109375,-0.1302490234375
1772642785984445700,5.74644580078125,-0.1573333740234375,-0.0645294189453125,-0.1367950439453125
1772642785994490600,5.75649072265625,-0.09918212890625,-0.0867919921875,-0.144012451171875
1772642786004534500,5.766534423828125,-0.045074462890625,-0.1032562255859375,-0.1446533203125
1772642786014579500,5.776579345703125,-0.0059661865234375,-0.113739013671875,-0.1324005126953125
1772642786024624600,5.786624755859375,-0.0006256103515625,-0.1179962158203125,-0.1065521240234375
1772642786034669600,5.796669677734375,-0.0267486572265625,-0.1234893798828125,-0.0788116455078125
1772642786044714500,5.806714599609375,-0.0781707763671875,-0.1294708251953125,-0.0638427734375
1772642786054759400,5.816759521484375,-0.1671142578125,-0.1327667236328125,-0.063629150390625
1772642786064804600,5.8268046875,-0.2800140380859375,-0.1456451416015625,-0.061065673828125
1772642786074849500,5.836849609375,-0.3860321044921875,-0.17333984375,-0.0410003662109375
1772642786084893400,5.8468935546875,-0.4772186279296875,-0.2009124755859375,-0.01593017578125
1772642786094938600,5.856938720703125,-0.561279296875,-0.203826904296875,-0.022247314453125
1772642786104983600,5.866983642578125,-0.654388427734375,-0.1981353759765625,-0.0564117431640625
1772642786115028700,5.87702880859375,-0.7535400390625,-0.20611572265625,-0.095123291015625
1772642786125073400,5.887073486328125,-0.899078369140625,-0.2176361083984375,-0.124542236328125
1772642786135118600,5.89711865234375,-1.0635986328125,-0.2314605712890625,-0.1385955810546875
1772642786145163500,5.90716357421875,-1.1624755859375,-0.23468017578125,-0.135986328125
1772642786155208700,5.917208740234375,-1.1571197509765625,-0.2220458984375,-0.131561279296875
1772642786165252400,5.92725244140625,-1.080535888671875,-0.214202880859375,-0.131500244140625
1772642786175297500,5.937297607421875,-1.0134735107421875,-0.2256011962890625,-0.121307373046875
1772642786185342500,5.947342529296875,-1.00994873046875,-0.2213897705078125,-0.1288299560546875
1772642786195387600,5.9573876953125,-1.1337432861328125,-0.19915771484375,-0.1616973876953125
1772642786205432300,5.967432373046875,-1.31646728515625,-0.1920623779296875,-0.1890411376953125
1772642786215477200,5.977477294921875,-1.4693756103515625,-0.1897735595703125,-0.2291412353515625
1772642786225522000,5.98752197265625,-1.5678558349609375,-0.16949462890625,-0.2885894775390625
1772642786235567000,5.997567138671875,-1.6091766357421875,-0.15338134765625,-0.3496856689453125
1772642786245611300,6.007611328125,-1.6244659423828125,-0.1717376708984375,-0.3877716064453125
1772642786255656200,6.01765625,-1.6427459716796875,-0.204345703125,-0.3943023681640625
1772642786265701000,6.027701171875,-1.6525726318359375,-0.2159576416015625,-0.37396240234375
1772642786275746000,6.03774609375,-1.670135498046875,-0.2050933837890625,-0.325225830078125
1772642786285791200,6.047791259765625,-1.6965179443359375,-0.1845245361328125,-0.2685394287109375
1772642786295836200,6.057836181640625,-1.7213897705078125,-0.17669677734375,-0.2165985107421875
1772642786305881300,6.06788134765625,-1.73553466796875,-0.1996917724609375,-0.18963623046875
1772642786315926000,6.077926025390625,-1.725616455078125,-0.204376220703125,-0.22515869140625
1772642786325970200,6.08797021484375,-1.7393646240234375,-0.2021484375,-0.31646728515625
1772642786336015000,6.09801513671875,-1.8117523193359375,-0.227996826171875,-0.40228271484375
1772642786346060000,6.10806005859375,-1.8855438232421875,-0.229217529296875,-0.508148193359375
1772642786356105200,6.118105224609375,-1.96038818359375,-0.2203369140625,-0.608642578125
1772642786366150100,6.128150146484375,-2.035614013671875,-0.224639892578125,-0.670684814453125
1772642786376195000,6.138195068359375,-2.0387725830078125,-0.228271484375,-0.682525634765625
1772642786386240300,6.148240234375,-1.9489288330078125,-0.2235260009765625,-0.6634979248046875
1772642786396285200,6.15828515625,-1.825836181640625,-0.2213897705078125,-0.6235504150390625
1772642786406329000,6.1683291015625,-1.7087860107421875,-0.2171478271484375,-0.563720703125
1772642786416374300,6.178374267578125,-1.597442626953125,-0.1951446533203125,-0.495758056640625
1772642786426419200,6.188419189453125,-1.49652099609375,-0.1746978759765625,-0.4268646240234375
1772642786436464000,6.198464111328125,-1.4178466796875,-0.170074462890625,-0.34759521484375
1772642786446509000,6.208509033203125,-1.35113525390625,-0.170562744140625,-0.275787353515625
1772642786456554200,6.21855419921875,-1.2939453125,-0.1750335693359375,-0.2134246826171875
1772642786466599200,6.22859912109375,-1.2573699951171875,-0.1931915283203125,-0.1586761474609375
1772642786476644000,6.23864404296875,-1.2154693603515625,-0.2278289794921875,-0.1136322021484375
1772642786486688300,6.248688232421875,-1.161376953125,-0.2758331298828125,-0.1103668212890625
1772642786496733200,6.258733154296875,-1.063323974609375,-0.3089752197265625,-0.1569976806640625
1772642786506778400,6.2687783203125,-0.9180450439453125,-0.319915771484375,-0.2228546142578125
1772642786516823000,6.278822998046875,-0.7693939208984375,-0.309326171875,-0.269989013671875
1772642786526868200,6.2888681640625,-0.642608642578125,-0.275909423828125,-0.27825927734375
1772642786536913200,6.2989130859375,-0.55029296875,-0.231536865234375,-0.254913330078125
1772642786546958300,6.308958251953125,-0.4881744384765625,-0.1765899658203125,-0.2082366943359375
1772642786557003300,6.319003173828125,-0.45703125,-0.1221923828125,-0.1605987548828125
1772642786567047200,6.329047119140625,-0.448577880859375,-0.073272705078125,-0.113922119140625
1772642786577092000,6.339092041015625,-0.4512176513671875,-0.041107177734375,-0.0804290771484375
1772642786587137300,6.34913720703125,-0.45904541015625,-0.0367431640625,-0.0704345703125
1772642786597182200,6.35918212890625,-0.4646148681640625,-0.0426177978515625,-0.0933990478515625
1772642786607227100,6.36922705078125,-0.4803009033203125,-0.055999755859375,-0.14434814453125
1772642786617272000,6.37927197265625,-0.49041748046875,-0.0696868896484375,-0.1985626220703125
1772642786627317200,6.389317138671875,-0.4832305908203125,-0.0889739990234375,-0.2317352294921875
1772642786637362200,6.399362060546875,-0.458740234375,-0.117706298828125,-0.237457275390625
1772642786647407000,6.409406982421875,-0.408233642578125,-0.134429931640625,-0.2286834716796875
1772642786657451300,6.419451171875,-0.339691162109375,-0.12872314453125,-0.20465087890625
1772642786667496200,6.42949609375,-0.264495849609375,-0.1190643310546875,-0.173431396484375
1772642786677541400,6.439541259765625,-0.1767730712890625,-0.1125030517578125,-0.13775634765625
1772642786687586000,6.4495859375,-0.09051513671875,-0.0994720458984375,-0.1041717529296875
1772642786697631200,6.45963134765625,-0.0340423583984375,-0.08746337890625,-0.08367919921875
1772642786707676200,6.46967626953125,-0.0124969482421875,-0.0827789306640625,-0.1035308837890625
1772642786717721300,6.479721435546875,-0.0258636474609375,-0.0962371826171875,-0.102813720703125
1772642786727766300,6.489766357421875,-0.0180206298828125,-0.096405029296875,-0.06109619140625
1772642786737810200,6.49981005859375,-0.0144500732421875,-0.08837890625,-0.1848297119140625
1772642786747855000,6.509855224609375,-0.0436248779296875,-0.106170654296875,-0.264892578125
1772642786757900300,6.519900390625,-0.1320343017578125,-0.1226043701171875,-0.2604827880859375
1772642786767945000,6.529945068359375,-0.2183685302734375,-0.1295318603515625,-0.25665283203125
1772642786777990100,6.539990234375,-0.2989044189453125,-0.1306304931640625,-0.26739501953125
1772642786788035000,6.55003515625,-0.3697662353515625,-0.1394195556640625,-0.2958831787109375
1772642786798080300,6.560080322265625,-0.431182861328125,-0.1540679931640625,-0.312042236328125
1772642786808125200,6.570125244140625,-0.48626708984375,-0.162017822265625,-0.296539306640625
1772642786818169000,6.580169189453125,-0.546356201171875,-0.16094970703125,-0.2714385986328125
1772642786828214300,6.59021435546875,-0.6138153076171875,-0.143890380859375,-0.2639923095703125
1772642786838259200,6.60025927734375,-0.7096099853515625,-0.1217041015625,-0.286102294921875
1772642786848304400,6.610304443359375,-0.8724822998046875,-0.129425048828125,-0.3191680908203125
1772642786858349000,6.62034912109375,-1.05499267578125,-0.16058349609375,-0.3465423583984375
1772642786868394200,6.630394287109375,-1.12322998046875,-0.156951904296875,-0.373016357421875
1772642786878439200,6.640439208984375,-1.0510406494140625,-0.116302490234375,-0.375274658203125
1772642786888484400,6.650484375,-0.9252471923828125,-0.1286773681640625,-0.30908203125
1772642786898528000,6.660528076171875,-0.838897705078125,-0.1898956298828125,-0.229583740234375
1772642786908573200,6.6705732421875,-0.8178558349609375,-0.2389373779296875,-0.1865081787109375
1772642786918618000,6.6806181640625,-0.8781280517578125,-0.2609100341796875,-0.185302734375
1772642786928663300,6.690663330078125,-1.0141143798828125,-0.2634429931640625,-0.2142333984375
1772642786938708000,6.7007080078125,-1.192291259765625,-0.2884674072265625,-0.2391510009765625
1772642786948753200,6.710753173828125,-1.4125823974609375,-0.3257904052734375,-0.24725341796875
1772642786958798000,6.720798095703125,-1.58734130859375,-0.351287841796875,-0.270416259765625
1772642786968843300,6.73084326171875,-1.582855224609375,-0.37158203125,-0.3087310791015625
1772642786978887200,6.74088720703125,-1.344451904296875,-0.4344940185546875,-0.316162109375
1772642786988932000,6.75093212890625,-1.16241455078125,-0.5011138916015625,-0.31103515625
1772642786998977300,6.760977294921875,-1.2166900634765625,-0.5170745849609375,-0.3736419677734375
1772642787009022200,6.771022216796875,-1.416351318359375,-0.500030517578125,-0.43499755859375
1772642787019067100,6.781067138671875,-1.6111907958984375,-0.484344482421875,-0.4634246826171875
1772642787029112000,6.791112060546875,-1.7639617919921875,-0.4295654296875,-0.525360107421875
1772642787039157200,6.8011572265625,-1.922088623046875,-0.361175537109375,-0.6023101806640625
1772642787049202200,6.8112021484375,-2.0838470458984375,-0.3021087646484375,-0.655792236328125
1772642787059246000,6.82124609375,-2.2067108154296875,-0.26409912109375,-0.6693572998046875
1772642787069291000,6.831291015625,-2.2454986572265625,-0.2595977783203125,-0.6463775634765625
1772642787079336200,6.841336181640625,-2.194305419921875,-0.2732696533203125,-0.611083984375
1772642787089381000,6.851381103515625,-2.0973663330078125,-0.2808837890625,-0.6002960205078125
1772642787099426300,6.86142626953125,-1.99981689453125,-0.3083343505859375,-0.5859222412109375
1772642787109471000,6.871470947265625,-1.8690948486328125,-0.3243560791015625,-0.5699462890625
1772642787119516200,6.88151611328125,-1.7135162353515625,-0.32940673828125,-0.5424346923828125
1772642787129561000,6.89156103515625,-1.5494842529296875,-0.3293609619140625,-0.490570068359375
1772642787139605000,6.90160498046875,-1.40380859375,-0.3301239013671875,-0.4064788818359375
1772642787149650200,6.911650146484375,-1.2863922119140625,-0.3315887451171875,-0.3076629638671875
1772642787159695000,6.921695068359375,-1.2013702392578125,-0.319183349609375,-0.2160186767578125
1772642787169740300,6.931740234375,-1.144256591796875,-0.30047607421875,-0.1332550048828125
1772642787179785200,6.94178515625,-1.0928192138671875,-0.278717041015625,-0.0608367919921875
1772642787189830100,6.951830078125,-1.045562744140625,-0.2678070068359375,-0.0090789794921875
1772642787199875000,6.961875,-0.9988250732421875,-0.2663421630859375,0.00970458984375
1772642787209920300,6.971920166015625,-0.927215576171875,-0.2646636962890625,-0.00115966796875
1772642787219963600,6.981963623046875,-0.8437957763671875,-0.2582550048828125,-0.0318450927734375
1772642787230008600,6.992008544921875,-0.783050537109375,-0.249298095703125,-0.07086181640625
1772642787240053500,7.002053466796875,-0.759674072265625,-0.239715576171875,-0.1112518310546875
1772642787250098400,7.012098388671875,-0.753997802734375,-0.2239837646484375,-0.135955810546875
1772642787260143600,7.0221435546875,-0.735992431640625,-0.197418212890625,-0.120574951171875
1772642787270188500,7.0321884765625,-0.7027587890625,-0.1719818115234375,-0.0825653076171875
1772642787280233700,7.042233642578125,-0.6535797119140625,-0.14630126953125,-0.0555267333984375
1772642787290278400,7.0522783203125,-0.5870208740234375,-0.12054443359375,-0.0562744140625
1772642787300322600,7.062322509765625,-0.52325439453125,-0.105072021484375,-0.0819091796875
1772642787310367500,7.072367431640625,-0.4906463623046875,-0.10382080078125,-0.1229705810546875
1772642787320412700,7.08241259765625,-0.488433837890625,-0.099639892578125,-0.175689697265625
1772642787330457300,7.092457275390625,-0.5164642333984375,-0.0818023681640625,-0.2271881103515625
1772642787340502500,7.10250244140625,-0.5688018798828125,-0.0623626708984375,-0.2454681396484375
1772642787350547500,7.11254736328125,-0.61968994140625,-0.0438079833984375,-0.2252197265625
1772642787360592600,7.122592529296875,-0.639251708984375,-0.0224609375,-0.1719818115234375
1772642787370637300,7.13263720703125,-0.616363525390625,0.0037078857421875,-0.1189727783203125
1772642787380681500,7.142681396484375,-0.56402587890625,0.0193023681640625,-0.076080322265625
1772642787390726700,7.1527265625,-0.4966278076171875,0.0214996337890625,-0.0473785400390625
1772642787400771600,7.162771484375,-0.42645263671875,0.0117034912109375,-0.0411529541015625
1772642787410816500,7.17281640625,-0.3716278076171875,-0.0086212158203125,-0.0696868896484375
1772642787420861400,7.182861328125,-0.3348388671875,-0.032989501953125,-0.10760498046875
1772642787430906600,7.19290673828125,-0.3087615966796875,-0.04541015625,-0.144744873046875
1772642787440951600,7.20295166015625,-0.2959442138671875,-0.055999755859375,-0.16253662109375
1772642787450995500,7.212995361328125,-0.291900634765625,-0.0640106201171875,-0.1621856689453125
1772642787461040400,7.223040283203125,-0.29119873046875,-0.065399169921875,-0.146148681640625
1772642787471085600,7.23308544921875,-0.2900238037109375,-0.0692596435546875,-0.1149749755859375
1772642787481130500,7.243130615234375,-0.2732391357421875,-0.0809478759765625,-0.0859832763671875
1772642787491175400,7.253175537109375,-0.25323486328125,-0.0920562744140625,-0.073150634765625
1772642787501220400,7.263220458984375,-0.25885009765625,-0.1061553955078125,-0.081634521484375
1772642787511265500,7.273265625,-0.3027191162109375,-0.13165283203125,-0.0963287353515625
1772642787521310500,7.283310546875,-0.3868560791015625,-0.180145263671875,-0.1023101806640625
1772642787531355600,7.293355712890625,-0.4834136962890625,-0.2366943359375,-0.0933837890625
1772642787541399600,7.303399658203125,-0.530487060546875,-0.2875823974609375,-0.0786590576171875
1772642787551444500,7.313444580078125,-0.49688720703125,-0.32904052734375,-0.0764312744140625
1772642787561489700,7.32348974609375,-0.47216796875,-0.3672332763671875,-0.0901336669921875
1772642787571534600,7.33353466796875,-0.5238037109375,-0.3871917724609375,-0.1112823486328125
1772642787581579500,7.34357958984375,-0.6741790771484375,-0.39190673828125,-0.1112060546875
1772642787591624400,7.35362451171875,-0.85162353515625,-0.368072509765625,-0.104705810546875
1772642787601669600,7.363669677734375,-0.9984588623046875,-0.3200225830078125,-0.1009674072265625
1772642787611713500,7.373713623046875,-1.070587158203125,-0.3108062744140625,-0.076690673828125
1772642787621758500,7.383758544921875,-1.0406494140625,-0.342376708984375,-0.0555419921875
1772642787631803400,7.393803466796875,-0.9712066650390625,-0.36370849609375,-0.0542755126953125
1772642787641848600,7.4038486328125,-0.9145355224609375,-0.3523101806640625,-0.0916290283203125
1772642787651893500,7.4138935546875,-0.9374542236328125,-0.3515167236328125,-0.140838623046875
1772642787661938400,7.4239384765625,-1.0523834228515625,-0.35076904296875,-0.1798858642578125
1772642787671983400,7.4339833984375,-1.2246856689453125,-0.33331298828125,-0.194305419921875
1772642787682028500,7.444028564453125,-1.40399169921875,-0.304351806640625,-0.1681976318359375
1772642787692072700,7.45407275390625,-1.519775390625,-0.2814178466796875,-0.0804290771484375
1772642787702117400,7.464117431640625,-1.5730133056640625,-0.2738494873046875,0.049407958984375
1772642787712162600,7.47416259765625,-1.5638427734375,-0.28582763671875,0.1501312255859375
1772642787722207500,7.48420751953125,-1.527984619140625,-0.32891845703125,0.2205810546875
1772642787732252700,7.494252685546875,-1.5051422119140625,-0.3595123291015625,0.2591400146484375
1772642787742297600,7.504297607421875,-1.5137939453125,-0.3827667236328125,0.24005126953125
1772642787752342500,7.514342529296875,-1.580047607421875,-0.3984222412109375,0.1678314208984375
1772642787762387500,7.524387451171875,-1.706390380859375,-0.3999481201171875,0.0931549072265625
1772642787772431600,7.534431640625,-1.8249359130859375,-0.377532958984375,0.0362701416015625
1772642787782476500,7.5444765625,-1.9069671630859375,-0.35504150390625,-0.007537841796875
1772642787792521500,7.554521484375,-1.903900146484375,-0.336181640625,-0.0328216552734375
1772642787802566700,7.564566650390625,-1.8275146484375,-0.321533203125,-0.01300048828125
1772642787812611600,7.574611572265625,-1.688995361328125,-0.3257293701171875,0.0412750244140625
1772642787822656500,7.584656494140625,-1.5500335693359375,-0.3395538330078125,0.0731201171875
1772642787832701400,7.594701416015625,-1.438232421875,-0.3569183349609375,0.0570068359375
1772642787842746600,7.60474658203125,-1.3574676513671875,-0.381378173828125,0.011932373046875
1772642787852790500,7.61479052734375,-1.3051910400390625,-0.406494140625,-0.0468292236328125
1772642787862835700,7.624835693359375,-1.282989501953125,-0.4197540283203125,-0.098419189453125
1772642787872880400,7.63488037109375,-1.273590087890625,-0.4219970703125,-0.1257171630859375
1772642787882925600,7.644925537109375,-1.2599334716796875,-0.4096832275390625,-0.1293182373046875
1772642787892970500,7.654970458984375,-1.240936279296875,-0.379241943359375,-0.119873046875
1772642787903015700,7.665015625,-1.2139129638671875,-0.3277130126953125,-0.104522705078125
1772642787913060400,7.675060302734375,-1.1700286865234375,-0.27117919921875,-0.0864105224609375
1772642787923105500,7.68510546875,-1.10186767578125,-0.21148681640625,-0.0765838623046875
1772642787933149700,7.695149658203125,-1.0318756103515625,-0.1678924560546875,-0.061187744140625
1772642787943194600,7.705194580078125,-0.9725189208984375,-0.1418914794921875,-0.0496368408203125
1772642787953239600,7.715239501953125,-0.9256439208984375,-0.1257171630859375,-0.04742431640625
1772642787963284500,7.725284423828125,-0.892242431640625,-0.1185302734375,-0.0434722900390625
1772642787973329700,7.73532958984375,-0.871826171875,-0.12030029296875,-0.0317230224609375
1772642787983374600,7.74537451171875,-0.8504486083984375,-0.1293182373046875,-0.0298919677734375
1772642787993419500,7.75541943359375,-0.800201416015625,-0.13629150390625,-0.0489044189453125
1772642788003464400,7.76546435546875,-0.717681884765625,-0.1389923095703125,-0.0749664306640625
1772642788013508600,7.775508544921875,-0.638275146484375,-0.143524169921875,-0.1033477783203125
1772642788023553500,7.785553466796875,-0.564300537109375,-0.147186279296875,-0.12261962890625
1772642788033598500,7.795598388671875,-0.50006103515625,-0.143035888671875,-0.1354217529296875
1772642788043643400,7.805643310546875,-0.451416015625,-0.1278839111328125,-0.1422119140625
1772642788053688600,7.8156884765625,-0.4264068603515625,-0.1027984619140625,-0.1392974853515625
1772642788063733500,7.8257333984375,-0.4307861328125,-0.0808258056640625,-0.1229400634765625
1772642788073778700,7.83577880859375,-0.4642181396484375,-0.065032958984375,-0.0951995849609375
1772642788083823400,7.8458232421875,-0.499786376953125,-0.0514984130859375,-0.06561279296875
1772642788093867500,7.855867431640625,-0.5022125244140625,-0.0288543701171875,-0.045379638671875
1772642788103912700,7.86591259765625,-0.503692626953125,-0.0054931640625,-0.024658203125
1772642788113957600,7.87595751953125,-0.4985504150390625,0.0062103271484375,0.001861572265625
1772642788124002600,7.88600244140625,-0.466888427734375,0.0110321044921875,0.0190887451171875
1772642788134047500,7.896047607421875,-0.4192352294921875,0.0062408447265625,0.0090179443359375
1772642788144092700,7.9060927734375,-0.386993408203125,-0.008209228515625,-0.01544189453125
1772642788154137600,7.9161376953125,-0.3628082275390625,-0.021942138671875,-0.0404510498046875
1772642788164182500,7.9261826171875,-0.3375244140625,-0.033203125,-0.0511627197265625
1772642788174226400,7.936226318359375,-0.307159423828125,-0.0450286865234375,-0.0496978759765625
1772642788184271600,7.946271728515625,-0.278045654296875,-0.0571441650390625,-0.0447998046875
1772642788194316500,7.956316650390625,-0.2661285400390625,-0.065399169921875,-0.0474090576171875
1772642788204361500,7.966361572265625,-0.2800140380859375,-0.068359375,-0.059600830078125
1772642788214407200,7.9764072265625,-0.3257598876953125,-0.064208984375,-0.0697021484375
1772642788224452400,7.986452392578125,-0.4008636474609375,-0.0583038330078125,-0.0619964599609375
1772642788234497000,7.9964970703125,-0.464813232421875,-0.06695556640625,-0.048828125
1772642788244542200,8.006542236328125,-0.52301025390625,-0.096649169921875,-0.0230255126953125
1772642788254586000,8.016586181640625,-0.5821380615234375,-0.1452178955078125,0.0053558349609375
1772642788264631300,8.02663134765625,-0.6439971923828125,-0.20404052734375,0.0115966796875
1772642788274676000,8.036676025390625,-0.6818389892578125,-0.25885009765625,0.00164794921875
1772642788284721200,8.04672119140625,-0.709320068359375,-0.3144989013671875,-0.000823974609375
1772642788294766000,8.05676611328125,-0.7506103515625,-0.420989990234375,0.0255584716796875
1772642788304811300,8.066811279296875,-0.7231903076171875,-0.47955322265625,0.0079803466796875
1772642788314856000,8.07685595703125,-0.7922515869140625,-0.4027252197265625,-0.078216552734375
1772642788324901000,8.086901123046875,-0.988494873046875,-0.319305419921875,-0.0913543701171875
1772642788334945300,8.0969453125,-1.1537017822265625,-0.2800140380859375,-0.0387725830078125
1772642788344990200,8.106990234375,-1.2996826171875,-0.1962890625,-0.0153961181640625
1772642788355035100,8.11703515625,-1.4289703369140625,-0.11627197265625,0.0324554443359375
1772642788365080000,8.127080078125,-1.475189208984375,-0.0984649658203125,0.1090087890625
1772642788375125200,8.137125244140625,-1.4611358642578125,-0.1251373291015625,0.169891357421875
1772642788385170200,8.147170166015625,-1.4113006591796875,-0.159393310546875,0.1794281005859375
1772642788395215400,8.15721533203125,-1.35284423828125,-0.1657257080078125,0.1217041015625
1772642788405259000,8.167259033203125,-1.295318603515625,-0.1403961181640625,0.0142059326171875
1772642788415304200,8.17730419921875,-1.25714111328125,-0.1282958984375,-0.0584869384765625
1772642788425349000,8.18734912109375,-1.2473297119140625,-0.1349945068359375,-0.0631561279296875
1772642788435394000,8.19739404296875,-1.2729339599609375,-0.1359405517578125,-0.066436767578125
1772642788445439000,8.20743896484375,-1.312530517578125,-0.1145477294921875,-0.08154296875
1772642788455484200,8.217484130859376,-1.3570404052734375,-0.097564697265625,-0.069580078125
