time,seconds_elapsed,z,y,x
1772638987537979400,0.0589794921875,0.09633739072680472,-0.01474467426519841,-0.010786648221267387
1772638987548024300,0.0690244140625,0.1056149221599102,-0.005535924618830904,-0.00001688720271922648
1772638987558070500,0.079070556640625,0.08855448176562786,0.0014724380395840853,0.008281707062479108
1772638987568116500,0.089116455078125,0.09259294350147247,0.004809583105659112,0.007415491287736222
1772638987578161400,0.099161376953125,0.09468670091032981,0.009399121119314804,0.002153844432486221
1772638987588207400,0.109207275390625,0.09393675932586193,-0.0012778470492456108,0.002907329680910334
1772638987598253600,0.119253662109375,0.09303659561574458,0.00335374000784941,-0.003300009659770876
1772638987608298500,0.129298583984375,0.09468085569143295,-0.00238623754940927,0.00033041926445439456
1772638987618344400,0.139344482421875,0.0907879399061203,0.019623230953840536,-0.00878877980178222
1772638987628390700,0.149390625,0.09871931742727756,0.009564723477186635,-0.0027245935251470656
1772638987638435300,0.159435302734375,0.09557751227021216,0.008004698485694826,0.004307834995444864
1772638987648481300,0.169481201171875,0.09138765936493873,-0.001876233067503199,0.009643012877786532
1772638987658527500,0.179527587890625,0.09004033640921115,-0.003275706335576251,0.01119652593010105
1772638987668572400,0.189572509765625,0.10605156001150608,-0.0057238666726741935,0.0018231237739324568
1772638987678618400,0.199618408203125,0.08719663741588592,0.010357709618937224,-0.00022497699544765055
1772638987688664300,0.209664306640625,0.08195990580618381,0.0005390935790725052,-0.00030902028339914976
1772638987698709500,0.21970947265625,0.09722352591156959,-0.002909384640678763,-0.00876862292974256
1772638987708755500,0.22975537109375,0.07965630503892898,-0.009991707584448159,-0.003770093123242259
1772638987718800600,0.239800537109375,0.09144435798823833,-0.010918823233572766,-0.0029597265884280205
1772638987728846600,0.2498466796875,0.09348200129568576,0.0015882464389782398,-0.0038587577873840924
1772638987738892500,0.259892578125,0.085066639649868,0.010193824294116348,-0.018904524757852776
1772638987748937500,0.2699375,0.10301321522891521,-0.000451323964074254,-0.0011472429395187646
1772638987758983400,0.2799833984375,0.08193652493059635,-0.002592738173250109,0.0037694355361163616
1772638987769029400,0.290029296875,0.08777472956478595,0.0018479659542441366,-0.007677083099680021
1772638987779074300,0.30007421875,0.08598492353856563,-0.0008581694656051695,-0.02655508517678827
1772638987789120500,0.31012060546875,0.08673661868870258,0.006424763217335566,-0.003747013641754165
1772638987799166500,0.32016650390625,0.09391747010350227,0.00863937966004014,-0.008122680575866252
1772638987809211400,0.33021142578125,0.09556815991997718,-0.005851621238188818,-0.0071302354724146425
1772638987819257600,0.340257568359375,0.098878891903162,0.0011085183643270284,-0.009138086429797113
1772638987829303600,0.350303466796875,0.10261398677825927,0.008626173118595034,-0.0008057634249329567
1772638987839348500,0.360348388671875,0.09811784440279006,-0.0030981943442020565,-0.0003428129551466554
1772638987849394400,0.37039453125,0.08929214839041233,-0.0029931265345308927,-0.0010506963630206882
1772638987859440600,0.380440673828125,0.09798281984627247,-0.008078147314395755,-0.007018692256184294
1772638987869485300,0.3904853515625,0.08691197525560855,-0.00790849896906875,0.00524507017978467
1772638987879531300,0.40053125,0.08437339668869971,0.01049567505121231,-0.006138338358234614
1772638987889577500,0.410577392578125,0.09170330118536948,0.00888784712892957,0.0026300288431812075
1772638987899622400,0.420622314453125,0.09425006305873393,0.0014141502473969012,-0.0014752419180236755
1772638987909668400,0.43066845703125,0.08332768702805042,0.0011620751824695616,0.0028889720403123646
1772638987919714600,0.440714599609375,0.08362287058234215,-0.005081915507325902,-0.00023881372455507516
1772638987929759500,0.450759521484375,0.0945440775692463,0.018140399384405464,-0.0009065021193586289
1772638987939805400,0.460805419921875,0.09065057726204395,-0.00029355785278603434,-0.00003039513826370239
1772638987949851400,0.470851318359375,0.09094400725066662,0.0026385592095088213,0.00452556026619859
1772638987959896600,0.480896484375,0.09573825578987598,-0.010299102166341617,-0.0007557228712830693
1772638987969942500,0.490942626953125,0.08332067276537418,-0.001337952339183539,-0.0022039306519087403
1772638987979987500,0.500987548828125,0.08706161285936832,0.0007526175987441092,-0.0010130221005994827
1772638987990033400,0.511033447265625,0.08885551053881645,0.010232402738835663,0.0020147190895862875
1772638988000079400,0.521079345703125,0.09304302535653114,0.007636184833711012,0.008757617478538303
1772638988010124500,0.53112451171875,0.08975567424893378,0.00308886939343065,0.0067838331875391305
1772638988020170500,0.54117041015625,0.09559154079556464,0.0036729620248544957,-0.005666391731239855
1772638988030216400,0.551216552734375,0.09798457341194153,0.011299255652213468,-0.005189029143610969
1772638988040261600,0.56126171875,0.09872983882129192,-0.007019295044383034,-0.0055501632067374886
1772638988050307600,0.5713076171875,0.10187222850024699,0.010720533315651119,0.010668273405451328
1772638988060353500,0.581353515625,0.08840484416186808,0.0051512635496445,0.005440939811756834
1772638988070398500,0.5913984375,0.08825696012377739,0.009238478064350783,-0.007351504407124594
1772638988080444700,0.601444580078125,0.10292144529223442,-0.005127745676739141,-0.0023176566920708862
1772638988090490600,0.61149072265625,0.09379296694099902,-0.003378636987088248,-0.0036430052780080584
1772638988100535300,0.621535400390625,0.09858312382698059,0.005776775036845356,0.005438556058425456
1772638988110581500,0.63158154296875,0.08796294561326504,0.012216123901959508,0.0024291085767559704
1772638988120627500,0.64162744140625,0.09709025492072104,0.0037373690305743364,0.004072053478192538
1772638988130672400,0.65167236328125,0.08870996458828449,0.00950528490752913,0.009045129183027892
1772638988140718300,0.66171826171875,0.0955932943612337,0.0005607117558363825,0.0046984691476915025
1772638988150764500,0.6717646484375,0.09903846637904644,0.0014625103006139398,0.009740582367591559
1772638988160809500,0.6818095703125,0.10502280148565768,-0.005255819902662187,-0.0051829647290054705
1772638988170855400,0.69185546875,0.0945475847005844,0.0038500904237385837,0.008683218801766633
1772638988180900600,0.701900634765625,0.09155541714727879,0.00658252019546926,0.007531564548611641
1772638988190946600,0.711946533203125,0.08482172497808933,0.002858366839494556,0.013717057383665814
1772638988200992500,0.721992431640625,0.08736439519822597,0.0076907462988514445,0.0020721209657844153
1772638988211037400,0.732037353515625,0.09245148920416832,0.006204334532842039,-0.000829400028847158
1772638988221083400,0.74208349609375,0.09110299720466136,0.006908034955943003,0.0019076237196102737
1772638988231129300,0.75212939453125,0.09918225876390933,0.00433674142952077,-0.0022842476128134876
1772638988241174500,0.762174560546875,0.08691197525560855,0.004423597729066387,0.00363103171242401
1772638988251220500,0.772220458984375,0.09394435811042785,0.01832300767600536,0.005959337662672624
1772638988261266400,0.782266357421875,0.0975362451225519,0.011223276939708739,0.00023753508292138575
1772638988271311600,0.7923115234375,0.09095043699145317,0.017048147168289868,0.005544180990522727
1772638988281357600,0.802357666015625,0.09962941800951958,0.016332363581750543,0.004983871093485504
1772638988291403500,0.812403564453125,0.10965513746142387,0.001053874700795859,0.003778431693324819
1772638988301448700,0.82244873046875,0.1042681837260723,0.003742711925972253,-0.008458433602564036
1772638988311494700,0.83249462890625,0.08616261819303035,0.009083159638475627,-0.002045141627313569
1772638988321540600,0.84254052734375,0.10007774629890918,0.0019246022538747637,-0.009928314358880743
1772638988331585300,0.852585205078125,0.09304536344408988,-0.0008483330581802875,-0.0026050496655516324
1772638988341631500,0.862631591796875,0.09873334595263003,0.007052073935978114,-0.002936016919277608
1772638988351677400,0.872677490234375,0.09409458023607731,-0.011349488002108409,-0.003115784799819812
1772638988361722400,0.882722412109375,0.0909533596009016,-0.0027139899327419696,-0.0024290994436014443
1772638988371768600,0.8927685546875,0.07838263184130191,-0.005523110803030431,0.006615271687600761
1772638988381814500,0.902814453125,0.09634031333625316,0.00044775290065445005,0.00029859022093005474
1772638988391859500,0.912859375,0.08302373564541339,0.0070591795301996165,0.0008976703589316457
1772638988401905700,0.92290576171875,0.08437105860114097,0.004170792011776939,-0.005919151782756671
1772638988411950600,0.93295068359375,0.08362287058234215,-0.004099151547672227,-0.004978327268688008
1772638988421996500,0.94299658203125,0.09858838452398777,0.0005303074844181537,-0.004039786043250933
1772638988432042500,0.95304248046875,0.0994844565808773,-0.003417224564962089,-0.00710837983363308
1772638988442087400,0.96308740234375,0.07778641951382159,-0.002477806556690484,0.004853294383222237
1772638988452133400,0.97313330078125,0.08377075462043285,-0.005416956147970631,0.001447614125581458
1772638988462179300,0.983179443359375,0.0922995135128498,-0.0030790786517783998,0.008848346235603094
1772638988472224500,0.993224609375,0.08242460070848465,0.007454709053272381,-0.002085564969247207
1772638988482270500,1.0032705078125,0.08841010485887527,-0.0037528679938055574,0.006054011942492798
1772638988492316400,1.01331640625,0.09993278487026691,0.004519294922193512,-0.004345856317738071
1772638988502361600,1.023361572265625,0.08975742781460284,-0.001334299077372998,-0.001060395773127675
1772638988512407600,1.033407470703125,0.09394786524176597,0.000026513547590002417,-0.00007717515574768185
1772638988522453500,1.04345361328125,0.09649053546190262,0.0018851196268573403,0.004194638678245246
1772638988532499500,1.05349951171875,0.09364683646857738,-0.0000449899191968143,-0.005273373825661838
1772638988542545700,1.063545654296875,0.0972363853931427,0.008588526255637406,0.006912309272261336
1772638988552591400,1.07359130859375,0.08466741119921208,0.0008670286254957318,-0.0015041209526360034
1772638988562636300,1.08363623046875,0.07912965081632137,0.010064096967224032,-0.009339326356630772
1772638988572682500,1.0936826171875,0.0945434930473566,0.01164380390672013,0.014217846512654795
1772638988582727400,1.1037275390625,0.10142682282030582,0.0045898485409095885,-0.010625082717696204
1772638988592773400,1.1137734375,0.08361936345100403,-0.00048091538473963734,0.002041177838249132
1772638988602819300,1.1238193359375,0.09140110336840153,0.00037972916574217377,0.0138938387226779
1772638988612864500,1.133864501953125,0.09678864162564277,-0.014303396771103143,-0.009448631950002163
1772638988622910500,1.143910400390625,0.08751052567064761,0.007458170518837869,-0.0007843735770322382
1772638988632956400,1.153956298828125,0.0854155992180109,-0.002229677014518529,0.0009032781158108264
1772638988643001600,1.164001708984375,0.09768763629198074,-0.0006389098248910158,-0.006740980426501482
1772638988653047300,1.17404736328125,0.0927484263241291,0.004513495369069278,-0.004570906378421932
1772638988663093200,1.18409326171875,0.08900748623013496,0.0001885448420420289,-0.006618230829667299
1772638988673138400,1.194138427734375,0.09439268639981746,-0.0032759985965210943,0.003482627084525302
1772638988683184400,1.204184326171875,0.10157412233650684,0.0008954692686907946,0.006608430954860523
1772638988693230300,1.214230224609375,0.1035194111853838,0.009203470683051272,-0.004059614121727645
1772638988703275500,1.224275634765625,0.09394435811042785,0.003423517308430746,0.0027736202986445276
1772638988713321500,1.234321533203125,0.09095219055712223,0.0037137141603510826,0.0022583642528858036
1772638988723367400,1.244367431640625,0.09604103812873363,0.0011925433859694748,-0.000009178820298984647
1772638988733412600,1.25441259765625,0.09544307223558425,0.005614086155267432,-0.012569439984811468
1772638988743458600,1.26445849609375,0.08885960219204425,0.0067336099707987155,0.001502248655958101
1772638988753504500,1.27450439453125,0.0937982276380062,-0.004827776349475607,-0.010957474743528291
1772638988763549400,1.284549560546875,0.10023206007778644,0.00937677229018882,-0.005319240527693182
1772638988773595400,1.294595458984375,0.09275193345546721,0.005831601363467052,-0.00448714621826075
1772638988783640300,1.304640380859375,0.07135375611782073,0.009112778458604589,-0.0007392740599811077
1772638988793686300,1.314686279296875,0.09275251797735691,0.013408155831275506,-0.00011745236720889805
1772638988803732500,1.324732421875,0.08377367722988129,-0.0017794216295238584,0.0073345532723236824
1772638988813777400,1.33477734375,0.08736673328578472,-0.0065241045391187065,0.014627505025779827
1772638988823823400,1.3448232421875,0.1030786816805601,0.000325176833756268,-0.0005421257863752544
1772638988833869600,1.35486962890625,0.08841595007777213,0.0012878843860700726,-0.009810414467100053
1772638988843914500,1.36491455078125,0.0815337893486023,-0.001313027960481122,0.01076850977637805
1772638988853960400,1.37496044921875,0.09350596669316291,-0.004708214223571121,-0.004043256641970947
1772638988864006400,1.38500634765625,0.1069745200753212,-0.00705083182696253,-0.0031213651572354136
1772638988874051300,1.39505126953125,0.09320844505131244,-0.0007169800297822802,0.002683174669370055
1772638988884097300,1.40509716796875,0.10024141242802143,0.00892616071216762,-0.006649292688211426
1772638988894143200,1.415143310546875,0.0827314747005701,0.0005253755809739232,-0.009183058082684874
1772638988904188400,1.4251884765625,0.08841711912155151,0.0007658698059618473,-0.0014087434199173002
1772638988914234400,1.435234375,0.09410217902064323,-0.0035626426513306795,0.014678120968164876
1772638988924280300,1.4452802734375,0.09200549900233745,-0.0021036851478274912,0.010850653368188067
1772638988934325500,1.455325439453125,0.08332651798427104,-0.0015829766088165341,-0.0055708863343577825
1772638988944371500,1.465371337890625,0.10292845955491066,0.0014714059931226074,0.0066971230184659355
1772638988954416600,1.475416748046875,0.09005904110968112,0.002634485822590068,-0.007583733127266169
1772638988964462600,1.485462646484375,0.0917068083167076,-0.0004763122748583555,-0.005313422708259895
1772638988974508500,1.495508544921875,0.08841653459966183,-0.00318763532647863,0.00040277211461216207
1772638988984553200,1.50555322265625,0.0997895770072937,-0.0015615776277612893,-0.005334072770643979
1772638988994599400,1.515599365234375,0.09559621697068214,0.003686835286580026,-0.010369445722503586
1772638989004645400,1.525645263671875,0.08527005326747894,-0.0006273381181061267,-0.005714276860421523
1772638989014690300,1.535690185546875,0.09050736939907074,-0.003744803418358788,-0.005854808709118515
1772638989024736500,1.545736572265625,0.09574468553066254,-0.000507410666020587,0.003365211249934509
1772638989034782500,1.555782470703125,0.09903612829148768,0.010110045867646113,-0.0037000692274887113
1772638989044827400,1.565827392578125,0.09125555741786956,0.008881545252306387,-0.005784099826775491
1772638989054873300,1.575873291015625,0.08751520184576511,0.0058156640088185664,-0.0014656429726164787
1772638989064919600,1.58591943359375,0.08661679170131682,0.0027010208533145485,-0.003995965167833492
1772638989074964500,1.595964599609375,0.08646773861944675,-0.0033111795077566055,-0.0014330102114938198
1772638989085010400,1.606010498046875,0.09828910931646823,0.009142570808669552,0.004727055921358987
1772638989095056600,1.616056640625,0.0945481692224741,-0.006367553137382492,0.006865629719477146
1772638989105101300,1.626101318359375,0.08706511999070644,0.003873526098253205,0.0011149481051135808
1772638989115147300,1.636147216796875,0.09125614193975926,0.006030694998987019,0.01343386566126719
1772638989125192400,1.6461923828125,0.0917068083167076,0.0011154504286125303,0.008572579767834395
1772638989135238400,1.65623828125,0.1095142676860094,0.004760766394715756,0.0006112089672125876
1772638989145284400,1.666284423828125,0.08841653459966183,-0.0030662009038962424,0.0008504336837213486
1772638989155329500,1.67632958984375,0.08572305773198605,0.0180790337191429,0.00296556267417036
1772638989165375500,1.68637548828125,0.08003624426722526,0.007751381311751902,-0.011586767356703057
1772638989175421400,1.69642138671875,0.09095920481979847,-0.003173058811854571,-0.007915339701808988
1772638989185466600,1.706466552734375,0.10712006602585315,0.004699473794689402,0.0023691676835995166
1772638989195512600,1.7165126953125,0.09155717071294785,0.0008167506098281592,0.002720209610974416
1772638989205558500,1.72655859375,0.09080781365036963,-0.0029955742199439554,-0.0011900135021656751
1772638989215603500,1.736603515625,0.08811433678269386,-0.001017433414235711,0.0010894300713669507
1772638989225649400,1.7466494140625,0.08556991299688815,0.0012343823668546975,-0.001980533692194149
1772638989235695400,1.7566953125,0.08661737622320652,0.013856575452210381,0.00042677404470741745
1772638989245740300,1.766740234375,0.09379998120367526,-0.009510554737690836,0.0008827741838991641
1772638989255786500,1.776786376953125,0.09200432995855808,-0.005152660922287031,0.01076365093817003
1772638989265832400,1.78683251953125,0.09125614193975926,0.0017224490115884691,0.004765798762859776
1772638989275877400,1.79687744140625,0.09574351648688316,-0.0027674828188028184,-0.0037930173411034047
1772638989285923600,1.806923583984375,0.08871054911017417,0.0020581289730500427,-0.0070611248921137295
1772638989295968500,1.816968505859375,0.09723930800259113,-0.008904286807077005,-0.0035456641170661892
1772638989306014500,1.827014404296875,0.07569207758307457,-0.013143221284775063,-0.006396413905685767
1772638989316060400,1.837060302734375,0.08526946874558926,0.0010521120019722728,0.004443179212370887
1772638989326105300,1.847105224609375,0.09424889401495457,0.001314863724540919,-0.0001128127247095108
1772638989336151300,1.8571513671875,0.09559563244879245,-0.00287668794747442,-0.0020805874000303444
1772638989346197200,1.867197265625,0.09903671281337738,-0.01224887539409101,0.0012028912500478327
1772638989356242400,1.877242431640625,0.08751403280198573,0.0014092000776436179,0.007945871837390586
1772638989366288400,1.887288330078125,0.09694120183885097,0.00400202958243899,-0.004433333671791479
1772638989376334300,1.897334228515625,0.08886018671393393,-0.0019087014318443834,0.004662055260594934
1772638989386379500,1.907379638671875,0.0955932943612337,0.0034483046898152675,0.0005384085924830288
1772638989396425500,1.917425537109375,0.0918511852234602,-0.004442412027390674,0.0006391472869087011
1772638989406471400,1.927471435546875,0.09080313747525215,-0.007372099670581519,0.000006365808704867958
1772638989416516600,1.9375166015625,0.07434241653978824,-0.0007132902353536337,0.001990370099619031
1772638989426562600,1.9475625,0.0828711754322052,-0.0034936234025750306,-0.011208380764676257
1772638989436608500,1.9576083984375,0.1036713868767023,-0.0004344641608186066,-0.010940888934908435
1772638989446653400,1.9676533203125,0.09065408439338207,0.0015543898351490497,0.0025380397107917815
1772638989456699400,1.977699462890625,0.080478727337718,0.0013907145728822797,-0.0024080749218817797
1772638989466744300,1.987744384765625,0.08900865527391433,0.00032584355403669177,0.00002732639834284782
1772638989476790500,1.99779052734375,0.08511749305427074,-0.009359830288542434,-0.00043726803925819694
1772638989486836500,2.00783642578125,0.09604045360684395,0.011177775563858449,0.0016365334269590674
1772638989496881400,2.01788134765625,0.09050327774584292,0.005828413892537355,0.001636807421594858
1772638989506927600,2.027927734375,0.09978197822272777,-0.0015282872795127332,-0.002278393260762095
1772638989516973600,2.0379736328125,0.08691255977749825,0.003383377094287425,-0.0016241671357303856
1772638989527018500,2.0480185546875,0.0801788676083088,-0.00019822598583996295,-0.007609790017129853
1772638989537064200,2.058064208984375,0.09663900402188301,0.0020045995543710887,-0.013639206374483182
1772638989547110100,2.068110107421875,0.08541618373990058,-0.0010650628150906413,-0.016551751086628062
1772638989557155000,2.078155029296875,0.09529226558804511,-0.0030769506267737594,-0.0067789012840949
1772638989567201000,2.088200927734375,0.0914022724121809,-0.008511597695061936,-0.011992334216600283
1772638989577247200,2.098247314453125,0.07569149306118488,-0.002782872184179723,-0.003739049531007185
1772638989587292000,2.1082919921875,0.10726444293260573,-0.003050985068455338,-0.0028318167592864484
1772638989597337900,2.118337890625,0.09514379702806472,0.0065473301510792226,0.0013785492110531777
1772638989607384000,2.128384033203125,0.08796119204759598,0.012872962109185754,0.013247923768265172
1772638989617429000,2.138428955078125,0.09933481897711753,-0.004824534079618752,0.006607398908399045
1772638989627475000,2.148474853515625,0.08915946192145346,-0.0017281207005493341,0.0008234360789414495
1772638989637520100,2.15852001953125,0.0873632261544466,0.00146754266875796,0.001143964137043804
1772638989647566000,2.168566162109375,0.0912543883740902,0.002956411253334954,-0.004962983569083735
1772638989657612000,2.178612060546875,0.0945475847005844,0.0011710804728325456,-0.009125199548760428
1772638989667657200,2.1886572265625,0.0911053352922201,-0.0025728735621552913,-0.0007996259450912475
1772638989677703200,2.198703125,0.0885614960283041,0.0075864091415423895,-0.00411885176198557
1772638989687749000,2.2087490234375,0.09933540349900721,-0.002711770576192066,0.0011444207947701214
1772638989697794000,2.2187939453125,0.07808569472134112,-0.0029369028352666643,0.0004509586378931999
1772638989707840000,2.228840087890625,0.083472063934803,0.00006650763126090168,0.00041944925477728246
1772638989717886000,2.238885986328125,0.09140344145596027,-0.0005279511305503547,-0.000302270882204175
1772638989727931100,2.24893115234375,0.09125497289597988,0.006858505858946591,-0.002940409966604784
1772638989737977000,2.25897705078125,0.08826338986456393,0.0051637759713456036,-0.011093988004233687
1772638989748023000,2.26902294921875,0.0867664293050766,-0.006240447025839239,-0.00037632249910384414
1772638989758068000,2.27906787109375,0.08976035042405128,0.0046392497737426305,0.0028512064463458954
1772638989768114200,2.2891142578125,0.11819149513840675,-0.003378308193525299,0.007817742812540381
1772638989778159000,2.2991591796875,0.09170563927292823,-0.011182269075885414,0.007640705745201558
1772638989788205000,2.309205078125,0.09080839817225933,-0.004204767346614972,-0.009111006626626476
1772638989798251300,2.319251220703125,0.08916355357468128,0.0007028053739573806,-0.0007897895376663655
1772638989808296000,2.3292958984375,0.0908095672160387,0.004543561713770032,-0.0036468412029091266
1772638989818342000,2.339341796875,0.1090659393966198,0.0024071524732746184,-0.010654802002524956
1772638989828388000,2.34938818359375,0.09006137919723987,0.0024678057524841275,0.002809477063314989
1772638989838433000,2.35943310546875,0.09499942012131214,0.001073364852555096,-0.0026326135259121656
1772638989848479000,2.36947900390625,0.0894634133040905,-0.0012169106422457844,-0.008730775137385353
1772638989858525000,2.37952490234375,0.08946399782598018,-0.0023186522059142588,-0.0020075586964376268
1772638989868570000,2.389570068359375,0.09440203875005244,0.0014713694605045019,0.006845582445291802
1772638989878616000,2.399615966796875,0.09963935488164424,0.0004723941515665501,0.00003831358323805034
1772638989888662000,2.409662109375,0.09155950880050659,0.002223977926094085,-0.006801049183821305
1772638989898707200,2.419707275390625,0.10263327600061893,-0.00269390612593852,0.007321355864033103
1772638989908753200,2.429753173828125,0.08931611378788948,0.006251014085626229,0.011992608211236074
1772638989918798000,2.439798095703125,0.08811901295781135,-0.0034361301948316395,0.00483846214027144
1772638989928844000,2.449843994140625,0.08572422677576541,0.0015448548218235372,-0.0038217685115523635
1772638989938890000,2.459889892578125,0.09290566271245479,0.001296460418170318,0.007621261259214952
1772638989948935000,2.469934814453125,0.09230711229741573,0.006213266757968813,-0.0036833829541690647
1772638989958981000,2.479981201171875,0.09829203192591666,0.0044486225724685935,0.004673343839589506
1772638989969027000,2.490027099609375,0.08901450049281119,-0.003336770606739446,-0.0005610496825538575
1772638989979072000,2.500072021484375,0.09484919799566269,-0.0037393417919520285,0.0039676797882653774
1772638989989118200,2.5101181640625,0.09649404259324074,-0.006685240784427151,0.007209228125913068
1772638989999164200,2.5201640625,0.08901040883958339,-0.001655566920991987,0.005331835147785022
1772638990009209000,2.530208984375,0.0920037454366684,-0.008516785326832905,-0.0037592155362013726
1772638990019255000,2.540255126953125,0.09364859003424644,0.006202745363954454,0.007979162185639143
1772638990029301200,2.55030126953125,0.0933498993486166,0.00016726459199562668,0.0023670122591312975
1772638990039346000,2.560345947265625,0.09439794709682464,0.001942832030309364,0.003099993575643748
1772638990049391900,2.570391845703125,0.09828910931646823,-0.010406380199408158,0.0007473569017369299
1772638990059437000,2.58043701171875,0.09694295540452003,-0.007117439922923222,-0.001909002825943753
1772638990069483000,2.59048291015625,0.08961071282029151,0.008467082699900493,-0.007428816560190171
1772638990079529000,2.600529052734375,0.09784078102707862,0.0012368209191132337,-0.0025139829817693677
1772638990089574100,2.61057421875,0.09484802895188331,0.0032111166667658834,0.0031773513944819568
1772638990099620000,2.6206201171875,0.08512041566371917,-0.0075883727697655555,0.008859114224789664
1772638990109666000,2.630666015625,0.08661737622320652,0.006073977018287405,-0.00029559454624541103
1772638990119711200,2.640711181640625,0.0827267985254526,0.006751163893798366,-0.01998115927972831
1772638990129757200,2.650757080078125,0.09454641565680504,-0.0031385720203630624,-0.000003845058055594564
1772638990139803100,2.66080322265625,0.0994844565808773,-0.001972158589493483,0.0050711292518302795
1772638990149848000,2.67084814453125,0.08975742781460284,0.004988026678794995,0.017344107040716334
1772638990159894000,2.68089404296875,0.0912543883740902,-0.003253677166858688,-0.011199813865730539
1772638990169940000,2.69093994140625,0.10068214193284511,-0.011076233151834458,-0.015515247645741328
1772638990179985200,2.700985107421875,0.09469429969489573,0.003848683917941525,0.013258536493824795
1772638990190031000,2.711031005859375,0.10546879168748854,0.004475382715230808,0.0047667394777759905
1772638990200077000,2.7210771484375,0.07883329821825028,-0.004412382215308025,0.0008685447291471064
1772638990210122000,2.7311220703125,0.08092822467088699,0.002337338640075177,0.0008710015477146953
1772638990220168200,2.741168212890625,0.09484452182054519,-0.00008026216197758912,-0.010994820212386548
1772638990230213000,2.751213134765625,0.09783610485196113,0.010010120023973286,-0.006250858821999281
1772638990240259000,2.761259033203125,0.08646364696621894,-0.004253100000368431,0.022747235592734068
1772638990250305300,2.77130517578125,0.08691255977749825,0.004396883252076805,0.001912473424663767
1772638990260350000,2.781349853515625,0.09678805710375309,-0.0008031239432748407,-0.006323887525591999
1772638990270396000,2.79139599609375,0.08975567424893378,-0.0043713104194030164,-0.0007394658562261611
1772638990280442000,2.801442138671875,0.09858312382698059,0.005130595220951363,0.0002798763873055577
1772638990290487000,2.811487060546875,0.09499065229296684,-0.005347187980543822,-0.010483025632193312
1772638990300533000,2.821532958984375,0.10636252565681933,0.010771395853208377,0.0019647424680180846
1772638990310579000,2.831578857421875,0.09977788656949996,-0.0010213698038365692,-0.007636175700556486
1772638990320624000,2.8416240234375,0.09199556213021277,0.0022753062545321882,-0.007447192467097193
1772638990330670000,2.851670166015625,0.08915069409310818,0.00518481875937432,-0.009720544226560742
1772638990340716000,2.861716064453125,0.10082242718636988,0.010113196805957705,0.007797759470436721
1772638990350761200,2.87176123046875,0.08795417778491973,-0.008728473582444713,0.0030799189019948244
1772638990360807200,2.88180712890625,0.09468903899788855,0.004108421699516475,0.005845803418755531
1772638990370852000,2.89185205078125,0.09648352119922637,0.007148848841339349,-0.0058765090842731295
1772638990380898000,2.90189794921875,0.09229249925017356,0.017103393620019777,-0.013868759080348535
1772638990390944000,2.911944091796875,0.09109539842009544,0.00651683454811573,0.0027949370813090354
1772638990400989000,2.921989013671875,0.1003735143750906,-0.004874309771787375,0.005541413644701242
1772638990411035100,2.93203515625,0.09199439308643341,0.007709679328184575,-0.003968730101035907
1772638990421081000,2.9420810546875,0.08496201023161411,0.0036109661719296126,-0.003536183902667835
1772638990431126000,2.9521259765625,0.0895984378606081,-0.007359011860145256,-0.006659704484371468
1772638990441172200,2.962172119140625,0.0948351694703102,0.0031357042098417876,0.0015055091921240091
1772638990451218200,2.97221826171875,0.08585808228850364,-0.0009498480707406997,0.002202633743965998
1772638990461263000,2.98226318359375,0.0990273604631424,-0.0026691096113994717,-0.006847500407742336
1772638990471309000,2.99230908203125,0.08630816414356231,-0.0038429117642808704,-0.005934577680751681
1772638990481355000,3.00235498046875,0.08555997612476349,-0.0006540434619411826,0.003656403615698218
1772638990491400000,3.01239990234375,0.10261924747526645,-0.0057235013464931395,-0.0011687423852737991
1772638990501446000,3.02244580078125,0.09379179789721966,-0.004695583070861175,0.00239167177635245
1772638990511491000,3.032490966796875,0.0905003551363945,-0.00466138854031451,-0.0018153697257395833
1772638990521537000,3.042537109375,0.09020166445076465,0.0036651805771980434,0.002805129681760445
1772638990531583000,3.0525830078125,0.08017652952075004,0.001989858642965555,-0.002966786516876891
1772638990541627400,3.06262744140625,0.0911012436389923,0.0052880690712947395,-0.0033114169697742906
1772638990551673300,3.07267333984375,0.10172609802782535,0.013883993182098492,-0.00463276523402892
1772638990561719300,3.08271923828125,0.08960545212328433,0.00736032703439705,-0.0023833880051970483
1772638990571764200,3.09276416015625,0.07509002003669739,-0.004133711404399946,-0.00550332839032635
1772638990581810200,3.10281005859375,0.08735971902310848,0.0033909302130807188,0.00235072784461081
1772638990591856000,3.112856201171875,0.09259703515470027,0.00047126164040528235,0.008611824932834133
1772638990601901300,3.1229013671875,0.10112754761278629,0.0007606182421091944,0.0018450524779502302
1772638990611947300,3.132947265625,0.09215046043097973,-0.008262737500527874,-0.0007996716108638793
1772638990621993200,3.1429931640625,0.09230068255662918,-0.0008018453016411512,0.005261939116194844
1772638990632038400,3.153038330078125,0.09634089785814284,0.0049248617820907385,0.00007120207268744707
1772638990642084400,3.16308447265625,0.09364742099046706,0.005540838255966082,0.012348901702463626
1772638990652129500,3.173129638671875,0.08796119204759598,-0.0024918898809701204,0.00520800783871673
1772638990662175500,3.183175537109375,0.09738777656257153,-0.0037650881545618175,-0.004619248165329918
1772638990672221400,3.193221435546875,0.09828501766324042,0.005573443617625162,-0.009724581080861388
1772638990682266000,3.20326611328125,0.09783668937385082,-0.00642748489738442,0.0057392103722784665
1772638990692312300,3.213312255859375,0.08631459388434887,0.0004508033742662519,-0.002661739155696705
1772638990702358300,3.223358154296875,0.09080313747525215,-0.00010816394905559719,-0.002072394960420206
1772638990712403200,3.2334033203125,0.09424538688361644,-0.006129963255533949,0.013638950646156445
1772638990722449400,3.243449462890625,0.09918284328579902,0.011695506694493814,0.008349621199537069
1772638990732495400,3.253495361328125,0.09259820419847965,0.016558336091041563,-0.007173371361242607
1772638990742540300,3.263540283203125,0.08362053249478339,-0.00194469519383274,-0.003019384353794157
1772638990752586200,3.273586181640625,0.08885901767015457,-0.011616568839922547,0.003769892193842679
1772638990762632400,3.283632568359375,0.10501987887620925,0.008099162702960893,-0.003457446977496147
1772638990772677400,3.293677490234375,0.08900923979580402,-0.0007594217988662422,0.007597898649936542
1772638990782723300,3.303723388671875,0.09035480918586254,-0.001451157789537683,-0.0012414240289945154
1772638990792768300,3.313768310546875,0.09439443996548652,0.005169520725542679,-0.0035434447605162856
1772638990802814200,3.323814208984375,0.08900865527391433,0.003884650280466303,0.007859910586988553
1772638990812860200,3.333860107421875,0.0955932943612337,-0.003904761486733332,-0.002716446751309559
1772638990822905300,3.3439052734375,0.07868249157071112,-0.0022369104729034004,-0.0011903148962650446
1772638990832951300,3.353951416015625,0.08122691535651683,0.008941230417136103,0.0010449333425145595
1772638990842997200,3.363997314453125,0.09948387205898761,-0.003066164371278137,-0.0026097532401327043
1772638990853042400,3.37404248046875,0.08347323297858238,-0.00014724471727386117,0.00038998569827526804
1772638990863088400,3.38408837890625,0.0912543883740902,-0.007766524081956595,0.0005747950801160187
1772638990873134300,3.39413427734375,0.0819774414628744,0.006703105234680697,-0.008860091472323984
1772638990883179500,3.404179443359375,0.08541852182745933,-0.003305727014504373,-0.008619898641435428
1772638990893225500,3.4142255859375,0.09230185160040855,-0.003739040397852659,0.0032440142893698063
1772638990903271200,3.424271240234375,0.09409808736741543,-0.0007472929696552455,-0.003259348855819553
1772638990913316400,3.43431640625,0.09694061731696128,0.008990622516814619,-0.002270337818469852
1772638990923362300,3.4443623046875,0.09005728754401207,0.0058141205057036125,0.00352798232990317
1772638990933407200,3.4544072265625,0.09888590616583824,-0.00991847795145586,-0.005788739469274878
1772638990943453200,3.464453125,0.09499474394619464,0.00053740394548513,-0.0018286219329573213
1772638990953499400,3.47449951171875,0.08721417307257652,-0.0003609148674178868,-0.006582401464460417
1772638990963544300,3.48454443359375,0.09080547556281089,0.012348198449565096,-0.009572952449414878
1772638990973590300,3.49459033203125,0.08676526026129722,0.005990390388062224,-0.0061945803238078944
1772638990983636500,3.504636474609375,0.08347323297858238,0.0042210517611354584,0.007617991589894518
1772638990993681400,3.514681396484375,0.08901040883958339,0.007160977670550346,0.0077821600425057105
1772638991003727000,3.52472705078125,0.09140519502162933,0.003228442260902375,0.0043128490972798314
1772638991013773300,3.534773193359375,0.08556932847499847,0.003452989998087287,0.009528090394381433
1772638991023818200,3.544818359375,0.09230418968796729,0.009209114972548558,0.008789163394272327
1772638991033864200,3.5548642578125,0.0909574512541294,-0.0026396003891248254,0.009782969337748363
1772638991043910100,3.56491015625,0.0905085384428501,0.011209741604700684,0.008541298713581636
1772638991053955300,3.574955322265625,0.08631868553757667,0.004153119357768446,-0.006585798997944221
1772638991064001300,3.585001220703125,0.08018354378342628,-0.015912247606692836,-0.013824481547204778
1772638991074046500,3.59504638671875,0.09020926323533057,0.000783332397416234,0.001249333340814337
1772638991084092400,3.605092529296875,0.08961071282029151,0.012183856467017903,0.00724856462245807
1772638991094138400,3.615138427734375,0.07464695244431495,0.005823646385874599,0.007611050392454489
1772638991104183300,3.625183349609375,0.08167933529913425,0.0034021731263026594,-0.008477202235115692
1772638991114229200,3.635229248046875,0.08347440202236175,0.003232406049966812,-0.004229655192699283
1772638991124275200,3.645275146484375,0.09783902746140956,0.006609115941449999,0.002099109437409788
1772638991134320400,3.6553203125,0.08122983796596527,0.005077659457316622,-0.002538596833217889
1772638991144366300,3.665366455078125,0.09649345807135104,0.007055909860879182,-0.0009232340584509074
1772638991154412300,3.675412353515625,0.09499708203375339,-0.003766841720230877,0.005759348978009075
1772638991164457200,3.685457275390625,0.08167875077724457,0.00017752112452872098,0.0063170102602336554
1772638991174503400,3.69550341796875,0.09649228902757168,-0.004487383680278435,0.0038293216303456573
1772638991184549400,3.70554931640625,0.08826222082078457,-0.004547552902298048,-0.008502044415427372
1772638991194594300,3.71559423828125,0.09260171132981776,0.003954957304010167,0.0015164781107101588
1772638991204640500,3.725640625,0.08496960901618003,0.003631059111887589,-0.006833764143334701
1772638991214686500,3.7356865234375,0.08721358855068684,0.004374415691941976,-0.0014995909079909323
1772638991224731100,3.745731201171875,0.09364800551235675,0.006061784256994724,-0.010122896216064691
1772638991234777000,3.755777099609375,0.10038111315965652,0.003468370230309665,-0.01385705037624575
1772638991244822300,3.765822265625,0.08407061434984206,0.0037144904784858226,-0.0037599644548725335
1772638991254868200,3.7758681640625,0.07763561286628246,-0.0028537089306861162,-0.0026325678601395335
1772638991264914200,3.7859140625,0.07958031719326973,-0.009470012664748355,-0.006286258928943425
1772638991274959400,3.79595947265625,0.09634031333625316,-0.012799102288531138,0.006008209172543138
1772638991285005300,3.80600537109375,0.09648995094001292,-0.0012912636532448232,0.0022588117774575947
1772638991295051300,3.81605126953125,0.09020575610399245,-0.0010656930027529597,0.002824026178475469
1772638991305096400,3.826096435546875,0.09289923297166824,-0.001860240913927555,-0.003060858008498326
1772638991315142400,3.836142333984375,0.08227613214850425,-0.004152397838560864,0.00812310983412899
1772638991325188400,3.846188232421875,0.09873685308396815,0.0022304076668806373,-0.010879413671791552
1772638991335233300,3.8562333984375,0.10442191298305988,-0.00326641791742295,0.004612124304799362
1772638991345279200,3.866279296875,0.08945756808519363,0.00457048625331372,-0.009493904996989294
1772638991355324200,3.87632421875,0.08975625877082348,0.003667189871193841,0.0026005926861427725
1772638991365370400,3.886370361328125,0.09334756126105785,0.006490147470589727,0.003906935177510604
1772638991375416300,3.896416259765625,0.09140168789029121,0.0005051365105435252,0.005499739060597494
1772638991385461200,3.906461181640625,0.09304653248786926,-0.0007264237115625292,0.005760043097753078
1772638991395507500,3.916507568359375,0.0951408744186163,0.005304609214141965,0.011267737135943024
1772638991405553400,3.926553466796875,0.09439210187792778,-0.00028826062316074965,0.008161633479921146
1772638991415598300,3.936598388671875,0.08706044381558894,0.0024909856986720116,-0.004745276564639062
1772638991425644300,3.946644287109375,0.09229775994718074,-0.007598894163779914,-0.00040975897782482206
1772638991435690500,3.9566904296875,0.10262333912849425,-0.002666899388004094,0.0005371390840038657
1772638991445735200,3.966735107421875,0.0961900912106037,-0.010515895855333655,-0.0071745038724038744
1772638991455781000,3.976781005859375,0.08900865527391433,0.0103700393775478,-0.004613202017033472
1772638991465826300,3.986826416015625,0.08990531185269356,0.0017298742662183939,-0.0028728976883459836
1772638991475872300,3.996872314453125,0.08167524364590645,-0.002479852383304387,-0.0005199687534943223
1772638991485918200,4.006918212890625,0.08945581451952457,0.003490116271236911,-0.004775571238202974
1772638991495963400,4.01696337890625,0.09319675461351871,0.00037568317828699945,-0.0031410745047032833
1772638991506009300,4.02700927734375,0.08601473415493964,0.0027192597629036755,0.0008030874106567353
1772638991516055300,4.03705517578125,0.09708733231127262,0.0023292283988557753,0.005431843189848587
1772638991526100500,4.0471005859375,0.10591653545498847,0.00432006428935565,0.0037195319797843694
1772638991536146700,4.057146728515625,0.09618950668871402,-0.011508249627240001,0.00996931308954954
1772638991546192600,4.067192626953125,0.08825871368944645,0.006756680319132283,0.0006900189576204866
1772638991556237600,4.077237548828125,0.09424363331794738,0.010215707332361488,0.0047444180481135845
1772638991566283500,4.087283447265625,0.09544014962613583,0.0037559458668809382,-0.0006168806561734527
1772638991576329500,4.09732958984375,0.09229659090340137,0.007272018563281744,-0.004433872527908534
1772638991586374400,4.10737451171875,0.10127367808520793,0.002259962554927915,-0.005059594077663496
1772638991596420600,4.117420654296875,0.09079787677824497,0.0048192825157660985,-0.0006938731488306075
1772638991606466600,4.127466552734375,0.10067454314827919,0.0076314995254389935,-0.0012700199358165263
1772638991616511500,4.137511474609375,0.10157061520516872,0.003968711834726855,0.007603488140506669
1772638991626557700,4.1475576171875,0.07927519676685332,-0.0034527708023786544,-0.008885929166479036
1772638991636602600,4.1576025390625,0.0870575212061405,-0.00026480668233707543,-0.009184912113053724
1772638991646648600,4.167648681640625,0.08915186313688754,-0.00188764951066114,-0.01007539467937313
1772638991656694500,4.177694580078125,0.08885200340747833,-0.007821752267377451,-0.003528776914346963
1772638991666739500,4.187739501953125,0.09558628009855746,0.0029034663565456866,-0.007685211607208475
1772638991676785400,4.197785400390625,0.08690788360238075,-0.0035386498543899503,0.0044674460039474066
1772638991686831400,4.207831298828125,0.08795534682869911,-0.0008212623881641775,0.006891732275113463
1772638991696876500,4.21787646484375,0.10486439605355262,0.007101776562910527,-0.008202723542135209
1772638991706922500,4.227922607421875,0.09543722701668739,-0.01426283643185161,-0.008776431776862591
1772638991716968400,4.237968505859375,0.08616028010547161,-0.004322037050733343,0.0025502690047025677
1772638991727013600,4.248013671875,0.08900281005501746,0.003153970518894493,-0.003920059520564973
1772638991737059600,4.2580595703125,0.09199614665210247,0.001648141666362062,0.0032691943963989614
1772638991747104800,4.268104736328125,0.08197159624397754,-0.0038420167151372877,-0.0011900865674018858
1772638991757150700,4.278150634765625,0.09603636195361613,0.0076966463166754685,-0.001120674593001604
1772638991767196700,4.28819677734375,0.09079846130013465,-0.008556021358678117,-0.005481080025900155
1772638991777241300,4.298241455078125,0.1009749873995781,0.00250663992553018,0.01423118091826327
1772638991787287600,4.30828759765625,0.10366787974536418,-0.004602324429992586,0.0008011237824335694
1772638991797333500,4.31833349609375,0.09214578425586223,0.0035231691574677823,-0.0019975852916948498
1772638991807378400,4.32837841796875,0.08541326113045215,0.0009147402247413993,-0.010482258447213098
1772638991817424600,4.338424560546875,0.08182312768399715,-0.006914994419692084,0.006817826788686215
1772638991827470600,4.348470703125,0.09484159921109676,0.006595872867386787,-0.00676783190080896
1772638991837515500,4.358515625,0.09020283349454403,0.0005913352229632437,-0.001670636625960469
1772638991847561500,4.3685615234375,0.09124854315519332,-0.0012035123045556248,0.00038730968399904665
1772638991857607700,4.378607666015625,0.08077391089200973,0.013733049537241459,-0.0012774999893736094
1772638991867652600,4.388652587890625,0.08451426646411418,0.007633015629090368,0.0035689901937264947
1772638991877698600,4.398698486328125,0.09364099124968052,-0.003658833034802228,0.004168965380871669
1772638991887743500,4.408743408203125,0.08526186996102332,0.000928659152239561,0.00912497121989727
1772638991897789400,4.41878955078125,0.0779296273767948,0.0012086908031720667,0.0018856128172017633
1772638991907835400,4.42883544921875,0.0948398456454277,0.001540525706578046,-0.0121274683709722
1772638991917880600,4.438880615234375,0.10247253248095511,0.005804457628214732,-0.009139538601366803
1772638991927926500,4.448926513671875,0.09424187975227832,-0.004196721037477254,-0.0007789484832435846
1772638991937972500,4.458972412109375,0.08286942186653613,-0.002543537869816646,0.003425252607790753
1772638991948017700,4.469017578125,0.09020283349454403,-0.00608390475725755,0.0013877828302793205
1772638991958063600,4.479063720703125,0.0873591345012188,-0.000836934881331399,0.005664190640999004
1772638991968109600,4.489109619140625,0.09050152418017386,0.0007673402438405901,-0.0018540760346222667
1772638991978154800,4.49915478515625,0.09154957192838191,0.0030051092332694677,0.0008626264450140297
1772638991988200700,4.50920068359375,0.09065233082771301,0.00730969282570295,-0.007009833096293732
1772638991998245400,4.519245361328125,0.09559095627367496,0.0026179365465883162,0.010167557341698557
1772638992008291600,4.52929150390625,0.09858370834887027,0.005414864655584097,-0.003784459575312212
1772638992018337500,4.539337646484375,0.09828501766324042,0.009520838669687509,-0.0027756661252584308
1772638992028382500,4.549382568359375,0.09409458023607731,0.0015865933380089698,0.0025912312027532606
1772638992038428700,4.5594287109375,0.08212357193529606,-0.001756689207907766,-0.00030976006891578434
1772638992048474600,4.569474609375,0.0922995135128498,0.004930962729314342,-0.005224694112036377
1772638992058519600,4.57951953125,0.097088501355052,0.010795260785985738,0.0003565857521723956
1772638992068565500,4.5895654296875,0.09798749602138995,-0.003515424242429435,-0.004784439531248063
1772638992078611700,4.59961181640625,0.08601590319871902,0.003548139201942831,-0.006512085307762027
1772638992088656600,4.60965673828125,0.093048870575428,0.0007122125231195241,0.00246201533251442
1772638992098702600,4.61970263671875,0.09155249453783035,-0.0005147171896416694,0.006507692260434851
1772638992108748800,4.629748779296875,0.08960720568895339,-0.004954060477111488,0.007744851106265559
1772638992118793500,4.63979345703125,0.09933364993333815,0.00781902145417407,0.002413673545606434
1772638992128839400,4.64983935546875,0.08945756808519363,0.0002407408201601356,-0.004128185845911503
1772638992138884600,4.659884521484375,0.09589198504686355,0.001831672406569123,0.0025400946705602108
1772638992148930600,4.6699306640625,0.08661445361375808,0.004079241270804778,0.003745378807093948
1772638992158976500,4.6799765625,0.10457096606492995,-0.007121540709305554,-0.01476054768776521
1772638992169021700,4.690021728515625,0.08422083647549151,-0.009989533893670886,0.008337492370326072
1772638992179067600,4.700067626953125,0.09275134893357753,0.004729174813209102,0.0008563519678544253
1772638992189113600,4.710113525390625,0.0937988121598959,-0.002608839924680069,0.00040788668114691973
1772638992199158800,4.72015869140625,0.10592004258632659,0.00005619629980064928,-0.00494954869877547
1772638992209204700,4.730204833984375,0.10427402894496918,0.008084239128464833,-0.0021105715463403613
1772638992219250700,4.740250732421875,0.10128069234788417,-0.0008786733975168317,0.006776983321644365
1772638992229295600,4.750295654296875,0.10232757105231284,0.013228013491397723,0.009466085408302023
1772638992239341600,4.760341552734375,0.09409750284552573,0.00900331760160625,-0.00045252040731720626
1772638992249386500,4.770386474609375,0.1017284361153841,0.0012688600251916796,-0.002552004304062575
1772638992259432400,4.780432373046875,0.09604220717251301,-0.011465460798284038,-0.004799207842117175
1772638992269478700,4.790478759765625,0.09379764311611652,-0.00462618022961542,0.0023007968888152388
1772638992279523600,4.800523681640625,0.08601765676438808,-0.0070301452319603405,0.006015259967837482
1772638992289569500,4.810569580078125,0.08706511999070644,0.0032858624034095554,0.0005181877883616835
1772638992299615700,4.82061572265625,0.09499591298997402,-0.0008916972758714109,-0.011011104626907036
1772638992309660700,4.83066064453125,0.08781330800950526,0.0008858611901290714,0.006027653658529743
1772638992319706600,4.84070654296875,0.09170330118536948,0.002392557692341506,0.0002799037867691368
1772638992329752300,4.85075244140625,0.09574234744310378,0.0030729137724731116,0.003689812694955617
1772638992339797500,4.860797607421875,0.10098024809658526,0.006210490278992802,0.000012841215264052151
1772638992349843500,4.870843505859375,0.0903565627515316,-0.011589845229778437,-0.00264742750255391
1772638992359889400,4.880889404296875,0.08781272348761558,0.004008139662817121,0.003702781774383038
1772638992369934600,4.8909345703125,0.099035543769598,-0.0003227017488796264,-0.009008770094858481
1772638992379980500,4.90098046875,0.0949964975118637,0.0031896080878563225,-0.006735884126275777
1772638992390025700,4.911025634765625,0.09170447022914886,0.005242494630208238,0.0005958561344537883
1772638992400071700,4.92107177734375,0.0958943231344223,0.007808965851040557,0.0034368243145756422
1772638992410117600,4.93111767578125,0.09843757787644862,0.009453463388746603,-0.0013939385764300822
1772638992420162600,4.94116259765625,0.10203063393235207,-0.004571728362329304,-0.0049089061611332
1772638992430208500,4.95120849609375,0.09035948536098003,0.0030379977227188645,-0.008039623668603599
1772638992440254500,4.96125439453125,0.08886310932338237,-0.004186099178763106,-0.010907552920887246
1772638992450299400,4.97129931640625,0.09634498951137066,-0.0046435880221426485,0.0036097788618411866
1772638992460345600,4.981345703125,0.08168108886480331,-0.0036384021681267766,-0.0029712160968221723
1772638992470391600,4.9913916015625,0.10352876353561878,0.004407094118837267,0.004545278746820986
1772638992480436500,5.0014365234375,0.09006254824101924,-0.0013233666914049536,-0.0018104012896772474
1772638992490482700,5.011482666015625,0.0848269856750965,0.0048102498259395355,0.004809573972504586
1772638992500527600,5.021527587890625,0.09814590145349501,-0.002571960246702656,-0.01830265900772065
1772638992510573600,5.031573486328125,0.10054068763554096,-0.00890550151662901,-0.006407583753671496
1772638992520619500,5.04161962890625,0.07645020247399807,-0.0064236855051014565,-0.009230066429032012
1772638992530664700,5.051664794921875,0.0842307733476162,0.007978011408168822,-0.006712576315924525
1772638992540710400,5.06171044921875,0.09979249961674212,-0.005814449299266561,-0.0018397643814794717
1772638992550756400,5.07175634765625,0.08886895454227924,-0.00641341070625931,-0.00036201997911557555
1772638992560801300,5.08180126953125,0.09664952541589736,0.005307769285608083,-0.0003497176199685782
1772638992570847200,5.09184716796875,0.07495207287073134,0.0009846636557951569,0.007390210716007277
1772638992580893200,5.10189306640625,0.09320902957320212,-0.002255048917792737,-0.007330068893451243
1772638992590938400,5.1119384765625,0.1011398225724697,-0.006585543269617483,0.005975594677729532
1772638992600984300,5.121984375,0.08961889612674713,-0.0022948055394459515,0.007964110746979712
1772638992611029500,5.132029541015625,0.08049100229740143,-0.0008818152026738971,-0.004030287562543526
1772638992621075500,5.142075439453125,0.09695113871097565,-0.0017736860084813088,-0.01572752042324282
1772638992631121400,5.152121337890625,0.10009294386804103,-0.0006909048736095428,-0.004838818333297967
1772638992641166300,5.162166259765625,0.08916998331546783,0.006733829166507348,0.003404127621371299
1772638992651212500,5.172212646484375,0.08961948064863681,0.002669045679317787,0.004505732187721878
1772638992661258500,5.182258544921875,0.08348609246015548,-0.00698534710900858,-0.0021319339947775003
1772638992671303200,5.19230322265625,0.09590601357221602,-0.00998672088207677,-0.00017347513707354663
1772638992681349400,5.202349365234375,0.10024491955935955,0.007837269496917725,0.0020468860598281025
1772638992691395300,5.212395263671875,0.09560732288658619,-0.006586858443869277,0.0026837317917961625
1772638992701440300,5.222440185546875,0.09096797264814377,-0.0009524875523988157,0.005086491217743605
1772638992711486500,5.232486572265625,0.09800152454674244,0.007366400582157075,0.006310132994875312
1772638992721532400,5.242532470703125,0.10159399608075619,0.007271863299654797,-0.0017420578943565487
1772638992731577300,5.252577392578125,0.1071311719417572,-0.000453342391224578,-0.00013509762175381183
1772638992741623300,5.262623291015625,0.08214227663576602,-0.008299425382260233,0.0010713646917138249
1772638992751668500,5.27266845703125,0.1005477018982172,0.007398174826754257,-0.0037503381100017575
1772638992761714400,5.28271435546875,0.09231763369143009,0.0027415172604843972,0.0002857307393569499
1772638992771760400,5.292760498046875,0.09456278226971626,-0.00426517403065227,-0.0003886613908689469
1772638992781805300,5.302805419921875,0.0882780029118061,-0.007905877753719688,-0.007435922154411673
1772638992791851300,5.312851318359375,0.09546060789227485,0.003900331906788051,-0.014028351822542025
1772638992801897200,5.322897216796875,0.09531097028851508,0.004381703949254006,-0.008474115228885784
1772638992811942400,5.3329423828125,0.09650748659670352,0.0012680380412843078,-0.0029423827279824763
1772638992821988400,5.34298828125,0.0813940886169672,-0.0010060169710777698,-0.004656319639552384
1772638992832034300,5.353034423828125,0.10069733950197696,-0.009875816986663266,0.007759655949752777
1772638992842079500,5.36307958984375,0.0992009634643793,-0.0073608476242050525,-0.011753584424126893
1772638992852125400,5.37312548828125,0.09366437212526797,0.011907386746350675,-0.0007301591717638075
1772638992862170400,5.38317041015625,0.09007131606936454,0.008372326221689581,-0.0002466591042932123
1772638992872216600,5.393216552734375,0.09530980124473572,0.007207136633526534,0.0038010453839320687
1772638992882262500,5.403262451171875,0.08857669359743595,-0.0073596511809621,0.0036463662788737564
1772638992892307200,5.41330712890625,0.0948614729553461,-0.000004484378872439265,0.007270493326475843
1772638992902353400,5.423353515625,0.08244213636517524,0.0021238420198671517,0.0001765073443762958
1772638992912399400,5.4333994140625,0.07989712805747985,0.008750749346334488,0.0027970377068500963
1772638992922444300,5.4434443359375,0.08019640326499938,-0.0005282981904223561,-0.005717838790686801
1772638992932490200,5.453490234375,0.09949906962811947,-0.00351052887160331,-0.0014403258682694285
1772638992942536400,5.463536376953125,0.09890110373497009,0.002299326450936496,0.002614529879949987
1772638992952581400,5.473581298828125,0.0867792887866497,-0.0029858474103733896,0.0014121683528646827
1772638992962627300,5.48362744140625,0.08124269744753837,-0.001512907047290355,-0.0011708978097420186
1772638992972672500,5.493672607421875,0.09545943884849548,0.0007242134881671518,-0.00568776331283152
1772638992982718500,5.503718505859375,0.08827683386802673,0.0005789415322709828,-0.012135880006290971
1772638992992764400,5.513764404296875,0.09785422503054142,-0.002063599732611328,0.006416726041352376
1772638993002809300,5.523809326171875,0.10054945546388626,-0.003186265353299677,-0.0027209402633365243
1772638993012855300,5.533855224609375,0.08798106579184532,-0.0059620228101033715,0.0007483706818893551
1772638993022901200,5.5439013671875,0.08573708625733852,0.005657295109331608,0.0065806478987913575
1772638993032946400,5.553946533203125,0.10399228939414024,-0.005411604119418188,0.018653098146896807
1772638993042992400,5.563992431640625,0.10040157142579555,0.00485406156820245,-0.009631313306838274
1772638993053038300,5.574038330078125,0.09636194064617157,0.005976973784063011,-0.011139151453366502
1772638993063083500,5.58408349609375,0.0884305631250143,-0.008372326221689581,0.0075319664074108
1772638993073129500,5.59412939453125,0.09800678524374962,-0.0029726956678554415,-0.011969683993374928
1772638993083174400,5.60417431640625,0.09291910671591758,-0.0029498719146940854,-0.006123277786420658
1772638993093220400,5.614220458984375,0.09830606045126915,-0.001514770210813731,0.0066951959228608755
1772638993103266300,5.624266357421875,0.09950316128134727,0.003578132481407374,-0.005857037198822945
1772638993113311200,5.634311279296875,0.08498772919476032,-0.0034295451904181387,-0.0033471002045087515
1772638993123357200,5.644357177734375,0.08618483002483844,-0.004901380441803485,-0.00498893999424763
1772638993133403400,5.6544033203125,0.10833294894695282,-0.003637013928638771,-0.0017359112813603132
1772638993143448300,5.6644482421875,0.09695932201743125,-0.003861826527304947,-0.007778141454514115
1772638993153494300,5.674494384765625,0.08349193767905234,-0.0030529395635239777,-0.012954521179106086
1772638993163540500,5.68454052734375,0.08379121288657188,0.0001416186940856278,-0.006144740699557587
1772638993173585400,5.69458544921875,0.08768179058432579,-0.003563437235774472,-0.0027239268048666414
1772638993183631400,5.70463134765625,0.09231997177898883,-0.0022253387661185114,-0.0015463435260113327
1772638993193677300,5.71467724609375,0.09875438874065876,-0.006669458693405613,-0.0012235961113590747
1772638993203722200,5.72472216796875,0.0965086556404829,0.0031299868551082906,-0.009949978201417253
1772638993213768200,5.734768310546875,0.09665770872235298,0.003443984707724303,-0.009695336720068008
1772638993223813400,5.7448134765625,0.1000987890869379,-0.003935403220169246,-0.011303265107050537
1772638993233859300,5.754859375,0.09860241304934024,-0.001634843793371692,0.0011584949858952313
1772638993243905300,5.7649052734375,0.09396306281089782,0.0006220317553263157,0.004274690777668729
1772638993253950500,5.774950439453125,0.10443711055219172,-0.0006292012816295027,-0.013547217242093757
1772638993263996400,5.784996337890625,0.08917407496869563,-0.006912701997905969,-0.015200418676063417
1772638993274042400,5.79504248046875,0.10713058741986752,0.003119501993712038,-0.011255334312096238
1772638993284087300,5.80508740234375,0.0875286458492279,-0.011384586714953184,0.001984196087159216
1772638993294133500,5.815133544921875,0.08543430391848086,0.0012764405434485524,-0.002242883555963635
1772638993304179500,5.825179443359375,0.09037176032066345,-0.007444489053357392,0.008324943416006862
1772638993314224000,5.83522412109375,0.08573299460411071,-0.006081119145127013,-0.009473419331386684
1772638993324270300,5.845270263671875,0.09456161322593688,-0.006027087402949109,-0.003890860825544223
1772638993334315300,5.855315185546875,0.09456161322593688,-0.0017216818266082554,0.007765747763821855
1772638993344361200,5.865361328125,0.09351356547772884,-0.002400129077443853,0.006401300143357366
1772638993354407400,5.875407470703125,0.09650690207481384,-0.010462147240946068,-0.004320429615536705
1772638993364452400,5.885452392578125,0.0918681363582611,-0.00572735553770326,-0.0010758125379681587
1772638993374498300,5.895498291015625,0.08887421523928642,0.0014104604529682546,-0.0001928465578239411
1772638993384544300,5.905544189453125,0.09156652306318283,0.0050844910569023336,-0.009533433289779349
1772638993394589400,5.91558935546875,0.09426058445274829,0.009284344766382128,-0.0005795625867787748
1772638993404635400,5.925635498046875,0.08917290592491627,-0.004671909934328869,-0.017413765610288828
1772638993414681300,5.935681396484375,0.10024667312502861,0.0033631471570115534,-0.0015561981997452676
1772638993424726300,5.945726318359375,0.08618015384972096,-0.008636301786964758,-0.006085703988699242
1772638993434772200,5.955772216796875,0.08617898480594158,0.0001527246099896729,-0.007910718325618654
1772638993444817400,5.9658173828125,0.08647709096968173,0.0028206103786826133,0.0025639504701830446
1772638993454863400,5.97586328125,0.08512918349206447,-0.0014211005779914557,0.0038758641858119515
1772638993464909300,5.985909423828125,0.08991700229048728,-0.0008825275887269526,0.006847628271905705
1772638993474954200,5.995954345703125,0.08842121077477931,0.0002307582822628319,0.007719269140437245
1772638993485000400,6.00600048828125,0.0872235254228115,0.0009833028157707304,-0.0033863636358175426
1772638993495046400,6.01604638671875,0.09171206901371479,0.012508604042511433,-0.007009641300048679
1772638993505091300,6.02609130859375,0.08363163841068744,-0.0027077885208185762,0.0033210981135722247
1772638993515137500,6.036137451171875,0.08303367251753807,-0.0002553173347841948,0.0032907760405447334
1772638993525183500,6.04618359375,0.08497837684452533,0.006337057534419,0.001467204742040485
1772638993535228200,6.056228271484375,0.09186287566125392,-0.0016832129797432571,0.008965241480385884
1772638993545275400,6.066275390625,0.09710019179284572,0.004997561692120507,0.009823328747600316
1772638993555320600,6.076320556640625,0.10144085134565829,0.007321894720150157,0.004640190488658845
1772638993565366500,6.086366455078125,0.09814940858483313,-0.0033606720721349116,-0.002076769741438329
1772638993575412500,6.09641259765625,0.07899696434736252,0.002278393260762095,-0.010826624038629233
1772638993585457700,6.106457763671875,0.08572948747277259,-0.00691588033568114,-0.003365850570751354
1772638993595503600,6.116503662109375,0.08977087181806563,-0.007605853627528995,-0.00008240845329128205
1772638993605549600,6.126549560546875,0.10368658444583416,-0.008623451438546181,0.005581553858844563
1772638993615594500,6.136594482421875,0.09814940858483313,0.0027968550437595693,0.0003396254842169583
1772638993625640400,6.146640380859375,0.09051789079308509,0.007533235915889963,-0.0028254326842725276
1772638993635686400,6.156686279296875,0.0953062941133976,-0.008045898145763203,-0.0009269329860340803
1772638993645731300,6.1667314453125,0.09740122056603431,-0.00908753441949375,0.00027423209780827164
1772638993655777500,6.176777587890625,0.0861778157621622,-0.010962324448581784,0.000013836729107424617
1772638993665822500,6.186822509765625,0.09485679678022861,-0.007216397652216255,0.00013670505695044993
1772638993675868400,6.196868408203125,0.09515665650963782,-0.007443119080178439,-0.0013913082279264925
1772638993685914600,6.20691455078125,0.09934650941491126,-0.004497758943820372,0.024038161319261415
1772638993695959600,6.21695947265625,0.09171557614505291,-0.0023055735286325214,-0.0018473175002727657
1772638993706005500,6.227005615234375,0.10233984601199626,-0.005463215575646609,-0.0037029279048554596
1772638993716051500,6.237051513671875,0.09455869061648844,-0.00010479381503537297,-0.010766600947082042
1772638993726096400,6.247096435546875,0.08917056783735751,-0.010962762839999049,0.003112442065263167
1772638993736142300,6.257142333984375,0.10129062922000884,-0.007561439097067341,-0.007463056756509468
1772638993746188300,6.267188232421875,0.10323416450321674,-0.016251672161510213,0.006575898658437654
1772638993756233500,6.2772333984375,0.09380641094446182,0.0034208138946909454,0.002379890007013455
1772638993766279400,6.287279541015625,0.10233692340254782,-0.0013740191664081067,0.004904960638377815
1772638993776324600,6.29732470703125,0.08348316985070704,-0.0025882537943776695,0.0047526104877237225
1772638993786370600,6.30737060546875,0.09365969595015049,0.0022626842349767686,0.0025719785130117086
1772638993796416500,6.31741650390625,0.09291209245324135,-0.0015623265464324502,-0.0023521343504078686
1772638993806461700,6.327461669921875,0.08662731309533118,-0.001861017232062295,-0.001802245382685214
1772638993816507600,6.337507568359375,0.09261223272383212,0.0018811649709474295,-0.00767400522660464
1772638993826553600,6.3475537109375,0.08797405152916908,-0.005291667534178123,-0.0010470705006737262
1772638993836598300,6.357598388671875,0.09515665650963782,0.0031712321809493,0.00786913507306017
1772638993846644500,6.36764453125,0.0982990461885929,-0.002389607683429494,-0.008747826736886054
1772638993856690400,6.3776904296875,0.09171557614505291,0.002427793402504176,-0.010139418092602864
1772638993866735400,6.3877353515625,0.09441022205650806,0.0005002502728719264,-0.0025281028386671097
1772638993876781600,6.397781494140625,0.1054839892566204,0.004978729127487168,-0.003658696037484333
1772638993886826500,6.407826416015625,0.09291501506268977,-0.0029633981165476143,-0.005726497021177783
1772638993896872400,6.41787255859375,0.08558218795657158,-0.005500396647723392,-0.0065233282209839665
1772638993906918400,6.42791845703125,0.09111936381757259,0.004496169774932787,-0.003798570299055427
1772638993916963600,6.437963623046875,0.08498480658531188,-0.007295901762368157,-0.007303847606806084
1772638993927009500,6.448009521484375,0.08543430391848086,-0.007932930157426745,0.0014112733037211
1772638993937055500,6.458055419921875,0.08199322355389595,-0.00799389396389015,0.007288869233382865
1772638993947100400,6.468100341796875,0.08049743203818797,-0.010615447239670901,-0.008280282290372996
1772638993957146400,6.478146484375,0.0860340233772993,-0.005518124100659042,0.0006507281268481165
1772638993967192300,6.4881923828125,0.0935153190433979,0.004927674793684855,-0.014815145685523747
1772638993977237500,6.498237548828125,0.09261690889894962,-0.005856050818134099,-0.007267214524000883
1772638993987283500,6.508283447265625,0.09216799608767032,-0.001196041384153068,-0.007232864729827269
1772638993997328600,6.51832861328125,0.0848363380253315,-0.0032984204908832904,0.0068814757425803685
1772638994007374600,6.52837451171875,0.08348784602582454,-0.00652081660348922,-0.0005618990659248084
1772638994017420500,6.538420654296875,0.08588263220787049,0.0029066264280118046,-0.0045902412665542215
1772638994027465500,6.548465576171875,0.09291618410646915,-0.004639432436833158,0.0011132036725990473
1772638994037511700,6.55851171875,0.09785422503054142,0.002077573459036648,-0.002198076299857348
1772638994047557600,6.5685576171875,0.08902560640871525,0.003144956095376983,-0.009804249587794765
1772638994057602300,6.578602294921875,0.08543488844037056,0.002033332458510995,-0.004693208450684324
1772638994067648500,6.5886484375,0.08723053968548775,0.002449411579268053,0.0033654761114157734
1772638994077694500,6.598694580078125,0.08543488844037056,0.007110453059710562,0.0008153806366492062
1772638994087739400,6.608739501953125,0.09067220457196234,0.008447939608013258,0.003492682687658816
1772638994097785600,6.61878564453125,0.09216974965333938,-0.0014650767170358448,0.0037183994686231015
1772638994107830500,6.62883056640625,0.09576105214357375,-0.005699481150088831,0.005192929000593722
1772638994117876500,6.63887646484375,0.10803075112998485,0.008177123309997841,0.004648136333096772
1772638994127922400,6.64892236328125,0.10414075795412063,-0.0063440717970952385,-0.017472245198721065
1772638994137967600,6.658967529296875,0.08334113103151321,0.0002673182998318225,-0.004978509931778535
1772638994148013600,6.669013671875,0.0867833804398775,0.004717995832068845,0.0013397059048525987
1772638994158059500,6.6790595703125,0.10010171169638633,-0.0019914295455440876,0.003361640186514705
1772638994168104400,6.6891044921875,0.09561375262737273,-0.013682616257946938,-0.01000933457268402
1772638994178150400,6.699150390625,0.10548983447551727,-0.002512722606444731,-0.008422558571584523
1772638994188195600,6.709195556640625,0.08962766395509242,-0.004589629345200956,0.005191769089968875
1772638994198241500,6.719241455078125,0.09097440238893031,-0.007999118128279224,-0.008115145723382011
1772638994208287500,6.72928759765625,0.08064999225139617,0.0051927463375031945,0.010657194889010861
1772638994218332400,6.73933251953125,0.09202186561524868,0.00000573562104254961,-0.004598652901872992
1772638994228378600,6.749378662109375,0.0966606313318014,-0.005425751375779509,-0.006157097857631743
1772638994238424600,6.759424560546875,0.08528817344605923,-0.013383423248818143,0.003263550106901675
1772638994248469500,6.769469482421875,0.09770692551434039,0.004968883586907759,0.005320062511600554
1772638994258515700,6.779515625,0.09875438874065876,0.006437494834745303,-0.003723358771530911
1772638994268561400,6.7895615234375,0.09351765713095664,0.003663253481592983,0.004938725910661742
1772638994278606300,6.7996064453125,0.09935293915569782,0.006531292331730947,-0.015603638315247371
1772638994288652500,6.809652587890625,0.1059369937211275,0.0024071250738110393,-0.005012019475735724
1772638994298698500,6.819698486328125,0.08513795132040977,-0.0006017378859687596,-0.004510262232366949
1772638994308743400,6.829743408203125,0.08648468975424765,-0.009649333020718768,0.0033000461923889815
1772638994318789400,6.839789306640625,0.10623626892864703,0.001149690624931827,0.0008930398495867848
1772638994328834600,6.84983447265625,0.10264555096030235,-0.005763815090572461,0.006924839960271492
1772638994338880500,6.859880615234375,0.09247194747030735,0.0012797741448506712,-0.004106832530628889
1772638994348926500,6.869926513671875,0.0947176805704832,-0.002211328507075086,-0.012835616640327497
1772638994358971600,6.8799716796875,0.0968137760668993,0.003431015628296882,-0.00018517470802180468
1772638994369017300,6.890017333984375,0.09067804979085922,0.002294348881719634,0.008520676050661131
1772638994379063300,6.900063232421875,0.09905775560140609,-0.0059714208261109885,-0.007379844585619867
1772638994389108500,6.9101083984375,0.09576572831869125,0.0013882577543146907,0.003675601506512612
1772638994399154400,6.920154541015625,0.07930617642700671,-0.0013449300692416728,-0.0028496264106128363
1772638994409200400,6.930200439453125,0.08274667226970195,-0.014556933140754699,0.00383953249710612
1772638994419245600,6.94024560546875,0.08514145845174789,-0.0014793518375605344,-0.008133914355933665
1772638994429291500,6.95029150390625,0.07691197476685047,0.002978047696407884,-0.00690686591216363
1772638994439336400,6.96033642578125,0.09636486325561999,0.005284817668283358,-0.004013920949632301
1772638994449382700,6.970382568359375,0.09786123929321765,0.0014306264581624417,0.004376982108363882
1772638994459428600,6.9804287109375,0.09696282914876937,-0.008405351708456873,0.002755719315772876
1772638994469473300,6.990473388671875,0.08993044629395007,0.0008887929327320307,0.0011766151644755155
1772638994479519500,7.00051953125,0.08065233033895491,-0.00035904257073998447,0.004661269809305668
1772638994489565400,7.0105654296875,0.09008008389770984,-0.0034879243141505865,-0.0022922117235604673
1772638994499610400,7.0206103515625,0.0941208837211132,-0.001234756826190278,-0.0037515528195537625
1772638994509656300,7.03065625,0.09337211118042468,0.0008599412975832819,-0.00708691692049615
1772638994519701500,7.040701416015625,0.09561667523682117,0.005149893576465547,-0.008779500516783445
1772638994529747500,7.05074755859375,0.09875964943766594,-0.007468828910170123,-0.005019243800966069
1772638994539793000,7.06079296875,0.09187631966471671,0.002563365948293358,-0.010535541270719841
1772638994549838000,7.070838134765625,0.09382102399170399,0.014009656255226582,0.012231412802636623
1772638994559884000,7.080884033203125,0.09247370103597641,0.008662413475755602,0.014738801646837964
1772638994569930000,7.090929931640625,0.09142623780965804,-0.0061832460790406905,0.0032809213668107983
1772638994579975000,7.100974853515625,0.09142682233154774,-0.008470717695401982,-0.0024849578166846182
1772638994590020900,7.111020751953125,0.08903262067139148,0.003545782848075032,-0.003957459788350388
1772638994600066800,7.12106689453125,0.09247603912353515,0.006271755479555577,-0.005229123691981658
1772638994610112000,7.131112060546875,0.10010638787150382,-0.006367936729872599,0.007931569317402317
1772638994620158000,7.141157958984375,0.0980120459407568,0.004963412827346474,0.002856531075434759
1772638994630203100,7.151203125,0.07975684280395508,-0.0006325622824952006,-0.013496838761726394
1772638994640249000,7.1612490234375,0.08289806343913078,-0.003089125121757388,0.0014488562345970422
1772638994650295000,7.171294921875,0.08424480187296866,-0.009822187103284523,0.0038209465276449915
1772638994660340000,7.181340087890625,0.08439385495483875,0.008019768190663308,0.013267039460688829
1772638994670386200,7.19138623046875,0.09427110584676265,0.0037743765727151182,0.005222867481131106
1772638994680432000,7.20143212890625,0.09711363579630851,0.011728988838987424,-0.012007321723178027
1772638994690476800,7.211476806640625,0.08499240536987782,-0.003830947331851348,0.004968974918453023
1772638994700523000,7.22152294921875,0.08589081551432609,-0.012801960965897887,0.0001364036628510803
1772638994710569000,7.23156884765625,0.09472001865804194,-0.005642992589343339,-0.009577418561978265
1772638994720614000,7.24161376953125,0.08843582382202148,-0.003917566169379279,0.004621376190334558
1772638994730659800,7.251659912109375,0.08948387157022952,-0.012342225366504863,0.006489069758355617
1772638994740705000,7.261705078125,0.09457096557617187,-0.0023316943505778905,0.005804804688086733
1772638994750751000,7.2717509765625,0.09741408004760742,-0.0072855812977533786,-0.0009856135038658976
1772638994760797000,7.281796875,0.09352291782796382,-0.010691827810974792,-0.004564905895898118
1772638994770842000,7.291842041015625,0.09606558804810046,-0.005406453020265325,0.002078112315153703
1772638994780888000,7.30188818359375,0.08963000204265117,-0.009889060060726478,0.0016018731055315583
1772638994790934000,7.31193408203125,0.08873159189820289,-0.004313461018633097,-0.0013568397027440369
1772638994800979000,7.32197900390625,0.10010521882772445,0.0009035064446739852,-0.0008558131117373704
1772638994811025000,7.33202490234375,0.10070318472087382,-0.003862858573766425,0.007982788047986104
1772638994821070800,7.34207080078125,0.08933072683513164,-0.003702023722557351,-0.0016182123189792037
1772638994831116000,7.352115966796875,0.08903028258383273,-0.004669343517906963,-0.008417918929085135
1772638994841162000,7.362161865234375,0.09232055630087851,-0.006051171531435102,0.002885117849102244
1772638994851207000,7.37220703125,0.07975099758505821,-0.005161145622842014,0.00015889862244948744
1772638994861253000,7.382253173828125,0.08633388310670852,-0.006566957300156355,0.0029968437284231186
1772638994871299000,7.392299072265625,0.09486439556479453,-0.00007571385102346539,-0.004426155012333765
1772638994881344000,7.402343994140625,0.08603636146485805,-0.0038453777160029857,-0.003979762951703742
1772638994891390200,7.41239013671875,0.09157295280396938,-0.00353081360780634,-0.015648646500753236
1772638994901436200,7.422436279296875,0.09890402634441851,0.004023081503622234,0.009332805284298955
1772638994911480800,7.432480712890625,0.10159867225587367,0.0030688038529362526,-0.0034904359316453334
1772638994921526800,7.44252685546875,0.09681085345745086,0.005744927727011963,-0.0026776491108816114
1772638994931573000,7.452572998046875,0.08678571852743625,-0.0065637424297630784,0.000035299642244353886
1772638994941618000,7.462617919921875,0.08513912036418915,-0.00009356003496795893,0.003913903774414211
1772638994951663900,7.472663818359375,0.08843231669068335,-0.000021873905090615152,0.007826994698075577
1772638994961709000,7.482708984375,0.09232289438843727,0.0008599412975832819,0.0015190901929046958
1772638994971755000,7.492755126953125,0.09860767374634742,-0.006466510866675526,0.006650562196690589
1772638994981801000,7.502801025390625,0.10384498987793922,-0.0018678944974206387,-0.010446538679860532
1772638994991846100,7.51284619140625,0.08244739706218242,-0.001962084720050916,-0.016628177323704585
1772638995001892000,7.52289208984375,0.0912754311621189,-0.0013647581477183848,0.008469256390677764
1772638995011938000,7.53293798828125,0.08663608092367649,-0.009848654985101893,0.00255409579644911
1772638995021983000,7.54298291015625,0.07975275115072726,-0.008531681501865387,0.002570151882106438
1772638995032029000,7.55302880859375,0.08768179058432579,0.004422227755887433,-0.0098333386849612
1772638995042073900,7.563073974609375,0.0894762727856636,-0.005509438470704481,-0.018535855842242016
1772638995052120000,7.5731201171875,0.1008481461495161,-0.00004823218905366957,-0.004803929683007299
1772638995062166000,7.583166015625,0.09950140771567821,-0.0003722399790305644,0.0020773816627915947
1772638995072211000,7.5932109375,0.0873801772892475,-0.007536532984673976,-0.0025909206754993644
1772638995082257200,7.603257080078125,0.09201894300580024,0.004802760639227926,0.005096775149740279
1772638995092303000,7.61330322265625,0.09695756845176219,-0.009947064725123345,-0.0011958495879080145
1772638995102348000,7.62334814453125,0.09710662153363227,-0.006923570451792329,-0.006018018180504441
1772638995112394000,7.63339404296875,0.09965046079754829,0.001801797858113423,-0.012590912031102925
1772638995122440000,7.64343994140625,0.09890227277874945,0.0017648268485907464,0.001327887602895498
1772638995132484900,7.65348486328125,0.10443944863975048,0.00005647029443643987,-0.00554960608431138
1772638995142530800,7.66353076171875,0.08588438577353953,-0.0058098370562307535,-0.00533812789125368
1772638995152576000,7.673575927734375,0.09994915148317814,-0.007276557741081342,-0.003583110050624236
1772638995162622000,7.6836220703125,0.08842880955934523,0.0074319126995746046,-0.007590692591015249
1772638995172668000,7.69366796875,0.07361410226523876,0.009501786909345536,-0.005113388357823714
1772638995182713000,7.703713134765625,0.08693243352174758,0.00004481638926081359,-0.0014731960914097725
1772638995192759000,7.713759033203125,0.09321779740154743,-0.0015969046694692224,-0.0020107461673673243
1772638995202805000,7.723804931640625,0.08513736679852009,-0.0036990919799543913,-0.003836582488194108
1772638995212850200,7.73385009765625,0.09695815297365189,0.003339848479814827,-0.0062424928524531425
1772638995222896000,7.743896240234375,0.09456395131349563,0.0033770386850461363,0.0033758148423396047
1772638995232941800,7.75394189453125,0.09591068974733352,-0.00467070435793139,0.005166031860513612
1772638995242987000,7.763987060546875,0.08304185582399368,-0.006487106130132451,0.0017414825056213884
1772638995253033000,7.774032958984375,0.07690729859173298,-0.010004859326966107,-0.0002406677549239248
1772638995263078000,7.784077880859375,0.08753156845867634,0.0030382717173546552,0.0076790010621305554
1772638995273124000,7.7941240234375,0.09216974965333938,0.0002411152794957161,-0.0030706304838415232
1772638995283170000,7.804170166015625,0.09920213250815868,-0.004832160263648256,-0.004474880391731858
1772638995293215000,7.814215087890625,0.09471300439536572,0.0007014262676239013,0.007804801132576539
1772638995303261000,7.824260986328125,0.08558511056602,-0.002443356297817081,0.007656478703068569
1772638995313307100,7.83430712890625,0.07900105600059032,0.007712802867032587,0.0041932321724481875
1772638995323352000,7.84435205078125,0.08393909692466259,-0.0066210255749523635,-0.011674692235328256
1772638995333397800,7.854397705078125,0.06942308031618595,-0.0005584193340502679,0.004573381463298574
1772638995343443000,7.86444287109375,0.09261632437705992,0.00040435215034522116,0.014753168098907917
1772638995353489000,7.874489013671875,0.07600596583783627,-0.006565569060668349,-0.0026005013545975088
1772638995363534800,7.884534912109375,0.08483458445966244,0.0067618222851306194,0.005498707014136016
1772638995373580000,7.894580078125,0.09441197562217712,-0.004070226847287267,0.005090939063997939
1772638995383626000,7.9046259765625,0.09201894300580024,-0.003698534857528284,0.004524564752355218
1772638995393672000,7.914671875,0.0830406867802143,-0.003409881508722901,-0.014167413233360274
1772638995403717000,7.924717041015625,0.08588438577353953,0.007790105886943638,-0.012331767904572188
1772638995413763000,7.93476318359375,0.09710720605552196,0.015330703125381841,0.002839260280225426
1772638995423809000,7.94480908203125,0.09635901803672313,-0.0022838366208598015,0.013604043729556724
1772638995433854000,7.95485400390625,0.10488836145102977,-0.0011429594900459051,0.0028046821571886538
1772638995443900000,7.96489990234375,0.099201547986269,0.005561552250431851,-0.0005685388692654668
1772638995453944800,7.97494482421875,0.08528525083661079,-0.011633921833522617,-0.004594314653472975
1772638995463991000,7.984990966796875,0.09291676862835883,-0.0028304285197984424,-0.003425617933971807
1772638995474037000,7.995037109375,0.09905249490439891,0.007217100905114784,0.004888731022784486
1772638995484082000,8.00508203125,0.09426409158408641,-0.001183072304725647,0.006521081464970484
1772638995494127900,8.0151279296875,0.09516250172853469,-0.0061076966247987,-0.005820431515481323
1772638995504174000,8.025174072265624,0.10174714081585406,0.00162908990602009,-0.0008699695012532174
1772638995514219000,8.035218994140624,0.09456570487916469,0.002051041645137593,0.0022141141192056238
1772638995524265000,8.045264892578125,0.09366787925660609,-0.00023187252711504697,-0.010967941338615492
1772638995534311200,8.055311279296875,0.09052607409954071,-0.013433500335086137,-0.011524917634250596
1772638995544355300,8.065355224609375,0.0809492674589157,-0.012212379308603704,-0.013008242394030093
1772638995554401300,8.0754013671875,0.09995382765829562,-0.0003914470029994845,-0.010876125736162066
1772638995564446500,8.085446533203125,0.09351882617473602,0.0009674385263584553,-0.0049146052495576435
1772638995574492400,8.095492431640626,0.09336918857097626,-0.004756044553825631,-0.0010923618139699102
1772638995584538400,8.105538330078126,0.10174772533774375,-0.005859649281017482,-0.007716346530988812
1772638995594583600,8.11558349609375,0.09516425529420375,0.0028021157407667487,-0.003923292657267302
1772638995604629500,8.12562939453125,0.08124795814454555,0.001153389552515,-0.005257427337858825
1772638995614675500,8.135675537109375,0.08558744865357876,-0.0013952446175273508,0.00040444348189048465
1772638995624720600,8.145720703125,0.09740823482871055,-0.00739353518425487,0.007064157099416479
1772638995634766600,8.1557666015625,0.09516367077231407,-0.00919991788594052,-0.002369715672871098
1772638995644811300,8.165811279296875,0.09067512718141078,-0.002524230381147936,0.004955649645999074
1772638995654857500,8.175857421875,0.07975099758505821,0.007238143693143502,-0.00041830761046148836
1772638995664903400,8.1859033203125,0.08962766395509242,-0.005772756448853761,0.008912360515678302
1772638995674948400,8.1959482421875,0.07915361621379852,-0.009560513092949986,-0.00006866305572912096
1772638995684994600,8.20599462890625,0.08723346229493617,-0.00435074255540967,-0.0015198025789577513
1772638995695040500,8.21604052734375,0.09935235463380813,-0.015616169003257527,-0.0005219506480265408
1772638995705085400,8.22608544921875,0.0873801772892475,0.004837165232328698,-0.0025102566547226157
1772638995715131600,8.236131591796875,0.09501169508099555,0.00651653315401636,-0.004885616617091
1772638995725177600,8.246177490234375,0.0869318489998579,0.0037746049015782773,0.010390406312141567
1772638995735222500,8.256222412109375,0.08842880955934523,-0.004369940446224063,-0.002475651132222265
1772638995745268500,8.2662685546875,0.08723170872926711,-0.00489017406119965,-0.008186959717422723
1772638995755313400,8.2763134765625,0.09022504532635212,-0.0037563203262165187,-0.007318414988275617
1772638995765359400,8.286359375,0.10144845013022422,0.006554682340472936,-0.0027880232833325863
1772638995775405300,8.2964052734375,0.09471475796103476,0.010491428134357557,0.0022189820905681697
1772638995785450500,8.306450439453124,0.0827443341821432,0.0065614226085133846,0.00235481036468409
1772638995795496400,8.316496337890625,0.0887310073763132,-0.007435127569967881,-0.0016184406478423625
1772638995805542400,8.32654248046875,0.09037643649578093,-0.008301882200827821,0.00028432423355989156
1772638995815587600,8.336587646484375,0.0900771612882614,-0.010868874011468141,-0.0015313012205064296
1772638995825633500,8.346633544921875,0.08723346229493617,-0.010929353760741651,-0.0024037732060998677
1772638995835679500,8.356679443359376,0.08109715149700641,-0.0077339369866065676,-0.005141061816038564
1772638995845724700,8.366724609375,0.09636077160239219,-0.005649111802875995,-0.0059824171441607175
1772638995855770600,8.3767705078125,0.1018979474633932,-0.007022290719067677,-0.006415374334482476
1772638995865815300,8.386815185546874,0.0932189664453268,0.0060926086535211645,-0.01002310736970976
1772638995875861500,8.396861572265625,0.09247077842652797,0.001303812607564032,0.0029526392605155704
1772638995885907500,8.406907470703125,0.09007540772259234,-0.0004724672168027609,0.004489840498846024
1772638995895952400,8.416952392578125,0.08783025914430617,-0.007709085673140361,-0.0022366547445766627
1772638995905998600,8.42699853515625,0.09426409158408641,0.015062444110633804,-0.0019213325845543294
1772638995916044500,8.43704443359375,0.08962532586753368,0.005068380172317847,0.007537738561071455
1772638995926089500,8.44708935546875,0.09351707260906696,-0.0071203990649897604,0.00624710509548895
1772638995936135400,8.457135498046876,0.09830606045126915,0.0005485555271618068,0.008257832996547221
1772638995946181600,8.467181640625,0.09126783237755298,-0.0036378085130825636,-0.0020443561760243026
1772638995956226600,8.4772265625,0.054577393361926074,-0.0020972828065045175,-0.02578866738155484
1772638995966272500,8.4872724609375,0.02865969277322292,0.013181799729494377,-0.016267773912940174
1772638995976317400,8.4973173828125,0.13563947354555128,-0.0009151329503860324,0.0013334131613839417
1772638995986363400,8.50736328125,0.13472937296330928,-0.001231861616205424,0.002261222930252552
1772638995996409300,8.517409423828125,0.06273907250761986,0.0005207176721654832,-0.00881412430559285
1772638996006454500,8.52745458984375,0.10194295564889908,-0.005297649750392884,-0.0018574096360243857
1772638996016500500,8.53750048828125,0.1488017374575138,-0.005197322047920897,0.01124701400832273
1772638996026546400,8.54754638671875,0.16769874562919138,-0.013932060974370688,0.02617782196276821
1772638996036591600,8.557591552734374,0.10473054054081439,-0.009444467231538146,0.0077762965572997925
1772638996046637600,8.567637451171874,0.005827683240175247,-0.0031466548621188846,-0.026784911877289413
1772638996056683500,8.57768359375,0.05640694687664508,0.003108715738216415,-0.005527576915593817
1772638996066728700,8.587728759765625,0.07660510077476501,-0.0023073636269196865,0.00009465601351112127
