time,seconds_elapsed,z,y,x
1772744464441194000,0.073194091796875,0.000720430922228843,-0.0006078921724110842,-0.000967591826338321
1772744464451220000,0.083219970703125,0.0002920508850365877,0.0006417001131922007,0.0005282486090436578
1772744464461248300,0.093248291015625,0.00021348765585571527,-0.0003953350242227316,0.0012590199476107955
1772744464471275000,0.10327490234375,0.0016340307192876935,-0.001725835376419127,0.0011855426710098982
1772744464481303000,0.113302978515625,0.0007977981586009264,-0.0013111811131238937,-0.0003854560200124979
1772744464491331000,0.1233310546875,-0.0003025536716450006,-0.001030010636895895,0.001210670336149633
1772744464501358000,0.133358154296875,-0.0014008412836119533,-0.002440154319629073,-0.0010434291325509548
1772744464511386000,0.14338623046875,-0.0005776658654212952,-0.0010558136273175478,-0.00012057932326570153
1772744464521414100,0.1534140625,0.0017531325574964285,0.0017357119359076023,0.0015777185326442122
1772744464531441000,0.16344091796875,0.0009449124336242676,-0.0015245153335854411,0.0009911609813570976
1772744464541469200,0.17346923828125,-0.0008860108209773898,0.002339997561648488,-0.00019474467262625694
1772744464551497000,0.1834970703125,-0.0008870095480233431,-0.00011016940698027611,-0.0007686044555157423
1772744464561524200,0.193524169921875,-0.00026063405675813556,0.0003052838146686554,-0.0023047158028930426
1772744464571552000,0.203552001953125,0.0014731207629665732,-0.00020704208873212337,-0.00030916629475541413
1772744464581579000,0.2135791015625,0.001680048299022019,0.0007809905800968409,-0.0012151736300438643
1772744464591607000,0.22360693359375,0.0003337739617563784,-0.0019433937268331647,-0.00008054135832935572
1772744464601635000,0.233635009765625,0.000498889887239784,-0.0003540192265063524,0.002346397377550602
1772744464611662000,0.243662109375,-0.0003591711283661425,-0.00021667382679879665,-0.0005780145293101668
1772744464621690000,0.253690185546875,-0.0013503996888175607,0.00019904575310647488,0.00025795178953558207
1772744464631718100,0.26371826171875,-0.0002681137702893466,0.0013631649781018496,-0.000038461992517113686
1772744464641745200,0.2737451171875,0.0013244565343484282,0.0005471725016832352,-0.00442841649055481
1772744464651773000,0.28377294921875,0.00044757098658010364,0.0024277199991047382,-0.0006595614831894636
1772744464661801200,0.29380126953125,0.00023425184190273285,0.001695084385573864,-0.0013253517681732774
1772744464671828000,0.303827880859375,-0.0017523188143968582,0.0007074798922985792,-0.0021269344724714756
1772744464681856300,0.313856201171875,-0.00023831173893995583,-0.0002568506170064211,0.003594866953790188
1772744464691883000,0.323883056640625,-0.0005871829926036298,0.00048191030509769917,0.001801923499442637
1772744464701911000,0.3339111328125,0.0003696907078847289,0.000784978037700057,-0.0018849566113203764
1772744464711939000,0.34393896484375,-0.0006724413833580911,0.0016307609621435404,-0.0005425007548183203
1772744464721966000,0.353966064453125,0.0011614112881943583,-0.00026940437965095043,-0.0004154679481871426
1772744464731994000,0.363994140625,-0.000800789799541235,-0.002412960398942232,-0.0010058925254270434
1772744464742022100,0.374022216796875,-0.001345139928162098,0.0000728340819478035,0.0016426212387159467
1772744464752049000,0.384048828125,0.00006863771704956889,-0.00007651792839169502,-0.000729376741219312
1772744464762077200,0.3940771484375,-0.0004967513959854841,0.0001527802087366581,-0.0010167318396270275
1772744464772105000,0.40410498046875,0.00018225109670311213,0.00007732445374131203,0.00024339108495041728
1772744464782132200,0.41413232421875,0.001970830140635371,0.0005974399391561747,0.0011501975823193789
1772744464792160300,0.42416015625,-0.0017277875449508429,0.00023672962561249733,0.0006857693661004305
1772744464802187300,0.434187255859375,-0.0017695992719382048,0.001970447599887848,-0.0007166513241827488
1772744464812215300,0.44421533203125,-0.0009743170812726021,0.0008443370461463928,-0.0009149914840236306
1772744464822243300,0.454243408203125,-0.0015293199103325605,0.0003431299701333046,-0.0014321773778647184
1772744464832270300,0.464270263671875,0.00112802570220083,-0.00019476213492453098,-0.000032469688449054956
1772744464842298400,0.47429833984375,-0.00010128947906196117,-0.0012323297560214996,0.000022125139366835356
1772744464852326400,0.484326416015625,0.00017301132902503014,-0.0000032766256481409073,0.001235196366906166
1772744464862353400,0.494353515625,-0.0011527102906256914,-0.0014794666785746813,0.0027228379622101784
1772744464872381200,0.504381103515625,0.0029090503230690956,-0.0015650757122784853,0.001786600099876523
1772744464882408400,0.514408447265625,0.0005199284059926867,0.001982254907488823,0.0011924488935619593
1772744464892436200,0.524436279296875,0.001463957829400897,0.00021949689835309982,-0.0008349245763383806
1772744464902464500,0.534464599609375,0.0015161558985710144,-0.002324088243767619,0.0014029296580702066
1772744464912491300,0.5444912109375,0.0002037505037151277,0.0001753806136548519,-0.00011882715625688434
1772744464922519300,0.554519287109375,-0.0006228946731425822,0.0008859122171998024,-0.0010021977359429002
1772744464932547300,0.56454736328125,-0.0011868460569530725,0.0008311141282320023,-0.0003580169577617198
1772744464942574300,0.57457421875,-0.0005966896424070001,0.0021256767213344574,-0.000059476587921381
1772744464952602400,0.584602294921875,-0.0008163352613337338,-0.0012705058325082064,0.00041621143463999033
1772744464962630100,0.594630126953125,0.0012249776627868414,-0.0014055280480533838,0.002469774801284075
1772744464972657200,0.6046572265625,-0.003082557348534465,0.000728152459487319,0.0005576626281253994
1772744464982685400,0.614685546875,-0.00002924312138929963,0.0003787458408623934,0.0007970808655954897
1772744464992713200,0.624713134765625,-0.001133151352405548,-0.000700927572324872,-0.00004731910303235054
1772744465002740500,0.634740478515625,-0.0010873449500650167,-0.000044458312913775444,-0.002109671011567116
1772744465012768300,0.644768310546875,0.002299720421433449,-0.0012616526801139116,0.00040803069714456797
1772744465022795300,0.654795166015625,0.0008136765682138503,-0.00036842841655015945,-0.0011547121684998274
1772744465032823300,0.6648232421875,-0.00042737380135804415,-0.003381893038749695,0.0005044267163611948
1772744465042851300,0.674851318359375,-0.0008721217163838446,-0.00013922806829214096,0.0030264402739703655
1772744465052878300,0.68487841796875,0.0007669578189961612,-0.0016211115289479494,0.002890717936679721
1772744465062906400,0.69490625,-0.0018650442361831665,0.0008803955279290676,-0.00010853412095457315
1772744465072934400,0.704934326171875,-0.0009012076770886779,0.002397677395492792,-0.0023381528444588184
1772744465082961400,0.71496142578125,-0.001056203618645668,0.0006690192967653275,-0.0020891474559903145
1772744465092989200,0.7249892578125,0.0015733581967651844,-0.0017105590086430311,0.000019327213522046804
1772744465103017200,0.735017333984375,-0.001846673316322267,0.0008258356247097254,-0.0017053359188139439
1772744465113044200,0.745044189453125,-0.0009357741801068187,-0.00011244090273976326,0.0003216823097318411
1772744465123072500,0.755072509765625,-0.0004438883042894304,0.0020484477281570435,0.00001728296047076583
1772744465133099300,0.765099365234375,-0.001932060462422669,-0.00045900046825408936,0.0016296065878123045
1772744465143127300,0.775127197265625,-0.0007908960105851293,-0.00038922554813325405,0.00001706258626654744
1772744465153155300,0.7851552734375,-0.0014749595429748297,0.0003811330534517765,-0.000816893414594233
1772744465163182300,0.795182373046875,-0.00006667990237474442,-0.0020812256261706352,-0.0016427396330982447
1772744465173210400,0.80521044921875,0.00018658122280612588,0.00032431050203740597,-0.00019029452232643962
1772744465183238100,0.815238037109375,-0.001699203159660101,0.00004494492895901203,0.0007889497792348266
1772744465193265200,0.82526513671875,-0.0010086270049214363,-0.0012426208704710007,-0.00027723651146516204
1772744465203293400,0.83529345703125,0.00037488515954464674,0.0017963121645152569,0.000752607942558825
1772744465213321200,0.8453212890625,0.0005720369517803192,-0.0015342194819822907,0.0015641662757843733
1772744465223348500,0.855348388671875,0.0003533915150910616,-0.00039172335527837276,0.00139372400008142
1772744465233376300,0.865376220703125,-0.00020657680579461157,-0.0002959014382213354,0.0009478311985731125
1772744465243403300,0.8754033203125,-0.0017852985765784979,0.001271901186555624,-0.0004175714566372335
1772744465253431300,0.885431396484375,0.000032079522497951984,0.0008714268915355206,0.0017501632682979107
1772744465263459300,0.895459228515625,0.0003902747412212193,0.001204587984830141,0.002679872792214155
1772744465273486300,0.905486328125,0.0017755497246980667,-0.00010315282270312309,-0.0002618734142743051
1772744465283514400,0.915514404296875,-0.00013739889254793525,-0.0013740133726969361,0.0029504315461963415
1772744465293542400,0.92554248046875,0.0007690464844927192,0.0010183034464716911,0.0018718562787398696
1772744465303569400,0.9355693359375,-0.0009921019664034247,0.0006004534661769867,0.0006811569910496473
1772744465313597200,0.94559716796875,-0.0009159940527752042,-0.00037679937668144703,0.00009232322918251157
1772744465323625200,0.955625244140625,-0.00196341541595757,0.0002043023705482483,0.0014119194820523262
1772744465333652200,0.96565234375,0.00014783215010538697,-0.0015806002775207162,-0.0006078783771954477
1772744465343680300,0.97568017578125,-0.0004143611586187035,-0.0008237299043685198,-0.00029815276502631605
1772744465353707300,0.985707275390625,0.0015151032712310553,-0.0010122146923094988,-0.0028225823771208525
1772744465363735300,0.9957353515625,-0.0009113027481362224,-0.00016612838953733444,0.0005710838595405221
1772744465373763300,1.005763427734375,-0.001194538315758109,0.002093969378620386,-0.00261812936514616
1772744465383790300,1.015790283203125,0.0011668866500258446,-0.0018469762289896607,0.00006766861770302057
1772744465393818400,1.025818359375,0.0000026862253434956074,-0.00021647149696946144,-0.0018313751788809896
1772744465403846100,1.03584619140625,-0.001703867455944419,0.00037208711728453636,0.000874662771821022
1772744465413873200,1.045873046875,-0.001112355850636959,-0.00044420058839023113,-0.00021989113884046674
1772744465423901400,1.0559013671875,-0.0018026471370831132,-0.00004552537575364113,0.00010741135338321328
1772744465433929200,1.06592919921875,-0.0007562176324427128,0.0004692906513810158,0.002275084611028433
1772744465443956500,1.07595654296875,-0.0007650060579180717,0.0002466505393385887,-0.000758522015530616
1772744465453984300,1.085984375,0.0000650957808829844,-0.001405035494826734,-0.0009298617369495332
1772744465464011300,1.09601123046875,-0.0003322478150948882,-0.0008867844007909298,0.001221972401253879
1772744465474039300,1.106039306640625,0.0004710558569058776,0.0011488506570458412,0.0003804402076639235
1772744465484067300,1.1160673828125,-0.0004171083273831755,-0.0013193669728934765,-0.000605728302616626
1772744465494094300,1.12609423828125,0.00027599616441875696,0.001083076698705554,0.0013838972663506866
1772744465504122400,1.136122314453125,0.0017601759172976017,0.00032354332506656647,0.0009644493693485856
1772744465514150400,1.146150390625,0.0009070669184438884,0.00018620002083480358,-0.0036688330583274364
1772744465524177400,1.156177490234375,0.0007443477516062558,-0.0003403071314096451,-0.001165461726486683
1772744465534205200,1.166205078125,-0.00117169797886163,0.001834428170695901,-0.0007247061585076153
1772744465544233200,1.176233154296875,0.000366277527064085,-0.0011741449125111103,0.0013086171820759773
1772744465554260200,1.18626025390625,0.000636929296888411,-0.0006791579071432352,0.00036246259696781635
1772744465564288300,1.196288330078125,-0.0004408520180732012,-0.0008496001828461885,0.0006538124289363623
1772744465574316300,1.20631640625,0.0011560661951079965,0.0013609437737613916,-0.0002972872753161937
1772744465584343300,1.21634326171875,0.0017203900497406721,-0.0012609383556991816,-0.0016459120670333505
1772744465594371300,1.226371337890625,0.0005586016923189163,0.00017082947306334972,-0.0005004515405744314
1772744465604398300,1.2363984375,-0.0004467415565159172,0.00006536836735904217,-0.0002511796192266047
1772744465614426400,1.24642626953125,0.000010130519513040781,0.0010108039714396,0.0016608397709205747
1772744465624454100,1.2564541015625,0.0009904401376843452,0.0005367612466216087,0.0017433977918699384
1772744465634481200,1.266481201171875,-0.0017620492726564407,0.0024831269402056932,-0.0005769091658294201
1772744465644509400,1.276509521484375,-0.0008416607743129134,0.0009696527849882841,0.00011551269562914968
1772744465654537200,1.286537109375,0.002812725957483053,0.000605414155870676,-0.0012666679685935378
1772744465664564500,1.296564453125,0.0015373380156233907,-0.00019513186998665333,-0.001243232167325914
1772744465674592300,1.30659228515625,-0.0018877038965001702,0.0013707419857382774,0.0006439273711293936
1772744465684619300,1.316619384765625,0.0008790541905909777,-0.0008095880039036274,0.0014231682289391756
1772744465694647300,1.326647216796875,-0.0007691570208407938,-0.00001828349195420742,0.0006953806732781231
1772744465704675000,1.336675048828125,-0.00008552352664992213,-0.0004883313085883856,-0.0009983897907659411
1772744465714702300,1.346702392578125,0.0010825045173987746,-0.0015844905283302069,-0.0004766507772728801
1772744465724730400,1.35673046875,-0.0007055418682284653,-0.0009165697265416384,-0.00027398421661928296
1772744465734758400,1.36675830078125,-0.0011234463891014457,0.000026706838980317116,-0.0016573744360357523
1772744465744785400,1.376785400390625,-0.000021696672774851322,-0.0001882102806121111,-0.0006730702007189393
1772744465754813200,1.386813232421875,-0.0009409701451659203,-0.0020427543204277754,-0.0021725567057728767
1772744465764841200,1.39684130859375,0.00007422687485814095,-0.002832381520420313,-0.00033630713005550206
1772744465774868200,1.4068681640625,0.0009229567949660122,-0.0003391220234334469,0.0008738525211811066
1772744465784896300,1.416896240234375,-0.00040862374589778483,0.0007117614150047302,0.002470151288434863
1772744465794923500,1.426923583984375,-0.00009260338265448809,0.0014577992260456085,0.00011142937000840902
1772744465804951600,1.43695166015625,-0.002992253052070737,-0.0005361093208193779,-0.0007293305825442076
1772744465814979600,1.4469794921875,-0.003174834419041872,-0.0010945177637040615,0.0009817993268370628
1772744465825006600,1.457006591796875,0.0018172607524320483,0.0008618403226137161,0.0002904426073655486
1772744465835034600,1.46703466796875,-0.00012871093349531293,-0.0017536500236019492,-0.002248881384730339
1772744465845062400,1.4770625,0.0038953747134655714,-0.000013525830581784248,-0.001411979435943067
1772744465855089700,1.487089599609375,0.0008974996162578464,0.0019550162833184004,0.0005838435026817024
1772744465865117400,1.497117431640625,-0.0007501982036046684,-0.0025132354348897934,0.0003891664673574269
1772744465875145500,1.5071455078125,0.0008218901930376887,-0.0025313375517725945,-0.0020434295292943716
1772744465885172500,1.51717236328125,0.00042667705565690994,-0.001663945964537561,-0.002242900198325515
1772744465895200500,1.527200439453125,-0.0004594318161252886,-0.00041104364208877087,-0.00218484690412879
1772744465905227800,1.537227783203125,0.0008244781056419015,0.0010630162432789803,-0.00178643804974854
1772744465915255600,1.547255615234375,-0.00016074127051979303,-0.0006527036894112825,0.00045360001968219876
1772744465925283600,1.55728369140625,-0.00119910784997046,0.00031535536982119083,0.0017034215852618217
1772744465935310600,1.567310546875,0.0034195352345705032,-0.0007803959306329489,0.000005041365511715412
1772744465945338400,1.57733837890625,-0.0004013018624391407,0.000880085164681077,-0.0009707408607937396
1772744465955366700,1.58736669921875,0.0011900460813194513,-0.00031589018180966377,0.0004959623911418021
1772744465965393700,1.5973935546875,0.0019703523721545935,0.0003464377950876951,-0.00010964047396555543
1772744465975421700,1.607421630859375,-0.0007036939496174455,-0.0011838267091661692,-0.0022645466960966587
1772744465985449500,1.617449462890625,-0.0006661433726549149,-0.000299923587590456,-0.00017556326929479837
1772744465995476500,1.6274765625,0.0007463959627784789,0.0019802055321633816,-0.0009673649910837412
1772744466005504500,1.63750439453125,0.000702453835401684,0.00023184041492640972,0.0033059429842978716
1772744466015531500,1.647531494140625,-0.0007427954697050154,0.0010946914553642273,0.001248406246304512
1772744466025559600,1.6575595703125,0.0030181207694113255,0.0013415664434432983,-0.0008597520645707846
1772744466035587600,1.667587646484375,0.00029457651544362307,-0.0006894641555845737,-0.0013020539190620184
1772744466045614600,1.677614501953125,-0.0007235499215312302,-0.00026895105838775635,0.0003080933238379657
1772744466055642600,1.687642578125,-0.00023535441141575575,0.00035433145239949226,0.0013235954102128744
1772744466065670400,1.69767041015625,0.00016119028441607952,0.0013916324824094772,0.0009355728980153799
1772744466075697700,1.70769775390625,0.00011796766193583608,0.0009329202584922314,0.0021639657206833363
1772744466085725400,1.717725341796875,0.0006940094754099846,0.0002154647372663021,-0.0009881516452878714
1772744466095753700,1.727753662109375,-0.0009706640848889947,0.0022904861252754927,-0.0010923733934760094
1772744466105780500,1.737780517578125,0.000379025936126709,-0.0004123563412576914,-0.00013283645967021585
1772744466115808500,1.74780859375,-0.00048787385458126664,0.00021244119852781296,0.002783917123451829
1772744466125836500,1.75783642578125,0.0017510456964373589,-0.000717800809070468,0.00008347176481038332
1772744466135863600,1.767863525390625,-0.000004845613148063421,-0.0002798901405185461,-0.002467809710651636
1772744466145891600,1.7778916015625,-0.000673032714985311,0.0021220147609710693,0.0004331717500463128
1772744466155918600,1.787918701171875,-0.0013820696622133255,-0.0004228611942380667,-0.000362409366061911
1772744466165946400,1.7979462890625,0.00036549667129293084,0.0013452114071696997,-0.0008652141550555825
1772744466175974700,1.807974609375,0.0005952927167527378,-0.00026033236645162106,0.0011361973593011498
1772744466186001700,1.818001708984375,-0.0011131251230835915,0.00001716916449368,0.00029676908161491156
1772744466196029700,1.82802978515625,-0.0017182109877467155,0.0024767343420535326,-0.0013008035020902753
1772744466206057500,1.838057373046875,0.002924744039773941,-0.00011878227815032005,-0.00006855890387669206
1772744466216084500,1.84808447265625,0.00008012482430785894,-0.0015286484267562628,-0.00021357025252655149
1772744466226112500,1.858112548828125,-0.000517754873726517,-0.0005331588909029961,-0.0001232891227118671
1772744466236139500,1.868139404296875,0.0000025478657335042953,-0.0004833419807255268,-0.00020030821906402707
1772744466246167600,1.87816748046875,-0.0007889436092227697,-0.00030943751335144043,0.0003877177368849516
1772744466256195600,1.888195556640625,0.0003626092220656574,-0.00047551002353429794,-0.0007541585946455598
1772744466266222600,1.89822265625,0.00035728298826143146,0.0012283804826438427,0.0007667726604267955
1772744466276250600,1.908250732421875,-0.000973633024841547,0.0019077467732131481,0.000010772375389933586
1772744466286278400,1.9182783203125,-0.0018631287384778261,0.0015021474100649357,-0.0009258613572455943
1772744466296305700,1.9283056640625,0.00006054411642253399,-0.0005815238691866398,0.0007339824223890901
1772744466306333400,1.93833349609375,-0.0010486624669283628,0.0013197069056332111,0.0025665033608675003
1772744466316361700,1.94836181640625,-0.0022139670327305794,0.0015532495453953743,0.001518344972282648
1772744466326388500,1.958388427734375,-0.0009300569072365761,-0.0004997812211513519,0.0004466890241019428
1772744466336416500,1.96841650390625,-0.000672430032864213,-0.0014109103940427303,-0.0010186186991631985
1772744466346444500,1.978444580078125,0.001726012909784913,-0.0008516465313732624,-0.0012364652939140797
1772744466356471600,1.988471435546875,-0.0010378973092883825,-0.0005712774582207203,-0.00011816259939223528
1772744466366499600,1.99849951171875,-0.00023948162561282516,-0.0017436009366065264,-0.000292865966912359
1772744466376526600,2.008526611328125,-0.00005822547245770693,-0.001021720003336668,0.00013005791697651148
1772744466386554400,2.018554443359375,0.00006374734221026301,-0.0000022619497030973434,0.000396374030970037
1772744466396582700,2.028582763671875,0.00010984548134729266,-0.001160746905952692,-0.0003306727157905698
1772744466406609400,2.038609375,0.00018441397696733475,0.0005197077989578247,-0.00008805870311334729
1772744466416637700,2.0486376953125,-0.0009329019812867045,-0.0006265202537178993,-0.00016327697085216641
1772744466426665500,2.05866552734375,0.0022687502205371857,0.0007711064536124468,0.0003038415452465415
1772744466436692500,2.0686923828125,-0.0010979017242789268,-0.00006082747131586075,-0.0003513263363856822
1772744466446720500,2.078720458984375,-0.002202580915763974,0.001075543463230133,-0.0018352397019043565
1772744466456748500,2.08874853515625,-0.0007244788575917482,0.0002337403129786253,-0.0031719631515443325
1772744466466775600,2.098775634765625,-0.00017959607066586614,-0.0012150192633271217,-0.0004004116344731301
1772744466476803600,2.108803466796875,-0.0011322161881253123,-0.001158012542873621,-0.00016994687030091882
1772744466486830600,2.11883056640625,0.0006619554478675127,-0.0005686550866812468,-0.00007407309021800756
1772744466496858600,2.128858642578125,-0.0011554192751646042,0.0011315871961414814,-0.0002340148203074932
1772744466506886400,2.138886474609375,0.0008091946365311742,0.0007558153010904789,0.0009915719274431467
1772744466516913700,2.14891357421875,-0.0011121862335130572,0.00011480809189379215,0.0011903222184628248
1772744466526941400,2.15894140625,0.0006268579745665193,-0.00042101996950805187,-0.0009162382339127362
1772744466536969700,2.1689697265625,0.00137056945823133,-0.00122166913934052,-0.001467070309445262
1772744466546996500,2.17899658203125,0.0000826647155918181,0.0009583942592144012,0.00009966728975996375
1772744466557024500,2.1890244140625,0.0025893852580338717,-0.00027628871612250805,-0.000311589683406055
1772744466567052500,2.199052490234375,0.0004178438102826476,-0.00009439489804208279,0.0007483484223484993
1772744466577079600,2.20907958984375,0.00023365754168480635,-0.0010351247619837523,0.00008691340917721391
1772744466587107600,2.219107666015625,-0.0005703507922589779,0.00036889384500682354,-0.001046261633746326
1772744466597134600,2.229134521484375,-0.0003484778862912208,-0.0003051040694117546,-0.0017583982553333044
1772744466607162400,2.239162353515625,-0.0001143860281445086,-0.0001333302352577448,-0.0018577342852950096
1772744466617190700,2.249190673828125,0.0011588464258238673,0.0013842186890542507,0.0012281779199838638
1772744466627217400,2.259217529296875,-0.00070163793861866,-0.0011758781038224697,0.0006553320563398302
1772744466637245700,2.26924560546875,0.00013896927703171968,0.0010857272427529097,-0.0018907849444076419
1772744466647273500,2.2792734375,0.0005272582056932151,-0.00020563951693475246,0.0016754540847614408
1772744466657300500,2.289300537109375,0.00037827936466783285,-0.0018026017351076007,0.0017984233563765883
1772744466667328500,2.29932861328125,0.0009109115926548839,0.0004131481982767582,-0.0004969552392140031
1772744466677356500,2.3093564453125,0.00026632705703377724,0.0011340235359966755,-0.0011450740275904536
1772744466687383600,2.319383544921875,-0.00009825971210375428,-0.0005269898101687431,-0.0014313638675957918
1772744466697411600,2.32941162109375,-0.0010328195057809353,0.0010615817736834288,0.002727027051150799
1772744466707438600,2.3394384765625,0.0019925315864384174,0.00016862386837601662,-0.0004216281231492758
1772744466717466600,2.349466552734375,0.0006735445931553841,0.00029767327941954136,-0.0010496268514543772
1772744466727494400,2.359494384765625,-0.0011869396548718214,-0.0006738479714840651,0.00037756108213216066
1772744466737521700,2.369521728515625,0.002959989011287689,0.0009004333987832069,0.0006472806562669575
1772744466747549400,2.379549560546875,-0.0006019888678565621,0.0023353449068963528,-0.0012654016027227044
1772744466757577700,2.38957763671875,-0.00006466935155913234,0.0014370328281074762,0.0016829175874590874
1772744466767604500,2.3996044921875,-0.0005003624828532338,-0.0006855067331343889,0.0011500190012156963
1772744466777632500,2.409632568359375,-0.0022223566193133593,0.0016219881363213062,-0.0006699248915538192
1772744466787660500,2.41966064453125,0.0008107174653559923,0.0002704341895878315,-0.0017298629973083735
1772744466797686800,2.429686767578125,-0.0010945899412035942,0.001348972087725997,0.0003169768024235964
1772744466807714800,2.43971484375,0.0005152909434400499,-0.00037648994475603104,-0.00105268694460392
1772744466817741800,2.449741943359375,0.0020041940733790398,-0.0012428238987922668,-0.0005535095697268844
1772744466827770000,2.45977001953125,-0.002221975941210985,0.0020286033395677805,-0.0015290254959836602
1772744466837798000,2.4697978515625,-0.0011187359923496842,0.00005372660234570503,-0.0011341143399477005
1772744466847825000,2.479824951171875,-0.002096116077154875,0.0014833116438239813,0.0002464684075675905
1772744466857853000,2.48985302734375,-0.001117400941438973,0.0012373225763440132,0.00009142589988186955
1772744466867880700,2.499880615234375,-0.00030487048206850886,0.0010146824643015862,-0.000957593263592571
1772744466877908000,2.509907958984375,0.0014200704172253609,-0.0004908801056444645,0.00046536308946087956
1772744466887936000,2.51993603515625,-0.000402064441004768,-0.0024861202109605074,-0.0014454550109803677
1772744466897964000,2.529964111328125,-0.001464351429603994,-0.001301347278058529,0.001309870509430766
1772744466907991000,2.539990966796875,0.0009623209480196238,-0.0023445074912160635,0.0006677824421785772
1772744466918018800,2.550018798828125,0.00033458921825513244,0.0003497872967272997,-0.002385377185419202
1772744466928046800,2.560046875,0.0003662808449007571,0.00007628067396581173,-0.000157642993144691
1772744466938073900,2.570073974609375,-0.00013259536353871226,0.0034964357037097216,-0.0010958364000543952
1772744466948102000,2.580101806640625,-0.0016356834676116705,-0.0008407882414758205,-0.0004031481803394854
1772744466958129000,2.59012890625,0.0026669211219996214,-0.000156675698235631,0.0006829605554230511
1772744466968157000,2.600156982421875,-0.00009637477342039347,-0.0007803880143910646,-0.00016179413069039583
1772744466978185000,2.61018505859375,0.0003203789237886667,0.0008220351301133633,-0.0005416650092229247
1772744466988212000,2.6202119140625,0.00009827129542827606,0.0003330789040774107,-0.0016599263763055205
1772744466998240000,2.630239990234375,-0.0003693244361784309,0.0017611738294363022,0.00008035905193537474
1772744467008267800,2.640267822265625,-0.001489716349169612,0.0017057801596820354,0.0007642588461749256
1772744467018294800,2.650294677734375,0.00023833755403757095,-0.00090570910833776,0.0010399436578154564
1772744467028322800,2.66032275390625,-0.0004615411744453013,-0.00025270204059779644,-0.00040828334749676287
1772744467038350800,2.670350830078125,0.0010826943907886744,0.0013978651259094477,-0.0005760377971455455
1772744467048378000,2.680378173828125,-0.0023056454956531525,-0.00046395091339945793,0.00014887464931234717
1772744467058406000,2.690406005859375,0.0007258820696733892,0.0009135664440691471,0.000764302269089967
1772744467068433000,2.700432861328125,-0.00011514418292790651,-0.0005426497664302588,0.00020690268138423562
1772744467078461000,2.7104609375,0.0023532724007964134,0.0014930639881640673,-0.00212387484498322
1772744467088488700,2.72048876953125,-0.00012879370478913188,-0.0014843500684946775,0.000046335102524608374
1772744467098516000,2.730515869140625,-0.0008601512527093291,0.00043727923184633255,-0.0009485848713666201
1772744467108544000,2.7405439453125,0.000996338319964707,0.0003565854858607054,-0.0009403291041962802
1772744467118572000,2.750572021484375,0.0003069086233153939,-0.0019323863089084625,-0.000664451508782804
1772744467128599000,2.76059912109375,-0.0000020181178115308285,0.0011209279764443636,-0.0008673843694850802
1772744467138626800,2.770626708984375,0.0005046568112447858,0.0024377559311687946,-0.00007289944915100932
1772744467148654800,2.78065478515625,0.0007755003171041608,-0.0006717510987073183,-0.0001237658434547484
1772744467158681900,2.790681884765625,-0.0006730281165800989,-0.00031821359880268574,0.00024930137442424893
1772744467168710000,2.8007099609375,-0.0007633093046024442,0.0014381413348019123,-0.000818626256659627
1772744467178738000,2.810738037109375,0.002077235374599695,-0.0007479044143110514,0.00004763767356052995
1772744467188765000,2.820764892578125,-0.002531897509470582,0.001014042878523469,-0.000761430652346462
1772744467198793000,2.83079296875,-0.0023039598017930984,0.0007357227150350809,-0.0005439636297523975
1772744467208820000,2.840820068359375,-0.002285584108904004,-0.00011249398812651634,-0.0008680703467689455
1772744467218848000,2.850847900390625,0.002514415420591831,-0.00023475871421396732,0.00041720562148839235
1772744467228875800,2.860875732421875,0.00047683087177574635,-0.001715476275421679,0.0013288055779412389
1772744467238903000,2.870903076171875,-0.0007272582734003663,0.0005026580765843391,0.00019378942670300603
1772744467248930800,2.880930908203125,-0.00124977040104568,0.00004779011942446232,-0.00011859933147206903
1772744467258958800,2.890958740234375,0.0010091604199260473,0.0030179659370332956,0.0005533059593290091
1772744467268986000,2.900986083984375,0.0007785306661389768,-0.0007405530195683241,0.0008348021656274796
1772744467279014000,2.911013916015625,0.0007707415497861803,0.000511666527017951,-0.0007269330671988428
1772744467289042000,2.9210419921875,0.0015555752906948328,0.0023199529387056828,0.002803086768835783
1772744467299069000,2.93106884765625,-0.0008284950745292008,-0.00039065047167241573,-0.0020306515507400036
1772744467309096700,2.9410966796875,-0.0010021331254392862,0.0013728949707001448,0.001659690635278821
1772744467319124000,2.9511240234375,-0.002078551799058914,0.0018117574509233236,-0.0005290263216011226
1772744467329151700,2.96115185546875,-0.0009227397385984659,-0.0009363587014377117,-0.0017298456514254212
1772744467339180000,2.971179931640625,0.0005327389226295054,0.0007091942243278027,0.0011605634354054928
1772744467349207000,2.98120703125,-0.002833763137459755,0.0010319692082703114,-0.00004984333645552397
1772744467359234800,2.99123486328125,-0.0005107203032821417,0.001641634851694107,0.0015252460725605488
1772744467369262800,3.001262939453125,-0.0012454864336177707,-7.369089871644974e-7,-0.0022953248117119074
1772744467379289900,3.011289794921875,-0.001000881427899003,0.0007368524093180895,-0.0012032295344397426
1772744467389318000,3.02131787109375,-0.00038782175397500396,0.002195199718698859,-0.0012240021023899317
1772744467399346000,3.031345947265625,-0.0017762628849595785,0.00030635902658104897,-0.002022618893533945
1772744467409373000,3.041373046875,-0.0009940924355760217,0.0007031699642539024,-0.0011168777709826827
1772744467419401000,3.05140087890625,-0.00012401601998135448,0.0002487720921635628,-0.00012976548168808222
1772744467429428700,3.0614287109375,0.0016672261990606785,0.00011215172708034515,-0.001467737602069974
1772744467439456000,3.0714560546875,0.0000883599859662354,0.00031195906922221184,0.002039759187027812
1772744467449483800,3.08148388671875,-0.001114589860662818,-0.000764224212616682,-0.0008234053384512663
1772744467459511000,3.091510986328125,0.0010647906456142664,-0.0009906215127557516,0.000043047359213232994
1772744467469538800,3.101538818359375,-0.0009397707763127983,0.0017748051322996616,-0.003298420924693346
1772744467479566800,3.11156689453125,-0.0008914839127101004,-0.0011256730649620295,0.0009150536498054862
1772744467489593900,3.12159375,-0.0027785999700427055,0.0012671772856265306,-0.0010269234189763665
1772744467499622000,3.131621826171875,0.00033856037771329284,0.0008989309426397085,-0.001733284443616867
1772744467509650000,3.14164990234375,-0.0013011478586122394,0.000004375120624899864,0.0022111234720796347
1772744467519677000,3.151677001953125,0.0003283993573859334,-0.0023725382052361965,-0.0006456113769672811
1772744467529704700,3.16170458984375,-0.003224523738026619,-0.0017837134655565023,-0.0017425674013793468
1772744467539732000,3.17173193359375,0.0017907614819705486,-0.001471661264076829,0.0010813373373821378
1772744467549759700,3.181759765625,-0.0013096906477585435,-0.0026959164533764124,0.00024403957650065422
1772744467559788000,3.1917880859375,-0.0009076083078980446,0.0018251212313771248,-0.000875952304340899
1772744467569815000,3.20181494140625,-0.0019481052877381444,0.000405922532081604,-0.00008472712943330407
1772744467579843000,3.211843017578125,0.0010029689874500036,-0.0008489841129630804,0.003001180477440357
1772744467589870800,3.221870849609375,-0.001045534387230873,-0.0009150304831564426,0.0005593280657194555
1772744467599897900,3.23189794921875,0.0012066058116033673,-0.0010900660417973995,0.0003008238272741437
1772744467609926000,3.24192578125,-0.00018702642410062253,-0.0003622241783887148,-0.0024547488428652287
1772744467619954000,3.251953857421875,0.0019708750769495964,0.0017002741806209087,-0.0018361702095717192
1772744467629981000,3.26198095703125,-0.0017397074261680245,0.0005508540198206902,-0.0012393558863550425
1772744467640009000,3.272009033203125,0.000045945344027131796,-0.002068890258669853,0.00018700776854529977
1772744467650036700,3.28203662109375,0.0018774012569338083,0.00010691233910620213,0.0011084615252912045
1772744467660064000,3.29206396484375,-0.00025773054221645,0.000868532108142972,-0.00023035198682919145
1772744467670091800,3.302091796875,0.0014107398455962539,-0.0016854393761605024,-0.0005589860957115889
1772744467680119000,3.312119140625,0.000374772644136101,-0.0006313493940979242,-0.0009377793176099658
1772744467690146800,3.322146728515625,-0.0018399121472612023,0.0002845118287950754,-0.0002307100803591311
1772744467700174800,3.3321748046875,-0.0014194343239068985,-0.0017988148611038923,-0.0003876250993926078
1772744467710201900,3.342201904296875,-0.00024498021230101585,0.0017056390643119812,0.002069673500955105
1772744467720230000,3.35222998046875,0.002102837897837162,-0.001509944791905582,-0.0004839410830754787
1772744467730258000,3.3622578125,-0.0017467616125941277,0.0005902240518480539,-0.0018565342761576176
1772744467740285000,3.372284912109375,0.0012489415239542723,0.0005201271269470453,0.0003910405794158578
1772744467750313000,3.38231298828125,0.0013623922131955624,0.0010849835816770792,0.002569240052253008
1772744467760341000,3.392341064453125,0.0005345685058273375,0.000826649134978652,0.0017221440793946385
1772744467770367700,3.40236767578125,0.000369186163879931,-0.0016341115115210414,0.00015434116357937455
1772744467780396000,3.41239599609375,-0.0010674108052626252,-0.0006934357807040215,-0.0007136511849239469
1772744467790424800,3.4224248046875,0.0011440780945122242,-0.00042259227484464645,-0.0005575899849645793
1772744467800451800,3.432451904296875,-0.0027694490272551775,-0.00040425779297947884,-0.00007511104922741652
1772744467810479600,3.442479736328125,-0.00041468197014182806,-0.0003240967635065317,0.0017424963880330324
1772744467820507000,3.4525068359375,-0.000564653251785785,0.0007727844640612602,-0.0012222535442560911
1772744467830534700,3.46253466796875,0.000833506288472563,0.0018588216044008732,-0.0007388898520730436
1772744467840563000,3.47256298828125,0.0006043410394340754,-0.0011375911999493837,0.00037267873995006084
1772744467850589700,3.482589599609375,-0.0015589446993544698,-0.0004936389159411192,-0.0004582275287248194
1772744467860617700,3.49261767578125,0.0016051498241722584,-0.0015558823943138123,-0.0004689295310527086
1772744467870645800,3.502645751953125,-0.0009416311513632536,0.0014076833613216877,-0.0014106233138591051
1772744467880672800,3.5126728515625,0.001829851302318275,-0.0002567481715232134,0.0007445773226208985
1772744467890700800,3.52270068359375,-0.000972859445028007,0.0006370085757225752,-0.0003028439823538065
1772744467900728600,3.532728515625,-0.0020280363969504833,-0.00007945997640490532,0.0015312551986426115
1772744467910755600,3.542755615234375,-0.0004258786211721599,-0.0008326019160449505,0.0012148716486990452
1772744467920784000,3.552783935546875,0.00011547084432095289,0.00004200916737318039,0.00048718845937401056
1772744467930810600,3.562810546875,0.000359682715497911,0.003018890507519245,-0.0014462664257735014
1772744467940839000,3.5728388671875,0.000022636668290942907,0.0019843275658786297,0.002554616890847683
1772744467950866700,3.58286669921875,-0.0008767128456383944,0.00024581607431173325,-6.860354915261269e-7
1772744467960893700,3.592893798828125,0.0004059174098074436,-0.0016407800139859319,-0.0010167196160182357
1772744467970921700,3.602921630859375,-0.0008148755878210068,0.0003360845148563385,0.00022378080757334828
1772744467980949800,3.61294970703125,-0.001559616532176733,-0.000713772140443325,-0.0015484073664993048
1772744467990976800,3.622976806640625,-0.0006749143358319998,-0.0004913981538265944,-0.0022770483046770096
1772744468001004800,3.6330048828125,-0.000138793169753626,0.00046780286356806755,-0.00010335410479456186
1772744468011032800,3.64303271484375,0.00186443654820323,-0.0016933523584157228,-0.0017396003240719438
1772744468021059800,3.653059814453125,0.000029526709113270044,0.0013537202030420303,-0.0004887053510174155
1772744468031087600,3.663087646484375,0.0008761456119827926,0.0007963208481669426,-0.0010474364971742034
1772744468041115600,3.67311572265625,-0.0012466522166505456,0.0010287442710250616,-0.0011411525774747133
1772744468051142700,3.683142578125,-0.000014940276741981506,-0.00048579531721770763,-0.0006260972004383802
1772744468061171000,3.6931708984375,0.0012086215429008007,0.0008205720223486423,0.0006514289998449385
1772744468071197700,3.70319775390625,-0.000605523819103837,0.0008003320544958115,0.0009097556467168033
1772744468081225700,3.713225830078125,0.000877952144946903,-0.00032190349884331226,0.00012667063856497407
1772744468091253800,3.723253662109375,0.002039356855675578,0.00116547173820436,-0.00046694796765223145
1772744468101280800,3.73328076171875,-0.0016153634060174227,0.000814708648249507,0.0016726602334529161
1772744468111308800,3.743308837890625,-0.0018044478492811322,-0.0005102138966321945,0.0006231086445041001
1772744468121336600,3.753336669921875,-0.0007392814732156694,-0.0009540880564600229,-0.00040848006028681993
1772744468131363600,3.763363525390625,0.0005952285719104111,0.0015130643732845783,-0.0010356544516980648
1772744468141392000,3.773391845703125,-0.0018368334276601672,0.0012834682129323483,0.0006217992631718516
1772744468151419600,3.783419677734375,0.0006223295349627733,-0.0003991168923676014,-0.0005931347841396928
1772744468161447000,3.793447021484375,0.0008644478511996567,0.0008000852540135384,0.0005929401377215981
1772744468171474700,3.803474609375,0.00248364987783134,0.0005457533989101648,0.001994029153138399
1772744468181501700,3.813501708984375,-0.0006405114545486867,-0.0004044068045914173,-0.0009851377690210938
1772744468191529700,3.82352978515625,-0.0011393215972930193,0.0009889593347907066,-0.0006003110320307314
1772744468201557800,3.833557861328125,0.0013473635772243142,0.0003462773747742176,0.0006717359647154808
1772744468211584800,3.843584716796875,0.0016160765662789345,0.0012352406047284603,-0.0008515921072103083
1772744468221612800,3.85361279296875,0.00007943232776597142,-0.0014705611392855644,0.00002345879329368472
1772744468231640800,3.863640869140625,-0.00007156888023018837,0.00026235776022076607,0.002112974878400564
1772744468241667800,3.873667724609375,0.00104771729093045,-0.0011399805080145597,0.001182627398520708
1772744468251695600,3.883695556640625,0.0017606454202905297,0.0003231600858271122,-0.0021540471352636814
1772744468261723600,3.8937236328125,-0.002033940749242902,-0.0012044678442180157,0.0000779302790760994
1772744468271750700,3.903750732421875,-0.0009497680002823472,-0.0004196343943476677,0.00023452413734048605
1772744468281778700,3.91377880859375,0.0005557149415835738,0.0005711577832698822,-0.0012521964963525534
1772744468291806700,3.923806640625,0.00002095213858410716,0.0023986189626157284,0.001440791878849268
1772744468301833700,3.933833740234375,-0.0004094511969015002,0.0008449975866824389,0.0006261361995711923
1772744468311861800,3.94386181640625,-0.0010656540980562568,-0.0014855345943942666,0.0002961705904453993
1772744468321888800,3.953888671875,0.0006508897640742362,0.0009465417824685574,0.0018659001216292381
1772744468331916800,3.963916748046875,-0.0005776264588348567,-0.0006329789757728577,0.0005289932596497238
1772744468341944600,3.973944580078125,-0.0023511245381087065,0.00039506424218416214,-0.0031287053134292364
1772744468351971600,3.9839716796875,0.0009298899676650763,-0.001583398086950183,0.0007816141587682068
1772744468362000000,3.993999755859375,0.00016066175885498524,-0.000760471448302269,0.0009716660133562982
1772744468372027600,4.004027587890625,-0.0003570567350834608,-0.0013042888604104519,0.0010566208511590958
1772744468382055000,4.014054931640625,-0.0014739751350134611,-0.00043449015356600285,0.0006995006115175784
1772744468392082700,4.024082763671875,-0.00022708310279995203,-0.0010014772415161133,0.001359698362648487
1772744468402110700,4.03411083984375,-0.00304193003103137,-0.00020699016749858856,-0.0017344477819278836
1772744468412137700,4.0441376953125,-0.001012068591080606,0.0009200598578900099,-0.0001746343623381108
1772744468422165800,4.054165771484375,-0.001907233614474535,0.0007253270596265793,0.0008375022443942726
1772744468432192800,4.06419287109375,-0.001100828405469656,-0.00005897367373108864,-0.0004282982263248414
1772744468442220800,4.074220703125,-0.002187274396419525,0.00047193001955747604,-0.000053405354265123606
1772744468452248800,4.084248779296875,-0.0011382551165297627,-0.0006316839717328548,0.0007612556801177561
1772744468462275800,4.09427587890625,-0.00020742631750181317,-0.0003667334094643593,0.0010761087760329247
1772744468472303600,4.1043037109375,0.0002517026150599122,-0.0016019074246287346,-0.0015697418712079525
1772744468482331600,4.11433154296875,-0.0009897196432575583,-0.0007691564969718456,0.000019307539332658052
1772744468492358700,4.124358642578125,0.0003455893020145595,-0.00007034302689135075,0.0015394400106742978
1772744468502386700,4.13438671875,-0.00029637300758622587,-0.0008092497009783983,-0.0004123837570659816
1772744468512414700,4.144414794921875,-0.0014332764549180865,0.0006301889661699533,0.00010906317038461566
1772744468522441700,4.154441650390625,-0.0006954069249331951,-0.0004791342653334141,0.0005256390431895852
1772744468532469800,4.1644697265625,0.0005592082161456347,-0.0003763362765312195,-0.0019247354939579964
1772744468542497500,4.17449755859375,-0.0013181872200220823,0.0011427481658756733,-0.001376728294417262
1772744468552524800,4.18452490234375,-0.0014454862102866173,0.0016032089479267597,-0.0020366597454994917
1772744468562552600,4.194552490234375,-0.001991191878914833,0.0012826700694859028,-0.0017667142674326897
1772744468572579600,4.20457958984375,-0.0008076832164078951,0.0005068911705166101,-0.0012167715467512608
1772744468582608000,4.21460791015625,-0.0005998684791848063,0.0013656786177307367,0.0007702208240516484
1772744468592635600,4.2246357421875,-0.00005658360896632075,0.00032997550442814827,0.00007566844578832388
1772744468602663000,4.234662841796875,0.0008152785012498498,-0.0005529832560569048,0.0017039990052580833
1772744468612690700,4.244690673828125,-0.0022920977789908648,-0.00026509538292884827,-0.002030551666393876
1772744468622718700,4.25471875,-0.001152500044554472,0.0005358066409826279,-0.0006477906717918813
1772744468632745700,4.264745849609375,0.001102664740756154,0.003442380577325821,0.0003117463202215731
1772744468642773500,4.2747734375,0.0003168026451021433,-0.0009955358691513538,-0.002185212913900614
1772744468652801800,4.2848017578125,-0.0005314141744747758,0.00010940968059003353,0.00035757338628172874
1772744468662828800,4.294828857421875,-0.002151512773707509,0.001005134079605341,0.0005045696161687374
1772744468672856800,4.30485693359375,0.0013561367522925138,-0.0007445630617439747,0.0007165572606027126
1772744468682883800,4.3148837890625,-0.00209228228777647,0.0009528291411697865,0.0004488173290155828
1772744468692911600,4.32491162109375,0.00020575919188559055,0.0009831893257796764,-0.0017243220936506987
1772744468702939600,4.334939697265625,-0.002535824663937092,0.001107432646676898,-0.002048661932349205
1772744468712966700,4.344966552734375,0.0015747644938528538,-0.0007149686571210623,-0.000197498535271734
1772744468722994700,4.35499462890625,-0.0005622166790999472,-0.001224225154146552,0.0007564642583020031
1772744468733022700,4.365022705078125,-0.000921477098017931,0.0004250702913850546,-0.0003218497149646282
1772744468743049700,4.3750498046875,0.001695371000096202,-0.0005164830945432186,0.0009896456031128764
1772744468753077800,4.385077880859375,-0.0007608624873682857,0.00016049249097704887,0.00007564877159893513
1772744468763105500,4.39510546875,0.000565085094422102,-0.000013103941455483437,-0.0021764077246189117
1772744468773132800,4.4051328125,-0.00044052457087673247,-0.0003657066263258457,-0.002201707800850272
1772744468783160600,4.41516064453125,-0.0006042922614142299,0.0007604553829878569,0.0004646267625503242
1772744468793188400,4.425188232421875,-0.000274326594080776,0.001464594854041934,-0.0015463262097910047
1772744468803215600,4.435215576171875,-0.0006760506075806916,0.0001019590999931097,-0.00013597996439784765
1772744468813243400,4.445243408203125,-0.0012986976653337479,0.0007906523533165455,-0.00037406658520922065
1772744468823270400,4.4552705078125,-0.0011790915159508586,0.0009868638589978218,-0.0006829510093666613
1772744468833298400,4.46529833984375,-0.00014179025311022997,0.002277432009577751,-0.0003990580444224179
1772744468843326200,4.475326171875,-0.00029263703618198633,0.0005594715476036072,-0.0011805184185504913
1772744468853353500,4.485353515625,0.00013639818644151092,0.0018870572093874216,0.000549471122212708
1772744468863381500,4.495381591796875,0.0018401597626507282,0.001214821357280016,0.0008719523320905864
1772744468873409500,4.505409423828125,-0.0007292581140063703,0.0008784639649093151,-0.0011933291098102927
1772744468883436500,4.5154365234375,0.0013734236126765609,0.0023411638103425503,0.0005401558009907603
1772744468893464300,4.52546435546875,0.00020749156828969717,-0.0027281634975224733,-0.00006331648910418153
1772744468903492400,4.535492431640625,-0.0006064354674890637,0.001143758650869131,-0.0010934204328805208
1772744468913519400,4.545519287109375,-0.0007385282660834491,-0.0006488149520009756,-0.0005091228522360325
1772744468923547400,4.55554736328125,0.0012284658150747418,0.0006605575326830149,-0.0012263394892215729
1772744468933574400,4.565574462890625,0.001591720967553556,-0.0023067365400493145,0.0016626574797555804
1772744468943602400,4.5756025390625,0.001838727155700326,-0.0001729519572108984,-0.00022357585839927197
1772744468953630500,4.58563037109375,0.001154561061412096,-0.0016145211411640048,0.001466466230340302
1772744468963657500,4.595657470703125,0.00009573472198098898,-0.001670022844336927,0.0000035465345717966557
1772744468973685500,4.605685546875,-0.00017271190881729126,-0.0000356410164386034,0.00048105139285326004
1772744468983713300,4.61571337890625,-0.00024273607414215803,0.000740062678232789,0.001612223917618394
1772744468993740300,4.625740234375,-0.0000741579569876194,0.0022692496422678232,-0.0005795577308163047
1772744469003768300,4.635768310546875,-0.0011483377311378717,0.00005601998418569565,0.000844994792714715
1772744469013796400,4.64579638671875,0.0006117454031482339,-0.0005328047554939985,-0.0015518501168116927
1772744469023823600,4.65582373046875,-0.0009657535701990128,0.002107715466991067,-0.00007392937550321221
1772744469033851400,4.665851318359375,0.0014145798049867153,-0.0003101686015725136,-0.0004875182930845767
1772744469043879400,4.67587939453125,-0.0009767129085958004,-0.00016469554975628853,0.000647145148832351
1772744469053906400,4.685906494140625,-0.0007306367624551058,-0.0014020001981407404,-0.001545168925076723
1772744469063934200,4.695934326171875,-0.00018775550415739417,0.0018121437169611454,-0.000809988472610712
1772744469073961500,4.70596142578125,0.0006945497589185834,0.0014624707400798798,0.0004736551782116294
1772744469083989500,4.715989501953125,-0.0020476484205573797,0.0001004550140351057,-0.0020211907103657722
1772744469094017500,4.726017578125,0.0010413521667942405,-0.00026306649670004845,-0.0033783377148211002
1772744469104044500,4.73604443359375,0.0010285123717039824,0.0010178417433053255,0.0017782221548259258
1772744469114072300,4.746072265625,0.00019121449440717697,0.0013049307744950056,-0.002374711213633418
1772744469124100400,4.756100341796875,0.001352208899334073,0.0021238173358142376,0.0017312064301222563
1772744469134127400,4.76612744140625,-0.0013357194839045405,0.0004196607042104006,0.0017085694707930088
1772744469144155400,4.7761552734375,-0.0008841217495501041,0.0006727953441441059,-0.0013339987490326166
1772744469154183400,4.786183349609375,-0.00042259597103111446,0.0010688072070479393,0.0010950705036520958
1772744469164210400,4.79621044921875,0.0007313452078960836,-0.000885173212736845,-0.0012269958388060331
1772744469174238500,4.806238525390625,0.0012661078944802284,0.0005971421487629414,0.0023331178817898035
1772744469184266200,4.816266357421875,0.0005639356095343828,0.0004165526479482651,-0.0009751795441843569
1772744469194293500,4.82629345703125,0.0016411843243986368,0.00031508621759712696,0.00021658506011590362
1772744469204321300,4.8363212890625,0.0009912664536386728,-0.0025475157890468836,0.0012061409652233124
1772744469214348300,4.846348388671875,-0.0012471204390749335,0.00022004125639796257,-0.0007275803363882005
1772744469224376300,4.856376220703125,-0.0008390496368519962,-0.0005893877241760492,0.0001285535399802029
1772744469234404400,4.866404296875,0.00036203605122864246,0.0019699102267622948,-0.0009044866310432553
1772744469244431600,4.876431640625,0.0015712871681898832,-0.000888926675543189,0.0002402325626462698
1772744469254459400,4.88645947265625,-0.0010141097009181976,-0.001356045133434236,0.0011981716379523277
1772744469264487400,4.8964873046875,-0.001965499250218272,0.0013824747875332832,0.0016818748554214835
1772744469274514400,4.906514404296875,-0.00010394962737336755,0.0003036283887922764,0.0007977054920047522
1772744469284542200,4.916542236328125,0.0005873179761692882,0.00007844273932278156,0.002868186216801405
1772744469294570500,4.926570556640625,-0.001703266752883792,0.00027631549164652824,0.0004247357719577849
1772744469304597500,4.936597412109375,-0.0006620375788770616,0.0020123766735196114,-0.000338144222041592
1772744469314625500,4.94662548828125,0.0010964476969093084,0.000761756207793951,-0.0012697179336100817
1772744469324653300,4.9566533203125,-0.0006532075349241495,0.0006114339921623468,-0.001205978449434042
1772744469334680300,4.966680419921875,0.00017290504183620214,-0.00041814427822828293,0.0002848591539077461
1772744469344708400,4.976708251953125,0.0006733154878020287,0.0014565128367394209,-0.00008102832362055779
1772744469354735400,4.9867353515625,-0.0013466922100633383,0.0003973739221692085,0.0009413592051714659
1772744469364763400,4.996763427734375,-0.0012775922659784555,0.0034278896637260914,0.0017308744136244059
1772744469374791400,5.00679150390625,0.0010308357886970043,0.0010339743457734585,-0.0013123196549713612
1772744469384818400,5.016818359375,-0.0021046167239546776,0.0013722062576562166,-0.0015511715319007635
1772744469394846500,5.026846435546875,-0.0011818314669653773,0.0006574138533324003,0.000027017667889595032
1772744469404874200,5.036874267578125,0.001509839203208685,-0.0002218273002654314,0.0003261025995016098
1772744469414901500,5.046901611328125,0.00030529143987223506,-0.000739013310521841,0.001710147364065051
1772744469424929300,5.05692919921875,-0.001872121705673635,-0.000002166256308555603,0.00019674509530887008
1772744469434957600,5.06695751953125,0.0006861108122393489,-0.00014704209752380848,-0.0003398818662390113
1772744469444984300,5.076984375,-0.002744394587352872,-0.0015398047398775816,0.0018987494986504316
1772744469455012400,5.087012451171875,-0.0005022792611271143,0.0006434549577534199,0.000802059774287045
1772744469465040400,5.097040283203125,-0.0017840209184214473,0.0019182926043868065,-0.0000686805578880012
1772744469475067400,5.1070673828125,0.0002679446479305625,0.000958222895860672,-0.0007152960170060396
1772744469485095400,5.117095458984375,-0.004479117225855589,0.0010162284597754478,-0.0011110720224678516
1772744469495122400,5.127122314453125,0.00010604708222672343,0.00011474825441837311,-0.0020839248318225145
1772744469505150200,5.137150146484375,0.0011226976057514548,-0.000600951025262475,0.001077377120964229
1772744469515178500,5.147178466796875,-0.0004528285062406212,0.0009737759828567505,0.0007580640958622098
1772744469525205200,5.157205322265625,-0.0028091364074498415,0.0003470839001238346,0.001100767869502306
1772744469535233500,5.167233642578125,0.001832753187045455,-0.0005943435244262218,0.0003175322781316936
1772744469545261300,5.17726123046875,-0.0014741094782948494,0.0016519527416676283,0.00044481910299509764
1772744469555288300,5.187288330078125,-0.00035957657382823527,-0.002401911187916994,0.0013790560187771916
1772744469565316400,5.19731640625,-0.001119781518355012,-0.00048661790788173676,-0.0009368178434669971
1772744469575344400,5.207344482421875,0.0003042106982320547,0.00005879742093384266,0.0015234104357659817
1772744469585371400,5.217371337890625,-0.00006080413004383445,0.0006806596647948027,0.00047790486132726073
1772744469595399400,5.2273994140625,-0.00009356101509183645,0.00241038273088634,0.0004257069085724652
1772744469605426400,5.237426513671875,-0.0004909605486318469,0.0008408050052821636,-0.0010688678594306111
1772744469615454500,5.247454345703125,-0.00018522969912737608,0.0012871506623923779,0.0009998757159337401
1772744469625482200,5.257482177734375,-0.00019436160800978541,0.0012666538823395967,0.002355869160965085
1772744469635509500,5.267509521484375,0.001901546260342002,-0.0010015603620558977,0.001306051155552268
1772744469645537300,5.277537353515625,0.0006124186329543591,0.00018891412764787674,-0.0011906928848475218
1772744469655565600,5.287565673828125,0.0009564991341903806,-0.00030323793180286884,0.0008740559569559991
1772744469665592300,5.29759228515625,-0.0020101501140743494,0.0008081470150500536,-0.00040947270463220775
1772744469675620400,5.307620361328125,0.00029960955725982785,0.0010917738545686007,-0.0009375775698572397
1772744469685648400,5.3176484375,-0.002251305850222707,-0.0017364812083542347,-0.0004921719082631171
1772744469695675400,5.32767529296875,0.00012103799963369966,0.0004806003998965025,0.00012168672401458025
1772744469705703400,5.337703369140625,0.0014195856638252735,0.0031620243098586798,-0.000286938069621101
1772744469715731500,5.3477314453125,0.0012163864448666573,0.00071111717261374,0.0012574290158227086
1772744469725758200,5.35775830078125,-0.00032996415393427014,-0.0010092558804899454,0.0002694638096727431
1772744469735786500,5.367786376953125,-0.0008807058911770582,0.001127664465457201,-0.0008381447987630963
1772744469745813200,5.377813232421875,0.0011033541522920132,-0.002288840478286147,0.002042287727817893
1772744469755841500,5.387841552734375,-0.0010825684294104576,-0.00043954141438007355,-0.0013436551671475172
1772744469765869300,5.397869384765625,0.0006127674132585526,0.0007220970001071692,-0.0016854165587574244
1772744469775896300,5.407896240234375,-0.0005904487334191799,-0.00033624330535531044,-0.00008778629126027226
1772744469785924400,5.41792431640625,0.00139230873901397,0.00020738178864121437,0.000010184070561081171
1772744469795952600,5.42795263671875,0.00024448626209050417,-0.001772944931872189,-0.0020324604120105505
1772744469805979600,5.437979736328125,-0.001081411144696176,0.0006725308485329151,-0.003129818942397833
1772744469816007700,5.448007568359375,0.00008265656651929021,0.001222739927470684,0.000059050158597528934
1772744469826035700,5.45803564453125,0.0017517460510134697,0.0010101397056132555,-0.0006267368444241583
1772744469836062700,5.468062744140625,-0.0012182111386209726,-0.001368862111121416,-0.00045869138557463884
1772744469846090800,5.4780908203125,-0.002190438099205494,0.0007972780149430037,0.0001523251412436366
1772744469856118800,5.488118896484375,-0.000416772993048653,0.002264413284137845,0.0009187829564325511
1772744469866145500,5.4981455078125,0.000043815874960273504,0.002120363060384989,0.0012675265315920115
1772744469876173800,5.508173828125,-0.001433173194527626,-0.00013799755834043026,-0.0010326455812901258
1772744469886200600,5.51820068359375,0.0006226352415978909,-0.0001354631967842579,0.00028023560298606753
1772744469896228900,5.528228759765625,-0.0016048327088356018,0.0002994311507791281,-0.0018225964158773422
1772744469906256600,5.538256591796875,-0.0032290664967149496,-0.00043704849667847157,0.0020691000390797853
1772744469916283600,5.54828369140625,-0.0018753816839307547,-0.00017605884931981564,0.000044831191189587116
1772744469926311700,5.558311767578125,-0.0017701990436762571,-0.0005398280918598175,-0.0018062875606119633
1772744469936339700,5.568339599609375,0.0029031161684542894,0.000944085419178009,-0.0006579325417988002
1772744469946366700,5.57836669921875,-0.001372024416923523,0.0011448110453784466,-0.0007692154031246901
1772744469956394800,5.588394775390625,-0.0008140921709127724,0.002128582913428545,-0.000009681913070380688
1772744469966422500,5.598422607421875,0.00010852288687601686,0.00006368430331349373,-0.0009622987709008157
1772744469976449800,5.60844970703125,0.0006118603050708771,-0.00019943621009588242,0.0020345565862953663
1772744469986477600,5.6184775390625,-0.001876565278507769,0.00020925048738718033,-0.0008687910158187151
1772744469996505900,5.628505859375,0.0006888577481731772,0.0004380159080028534,0.00017649971414357424
1772744470006532600,5.63853271484375,0.0003461063024587929,0.0008780090138316154,-0.0007585581042803824
1772744470016561000,5.648560791015625,-0.0005404599942266941,-0.0008234845008701086,-0.0002775912289507687
1772744470026588700,5.658588623046875,0.0008798553608357906,-0.0006021654698997736,-0.002341239945963025
1772744470036615700,5.66861572265625,-0.002402756828814745,-0.00022319774143397808,0.0005405666306614876
1772744470046643700,5.678643798828125,-0.00011170789366587996,0.0008535077795386314,-0.0016435474390164018
1772744470056670700,5.688670654296875,0.0007559499936178327,0.00028172717429697514,-0.0002318057231605053
1772744470066698800,5.69869873046875,-0.0008115005912259221,0.0007425572257488966,-0.0006303752306848764
1772744470076726800,5.708726806640625,-0.0020719747990369797,0.00029674405232071877,-0.0021606276277452707
1772744470086753500,5.71875341796875,0.0011765308445319533,0.0019438350573182106,0.0006911879172548652
1772744470096781800,5.72878173828125,-0.0007542609237134457,-0.000660736346617341,0.00028478947933763266
1772744470106809600,5.7388095703125,0.00015260925283655524,0.00032627605833113194,0.0010209492174908519
1772744470116836900,5.7488369140625,-0.001698820386081934,-0.0002505646552890539,-0.0005050420295447111
1772744470126864600,5.75886474609375,-0.001227063243277371,0.0006884622853249311,-0.00016541179502382874
1772744470136892700,5.768892578125,0.0018353057093918324,-0.00042260834015905857,-0.0011348023544996977
1772744470146919700,5.778919677734375,-0.0012231849832460284,0.0006059692241251469,-0.0013758710119873285
1772744470156947700,5.78894775390625,-0.002168074483051896,-0.0015700998483225703,-0.00040408349013887346
1772744470166974700,5.798974609375,0.0012453342787921429,0.0021116267889738083,0.0015203577931970358
1772744470177002800,5.809002685546875,-0.001003172597847879,0.00012197927571833134,0.0016993223689496517
1772744470187030800,5.81903076171875,-0.0015577800804749131,0.000419452553614974,-0.0021316511556506157
1772744470197057800,5.829057861328125,-0.0009409919148311019,0.0010375725105404854,0.001556027913466096
1772744470207085600,5.83908544921875,0.0018738789949566126,-0.0015795319341123104,-0.00003441894659772515
1772744470217113900,5.84911376953125,-0.0014404249377548695,0.0009653845336288214,-0.001101813861168921
1772744470227140600,5.859140625,-0.0022075988817960024,-0.00044286902993917465,-0.0009233148884959519
1772744470237169000,5.8691689453125,0.0008710153633728623,0.0014256045687943697,0.00009614316513761878
1772744470247196700,5.87919677734375,-0.0010128612630069256,0.00043841125443577766,-0.002215104876086116
1772744470257223700,5.8892236328125,-0.0009281727252528071,0.0021851786877959967,0.00035564450081437826
1772744470267251700,5.899251708984375,-0.0027474050875753164,-0.0013717564288526773,0.0012900975998491049
1772744470277279500,5.909279541015625,-0.0004544234834611416,-0.0005784009117633104,0.0007942169904708862
1772744470287306800,5.919306640625,-0.00011283790809102356,-0.0010073636658489704,0.0014375692699104548
1772744470297334800,5.929334716796875,-0.002054548589512706,0.0022701886482536793,0.0003765658475458622
1772744470307362800,5.93936279296875,0.001094598090276122,-0.0007272691000252962,0.002292968798428774
1772744470317389800,5.949389892578125,0.0008056451915763319,-0.001056702109053731,-0.001146770315244794
1772744470327417600,5.95941748046875,0.0008854632033035159,0.0011197645217180252,0.000419745862018317
1772744470337444900,5.96944482421875,-0.002847756026312709,0.00019538099877536297,-0.0006021090084686875
1772744470347472600,5.97947265625,0.00175739754922688,-0.0002618145663291216,-0.00035149292671121657
1772744470357500700,5.989500732421875,-0.0021755588240921497,0.00033899443224072456,0.001800341298803687
1772744470367527700,5.999527587890625,-0.0016470099799335003,-0.0007176592480391264,0.00035165908047929406
1772744470377555700,6.0095556640625,-0.0005742887151427567,-0.001755226869136095,0.0028795315884053707
1772744470387583700,6.019583740234375,-0.00006633769953623414,-0.0007065772078931332,-0.0012019190471619368
1772744470397610800,6.02961083984375,0.0020876270718872547,-0.001003519631922245,0.00016428250819444656
1772744470407638800,6.039638671875,-0.0011287329252809286,0.0013357421848922968,0.0018744082190096378
1772744470417666600,6.04966650390625,0.003380265086889267,-0.0027452860958874226,0.00006745342398062348
1772744470427693600,6.059693603515625,-0.0006908493232913315,0.0004148450680077076,-0.0000475242268294096
1772744470437721900,6.069721923828125,-0.000030119088478386402,-0.0007918332703411579,0.0006299839587882161
1772744470447749600,6.07974951171875,0.0006293670739978552,-0.0009299509692937136,-0.0019060570048168302
1772744470457777000,6.08977685546875,-0.0007048766710795462,0.00034197489731013775,-0.000915094802621752
1772744470467804700,6.0998046875,0.0005324581288732588,-0.002694689901545644,0.0009421603172086179
1772744470477831700,6.109831787109375,-0.002596489852294326,0.0011754159349948168,0.000909669732209295
1772744470487859700,6.119859619140625,-0.0009876330150291324,-0.000256895087659359,0.004899023566395044
1772744470497887500,6.129887451171875,-0.000353001756593585,-0.00013731908984482288,0.0017037626821547747
1772744470507914800,6.139914794921875,0.0008303087670356035,-0.0003243624232709408,-0.000012162898201495409
1772744470517942800,6.14994287109375,-0.0010016796877607703,0.0020719498861581087,-0.002275050850585103
1772744470527970800,6.159970703125,-0.000954431714490056,-0.0006369436159729958,0.0029618656262755394
1772744470537997800,6.169997802734375,-0.0015539092710241675,0.001047239638864994,0.0019637129735201597
1772744470548025600,6.180025634765625,0.00048225733917206526,0.001172356540337205,-0.0006906006601639092
1772744470558053600,6.1900537109375,0.0009059662697836757,-0.003379784757271409,0.0029528699815273285
1772744470568080600,6.20008056640625,0.00011927331797778606,0.0005163501482456923,0.002434637863188982
1772744470578108700,6.210108642578125,-0.002071176655590534,0.0000902444589883089,0.0001587002770975232
1772744470588136700,6.22013671875,0.0007117569330148399,-0.00009931321255862713,-0.0033507493790239096
1772744470598163700,6.230163818359375,-0.0028299810364842415,0.003083430463448167,0.0014266951475292444
1772744470608191700,6.240191650390625,-0.000693648646119982,-0.001841914840042591,-0.001372758997604251
1772744470618218800,6.25021875,-0.0013506504474207759,-0.0005289765540510416,-0.0019450723193585873
1772744470628246800,6.260246826171875,-0.0008925395086407661,0.00032403506338596344,-0.0021200983319431543
1772744470638274600,6.270274658203125,0.002061705105006695,-0.0004562712274491787,0.0008149715722538531
1772744470648301600,6.280301513671875,-0.0003887173952534795,-0.0011366279795765877,0.004198117181658745
1772744470658329600,6.29032958984375,0.000980946235358715,0.0003536767326295376,0.0007386711658909917
1772744470668357600,6.300357666015625,0.001959865214303136,-0.0014214330585673451,-0.0009716631611809134
1772744470678385000,6.310385009765625,0.0015510700177401304,0.00032560061663389206,-0.0012204023078083992
1772744470688412700,6.32041259765625,0.001300665782764554,0.00032405275851488113,0.0017094332724809647
1772744470698440700,6.330440673828125,0.0007123735267668962,0.0009459010325372219,0.0007331185042858124
1772744470708467700,6.3404677734375,0.0006760228425264359,0.0003888870123773813,-0.001644332311116159
1772744470718495500,6.35049560546875,0.0008126429747790098,-0.0003418843261897564,-0.0004957109340466559
1772744470728523800,6.360523681640625,0.00046782265417277813,-0.0011953157372772694,-0.00004941882798448205
1772744470738550800,6.37055078125,0.0012183014769107103,0.00045557785779237747,0.00022142467787489295
1772744470748578800,6.380578857421875,0.0009974088752642274,-0.0015862976433709264,0.0016707280883565545
1772744470758605800,6.390605712890625,0.0009888866916298866,-0.0017372987931594253,0.00014846521662548184
1772744470768633600,6.400633544921875,-0.0009069704683497548,0.0011684657074511051,-0.0006194390589371324
1772744470778661600,6.41066162109375,-0.0007301365258172154,0.0013346471823751926,-0.0017725878860801458
1772744470788688600,6.420688720703125,0.0012800759868696332,-0.0003422258887439966,-0.0004879788029938936
1772744470798716700,6.430716552734375,-0.0000307319569401443,0.0016884342767298222,-0.00039530079811811447
1772744470808744700,6.44074462890625,-0.0006227206904441118,-0.000555714126676321,-0.001687054056674242
1772744470818771700,6.450771728515625,0.00042470055632293224,0.0021045173052698374,0.001519658137112856
1772744470828799700,6.4607998046875,-0.0003900912415701896,-0.0017230380326509476,0.0006844482850283384
1772744470838827500,6.47082763671875,0.00044427707325667143,0.00031428015790879726,-0.0005083815194666386
1772744470848854800,6.480854736328125,0.0009761671535670757,-0.0015823639696463943,-0.00013891467824578285
1772744470858882600,6.490882568359375,-0.0017873951001092792,0.00012179277837276459,-0.00010189675958827138
1772744470868910800,6.500910888671875,0.0017036139033734798,0.0005689859390258789,-0.0017586747417226434
1772744470878937600,6.5109375,-0.0015904498286545277,0.0014086808077991009,-0.0005661112954840064
1772744470888965600,6.520965576171875,0.0008842321112751961,-0.0009627554100006819,0.0002098943223245442
1772744470898993700,6.53099365234375,-0.00014614491374231875,-0.00011320691555738449,0.002615794073790312
1772744470909020700,6.541020751953125,0.003006742103025317,0.000041354214772582054,0.0007239641272462904
1772744470919048700,6.551048583984375,-0.000311023963149637,-0.0006137832533568144,0.001112519297748804
1772744470929075700,6.56107568359375,-0.0005035980138927698,0.0006349303293973207,0.00018603447824716568
1772744470939103500,6.571103515625,0.002000572392717004,0.0018437390681356192,0.00036286842077970505
1772744470949131800,6.5811318359375,-0.0010970927542075515,0.0008220556192100048,-0.0005974586820229888
1772744470959158800,6.59115869140625,-0.0013492940925061703,0.0005994155071675777,-0.00168349570594728
1772744470969186800,6.601186767578125,0.0015813801437616348,-0.0014795728493481874,-0.0018949003424495459
1772744470979214600,6.611214599609375,-0.0014445035485550761,-0.0017474868800491095,-0.000892752839718014
1772744470989241600,6.62124169921875,-0.0000997459574136883,-0.00002977927215397358,-0.0020902911201119423
1772744470999269600,6.63126953125,0.0007516666082665324,-0.0015184864168986678,0.0007070933934301138
1772744471009297700,6.641297607421875,-0.0006604341324418783,0.00019250600598752499,-0.00017595337703824043
1772744471019324700,6.65132470703125,-0.000385862251278013,0.0007435139268636703,0.001000098534859717
1772744471029352700,6.661352783203125,0.002506476826965809,0.00047464785166084766,-0.000235808634897694
1772744471039380700,6.671380615234375,0.00016555836191400886,-0.00037037325091660023,-0.00013327691704034805
1772744471049407700,6.68140771484375,0.0003721271059475839,-0.00005882582627236843,0.0001465819077566266
1772744471059435500,6.691435546875,-0.001989564159885049,-0.0005104979500174522,0.0003415253013372421
1772744471069462800,6.701462890625,0.0006819201516918838,0.0001008128747344017,0.0016697756946086884
1772744471079490600,6.711490478515625,0.0010148151777684689,0.000161266652867198,0.0003786751185543835
1772744471089518800,6.721518798828125,0.0010179512901231647,0.0005867592990398407,0.0009578668978065252
1772744471099545600,6.731545654296875,-0.0006563780480064452,0.0005172507371753454,0.0019163384567946196
1772744471109573600,6.74157373046875,-0.0001717587874736637,0.0012654890306293964,-0.0016423097113147378
1772744471119601700,6.7516015625,-0.0007832205737940967,0.0017730877734720707,-0.001065468997694552
1772744471129628700,6.761628662109375,0.002552493242546916,-0.0009252307936549187,0.00019855599384754896
1772744471139656700,6.77165673828125,-0.00030374687048606575,0.0003576138988137245,0.0014931184705346823
1772744471149684700,6.781684814453125,0.00275506847538054,-0.002738763578236103,0.0015347048174589872
1772744471159711500,6.79171142578125,-0.0019944130908697844,0.0009593020658940077,-0.0042904275469481945
1772744471169739800,6.80173974609375,0.002979944460093975,0.00048405141569674015,0.00030945969047024846
1772744471179767600,6.811767578125,0.0005980133428238332,0.0007117516361176968,-0.0011560778366401792
1772744471189794800,6.821794921875,0.00038729445077478886,0.00015668128617107868,-0.00214979937300086
1772744471199820800,6.83182080078125,0.0018056939588859677,0.000013669487088918686,0.00031122786458581686
1772744471209848600,6.8418486328125,0.0007536898483522236,0.0009741047397255898,-0.0011049284366890788
1772744471219876900,6.851876953125,-0.0010604554554447532,0.0010979417711496353,0.0027904773596674204
1772744471229903600,6.861903564453125,0.0006278629298321903,0.0022460727486759424,-0.0009234488825313747
1772744471239931600,6.871931640625,-0.000029937829822301865,0.001243392238393426,-0.0014432978350669146
1772744471249959700,6.881959716796875,-0.0014433374162763357,-0.00027049845084547997,-0.0006950946408323944
1772744471259986700,6.891986572265625,-0.0014358805492520332,-0.0005725007504224777,0.0001840147888287902
1772744471270014700,6.9020146484375,0.000588960712775588,0.00013351207599043846,0.0016499124467372894
1772744471280042800,6.912042724609375,-0.0015399702824652195,0.00006693322211503983,0.00292530027218163
1772744471290069500,6.922069580078125,-0.0011027974542230368,0.00037277955561876297,0.0006737184012308717
1772744471300097800,6.932097900390625,-0.00009772047633305192,-0.0011734517756849527,-0.0012091364478692412
1772744471310125600,6.94212548828125,-0.00030553032411262393,0.0001187522429972887,0.0025946241803467274
1772744471320152800,6.95215283203125,0.0011650673113763332,0.0014015971682965755,0.0006912628887221217
1772744471330180600,6.9621806640625,0.0018400299595668912,-0.0012705677654594183,-0.0017584213055670261
1772744471340207600,6.97220751953125,0.001959605608135462,0.0004495680332183838,-0.0010271172504872084
1772744471350235600,6.982235595703125,0.0008832437451928854,0.00036930362693965435,-0.00008985784370452166
1772744471360263700,6.992263671875,-0.00033355457708239555,-0.0003548096865415573,-0.0011543233413249254
1772744471370290700,7.002290771484375,-0.0018157133599743247,-0.0025691750925034285,0.0018429090268909931
1772744471380318700,7.012318603515625,-0.0005842676619067788,0.0012929411605000496,-0.002030925126746297
1772744471390346800,7.0223466796875,0.001781601458787918,-0.0013011733535677195,-0.0003515674325171858
1772744471400373800,7.032373779296875,-0.0016962205991148949,-0.000618871534243226,0.00015523209003731608
1772744471410401500,7.042401611328125,-0.0009138949098996818,0.000031529227271676064,0.001171764568425715
1772744471420429800,7.052429931640625,0.0006863985327072442,0.0008501848205924034,-0.0010903244838118553
1772744471430456600,7.06245654296875,0.001273267436772585,-0.000010247807949781418,0.001804637722671032
1772744471440484900,7.07248486328125,-0.00017256269347853959,-0.001621726667508483,-0.0026556241791695356
1772744471450512600,7.0825126953125,-0.00021732281311415136,0.0024881556164473295,-0.0021172366105020046
1772744471460539600,7.09253955078125,-0.0002641944447532296,-0.00022347504273056984,0.00003752688644453883
1772744471470567700,7.102567626953125,0.0006587643292732537,-0.0012060869485139847,-0.0007852776907384396
1772744471480595700,7.112595703125,0.0008763445657677948,-0.003676435211673379,0.0004267269396223128
1772744471490622700,7.122622802734375,-0.0002757165930233896,-0.0005421084351837635,0.00000983203062787652
1772744471500650800,7.132650634765625,0.0007498667109757662,0.0019785736221820116,-0.0013254769146442413
1772744471510678800,7.1426787109375,0.0006154610309749842,-0.0012928780633956194,-0.00036683076177723706
1772744471520705800,7.152705810546875,-0.002041308442130685,0.0010826615616679192,0.0003120090113952756
1772744471530733600,7.162733642578125,0.0015186640666797757,0.00040335021913051605,-0.00034137029433622956
1772744471540760800,7.1727607421875,-0.00009734212653711438,0.0006398388650268316,0.00008793128654360771
1772744471550788600,7.18278857421875,0.001930347876623273,-0.0004065302200615406,-0.00021744437981396914
1772744471560816600,7.192816650390625,-0.0008209636434912682,0.000542087946087122,-0.0021024299785494804
1772744471570843600,7.20284375,-0.0005639686132781208,-0.0007562031969428062,0.0015967008657753468
1772744471580871700,7.21287158203125,-0.0002888830204028636,0.001974328188225627,0.000705367187038064
1772744471590899700,7.222899658203125,-0.001680917339399457,0.00015778583474457264,-0.0006581712514162064
1772744471600926700,7.2329267578125,-0.0012744534760713577,-0.00022669509053230286,-0.0009984765201807022
1772744471610954800,7.242954833984375,0.0023288032971322536,0.000499815447255969,0.0015171454288065434
1772744471620982500,7.252982421875,-0.0009975917637348175,-0.0014301735209301114,0.002844875678420067
1772744471631009500,7.263009521484375,-0.0031835143454372883,0.00065028783865273,-0.00040844196337275207
1772744471641037800,7.273037841796875,-0.0008940021507441998,0.0005589679349213839,0.001726615708321333
1772744471651064600,7.283064697265625,-0.0002910624898504466,-0.000952109694480896,-0.0002606350462883711
1772744471661092900,7.2930927734375,0.0006425241008400917,0.0019138308707624674,0.0018903525779023767
1772744471671120600,7.30312060546875,-0.0005465773865580559,-0.00005850614979863167,-0.00037413323298096657
1772744471681147600,7.313147705078125,-0.0006007897318340838,-0.0002706053201109171,-0.0009144548675976694
1772744471691175700,7.32317578125,0.002016831189393997,-0.0009710167068988085,-0.0003695721097756177
1772744471701203700,7.33320361328125,-0.002522272290661931,0.0006853430531919003,-0.0009871325455605984
1772744471711230700,7.343230712890625,-0.0005296951276250184,0.002347421832382679,-0.0022737057879567146
1772744471721258800,7.3532587890625,0.0009728795848786831,-0.00048814411275088787,0.00030531222000718117
1772744471731286800,7.363286865234375,-0.00041382835479453206,0.0007936351466923952,-0.0006355826044455171
1772744471741313800,7.373313720703125,-0.0009907607454806566,-0.0003228860441595316,0.000031363742891699076
1772744471751341600,7.383341552734375,-0.0007627942250110209,-0.0005615050904452801,-0.0012429588241502643
1772744471761369600,7.39336962890625,-0.0009196267346851528,0.0020917565561830997,-0.0023246232885867357
1772744471771396600,7.403396728515625,-0.0006330705946311355,0.0019359616562724113,0.0016285728197544813
1772744471781424600,7.413424560546875,0.001704167458228767,0.0011329217813909054,-0.0010881044436246157
1772744471791452700,7.42345263671875,0.0023449240252375603,-0.001264456077478826,-0.0011472266633063555
1772744471801479000,7.43347900390625,-0.0009914753027260303,0.00142274284735322,-0.000404862395953387
1772744471811507000,7.4435068359375,-0.00048148000496439636,0.0015202146023511887,-0.0019385768100619316
1772744471821535000,7.453534912109375,0.00006748735904693604,-0.0016187259461730719,0.0007049344712868333
1772744471831562000,7.46356201171875,0.00035111402394250035,0.0000497444998472929,-0.0011241245083510876
1772744471841590000,7.473590087890625,-0.0002504487056285143,0.0006875526160001755,0.0008672520634718239
1772744471851616800,7.48361669921875,0.00003504217602312565,0.0005136481486260891,-0.0011002912651747465
1772744471861645000,7.49364501953125,-0.00018642778741195798,0.0008232370018959045,-0.0010164178675040603
1772744471871672800,7.5036728515625,0.0010476810857653618,0.0014416230842471123,-0.00007365888450294733
1772744471881700000,7.5137001953125,-0.00016872433479875326,0.000614452175796032,-0.0012211136054247618
1772744471891728000,7.523727783203125,0.0008986706379801035,0.0013678602408617735,0.0006185979582369328
1772744471901756000,7.533755859375,-0.00006782030686736107,-0.00010122056119143963,-0.0009150438709184527
1772744471911783000,7.543782958984375,0.001414228812791407,0.0015153181739151478,-0.0008103816071525216
1772744471921811000,7.55381103515625,-0.0012096751015633345,0.002382570179179311,-0.0019177149515599012
1772744471931839000,7.5638388671875,-0.0017239315202459693,-0.0010643592104315758,0.002424036618322134
1772744471941866000,7.573865966796875,0.0015202967915683985,0.0004479766357690096,-0.0010509721469134092
1772744471951894000,7.58389404296875,-0.0014970649499446154,0.0024887570179998875,-0.0009955784771591425
1772744471961922000,7.593922119140625,0.000029547547455877066,-0.0003810341004282236,0.0007435579900629818
1772744471971948800,7.60394873046875,-0.0011771307326853275,-0.0014976976672187448,0.0018908476922661066
1772744471981977000,7.61397705078125,0.0003550230758264661,-0.0005012280307710171,0.00025977875338867307
1772744471992003800,7.62400390625,-0.00018400070257484913,-0.0008391831070184708,0.003902450203895569
1772744472002032000,7.6340322265625,0.0014057576190680265,-0.0013403239427134395,0.0005365925608202815
1772744472012060000,7.644059814453125,0.0018278686329722404,0.00155586376786232,-0.002052532508969307
1772744472022087000,7.6540869140625,-0.002183765172958374,-0.00048676528967916965,-0.0003318294184282422
1772744472032115000,7.664114990234375,-0.0006838729605078697,-0.0011059504467993975,-0.000035685894545167685
1772744472042143000,7.67414306640625,0.0004674546653404832,-0.000709728104993701,-0.0016824051272124052
1772744472052170000,7.684169921875,-0.0012151304399594665,0.0016375819686800241,-0.0008674777345731854
1772744472062198000,7.694197998046875,-0.00003648409619927406,-0.0014316552551463246,0.0005794285098090768
1772744472072225800,7.704225830078125,-0.0002255685394629836,0.0012035428080707788,-0.001139375614002347
1772744472082253000,7.714253173828125,0.0013528657145798206,0.0006669196300208569,-0.0015094627160578966
1772744472092280800,7.72428076171875,0.0012034623650833964,-0.0008462883997708559,0.002124953083693981
1772744472102308900,7.734308837890625,0.0008633661782369018,0.00014561088755726814,0.0012803053250536323
1772744472112336000,7.7443359375,-0.0016956652980297804,-0.0004847592208534479,0.0011974809458479285
1772744472122364200,7.7543642578125,-0.000613725685980171,0.0013651731424033642,0.0025558066554367542
1772744472132392000,7.764391845703125,-0.0003897538117598742,0.0005481152329593897,0.0007320738513953984
1772744472142419000,7.7744189453125,0.0019253857899457216,0.0003359850961714983,-0.00020669656805694103
1772744472152447000,7.784447021484375,-0.0013026318047195673,-0.0006198233459144831,0.0006340633844956756
1772744472162474800,7.794474853515625,-0.0006757995579391718,0.0011881906539201736,0.0006711456226184964
1772744472172502000,7.804501953125,-0.0004933730233460665,-0.00018839724361896515,-0.0010567132849246264
1772744472182530000,7.814530029296875,0.0006651383591815829,0.00014335708692669868,0.000859634077642113
1772744472192556800,7.824556884765625,0.0008475648937746882,0.0013271323405206203,-0.00046448962530121207
1772744472202585000,7.834585205078125,-0.000915988115593791,0.0021172675769776106,-0.002619069768115878
1772744472212612900,7.84461279296875,-0.0007990753510966897,0.0006381480488926172,0.0019373324466869235
1772744472222640000,7.85464013671875,-0.00027022723224945366,-0.00014794664457440376,0.00003887346247211099
1772744472232668000,7.86466796875,-0.0009858186822384596,-0.001153822522610426,-0.000193087849766016
1772744472242696000,7.874696044921875,-0.0013618587981909513,0.0019573040772229433,-0.0018467707559466362
1772744472252723000,7.884722900390625,0.0010744009632617235,0.00003103981725871563,0.002024133922532201
1772744472262751000,7.8947509765625,-0.00026464820257388055,0.0014264157507568598,0.0006095237331464887
1772744472272779000,7.904779052734375,-0.0007357614231295884,-0.0005395298358052969,0.001541363773867488
1772744472282806000,7.914805908203125,0.002704762853682041,-0.002598918741568923,-0.0017845750553533435
1772744472292834000,7.924833984375,-0.0006928981747478247,0.0008908875752240419,0.0005688603268936276
1772744472302861800,7.93486181640625,0.0003745565190911293,0.00020718364976346493,0.0006326769362203777
1772744472312888800,7.944888916015625,0.001129562733694911,-0.0013121498050168157,0.0013679757248610258
1772744472322916900,7.954916748046875,-0.00042721765930764377,0.0006229942664504051,-0.0003453644458204508
1772744472332945000,7.96494482421875,0.0003296526847407222,0.002205444499850273,0.00011775927850976586
1772744472342972200,7.97497216796875,0.000739601906388998,0.0010908138938248158,0.0009693842730484903
1772744472353000000,7.985,-0.0012202183715999126,0.003159291110932827,0.0002689728862605989
1772744472363027000,7.99502685546875,0.0003682738170027733,0.002642745152115822,0.0006952775293029845
1772744472373055000,8.005054931640625,0.0010987789137288928,0.000983063131570816,-0.0006219219067133963
1772744472383082800,8.015082763671876,-0.0019384551560506225,-0.0011654042173177004,-0.0019235089421272278
1772744472393110000,8.025110107421876,-0.0017328590620309114,0.001388833625242114,-0.0010696995304897428
1772744472403138000,8.035137939453126,0.00044100056402385235,0.0002945710439234972,-0.00028449323144741356
1772744472413165800,8.045165771484376,-0.002849867567420006,-0.0007919985800981522,-0.0003902207245118916
1772744472423193000,8.055193115234376,-0.0001728827483020723,0.00025408342480659485,-0.0017009638249874115
1772744472433220900,8.065220947265624,-0.0007260213023982942,0.0013331964146345854,0.0002705742954276502
1772744472443249000,8.075248779296874,-0.0016364168841391802,0.0007213982753455639,0.00036468164762482047
1772744472453276000,8.08527587890625,-0.0012276216875761747,0.0003911664243787527,0.0015921324957162142
1772744472463304000,8.095303955078125,0.0014899771194905043,0.002563280053436756,0.0015523331239819527
1772744472473332000,8.10533203125,-0.0012203218648210168,-0.0002439578529447317,0.0019265071023255587
1772744472483359000,8.11535888671875,-0.0010140527738258243,0.000980110839009285,0.0002044709399342537
1772744472493387000,8.125386962890625,0.0013479047920554876,-0.000022835563868284225,0.0011227288050577044
1772744472503414800,8.135414794921875,0.0025734947994351387,-0.00019600661471486092,0.0012841671705245972
1772744472513442000,8.145442138671875,0.0016736126272007823,0.00040959613397717476,-0.0014322572387754917
1772744472523469800,8.1554697265625,-0.0029253484681248665,-0.00012628501281142235,-0.0008401828818023205
1772744472533496800,8.165496826171875,-0.001203614752739668,0.0015230108983814716,0.0016807654174044728
1772744472543524900,8.17552490234375,0.001173569937236607,0.0005740649066865444,-0.0013871625997126102
1772744472553553000,8.185552978515625,0.00024359405506402254,-0.0003593729343265295,0.0003990195691585541
1772744472563580200,8.195580078125,-0.0009620614000596106,0.001317315036430955,0.0015255319885909557
1772744472573608000,8.20560791015625,-0.0006131873233243823,-0.0000946931540966034,0.000016318634152412415
1772744472583636000,8.215635986328126,0.0007968816789798439,0.00016927695833146572,0.001910492079332471
1772744472593663000,8.2256630859375,0.0006006067269481719,-0.00006960867904126644,0.0018186129163950682
1772744472603690800,8.235690673828126,0.000498972658533603,-0.0014270904939621687,0.0026694817934185266
1772744472613719000,8.245718994140624,0.0011133640073239803,-0.0014566516038030386,0.0003647821140475571
1772744472623745800,8.255745849609376,-0.0011538802646100521,0.0019714238587766886,0.0004451958229765296
1772744472633774000,8.265774169921874,-0.00007024011574685574,0.002323759952560067,0.0008185709593817592
1772744472643801900,8.2758017578125,0.0002970420173369348,0.0014774659648537636,0.0005866679130122066
1772744472653828900,8.285828857421874,-0.00044757782598026097,0.000043087173253297806,0.0002404568949714303
1772744472663857000,8.29585693359375,0.0022908682003617287,0.0006319866515696049,0.0013810069067403674
1772744472673885000,8.305885009765625,0.001892991946078837,0.0012809988111257553,-0.0010704328306019306
1772744472683912000,8.315911865234375,-0.0007574217161163688,0.0013584850821644068,-0.0001995909260585904
1772744472693940000,8.32593994140625,0.0008133107330650091,-0.0020602147560566664,-0.003444652771577239
1772744472703967000,8.335967041015625,-0.0030637644231319427,0.00004407414235174656,-0.0003632128646131605
1772744472713995000,8.3459951171875,0.00025267014279961586,-0.0010499523486942053,-0.0006385837332345545
1772744472724022800,8.356022705078125,-0.00047564474516548216,0.000693256501108408,0.0008389188442379236
1772744472734050000,8.366050048828125,0.0013190596364438534,0.001514841802418232,0.001244784565642476
1772744472744077800,8.376077880859375,0.0010427982779219747,0.0010518268682062626,-0.001388711971230805
1772744472754106000,8.386106201171875,0.00030776578933000565,-0.0018038806738331914,-0.0006022805464453995
1772744472764132900,8.3961328125,0.0012603218201547861,-0.0003683387767523527,-0.0014816810144111514
1772744472774161000,8.406160888671875,-0.0004670044290833175,0.0010926711838692427,-0.0026574665680527687
1772744472784189000,8.41618896484375,-0.0006432387745007873,0.0019922973588109016,-0.0005863545229658484
1772744472794216000,8.4262158203125,-0.0009090222301892936,0.0004463321529328823,-0.0001232307986356318
1772744472804244700,8.43624462890625,0.00012510281521826982,0.0007444678340107203,0.0019501608330756426
1772744472814272800,8.446272705078124,-0.0009428247576579452,0.0009338187519460917,-0.001237642951309681
1772744472824299800,8.4562998046875,-0.0021761374082416296,-0.0007097013294696808,-0.002030426636338234
1772744472834327800,8.466327880859374,-0.0008490842883475125,0.0011529135517776012,-0.0009598358883522451
1772744472844355800,8.47635595703125,0.0010515146423131227,0.0012244665995240211,0.0007011799607425928
1772744472854382800,8.4863828125,-0.000029462389647960663,0.001527001615613699,0.00045217445585876703
1772744472864411000,8.496410888671875,0.0011792690493166447,-0.0019911022391170263,0.0016155544435605407
1772744472874438000,8.50643798828125,-0.0001312725362367928,-0.00016390741802752018,-0.0012657195329666138
1772744472884465700,8.516465576171875,0.0007599268574267626,0.0009804805740714073,-0.0010385114001110196
1772744472894493700,8.52649365234375,0.0008398216450586915,-0.00018385332077741623,0.0013042713981121778
1772744472904520700,8.536520751953125,-0.0016797726275399327,0.0005344550590962172,0.00018261867808178067
1772744472914549000,8.546549072265625,-0.0011886857682839036,0.0011882609687745571,-0.0005311084678396583
1772744472924576800,8.55657666015625,-0.0013731655199080706,0.001536782132461667,0.0006857077241875231
1772744472934603800,8.566603759765625,-0.0022442855406552553,0.00156874000094831,-0.00020565232262015343
1772744472944631800,8.5766318359375,-0.0004040100029669702,0.00038506556302309036,-0.0002523556468077004
1772744472954659600,8.58665966796875,-0.0012508952058851719,-0.00041920924559235573,-0.0030287010595202446
1772744472964686800,8.596686767578126,-0.0017910855822265148,0.0005684772040694952,-0.00031899669556878507
1772744472974715000,8.60671484375,0.0002222642069682479,0.001841201912611723,-0.0014529706677421927
1772744472984743000,8.616742919921874,0.0003073425032198429,-0.00010384130291640759,-0.0015576360747218132
1772744472994770000,8.62677001953125,0.0005129385972395539,-0.0014335575979202986,0.0000618321355432272
1772744473004797700,8.636797607421874,-0.0012005591997876763,-0.0004885396920144558,-0.0002487311721779406
1772744473014825700,8.64682568359375,-0.00002211041282862425,0.00009522517211735249,-0.00013448158279061317
1772744473024852700,8.656852783203124,0.001550407730974257,0.001223803497850895,0.00011805130634456873
1772744473034880800,8.666880859375,0.0017331003909930587,0.00006399699486792088,0.0020717461593449116
1772744473044907800,8.67690771484375,-0.0013226509327068925,0.0011078170500695705,0.001035780180245638
1772744473054935800,8.686935791015625,0.001103488844819367,-0.0006147152744233608,-0.0010902213398367167
1772744473064963800,8.6969638671875,0.0007896751631051302,0.0004132934845983982,0.002434707246720791
1772744473074990800,8.706990966796875,0.00023760192561894655,-0.0015236235922202468,0.0027412371709942818
1772744473085019000,8.717018798828125,0.001135421684011817,0.0023213026579469442,0.00023833062732592225
1772744473095046700,8.727046630859375,0.00023926794528961182,-0.001740550622344017,0.0024652660358697176
1772744473105073700,8.73707373046875,0.0015257846098393202,0.00007784506306052208,0.0018307932186871767
1772744473115101700,8.747101806640625,0.001421655062586069,-0.00026916502974927425,0.0004358294536359608
1772744473125129700,8.757129638671875,-0.0004236854729242623,0.0023299609310925007,-0.0012048616772517562
1772744473135157000,8.767156982421875,-0.0006290151504799724,-0.0012272230815142393,-0.0008242959738709033
1772744473145184800,8.777184814453125,0.0008685558568686247,0.0004126746207475662,-0.0004805247881449759
1772744473155212800,8.787212890625,0.00027280673384666443,0.0011879208032041788,0.0013685079757124186
1772744473165239800,8.79723974609375,0.0031371493823826313,0.00005744374357163906,-0.00025750655913725495
1772744473175267600,8.807267578125,0.0002620008890517056,0.0006971349939703941,0.0008237368310801685
1772744473185296000,8.8172958984375,-0.0011468196753412485,0.002192683983594179,-0.0016266647726297379
1772744473195322600,8.827322509765626,-0.0011606680927798152,-0.0014577109832316637,-0.00046046660281717777
1772744473205351000,8.837350830078124,-0.0012102555483579636,-0.0008536239620298147,-0.0020083668641746044
1772744473215378700,8.847378662109374,0.00046327494783326983,-0.00002378295175731182,0.000321898958645761
1772744473225405700,8.85740576171875,-0.00003887800266966224,-0.00016619940288364887,0.0001349843223579228
1772744473235433700,8.867433837890625,0.0006868333439342678,0.0014772375579923391,-0.0016578556969761848
1772744473245460700,8.877460693359374,-0.0022431956604123116,-0.000012859702110290527,-0.0019987141713500023
1772744473255488800,8.88748876953125,-0.000152880500536412,-0.000817134277895093,0.000677230185829103
1772744473265516800,8.897516845703125,0.002960339654237032,0.0010268420446664095,0.001720803207717836
1772744473275543800,8.907543701171875,-0.0006064319750294089,0.0014132664073258638,-0.001016127411276102
1772744473285571800,8.91757177734375,-0.0009593693539500237,-0.001078314147889614,0.0019063515355810523
1772744473295599600,8.927599609375,-0.0014571142382919788,-0.00031904689967632294,0.0005606561899185181
1772744473305627000,8.937626953125,0.0018860306590795517,-0.0026799230836331844,0.00003759691026061773
1772744473315654700,8.947654541015625,-0.0009491706732660532,0.0035702495370060205,-0.0034298389218747616
1772744473325683000,8.957682861328125,0.0017539679538458586,0.000674413051456213,-0.0003215042524971068
1772744473335709700,8.967709716796875,-0.000051122624427080154,-0.0016515919705852866,0.00003882142482325435
1772744473345737700,8.97773779296875,0.0005637602298520505,0.0020715128630399704,-0.000016830686945468187
1772744473355765800,8.987765869140626,-0.0019473342690616846,-0.0005469068419188261,-0.0012767722364515066
1772744473365792800,8.997792724609376,0.0005394270992837846,-0.00043614977039396763,0.0019099594792351127
1772744473375820800,9.00782080078125,0.0009623370715416968,-0.0013853003038093448,0.0005834390176460147
1772744473385847800,9.017847900390626,0.000058218371123075485,-0.002628189977258444,0.0014174762181937695
1772744473395875600,9.02787548828125,0.0027605281211435795,-0.00009259441867470741,0.002225479343906045
1772744473405904000,9.03790380859375,0.00016036070883274078,-0.003602145239710808,0.004813863895833492
1772744473415930600,9.0479306640625,-0.000247901858529076,-0.0010636202059686184,-0.0020096879452466965
1772744473425959000,9.057958984375,-0.00009521422907710075,-0.000005680369213223457,0.001189695205539465
1772744473435986700,9.067986572265625,-0.0004696546820923686,-0.00011700065806508064,-0.003363245166838169
1772744473446013700,9.078013671875,-0.00003376539098098874,-0.00030397321097552776,0.0014385891845449805
1772744473456041700,9.088041748046875,0.000462381518445909,0.0003493002150207758,-0.0016046050004661083
1772744473466069800,9.09806982421875,0.0005551229696720839,0.0017771539278328419,-0.00011429900769144297
1772744473476096800,9.1080966796875,0.0004376776050776243,0.000551833538338542,0.00004948541754856706
1772744473486124800,9.118124755859375,-0.0023598428815603256,-0.0010824920609593391,-0.0031096418388187885
1772744473496152800,9.12815283203125,0.0004932014271616936,0.0010613526683300734,-0.0011831109877675772
1772744473506179800,9.138179931640625,0.0010555783519521356,-0.0005865886341780424,0.0009536655270494521
1772744473516207600,9.14820751953125,-0.0004030349664390087,-0.001215627184137702,0.000676430354360491
1772744473526236000,9.15823583984375,-0.0018717269413173199,0.000756056746467948,-0.0006093659903854132
1772744473536262700,9.1682626953125,0.000618062331341207,0.0012412846554070711,-0.0006807387107983232
1772744473546291000,9.178291015625,-0.0011445691343396902,0.000575321726500988,-0.002069249516353011
1772744473556318700,9.188318603515626,0.0008583941962569952,-0.00027555832639336586,0.0009302687831223011
1772744473566345700,9.198345703125,-0.00027206476079300046,0.0011135060340166092,-0.00026468519354239106
1772744473576373800,9.208373779296876,0.0004448582185432315,0.0009646355174481869,0.002275704173371196
1772744473586400800,9.21840087890625,0.002491180319339037,-0.00048002274706959724,-0.0009443325689062476
1772744473596428800,9.2284287109375,0.001393957994878292,-0.00023261504247784615,0.002785690827295184
1772744473606456800,9.238456787109374,0.0015447379555553198,0.0018216955941170454,-0.0004078134661540389
1772744473616483600,9.248483642578124,0.0010501889046281576,0.0008858607616275549,-0.0005971642094664276
1772744473626512000,9.258511962890625,0.00046803458826616406,0.0008155342657119036,0.0019066750537604094
1772744473636539600,9.26853955078125,0.0012635206803679466,0.0006903659086674452,0.0011071941116824746
1772744473646567000,9.27856689453125,-0.000048279238399118185,0.002475576475262642,0.00043005915358662605
1772744473656594700,9.2885947265625,-0.00008636247366666794,-0.0009894624818116426,0.0019150376319885254
1772744473666623000,9.298623046875,0.0016273955116048455,0.0002329705748707056,0.0006878478452563286
1772744473676649700,9.308649658203125,0.0019515022868290544,-0.0011556015815585852,0.0018143650377169251
1772744473686677800,9.318677734375,0.0006246418925002217,0.0012795727234333754,-0.0009741533431224525
1772744473696705800,9.328705810546875,0.002716554794460535,0.0005956732202321291,-0.0008593711536377668
1772744473706732800,9.33873291015625,0.0024178302846848965,0.0005286482628434896,0.0009199634077958763
1772744473716760800,9.3487607421875,0.0012849216582253575,0.0013433091808110476,0.00009251927258446813
1772744473726788900,9.358788818359375,-0.0021386933512985706,-0.0006637829355895519,-0.0006505548371933401
1772744473736815600,9.368815673828125,0.0017207597848027945,0.000670993234962225,0.001194216776639223
1772744473746844000,9.378843994140626,0.0005168372881598771,0.0005577371921390295,0.00145467440597713
1772744473756870700,9.38887060546875,0.0009378831018693745,0.0012664045207202435,-0.0018431181088089943
1772744473766899000,9.39889892578125,-0.0030597238801419735,0.0014021904207766056,0.00001062825322151184
1772744473776926700,9.4089267578125,0.00165114167612046,0.0008983202278614044,0.000772824976593256
1772744473786953700,9.41895361328125,-0.001969390781596303,0.0021430696360766888,-0.0017274034908041358
1772744473796981800,9.428981689453124,0.0015555692370980978,-0.00019518588669598103,-0.0022472525015473366
1772744473807009000,9.439009033203124,0.0008687123190611601,0.0009836072567850351,0.0012424192391335964
1772744473817036000,9.4490361328125,0.0022671381011605263,0.0017452717293053865,-0.0008236612775363028
1772744473827064000,9.45906396484375,0.0018397190142422915,-0.0006949512753635645,-0.00015600811457261443
1772744473837091800,9.469091796875,-0.0007227744208648801,-0.0011165295727550983,-0.0005964949959889054
1772744473847118800,9.479118896484374,0.00008004048140719533,-0.0022812243551015854,-0.00022672646446153522
1772744473857147000,9.48914697265625,-0.00109281565528363,0.0016831571701914072,0.0005961902788840234
1772744473867175000,9.4991748046875,-0.0028012124821543694,-0.001389952376484871,0.0005958245019428432
1772744473877202000,9.509201904296875,0.0006422549486160278,-0.002683982253074646,0.0002671904512681067
1772744473887230000,9.51922998046875,-0.0019505613017827272,0.0011725774966180325,-0.00017185969045385718
1772744473897258000,9.529258056640625,0.003193334210664034,-0.001120137982070446,-0.0007015624432824552
1772744473907285000,9.539284912109375,0.002554326318204403,-0.0004387109074741602,0.000263674883171916
1772744473917312800,9.549312744140625,0.003962073475122452,-0.0005018280353397131,-0.0016900200862437487
1772744473927340000,9.559340087890625,-0.0012837543617933989,0.00030336854979395866,-0.0007531268638558686
1772744473937367800,9.569367919921875,-0.000012627628166228533,-0.00006361491978168488,-0.0007294247625395656
1772744473947396000,9.57939599609375,-0.003219831734895706,0.0012877865228801966,-0.0022131940349936485
1772744473957422800,9.5894228515625,0.000987430103123188,-0.0006853493396192789,-0.0007324764737859368
1772744473967451000,9.599450927734376,-0.0022019403986632824,0.001042380928993225,-0.0026079383678734303
1772744473977479000,9.60947900390625,0.0003640152281150222,-0.0018756448989734054,0.0007348613580688834
1772744473987506000,9.619505859375,0.00251978961750865,0.0010855153668671846,-0.0002504893345758319
1772744473997534000,9.629533935546876,0.0011759584303945303,0.0001803068444132805,0.000716238166205585
1772744474007562000,9.63956201171875,0.0000429587671533227,0.0022249212488532066,-0.0013804826885461807
1772744474017588700,9.649588623046874,0.000045888242311775684,0.00048640952445566654,-0.0012108392547816038
1772744474027617000,9.659616943359374,0.0009999081958085299,0.0008439118973910809,0.0010300903813913465
1772744474037644800,9.669644775390625,-0.0005362032097764313,0.0002838491927832365,-0.00012518884614109993
1772744474047672000,9.679672119140625,0.0006861762958578765,0.0003042924217879772,0.0005404581897892058
1772744474057699800,9.689699951171875,-0.000005446665454655886,0.0004206725861877203,0.000025935412850230932
1772744474067728100,9.69972802734375,0.001142612425610423,0.0012698990758508444,0.00044779502786695957
1772744474077755000,9.7097548828125,-0.0032452119048684835,0.0010938637424260378,0.0019894989673048258
1772744474087783000,9.719782958984375,-0.0005404847906902432,0.00019448925741016865,-0.0006874653045088053
1772744474097811000,9.72981103515625,0.001358615467324853,0.0009023572783917189,0.0011410610750317574
1772744474107838000,9.739837890625,-0.0019515875028446317,0.0007562348619103432,-0.0006612711003981531
1772744474117866000,9.749865966796875,0.0007041167700663209,0.0019522602669894695,-0.0003044075274374336
1772744474127893000,9.75989306640625,-0.0010949458228424191,0.0006433220114558935,-0.000043699401430785656
1772744474137920800,9.769920654296875,0.000398821197450161,0.0004060340579599142,0.0016221079276874661
1772744474147949000,9.779948974609376,-0.00019016145961359143,-0.00046491040848195553,0.001710694283246994
1772744474157975800,9.789975830078125,0.00042928976472467184,-0.0011141891591250896,0.001213748473674059
1772744474168004000,9.800004150390626,-0.0011590465437620878,0.000012053176760673523,-0.00047948647988960147
1772744474178031900,9.810031982421876,0.0002660109312273562,-0.0009304394479840994,-0.00010131759336218238
1772744474188059000,9.820058837890626,-0.001498000812716782,0.002313144039362669,-0.000024504552129656076
1772744474198087000,9.8300869140625,-0.0007967905257828534,0.0012801038101315498,0.0003584580263122916
1772744474208115000,9.840114990234374,0.0012237888295203447,0.0010851912666112185,-0.00007767439819872379
1772744474218142000,9.850141845703124,-0.0003056645509786904,0.0008092874195426702,-0.0005799465579912066
1772744474228170000,9.860169921875,-0.0011707799276337028,0.0010751558002084494,0.0029806126840412617
1772744474238198000,9.870197998046875,0.000666801177430898,0.0013143077958375216,0.0014221308520063758
1772744474248225000,9.88022509765625,-0.00007384666241705418,-0.0008002661634236574,-0.0005301330820657313
1772744474258252800,9.890252685546875,0.0013730488717556,0.00021759397350251675,0.0004696175456047058
1772744474268281000,9.900281005859375,-0.0008717383025214076,0.0023748583626002073,-0.0008712150156497955
1772744474278307800,9.910307861328125,-0.0009883847087621689,-0.0007463661022484303,-0.0007937170448713005
1772744474288336100,9.920336181640625,-0.0007451762794516981,0.001287470106035471,-0.0004784917109645903
1772744474298364000,9.930364013671875,0.001460187486372888,-0.0006819374393671751,0.002935148077085614
1772744474308391000,9.940390869140625,-0.0011109036859124899,-0.0006796217057853937,0.0007032416760921478
1772744474318419000,9.9504189453125,0.00042973505333065987,-0.0005243595223873854,-0.0019569899886846542
1772744474328446000,9.960446044921875,-0.0004204959259368479,-0.0002750805579125881,-0.0006414345698431134
1772744474338474000,9.970473876953125,-0.0005360770737752318,-0.00019119097851216793,0.0006470028311014175
1772744474348502000,9.980501953125,0.0010954431490972638,-0.0001614114735275507,-0.0020784875378012657
1772744474358528800,9.99052880859375,-0.0012278985232114792,0.0002804070245474577,0.0011207677889615297
1772744474368557000,10.00055712890625,0.0005235755816102028,-0.001343548996374011,-0.00035147235030308366
1772744474378584800,10.010584716796876,0.0003118542954325676,-0.0004260898567736149,-0.0006004779133945704
1772744474388612000,10.020612060546876,-0.0018507419154047966,-0.00011352612636983395,-0.0008733299328014255
1772744474398639900,10.030639892578124,-0.0011226336937397718,-0.0011524250730872154,-0.001562023418955505
1772744474408668200,10.040668212890624,-0.0006177901523187757,0.0006794312503188848,-0.0014902814291417599
1772744474418695000,10.05069482421875,0.0009886285988613963,0.0001891434658318758,-0.0005648328806273639
1772744474428723000,10.060722900390624,-0.002215845510363579,0.00088835833594203,0.000795888714492321
1772744474438751000,10.0707509765625,-0.0007686837925575674,0.0007514720782637596,-0.00003208802081644535
1772744474448778000,10.080778076171875,0.0007836304721422493,-0.0005106129683554173,-0.0007865651277825236
1772744474458806000,10.090805908203125,0.00047683430602774024,-0.0015495120314881206,-0.0013708625920116901
1772744474468834000,10.100833984375,-0.0003374405496288091,0.001295579131692648,-0.0005633559776470065
1772744474478860800,10.11086083984375,-0.0010058939224109054,0.0019922619685530663,-0.001243261038325727
1772744474488889000,10.12088916015625,0.0010509693529456854,-0.0013421832118183374,-0.0002721043711062521
1772744474498915800,10.130915771484375,-0.00033520598663017154,-0.0006399077828973532,0.001940183574333787
1772744474508944100,10.140944091796875,0.00048717117169871926,-0.0008421964012086391,0.001065076794475317
1772744474518972000,10.150971923828125,0.0007465630187653005,-0.0024824372958391905,0.000048015499487519264
1772744474528999000,10.1609990234375,0.00019860570318996906,-0.0005370764993131161,0.001842089113779366
1772744474539027000,10.17102685546875,0.00007902976358309388,-0.000293130986392498,-0.00009189837146550417
1772744474549055000,10.181054931640626,-0.0033047175966203213,-0.0002835227642208338,-0.0013507886324077845
1772744474559082000,10.19108203125,0.0009558073943480849,-0.0005711440462619066,-0.0010208230232819915
1772744474569110000,10.201110107421876,-0.000702070421539247,0.0012786902952939272,-0.001137537183240056
1772744474579138000,10.211137939453126,-0.0011609331704676151,0.0012856146786361933,0.0020028625149279833
1772744474589165000,10.2211650390625,0.0018309908919036388,0.0005106034222990274,0.00276825949549675
1772744474599192800,10.23119287109375,0.0012706615962088108,-0.0023688063956797123,0.0013328153872862458
1772744474609220900,10.241220947265624,0.0011686943471431732,0.0008405065163969994,-0.0007805736968293786
1772744474619247900,10.251247802734374,-0.0011618378339335322,0.0017837979830801487,-0.0021161488257348537
1772744474629276200,10.261276123046875,0.002960436511784792,-0.0007368016522377729,0.0002931624185293913
1772744474639304000,10.271303955078125,-0.0010425609070807695,-0.0005210854578763247,0.0002731887507252395
1772744474649331000,10.2813310546875,0.00022935820743441582,-0.0014627771452069283,-0.0019749063067138195
1772744474659359000,10.29135888671875,0.0009284379775635898,0.0014014528132975101,-0.0011581149883568287
1772744474669386800,10.30138671875,-0.00043073506094515324,-0.0026755505241453648,0.0002020359388552606
1772744474679414000,10.3114140625,0.00012480031000450253,0.00038335612043738365,-0.0004802659386768937
1772744474689441800,10.32144189453125,0.0008399261860176921,-0.0004498348571360111,0.0012595797888934612
1772744474699468800,10.33146875,0.002972585614770651,0.0013320862781256437,0.002609802642837167
1772744474709497000,10.3414970703125,-0.0021628770045936108,-0.00004882621578872204,-0.0005214234115555882
1772744474719524900,10.35152490234375,0.0007026843377389014,-0.002639815676957369,0.0007347895880229771
1772744474729552100,10.36155224609375,0.00021631259005516768,0.001321354415267706,-0.0007332651293836534
1772744474739580000,10.371579833984375,0.00042483810102567077,0.0011309385299682617,0.000012952601537108421
1772744474749608000,10.38160791015625,0.001707545598037541,-0.0005970653146505356,-0.0012477083364501595
1772744474759635000,10.391635009765626,0.0005144495517015457,0.00005327863618731499,-0.0004282536683604121
1772744474769663000,10.4016630859375,0.00005509861512109637,-0.0006944849155843258,0.0003813460352830589
1772744474779691000,10.41169091796875,-0.0015896696131676435,0.0005561355501413345,0.00022182270186021924
1772744474789718000,10.421718017578126,-0.0004748506471514702,0.002115833107382059,-0.001032021245919168
1772744474799746300,10.431746337890624,0.00006603734800592065,-0.0012032643426209688,0.0013461814960464835
1772744474809774300,10.4417744140625,-0.0009555701399222016,0.00167739181779325,0.000926247681491077
1772744474819801300,10.45180126953125,0.00034751452039927244,0.0023517042864114046,-0.0014791192952543497
1772744474829829000,10.4618291015625,0.0007217730162665248,0.0012749491725116968,0.0013593788025900722
1772744474839857400,10.471857421875,0.0016877015586942434,-0.0024867658503353596,-0.0008595669642090797
1772744474849884200,10.48188427734375,0.0010012966813519597,0.00034821173176169395,0.0013272638898342848
1772744474859912400,10.491912353515625,0.00044469605199992657,0.0024582340847700834,0.0010564205003902316
1772744474869940200,10.501940185546875,0.00005364062963053584,-0.0007773153483867645,-0.00014421119703911245
1772744474879967200,10.51196728515625,-0.0008939121034927666,0.0016805159393697977,-0.0019458397291600704
1772744474889995300,10.521995361328125,0.00013059948105365038,0.0004209536127746105,0.0010618496453389525
1772744474900022300,10.532022216796875,0.0005210188683122396,0.0014795598108321428,-0.00027479088748805225
1772744474910050300,10.54205029296875,0.0007424086215905845,0.0003589838743209839,0.0020005987025797367
1772744474920078300,10.552078369140625,-0.000547626637853682,0.0019760550931096077,0.0007182865520007908
1772744474930105000,10.56210498046875,0.0013584343250840902,-0.0004148203879594803,0.0007457465399056673
1772744474940133400,10.57213330078125,0.0007834579446353018,0.0020030634477734566,0.0011068711755797267
1772744474950161200,10.5821611328125,0.0012896021362394094,-0.0011443051043897867,0.0016207413282245398
1772744474960188400,10.5921884765625,0.0006954509299248457,-0.0002596029080450535,-0.002212879015132785
1772744474970216200,10.60221630859375,-0.0018962024478241801,0.0009977002628147602,-0.002497611567378044
1772744474980244500,10.612244384765624,-0.0015009893104434013,0.00047492189332842827,-0.0010035783052444458
1772744474990271200,10.622271240234374,0.00001829979009926319,0.0005338343326002359,0.0015281557571142912
1772744475000299300,10.63229931640625,0.0004031265270896256,0.001322129974141717,-0.0006676206248812377
1772744475010327300,10.642327392578125,-0.0015749376034364104,0.0005427543073892593,-0.0018298618961125612
1772744475020354300,10.652354248046874,0.002502362011000514,0.0002623233012855053,0.0015749895246699452
1772744475030382300,10.66238232421875,-0.000012662902008742094,0.0023381360806524754,-0.0022812853567302227
1772744475040410400,10.672410400390625,0.0014376946492120624,-0.0026795254088938236,0.0019014754798263311
1772744475050437000,10.68243701171875,-0.0003929628583136946,0.002503356197848916,0.0021956022828817368
1772744475060465400,10.69246533203125,0.00012235878966748714,-0.0006618108600378036,-0.0005064408178441226
1772744475070493200,10.7024931640625,0.0007904625381343067,0.0004714643582701683,0.00015883560990914702
1772744475080520400,10.7125205078125,-0.0017837490886449814,-0.0005445315036922693,0.0020616641268134117
1772744475090548200,10.72254833984375,0.0018100051674991846,-0.00009308825246989727,0.0002265950315631926
1772744475100575200,10.7325751953125,-0.00044009950943291187,0.0018632698338478804,-0.0010884739458560944
1772744475110603300,10.742603271484375,-0.0001926447730511427,-0.000023397384211421013,-0.0015152357518672943
1772744475120631300,10.75263134765625,-0.002904009073972702,0.0023505445569753647,0.0018121176399290562
1772744475130658300,10.762658203125,-0.0010932032018899918,0.0032028607092797756,-0.00025446570361964405
1772744475140686300,10.772686279296876,-0.0015288963913917542,0.00040574255399405956,0.000565255235414952
1772744475150714400,10.78271435546875,0.0009633173467591405,0.0024694132152944803,-0.0029122233390808105
1772744475160741400,10.792741455078126,0.0006639780476689339,0.0016931018326431513,-0.0010288360062986612
1772744475170769200,10.80276904296875,0.000710225896909833,0.0013282897416502237,-0.0006740111857652664
1772744475180797400,10.81279736328125,0.0028476789593696594,0.0000470427330583334,-0.00031768024200573564
1772744475190824200,10.82282421875,-0.00006791949272155762,0.0003392868675291538,0.0017137499526143074
1772744475200852500,10.8328525390625,-0.0008485694997943938,0.000031651696190238,-0.0004249735502526164
1772744475210880300,10.84288037109375,0.0007751598604954779,-0.00035823509097099304,0.0012954284902662039
1772744475220907300,10.8529072265625,-0.0006993509596213698,0.001975397113710642,-0.001388093805871904
1772744475230935300,10.862935302734375,0.00018215534510090947,0.0009074695408344269,0.00012884271563962102
1772744475240963300,10.87296337890625,-0.0019193674670532346,-0.001167783746495843,0.0002963184961117804
1772744475250990300,10.882990234375,0.001084145624190569,0.001645845826715231,0.001032948843203485
1772744475261018400,10.893018310546875,-0.0010527748381718993,0.0018345692660659552,-0.001389223150908947
1772744475271046400,10.90304638671875,-0.001212298171594739,0.0008950063493102789,0.0009748648735694587
1772744475281073400,10.913073486328125,-0.0012879455462098122,0.0019795140251517296,-0.00039469957118853927
1772744475291101200,10.92310107421875,-0.0032182044815272093,0.0025108144618570805,-0.0013174848863855004
1772744475301128400,10.93312841796875,0.00014254049165174365,-0.00203274330124259,-0.0011396349873393774
1772744475311156200,10.94315625,0.0010999469086527824,0.000763043062761426,0.001548826228827238
1772744475321184500,10.9531845703125,-0.001235922216437757,0.00025132065638899803,-0.0021602811757475138
1772744475331211300,10.963211181640625,-0.0011570926290005445,0.0016867646481841803,-0.0021163388155400753
1772744475341239300,10.9732392578125,-0.0001750377705320716,-0.0003298826050013304,0.0001143471454270184
1772744475351267300,10.983267333984376,0.0002217732253484428,0.00015507894568145275,0.0013095737667754292
1772744475361294300,10.99329443359375,-0.0020461389794945717,-0.00046031479723751545,-0.0029313068371266127
1772744475371322400,11.003322265625,0.0015203660586848855,0.0014995052479207516,-0.0006455155671574175
1772744475381350400,11.013350341796874,-0.001384996110573411,0.0009667391423135996,0.0001527435379102826
1772744475391377200,11.023377197265624,0.0004943966632708907,-0.00024526542983949184,0.001393776503391564
1772744475401405400,11.033405517578124,0.00017930858302861452,-0.0011443044058978558,0.0030209410469979048
1772744475411433200,11.04343310546875,-0.0020425666589289904,0.0035545772407203913,0.00007069110870361328
1772744475421460500,11.05346044921875,0.001380075584165752,-0.0009665254037827253,-0.0015251656295731664
1772744475431488300,11.06348828125,0.0006855232641100883,0.0018620181363075972,-0.0007813447737134993
1772744475441516300,11.073516357421875,-0.001205001026391983,0.0012322019319981337,0.00008969585178419948
1772744475451543300,11.083543212890625,-0.001350675942376256,0.0008098243270069361,-0.0013385573402047157
1772744475461571300,11.0935712890625,0.0005706811789423227,0.0028428207151591778,0.000215272419154644
1772744475471599400,11.103599365234375,0.0006625602254644036,-0.00028452929109334946,0.0007979720248840749
1772744475481626400,11.11362646484375,-0.0012708483263850212,-0.00032795919105410576,0.00006246910197660327
1772744475491654400,11.123654296875,-0.0014261106261983514,0.009674075059592724,0.0038950243033468723
1772744475501681400,11.133681396484375,0.0023063011467456818,0.014330398291349411,0.005638018250465393
1772744475511709200,11.143709228515625,-0.0007566004642285407,0.014916826039552689,0.005336548667401075
1772744475521737200,11.1537373046875,-0.003789258189499378,0.01175609603524208,0.001894522923976183
1772744475531764200,11.16376416015625,0.00011546834139153361,0.008598387241363525,0.004722001031041145
1772744475541792500,11.17379248046875,-0.0029932395555078983,0.0055091199465096,0.003699080552905798
1772744475551820300,11.1838203125,-0.0022709520999342203,0.0006790873594582081,0.0030598794110119343
1772744475561847300,11.193847412109376,-0.00006798526737838984,-0.005719156935811043,-0.0011700192699208856
1772744475571875300,11.203875244140624,0.001777909230440855,-0.005142939276993275,-0.002980728168040514
1772744475581903000,11.213903076171874,0.00016057147877290845,-0.011258089914917946,-0.007401575800031424
1772744475591930400,11.223930419921874,0.0010397095466032624,-0.016070961952209473,-0.005673385690897703
1772744475601958400,11.23395849609375,0.0000847000046633184,-0.011938268318772316,-0.003808906301856041
1772744475611986400,11.243986328125,0.002075604861602187,-0.0066745830699801445,-0.00027523693279363215
1772744475622013400,11.254013427734375,0.0000968762906268239,-0.0012206954415887594,-0.0017556881066411734
1772744475632041200,11.264041259765625,0.002602545777335763,-0.0005585739854723215,-0.00005657720612362027
