time,seconds_elapsed,z,y,x
1772639118529279700,0.09227978515625,0.0009100021561607718,-0.0018351842882111669,-0.002031991956755519
1772639118539324700,0.10232470703125,0.0010703244479373097,-0.0025803367607295513,-0.005827795248478651
1772639118549371000,0.112370849609375,0.0010607370641082525,-0.003635481232777238,-0.007669637445360422
1772639118559415800,0.122415771484375,0.0009470200748182833,-0.005143096670508385,-0.00580755528062582
1772639118569461000,0.1324609375,0.0014836470363661647,-0.004623514134436846,-0.004847219679504633
1772639118579507000,0.1425068359375,0.0014061490073800087,-0.004918325692415237,-0.006867493502795696
1772639118589551600,0.152551513671875,0.002597647253423929,-0.0036453348584473133,-0.008097341284155846
1772639118599596800,0.1625966796875,0.0015238607302308083,-0.005489840172231197,-0.007004912476986647
1772639118609642800,0.172642822265625,0.0029949909076094627,-0.0043473439291119576,-0.00726297264918685
1772639118619687700,0.182687744140625,0.0018381137633696198,-0.002718821167945862,-0.006423011887818575
1772639118629732900,0.19273291015625,0.0023963123094290495,-0.006162820849567652,-0.006480003707110882
1772639118639778800,0.20277880859375,0.0006607302348129451,-0.003308711340650916,-0.00711596617475152
1772639118649824000,0.212823974609375,0.0012327772565186024,-0.0036943370942026377,-0.005284510552883148
1772639118659868700,0.22286865234375,0.0012000204296782613,-0.004503138829022646,-0.008934905752539635
1772639118669915100,0.2329150390625,0.0013965616235509515,-0.004314321093261242,-0.006358563434332609
1772639118679960300,0.242960205078125,0.0013635384384542704,-0.0037827540654689074,-0.006287456955760717
1772639118690006300,0.25300634765625,0.003397394670173526,-0.003602457931265235,-0.006995857693254948
1772639118700051000,0.263051025390625,0.0025539714843034744,-0.0038754320703446865,-0.007060572504997253
1772639118710096100,0.27309619140625,0.0026900589000433683,-0.005332979839295149,-0.007780691608786583
1772639118720142000,0.28314208984375,0.0008356999605894089,-0.003317233407869935,-0.008165784180164337
1772639118730187300,0.293187255859375,0.00293373828753829,-0.005103681702166796,-0.006336458958685398
1772639118740232200,0.303232177734375,0.0014245248166844249,-0.0034999263007193804,-0.00785525981336832
1772639118750278100,0.313278076171875,0.0009297095239162445,-0.003615241264924407,-0.007930627092719078
1772639118760323300,0.3233232421875,0.0013920343481004238,-0.0032208270858973265,-0.006589725613594055
1772639118770368000,0.333367919921875,0.0005320995696820319,-0.0037063213530927896,-0.007015565410256386
1772639118780414200,0.343414306640625,0.0027110979426652193,-0.004448544234037399,-0.006356166675686836
1772639118790459100,0.353459228515625,0.002293780678883195,-0.0037827540654689074,-0.006317550782114267
1772639118800504300,0.36350439453125,0.0013084110105410218,-0.0036669063847512007,-0.006572415120899677
1772639118810550300,0.37355029296875,0.000639691308606416,-0.003896470880135894,-0.005347361322492361
1772639118820595200,0.38359521484375,0.002895388752222061,-0.005609150044620037,-0.006854710169136524
1772639118830641200,0.39364111328125,0.0016612798208370805,-0.0023409186396747828,-0.007727161981165409
1772639118840686000,0.40368603515625,0.0025278725661337376,-0.003665042342618108,-0.006302903406322002
1772639118850731000,0.41373095703125,0.0023036343045532703,-0.005181446205824614,-0.006601709872484207
1772639118860777200,0.423777099609375,0.004668254870921373,-0.003855990944430232,-0.008108260110020638
1772639118870822100,0.433822265625,0.0017209346406161785,-0.0041305627673864365,-0.006849117577075958
1772639118880867300,0.443867431640625,0.0011949603212997317,-0.002660231664776802,-0.006952980998903513
1772639118890913300,0.453913330078125,0.0010556770721450448,-0.003305781865492463,-0.004935636185109615
1772639118900958000,0.4639580078125,0.0008317052270285785,-0.0036400086246430874,-0.008684035390615463
1772639118911003100,0.474003173828125,0.00358834327198565,-0.004991562571376562,-0.007501325570046902
1772639118921049000,0.484049072265625,0.0011638014111667871,-0.005251487251371145,-0.005993976723402739
1772639118931094300,0.49409423828125,0.0017979000695049763,-0.003820304526016116,-0.006882140878587961
1772639118941139200,0.50413916015625,0.002561161993071437,-0.004662129562348127,-0.007547132205218077
1772639118951185200,0.51418505859375,0.0012980246683582664,-0.003922570031136274,-0.006028597708791494
1772639118961230300,0.524230224609375,0.0007187871960923076,-0.004806472919881344,-0.006703176535665989
1772639118971276300,0.5342763671875,0.005071723833680153,-0.0049401638098061085,-0.008536762557923794
1772639118981321200,0.5443212890625,0.0016729978378862143,-0.0036155073903501034,-0.006571616046130657
1772639118991366100,0.5543662109375,0.001814944320358336,-0.004006459377706051,-0.0076211681589484215
1772639119001412000,0.564412109375,0.0032053806353360415,-0.004089550115168095,-0.0057532270438969135
1772639119011457300,0.574457275390625,0.0016458334866911173,-0.004421646241098642,-0.006895456463098526
1772639119021502200,0.584502197265625,0.0030634342692792416,-0.004820055328309536,-0.004822718445211649
1772639119031548200,0.594548095703125,-0.00014434332842938602,-0.003995274193584919,-0.007497331127524376
1772639119041593000,0.604593017578125,0.0016881778137758374,-0.004516454879194498,-0.006684800609946251
1772639119051638000,0.614637939453125,-0.00017310546536464244,-0.0036847495939582586,-0.008361260406672955
1772639119061684200,0.624684326171875,0.000013848437447450124,-0.0032975259236991405,-0.00768668157979846
1772639119071729200,0.634729248046875,0.0017441042000427842,-0.0032567796297371387,-0.006056561134755611
1772639119081774300,0.6447744140625,0.0018152105621993542,-0.004798749927431345,-0.00570023013278842
1772639119091820300,0.6548203125,0.0015302523970603943,-0.004283960908651352,-0.007517837453633547
1772639119101865200,0.664865234375,0.0020940436515957117,-0.003510579001158476,-0.008652344346046448
1772639119111911400,0.674911376953125,0.0032258869614452124,-0.002284725895151496,-0.007922904565930367
1772639119121956000,0.6849560546875,0.00012996226723771542,-0.004210191313177347,-0.007148723118007183
1772639119132001300,0.695001220703125,0.0013789847726002336,-0.003605920122936368,-0.006106894463300705
1772639119142047200,0.705047119140625,0.0020415792241692543,-0.0038986015133559704,-0.005830991081893444
1772639119152092200,0.715092041015625,0.0010863033821806312,-0.004935370292514563,-0.0052173989824950695
1772639119162137300,0.725137451171875,0.000291616132017225,-0.0031872710678726435,-0.005624862387776375
1772639119172183300,0.735183349609375,0.002681004349142313,-0.003870638320222497,-0.00675351032987237
1772639119182228000,0.74522802734375,0.00045140579459257424,-0.003811782458797097,-0.007169762160629034
1772639119192273200,0.755273193359375,0.00024341292737517506,-0.005709018558263779,-0.005381715949624777
1772639119202319000,0.765319091796875,0.0012258529895916581,-0.00404454255476594,-0.008111988194286823
1772639119212364300,0.7753642578125,0.0026381274219602346,-0.004875448998063803,-0.006207562051713467
1772639119222410200,0.78541015625,-0.00054142065346241,-0.004180896561592817,-0.006077866069972515
1772639119232455200,0.795455078125,0.0018282600212842226,-0.003099653171375394,-0.007780691608786583
1772639119242500000,0.8055,0.0013813816476613283,-0.004747350700199604,-0.005951898638159037
1772639119252546000,0.815546142578125,0.0013875069562345743,-0.004021106753498316,-0.007173224352300167
1772639119262591200,0.82559130859375,0.0018136126454919577,-0.004373176954686642,-0.007074687164276838
1772639119272636200,0.83563623046875,0.002028529765084386,-0.0038402783684432507,-0.0065013086423277855
1772639119282682000,0.84568212890625,0.0020623519085347652,-0.0060235378332436085,-0.007426757365465164
1772639119292727300,0.855727294921875,0.002415220718830824,-0.0037412086967378855,-0.005976666230708361
1772639119302772200,0.865772216796875,-0.000928111607208848,-0.0031989889685064554,-0.0054789213463664055
1772639119312818200,0.875818115234375,-0.00009614011651137844,-0.004234692547470331,-0.0073226275853812695
1772639119322863000,0.885863037109375,0.002374740783125162,-0.004236290231347084,-0.0073529877699911594
1772639119332908000,0.895907958984375,0.0020455741323530674,-0.004321511369198561,-0.007083741948008537
1772639119342954200,0.905954345703125,0.0012002866715192795,-0.0043923514895141125,-0.005817941855639219
1772639119352999200,0.915999267578125,-0.000046072687837295234,-0.005234709475189447,-0.007151652593165636
1772639119363045000,0.926045166015625,0.00047697214176878333,-0.004170776344835758,-0.006636863574385643
1772639119373090300,0.93609033203125,0.0022216090001165867,-0.003969441633671522,-0.007233412005007267
1772639119383135000,0.946135009765625,0.002710032742470503,-0.00287461606785655,-0.0075575183145701885
1772639119393181200,0.95618115234375,0.0018804579740390182,-0.004535363521426916,-0.005013400688767433
1772639119403226000,0.96622607421875,0.0024687503464519978,-0.003963849041610956,-0.006367618218064308
1772639119413271300,0.976271240234375,0.0011883024126291275,-0.004867193289101124,-0.005936984904110432
1772639119423317200,0.986317138671875,0.0017813884187489748,-0.002596848411485553,-0.0051833102479577065
1772639119433362200,0.996362060546875,0.0011651329696178436,-0.0035630431957542896,-0.00689172837883234
1772639119443407400,1.006407470703125,0.001731587341055274,-0.005061337724328041,-0.00535561703145504
1772639119453453000,1.016453125,0.0012982910266146064,-0.004511927254498005,-0.007512777578085661
1772639119463498200,1.026498291015625,0.0025156219489872456,-0.004457865376025438,-0.006146043073385954
1772639119473544200,1.036544189453125,0.0017531589837744832,-0.0037888791412115097,-0.00692128948867321
1772639119483589000,1.046589111328125,0.0003123887872789055,-0.003531085327267647,-0.006016080733388662
1772639119493634300,1.05663427734375,0.00313001312315464,-0.003698598127812147,-0.006477872841060162
1772639119503680300,1.06668017578125,0.002251968951895833,-0.0033859428949654102,-0.006532734259963036
1772639119513725200,1.07672509765625,0.0020303940400481224,-0.0034964641090482473,-0.007692008279263973
1772639119523770000,1.08677001953125,0.0007912251749075949,-0.004524710588157177,-0.007860053330659866
1772639119533816000,1.096816162109375,0.001999501371756196,-0.003916711080819368,-0.005508748814463615
1772639119543861200,1.106861328125,0.0013816480059176683,-0.005876531358808279,-0.007360710762441158
1772639119553906200,1.11690625,0.0022540995851159096,-0.003994208760559559,-0.0075940038077533245
1772639119563952000,1.1269521484375,0.0015606123488396406,-0.0038812910206615925,-0.00774633651599288
1772639119573997300,1.136997314453125,0.001826395862735808,-0.003382480936124921,-0.007213704288005829
1772639119584042000,1.1470419921875,0.0022306637838482857,-0.004293282050639391,-0.00697854720056057
1772639119594088200,1.157088134765625,0.003087935270741582,-0.005531918257474899,-0.006677077617496252
1772639119604133000,1.167133056640625,0.0012804478174075484,-0.0030479878187179565,-0.005452289711683989
1772639119614179000,1.177178955078125,0.0018932411912828684,-0.003320961957797408,-0.0067931911908090115
1772639119624224300,1.187224365234375,0.0011227887589484453,-0.004572913981974125,-0.007107976824045181
1772639119634269200,1.197269287109375,0.0010490191634744406,-0.0036448021419346333,-0.007179882377386093
1772639119644315100,1.207315185546875,0.0004423510399647057,-0.0055031562224030495,-0.006514624692499638
1772639119654360300,1.2173603515625,0.002353435382246971,-0.004193147178739309,-0.006848318502306938
1772639119664404700,1.22740478515625,0.0018972359830513597,-0.0030858046375215054,-0.0051710596308112144
1772639119674450700,1.23745068359375,0.0001691107318038121,-0.004055195488035679,-0.007446730975061655
1772639119684495600,1.24749560546875,0.0014602112350985408,-0.0027601001784205437,-0.007242466323077679
1772639119694540800,1.257540771484375,0.0012538161827251315,-0.0018391790799796581,-0.005188636481761932
1772639119704586800,1.267586669921875,0.00021651499264407903,-0.003242132253944874,-0.008009457029402256
1772639119714631700,1.277631591796875,0.000031957933970261365,-0.004625910893082619,-0.006608900614082813
1772639119724678000,1.287677978515625,0.0019057580502703786,-0.0041492050513625145,-0.0059566921554505825
1772639119734722600,1.29772265625,0.00227860058657825,-0.003483681008219719,-0.007837416604161263
1772639119744767700,1.307767822265625,0.00038722361205145717,-0.005314870737493038,-0.006637662649154663
1772639119754813700,1.317813720703125,0.0016919062472879887,-0.0033771544694900513,-0.005380384158343077
1772639119764858600,1.327858642578125,0.0009768474847078323,-0.0036991306114941835,-0.007580954115837812
1772639119774903800,1.33790380859375,0.002645051572471857,-0.0036107138730585575,-0.005352687556296587
1772639119784949800,1.34794970703125,0.001916144392453134,-0.0031915323343127966,-0.0064927865751087666
1772639119794995000,1.357994873046875,0.0024317323695868254,-0.0022924491204321384,-0.007188670802861452
1772639119805039600,1.36803955078125,0.0013885721564292908,-0.0028879318851977587,-0.0064975805580616
1772639119815085600,1.37808544921875,0.0007997472421266139,-0.004260258749127388,-0.008130097761750221
1772639119825130800,1.388130859375,0.0015534218400716782,-0.004418184049427509,-0.006642456166446209
1772639119835176700,1.3981767578125,0.0012594088912010193,-0.0037260286044329405,-0.005066663958132267
1772639119845221600,1.4082216796875,0.0022594258189201355,-0.0036373452749103308,-0.0061535001732409
1772639119855266800,1.418266845703125,0.001755023142322898,-0.005285575985908508,-0.004799016285687685
1772639119865312800,1.428312744140625,0.002400839701294899,-0.0027137610595673323,-0.006459763273596764
1772639119875357700,1.438357666015625,0.002435993403196335,-0.003822701284661889,-0.008155664429068565
1772639119885402600,1.448402587890625,0.0016626114957034588,-0.004830175079405308,-0.006942860782146454
1772639119895448600,1.458448486328125,0.001633316627703607,-0.003703658003360033,-0.006490922532975674
1772639119905493800,1.46849365234375,0.0007099987124092877,-0.003739610780030489,-0.007124488707631826
1772639119915538700,1.47853857421875,0.0020903151016682386,-0.004612861201167107,-0.007011570502072573
1772639119925585000,1.4885849609375,0.0018674085149541497,-0.005022189114242792,-0.006056561134755611
1772639119935629600,1.498629638671875,0.0005382248782552779,-0.004319380968809128,-0.006616090890020132
1772639119945674800,1.5086748046875,0.0033625070936977863,-0.0033577135764062405,-0.007980428636074066
1772639119955720700,1.518720703125,0.001600293442606926,-0.004767058417201042,-0.005885053426027298
1772639119965765600,1.528765625,0.0020040287636220455,-0.003600061172619462,-0.006116481963545084
1772639119975811800,1.538811767578125,0.0026644926983863115,-0.003945739474147558,-0.006235791835933924
1772639119985856800,1.548856689453125,0.0003933488915208727,-0.0032000544015318155,-0.006367884576320648
1772639119995901700,1.558901611328125,0.0007334345718845725,-0.0033393376506865025,-0.007075486239045858
1772639120005948000,1.568947998046875,0.0014916365034878254,-0.0036887445021420717,-0.0068150293081998825
1772639120015992600,1.57899267578125,0.002210423583164811,-0.004023769870400429,-0.006183859892189503
1772639120026037800,1.589037841796875,0.0019196064677089453,-0.0035774242132902145,-0.00848536379635334
1772639120036083700,1.599083740234375,0.0005233111442066729,-0.005238970275968313,-0.005994243081659079
1772639120046128600,1.609128662109375,0.0017339842161163688,-0.003451723139733076,-0.007450193166732788
1772639120056173800,1.619173828125,0.0015225291717797518,-0.00395639194175601,-0.00711809704080224
1772639120066219800,1.6292197265625,0.0012548814993351698,-0.004320446401834488,-0.005871471017599106
1772639120076264700,1.6392646484375,0.0017193368403241038,-0.0035244273021817207,-0.007407050114125013
1772639120086310700,1.649310546875,0.0022240057587623596,-0.004811533261090517,-0.006292516831308603
1772639120096355600,1.65935546875,0.0013084110105410218,-0.0052376389503479,-0.007483482826501131
1772639120106400800,1.66940087890625,0.003769704606384039,-0.004866127856075764,-0.00612180819734931
1772639120116446700,1.67944677734375,0.0013970943400636315,-0.0029648973140865564,-0.005864547099918127
1772639120126492000,1.689491943359375,0.0016162724932655692,-0.003173955250531435,-0.006243514828383923
1772639120136536800,1.699536865234375,0.0020386497490108013,-0.003801928833127022,-0.007151918951421976
1772639120146582500,1.70958251953125,0.0021084246691316366,-0.004175037611275911,-0.005619536153972149
1772639120156627700,1.719627685546875,0.0024839304387569427,-0.0019627497531473637,-0.005372927524149418
1772639120166672600,1.729672607421875,0.001335841603577137,-0.004863464739173651,-0.004935103934258223
1772639120176718600,1.739718505859375,0.0005728459218516946,-0.003070092061534524,-0.006162022240459919
1772639120186763800,1.749763671875,0.002263686852529645,-0.0031550468411296606,-0.006867493502795696
1772639120196809700,1.759809814453125,0.00101173494476825,-0.0038373488932847977,-0.004707669839262962
1772639120206855000,1.76985498046875,0.0027260116767138243,-0.0038597192615270615,-0.005656553898006678
1772639120216899600,1.779899658203125,0.0016447682864964008,-0.0024503744207322598,-0.005994243081659079
1772639120226945500,1.789945556640625,0.0017592841759324074,-0.004989964887499809,-0.006238454952836037
1772639120236990700,1.79999072265625,0.002907373011112213,-0.004611263517290354,-0.004316451493650675
1772639120247035600,1.81003564453125,0.0008442220860160887,-0.0032871398143470287,-0.005048021674156189
1772639120257081900,1.820081787109375,0.0015398397808894515,-0.003888747887685895,-0.00765951769426465
1772639120267126800,1.830126708984375,0.0015108112711459398,-0.00415399856865406,-0.007429686840623617
1772639120277171700,1.840171630859375,0.002519350266084075,-0.0033574472181499004,-0.00555215822532773
1772639120287217700,1.8502177734375,0.0007808388327248394,-0.003210174385458231,-0.0052293832413852215
1772639120297262600,1.8602626953125,0.001207477180287242,-0.004032558295875788,-0.005620867945253849
1772639120307307800,1.870307861328125,0.003465837799012661,-0.0036879454273730516,-0.005659217480570078
1772639120317353700,1.880353759765625,0.002182993106544018,-0.003938016481697559,-0.00809094961732626
1772639120327398700,1.890398681640625,0.0013584784464910626,-0.0027917916886508465,-0.005974003113806248
1772639120337444900,1.90044482421875,0.0008623315370641649,-0.002894589677453041,-0.006476541515439749
1772639120347489800,1.91048974609375,0.002435460686683655,-0.0041436124593019485,-0.005651494022458792
1772639120357534700,1.92053466796875,0.002403236459940672,-0.003368099918588996,-0.007028880994766951
1772639120367580700,1.93058056640625,0.0026700852904468775,-0.0035236284602433443,-0.0065319351851940155
1772639120377625600,1.94062548828125,0.001133441342972219,-0.004178766161203384,-0.006941529456526041
1772639120387670800,1.9506708984375,-0.000014647385796706658,-0.003817375050857663,-0.006160424090921879
1772639120397716700,1.960716796875,0.0010037453612312675,-0.004013117402791977,-0.006967628374695778
1772639120407762000,1.970761962890625,0.0015502260066568851,-0.003481017891317606,-0.005062669049948454
1772639120417806600,1.980806640625,0.0006761765689589083,-0.002950516063719988,-0.006745520513504744
1772639120427852500,1.9908525390625,0.002037318190559745,-0.003967311233282089,-0.007215302437543869
1772639120437897700,2.000897705078125,0.0029047098942101,-0.004424309358000755,-0.006001433357596397
1772639120447943700,2.010943603515625,0.0021941782906651497,-0.00481206551194191,-0.007668306119740009
1772639120457988900,2.02098876953125,0.0008325041271746159,-0.003365170443430543,-0.005709284916520119
1772639120468033800,2.03103369140625,0.0013728595804423094,-0.005196892656385899,-0.0064975805580616
1772639120478079700,2.041079833984375,0.0020154803059995174,-0.003710582386702299,-0.005906891077756882
1772639120488124700,2.051124755859375,0.0021028320770710707,-0.003010969841852784,-0.006191316992044449
1772639120498169600,2.061169677734375,0.003710848744958639,-0.004867193289101124,-0.006417419295758009
1772639120508215600,2.071215576171875,-0.0006817692192271352,-0.005352154839783907,-0.006030195392668247
1772639120518260700,2.0812607421875,0.0006865629111416638,-0.0034402713645249605,-0.007285343483090401
1772639120528305700,2.0913056640625,0.00030306773260235786,-0.0028551749419420958,-0.006200638134032488
1772639120538351900,2.101351806640625,0.0007760451408103108,-0.0036916739773005247,-0.008167115971446037
1772639120548396800,2.111396728515625,0.00019574233738239855,-0.002983805723488331,-0.006731405854225159
1772639120558442800,2.12144287109375,0.0008876316132955253,-0.0031364047899842262,-0.006558300461620092
1772639120568487700,2.13148779296875,0.0007890945998951793,-0.004087686073035002,-0.007413174957036972
1772639120578532600,2.14153271484375,-0.0005707154050469398,-0.004326837603002787,-0.004295412451028824
1772639120588578800,2.151578857421875,0.0016018913593143225,-0.0025475798174738884,-0.007227020338177681
1772639120598623700,2.161623779296875,0.0028152274899184704,-0.0032650355715304613,-0.006993993651121855
1772639120608669000,2.1716689453125,0.0018210695125162601,-0.0041345576755702496,-0.005933522712439299
1772639120618715000,2.18171484375,0.0010104032699018717,-0.0032402679789811373,-0.007611314300447702
1772639120628759600,2.191759521484375,0.001660214620642364,-0.0035137746017426252,-0.007050452753901482
1772639120638804700,2.2018046875,0.0031547807157039642,-0.0041675809770822525,-0.006297843065112829
1772639120648850700,2.2118505859375,0.003168895374983549,-0.004030960611999035,-0.007212106604129076
1772639120658895600,2.2218955078125,0.001035436987876892,-0.0046213832683861256,-0.0067756143398582935
1772639120668942000,2.231942138671875,0.0033688987605273724,-0.0037412086967378855,-0.006673349067568779
1772639120678987000,2.241987060546875,0.0006119944155216217,-0.0034077810123562813,-0.006698116194456816
1772639120689032200,2.2520322265625,0.0011448930017650127,-0.004344680812209845,-0.008206530474126339
1772639120699078100,2.262078125,0.0011779161868616939,-0.004505536053329706,-0.007340470794588327
1772639120709123000,2.272123046875,0.0026320021133869886,-0.004867459647357464,-0.007309045642614365
1772639120719168000,2.28216796875,0.001773398951627314,-0.005185973364859819,-0.007102650590240955
1772639120729214000,2.2922138671875,0.0012775183422490954,-0.003510046284645796,-0.006774283014237881
1772639120739259000,2.3022587890625,0.0019150790758430958,-0.004817125853151083,-0.007092264015227556
1772639120749304000,2.312303955078125,0.0026130937039852142,-0.0022738068364560604,-0.006568686570972204
1772639120759350000,2.32235009765625,0.002892459277063608,-0.003382480936124921,-0.0070427292957901955
1772639120769395200,2.332395263671875,0.001181644620373845,-0.0037854171823710203,-0.005123123060911894
1772639120779441200,2.342441162109375,0.0008692557457834482,-0.004457599017769098,-0.005901298485696316
1772639120789486000,2.352486083984375,0.003049852093681693,-0.004297809209674597,-0.004339354578405619
1772639120799531000,2.362531005859375,0.0012546151410788298,-0.0041212416253983974,-0.005676794331520796
1772639120809577000,2.372576904296875,0.0014911039033904672,-0.004405933897942305,-0.005540440324693918
1772639120819622100,2.3826220703125,0.002621349412947893,-0.003952929750084877,-0.007167631760239601
1772639120829667000,2.3926669921875,0.002502572489902377,-0.0029473204631358385,-0.0057218014262616634
1772639120839713000,2.402713134765625,0.0014058827655389905,-0.003320961957797408,-0.006650978233665228
1772639120849758200,2.41275830078125,0.0005917543894611299,-0.0035979305393993855,-0.005231247283518314
1772639120859803000,2.422802978515625,0.0009033442474901676,-0.0037081853952258825,-0.007454720325767994
1772639120869849000,2.43284912109375,0.001936650718562305,-0.0036421390250325203,-0.005175320897251368
1772639120879894000,2.44289404296875,0.002671683207154274,-0.0034735610242933035,-0.006142847239971161
1772639120889940000,2.45293994140625,0.0019707391038537025,-0.0035060516092926264,-0.005531119182705879
1772639120899985200,2.462985107421875,0.0009395632077939808,-0.0036511938087642193,-0.006293315906077623
1772639120910030000,2.473030029296875,0.0033252229914069176,-0.004800081718713045,-0.0057526943273842335
1772639120920076000,2.483075927734375,0.001472461735829711,-0.004845621529966593,-0.007721036672592163
1772639120930121000,2.493120849609375,0.001407480682246387,-0.003340669209137559,-0.00487092137336731
1772639120940166000,2.503165771484375,0.0026019082870334387,-0.003762780223041773,-0.007395598106086254
1772639120950212000,2.513212158203125,0.0001603222917765379,-0.0035145736765116453,-0.0049590724520385265
1772639120960257000,2.523257080078125,0.0012807141756638885,-0.004455202259123325,-0.0062456452287733555
1772639120970302200,2.53330224609375,0.0016863135388121009,-0.003468234557658434,-0.007227553054690361
1772639120980348200,2.54334814453125,0.0012660667998716235,-0.0038370825350284576,-0.006597715429961681
1772639120990393000,2.55339306640625,0.0012112056137993932,-0.0025686188600957394,-0.007170561235398054
1772639121000438000,2.56343798828125,0.000833036785479635,-0.004129763692617416,-0.0070760189555585384
1772639121010484000,2.57348388671875,0.0018572885310277343,-0.002835201332345605,-0.00732449209317565
1772639121020529200,2.583529052734375,0.0020330571569502354,-0.004742823541164398,-0.005846703890711069
1772639121030575000,2.5935751953125,0.0025723471771925688,-0.004963599611073732,-0.005935919936746359
1772639121040620000,2.6036201171875,0.002636795863509178,-0.00401578051969409,-0.005201419815421104
1772639121050665200,2.613665283203125,0.0011518171522766352,-0.005191565956920385,-0.006857373286038637
1772639121060711200,2.623711181640625,0.0009379653492942452,-0.0043444144539535046,-0.006650978233665228
1772639121070755800,2.633755859375,0.003061836352571845,-0.002960369922220707,-0.006164152640849352
1772639121080801000,2.643801025390625,0.001213868847116828,-0.0035931370221078396,-0.008506402373313904
1772639121090847000,2.653846923828125,0.0028628981672227383,-0.0035294874105602503,-0.006627808790653944
1772639121100892200,2.66389208984375,0.002082591876387596,-0.004889830015599728,-0.00700757559388876
1772639121110938000,2.673938232421875,0.0006764429272152483,-0.0022658174857497215,-0.007947404868900776
1772639121120983000,2.683983154296875,0.002290851203724742,-0.005369998048990965,-0.006206230726093054
1772639121131028000,2.694028076171875,0.001091629732400179,-0.0043779704719781876,-0.006716492120176554
1772639121141074000,2.704073974609375,0.0010213222121819854,-0.004223507363349199,-0.00618172949180007
1772639121151119000,2.714119140625,0.000031425301131093875,-0.0027869981713593006,-0.00754899624735117
1772639121161164000,2.7241640625,0.0006870955694466829,-0.0028431906830519438,-0.006362025626003742
1772639121171210000,2.7342099609375,0.0018730012234300375,-0.004092745948582888,-0.005934055428951979
1772639121181255200,2.744255126953125,0.0022184131667017937,-0.003869839245453477,-0.007851531729102135
1772639121191300000,2.754300048828125,0.001374457380734384,-0.002793389605358243,-0.006819822825491428
1772639121201346000,2.764345947265625,0.0013366405619308352,-0.0043928842060267925,-0.007334079127758741
1772639121211391000,2.774390869140625,0.0011829761788249016,-0.0054847802966833115,-0.00615110294893384
1772639121221437000,2.78443701171875,0.0014660701854154468,-0.004208593629300594,-0.007632353343069553
1772639121231482000,2.794482177734375,0.0011400992516428232,-0.00398728484287858,-0.006954045966267586
1772639121241527000,2.804527099609375,0.002326803747564554,-0.005638711154460907,-0.006453904323279858
1772639121251573000,2.814572998046875,0.0012753878254443407,-0.0034786208998411894,-0.006500776391476393
1772639121261618200,2.8246181640625,0.0018010957865044475,-0.003553189570084214,-0.005593703594058752
1772639121271662800,2.834662841796875,-0.00011930961773032323,-0.0036434705834835768,-0.007757255341857672
1772639121281709000,2.844708984375,0.0016319850692525506,-0.004445082042366266,-0.0062794676050543785
1772639121291754000,2.85475390625,0.0023790018167346716,-0.004119643941521645,-0.005109274294227362
1772639121301799200,2.864799072265625,0.0006418218254111707,-0.0034493261482566595,-0.00675191218033433
1772639121311845000,2.87484521484375,0.0011547466274350882,-0.0028272117488086224,-0.0057465690188109875
1772639121321890000,2.88489013671875,0.0006234460161067545,-0.002712962217628956,-0.005510612856596708
1772639121331935200,2.894935302734375,0.0026373283471912146,-0.0035444011446088552,-0.006877879612147808
1772639121341981200,2.904981201171875,0.0007323693134821951,-0.003971572034060955,-0.006128466222435236
1772639121352026000,2.915026123046875,0.0034328147303313017,-0.002852511825039983,-0.007407316006720066
1772639121362072000,2.925072021484375,0.0023395870812237263,-0.0044046021066606045,-0.006434729788452387
1772639121372117000,2.935116943359375,0.002941993996500969,-0.003025883575901389,-0.006638994440436363
1772639121382162200,2.945162109375,-0.0007603325066156685,-0.00290417717769742,-0.006962834391742945
1772639121392208100,2.9552080078125,0.00002157160452043172,-0.004378236830234528,-0.0057412427850067616
1772639121402253000,2.965253173828125,0.0021781993564218283,-0.0036157737486064434,-0.006074137985706329
1772639121412298000,2.975298095703125,-0.0019387812353670597,-0.0029827402904629707,-0.007412376347929239
1772639121422344000,2.985343994140625,0.001686579897068441,-0.0027768779546022415,-0.007327687460929155
1772639121432389000,2.99538916015625,0.0008322378271259367,-0.005120992194861174,-0.006725014187395573
1772639121442435000,3.00543505859375,0.0016319850692525506,-0.003469033632427454,-0.006954045966267586
1772639121452480000,3.01547998046875,0.00013848437811248004,-0.004363323096185923,-0.008325307630002499
1772639121462525200,3.025525146484375,0.0024956483393907547,-0.003025350859388709,-0.006755640730261803
1772639121472571100,3.035571044921875,0.002234392100945115,-0.004147606901824474,-0.007650995627045631
1772639121482616000,3.045615966796875,0.0032740901224315166,-0.003801928833127022,-0.006271477788686752
1772639121492661000,3.055660888671875,0.0015630092239007354,-0.003611512714996934,-0.006572415120899677
1772639121502707000,3.06570703125,0.0016325177857652307,-0.0032551817130297422,-0.007837416604161263
1772639121512752000,3.075752197265625,0.00301682879216969,-0.0037952708080410957,-0.00817936658859253
1772639121522797000,3.085797119140625,0.0031382690649479628,-0.005066131241619587,-0.005620601586997509
1772639121532843000,3.095843017578125,0.0020871192682534456,-0.00370126124471426,-0.00475480780005455
1772639121542888200,3.10588818359375,0.0016349145444110036,-0.00341603672131896,-0.006601177155971527
1772639121552934100,3.11593408203125,0.0003296993381809443,-0.004032292403280735,-0.006850183010101318
1772639121562979000,3.12597900390625,0.00088949577184394,-0.0031132353469729424,-0.006180131807923317
1772639121573024000,3.13602392578125,-0.00041998049709945917,-0.0035151063930243254,-0.006405168678611517
1772639121583070000,3.146070068359375,0.0016610135789960623,-0.004542820155620575,-0.007395864464342594
1772639121593115100,3.156115234375,0.001793905277736485,-0.0023273364640772343,-0.007278951816260815
1772639121603160000,3.16616015625,0.003522563260048628,-0.004649879410862923,-0.005964415613561869
1772639121613206300,3.176206298828125,0.0022831279784440994,-0.003049319377169013,-0.005640575196594
1772639121623251000,3.1862509765625,0.0013930995482951403,-0.004284493625164032,-0.007107710465788841
1772639121633296100,3.196296142578125,0.0022237394005060196,-0.004632036201655865,-0.0062554990872740746
1772639121643342000,3.206342041015625,0.003111371072009206,-0.0041460092179477215,-0.005153216887265444
1772639121653387000,3.216386962890625,0.0025300029665231705,-0.004262921866029501,-0.005897836294025183
1772639121663433000,3.226432861328125,0.0005382248782552779,-0.00523604080080986,-0.007158310618251562
1772639121673478400,3.236478515625,0.002496447181329131,-0.005089034326374531,-0.00732395937666297
1772639121683523300,3.2465234375,0.0019560917280614376,-0.003329484025016427,-0.006166016682982445
1772639121693569500,3.256569580078125,0.0024668860714882612,-0.0034083134960383177,-0.006107160821557045
1772639121703614500,3.266614501953125,0.0013547500129789114,-0.00261895265430212,-0.007084008306264877
1772639121713659600,3.27665966796875,0.002865294925868511,-0.004079164005815983,-0.00555295730009675
1772639121723705600,3.28670556640625,0.0018112158868461847,-0.002898051869124174,-0.006712497677654028
1772639121733750300,3.296750244140625,0.0013337110867723823,-0.002419215627014637,-0.007069360930472612
1772639121743795500,3.30679541015625,0.0018969696247950196,-0.0038719698786735535,-0.006200904026627541
1772639121753841400,3.31684130859375,0.0027949875220656395,-0.004000334069132805,-0.00563950976356864
1772639121763886300,3.32688623046875,0.002100967802107334,-0.003980626817792654,-0.006308495998382568
1772639121773932500,3.3369326171875,0.002697782125324011,-0.003725496120750904,-0.0075671058148145676
1772639121783977500,3.3469775390625,0.002645051572471857,-0.004253867082297802,-0.008402006700634956
1772639121794022400,3.3570224609375,0.0009376989910379052,-0.0040826257318258286,-0.0070251524448394775
1772639121804068400,3.367068359375,0.0028847360517829657,-0.004518318921327591,-0.007714911364018917
1772639121814113300,3.37711328125,0.0014255901332944632,-0.00418249424546957,-0.006330067757517099
1772639121824158500,3.387158447265625,-0.0004756405542138964,-0.0034759577829390764,-0.006977482233196497
1772639121834204400,3.397204345703125,0.0014410364674404263,-0.003025350859388709,-0.006237655878067017
1772639121844249600,3.40724951171875,0.0029561088886111975,-0.004316984210163355,-0.008254201151430607
1772639121854294500,3.41729443359375,0.0019646140281111,-0.00436119269579649,-0.006598514039069414
1772639121864340500,3.427340576171875,0.0015843145083636045,-0.003281813347712159,-0.007106112781912088
1772639121874385400,3.437385498046875,0.0012298477813601494,-0.002925216220319271,-0.007502124644815922
1772639121884431400,3.447431396484375,0.00224957219325006,-0.0032977922819554806,-0.007891212590038776
1772639121894476300,3.457476318359375,0.0018413095967844129,-0.003070358419790864,-0.0075455340556800365
1772639121904521500,3.467521484375,0.002025600289925933,-0.005391569808125496,-0.005395031534135342
1772639121914567400,3.4775673828125,0.0021254688035696745,-0.004352670628577471,-0.007213171571493149
1772639121924612600,3.487612548828125,0.002844256116077304,-0.0025574336759746075,-0.007113835774362087
1772639121934657300,3.4976572265625,0.0013068130938336253,-0.0036642432678490877,-0.007017962168902159
1772639121944703200,3.507703125,0.00098217383492738,-0.0032924660481512547,-0.0054914383217692375
1772639121954748400,3.51774853515625,0.002237854292616248,-0.004583832807838917,-0.006084257736802101
1772639121964793300,3.52779345703125,0.000985103310085833,-0.003680754918605089,-0.007472030818462372
1772639121974839600,3.537839599609375,0.00003808320252574049,-0.004516188520938158,-0.0056994310580194
1772639121984884500,3.547884521484375,0.0022865901701152325,-0.002767557045444846,-0.005622731987386942
1772639121994930400,3.557930419921875,0.0033513219095766544,-0.0032570459879934788,-0.005742840468883514
1772639122004975400,3.567975341796875,0.0023337281309068203,-0.0025931198615580797,-0.005885852500796318
1772639122015020300,3.578020263671875,0.0026133600622415543,-0.0031193606555461884,-0.005446697119623423
1772639122025066500,3.58806640625,0.001534779672510922,-0.0035606464371085167,-0.006975085008889437
1772639122035111400,3.598111328125,0.0016948357224464417,-0.0028644960839301348,-0.006359096150845289
1772639122045156400,3.60815625,-5.326322138898831e-7,-0.004560929723083973,-0.00606375141069293
1772639122055202600,3.61820263671875,0.0024405207950621843,-0.00526799913495779,-0.007134342100471258
1772639122065247500,3.62824755859375,0.0015366439474746585,-0.004521248396486044,-0.006564692128449678
1772639122075292400,3.63829248046875,0.0020005665719509125,-0.0038282941095530987,-0.006628607865422964
1772639122085338400,3.64833837890625,0.002028796123340726,-0.003914314322173595,-0.008761267177760601
1772639122095383300,3.65838330078125,0.0014980280539020896,-0.004539091605693102,-0.006083991378545761
1772639122105429500,3.668429443359375,0.001255680457688868,-0.005022721830755472,-0.005937251262366772
1772639122115474400,3.678474365234375,0.0015241270884871483,-0.004549744538962841,-0.006311425473541021
1772639122125519600,3.68851953125,0.0024706146214157343,-0.004139351192861795,-0.005855225957930088
1772639122135565600,3.698565673828125,0.0007102650706656277,-0.0031342741567641497,-0.005395297892391682
1772639122145610200,3.7086103515625,0.0028365328907966614,-0.004580370616167784,-0.0065106297843158245
1772639122155655400,3.718655517578125,0.0014644722687080503,-0.004143878817558289,-0.005401423200964928
1772639122165701400,3.728701416015625,0.001967543503269553,-0.0046663908287882805,-0.0059510995633900166
1772639122175746600,3.73874658203125,0.0025238776579499245,-0.0032503881957381964,-0.007761516608297825
1772639122185792500,3.74879248046875,0.001675128354690969,-0.0031523837242275476,-0.007733819540590048
1772639122195837400,3.75883740234375,0.0014570154016837478,-0.003856257302686572,-0.00640756543725729
1772639122205882600,3.768882568359375,0.002718821167945862,-0.004474643152207136,-0.006858172360807657
1772639122215928300,3.77892822265625,0.0015278555219992995,-0.004729241598397493,-0.006656038574874401
1772639122225973200,3.78897314453125,0.0015928366919979453,-0.004080761689692736,-0.0068176924251019955
1772639122236018400,3.799018310546875,0.0029587720055133104,-0.0031103058718144894,-0.007517304737120867
1772639122246064400,3.809064453125,0.0009438242996111512,-0.003486077766865492,-0.006185990758240223
1772639122256109600,3.819109619140625,0.0026200178544968367,-0.0033425334841012955,-0.007464041467756033
1772639122266154500,3.829154541015625,0.0009504822082817554,-0.003234142903238535,-0.007148989476263523
1772639122276200400,3.839200439453125,0.001537709147669375,-0.005392102058976889,-0.006264820229262114
1772639122286245400,3.849245361328125,0.0024767396971583366,-0.0032048479188233614,-0.006329801399260759
1772639122296290300,3.859290283203125,0.0022389194928109646,-0.0036964674945920706,-0.006666424684226513
1772639122306336500,3.86933642578125,0.001746501075103879,-0.003232811111956835,-0.005566805601119995
1772639122316381400,3.87938134765625,0.0017534252256155014,-0.0035981968976557255,-0.006356698926538229
1772639122326427400,3.889427490234375,0.0019433086272329092,-0.003311640815809369,-0.007351922336965799
1772639122336472600,3.89947265625,0.002243713242933154,-0.00446851784363389,-0.008071508258581161
1772639122346517200,3.909517333984375,0.0018777948571369052,-0.003798999357968569,-0.005530053749680519
1772639122356563500,3.9195634765625,0.0006719155353493989,-0.0034551850985735655,-0.006683735176920891
1772639122366608400,3.9296083984375,0.0017363809747621417,-0.003968642558902502,-0.007228618022054434
1772639122376653300,3.9396533203125,0.0015169365797191858,-0.0034269557800143957,-0.007622499484568834
1772639122386699500,3.949699462890625,0.0018482337472960353,-0.004039482679218054,-0.008289354853332043
1772639122396744400,3.959744384765625,0.0015369103057309985,-0.00355904852040112,-0.006584932096302509
1772639122406790400,3.969790283203125,0.0026490462478250265,-0.0037918086163699627,-0.008438758552074432
1772639122416835600,3.979835693359375,0.001862348522990942,-0.0049098036251962185,-0.0054632085375487804
1772639122426880300,3.98988037109375,0.002029328839853406,-0.0019267969764769077,-0.007131146267056465
1772639122436926500,3.999926513671875,0.0018940401496365666,-0.004350007511675358,-0.007749798707664013
1772639122446971400,4.009971435546875,0.0015651397407054901,-0.003754258155822754,-0.008694421499967575
1772639122457016600,4.0200166015625,0.0017659420846030116,-0.0041276332922279835,-0.006596383638679981
1772639122467062500,4.0300625,0.003114566905423999,-0.004453337751328945,-0.006850449368357658
1772639122477107500,4.040107421875,0.000597879639826715,-0.0032658344134688377,-0.006363889668136835
1772639122487152400,4.05015234375,0.0005209143273532391,-0.003584881080314517,-0.009182845242321491
1772639122497198300,4.0601982421875,0.00210602767765522,-0.0031489215325564146,-0.006039516534656286
1772639122507243500,4.070243408203125,0.0017148094484582543,-0.004869323689490557,-0.006592655088752508
1772639122517289500,4.08028955078125,0.0021371867042034864,-0.003294063964858651,-0.006980677600950003
1772639122527334400,4.09033447265625,0.0013323795283213258,-0.003992344718426466,-0.006601443514227867
1772639122537379600,4.100379638671875,0.001050350721925497,-0.0030072415247559547,-0.00640889722853899
1772639122547425500,4.110425537109375,0.002700445242226124,-0.00430153775960207,-0.006527673918753862
1772639122557470200,4.12047021484375,0.0017233315156772733,-0.0034903388004750013,-0.007032875902950764
1772639122567515400,4.130515380859375,0.0023249397054314613,-0.005014199763536453,-0.008290953002870083
1772639122577561300,4.140561279296875,0.0025326660834252834,-0.0038927425630390644,-0.007660316303372383
1772639122587606500,4.1506064453125,-0.000010120012120751198,-0.004166249185800552,-0.0059718722477555275
1772639122597651500,4.1606513671875,0.001585646066814661,-0.0033481260761618614,-0.007141532842069864
1772639122607697400,4.170697509765625,0.001404018490575254,-0.0038714371621608734,-0.006460828706622124
1772639122617742600,4.18074267578125,0.0014689996605738997,-0.0034525219816714525,-0.007134075742214918
1772639122627788500,4.19078857421875,0.001216798322275281,-0.004538026638329029,-0.00857457984238863
1772639122637833500,4.20083349609375,0.0015912387752905488,-0.0037201696541160345,-0.006652043666690588
1772639122647878400,4.21087841796875,0.002046905690804124,-0.004111121874302626,-0.004852279555052519
1772639122657924400,4.22092431640625,0.0010732539230957627,-0.0032469260040670633,-0.0070222229696810246
1772639122667968800,4.23096875,0.0009028115891851485,-0.004261590540409088,-0.006853645201772451
1772639122678013400,4.241013427734375,0.002007490722462535,-0.004978779703378677,-0.006584133021533489
1772639122688059600,4.2510595703125,0.0010780475568026304,-0.003778493031859398,-0.0064962487667799
1772639122698104600,4.2611044921875,0.0015515576815232635,-0.003656520042568445,-0.005949235521256924
1772639122708149800,4.271149658203125,0.00101120222825557,-0.0041302964091300964,-0.008312790654599667
1772639122718195700,4.28119580078125,0.0021723404061049223,-0.004512193612754345,-0.006069876719266176
1772639122728240600,4.29124072265625,0.0009954896522685885,-0.004057059530168772,-0.00746164470911026
1772639122738286800,4.301286865234375,0.0016168050933629274,-0.0035979305393993855,-0.006734868045896292
1772639122748331800,4.311331787109375,0.00166633992921561,-0.0037979339249432087,-0.006762298755347729
1772639122758376700,4.321376708984375,0.0019925772212445736,-0.00495054991915822,-0.006237655878067017
1772639122768422700,4.331422607421875,0.001984587637707591,-0.0037526602391153574,-0.005017661955207586
1772639122778467600,4.341467529296875,0.001064998097717762,-0.005347893573343754,-0.00606295233592391
1772639122788512800,4.3515126953125,0.00152306177187711,-0.003907922655344009,-0.005109540652483702
1772639122798558700,4.361558837890625,0.000862864195369184,-0.003643736941739917,-0.007860319688916206
1772639122808603600,4.371603759765625,0.0024919197894632816,-0.004823517519980669,-0.00675271125510335
1772639122818648600,4.381648681640625,0.0029001825023442507,-0.003582484321668744,-0.007298126816749573
1772639122828694500,4.391694580078125,0.0022738068364560604,-0.0035771578550338745,-0.007458981592208147
1772639122838739700,4.40173974609375,0.0003653856983873993,-0.0043654534965753555,-0.006473878398537636
1772639122848785700,4.41178564453125,0.0019289276096969843,-0.004221642855554819,-0.006275206338614225
1772639122858830600,4.42183056640625,0.00384400668554008,-0.00501073757186532,-0.007469900418072939
1772639122868875800,4.431875732421875,0.0009139968897216022,-0.004228034522384405,-0.007024353835731745
1772639122878921700,4.441921630859375,0.0025901903863996267,-0.0032751555554568768,-0.007156712934374809
1772639122888967000,4.451966796875,0.0027656927704811096,-0.003186205867677927,-0.0060211410745978355
1772639122899011600,4.462011474609375,0.002481799805536866,-0.0035625104792416096,-0.005245894659310579
1772639122909057500,4.4720576171875,0.0017028251895681024,-0.00370179396122694,-0.0070943948812782764
1772639122919102700,4.482102783203125,0.002669020090252161,-0.00503949960693717,-0.0062672169879078865
1772639122929147600,4.492147705078125,0.002058357233181596,-0.003591006388887763,-0.007816378027200699
1772639122939193600,4.502193603515625,0.002460228279232979,-0.0048887645825743675,-0.007081877905875444
1772639122949238800,4.51223876953125,0.003593403147533536,-0.0033838124945759773,-0.005764412228018045
1772639122959284700,4.52228466796875,0.0007432882557623088,-0.003322559641674161,-0.006807305850088596
1772639122969329700,4.53232958984375,0.004345746245235205,-0.004512992687523365,-0.007676295470446348
1772639122979374600,4.54237451171875,0.0014655375853180885,-0.0030133668333292007,-0.005770537536591291
1772639122989420500,4.552420654296875,0.0022426480427384377,-0.003373692510649562,-0.005869074258953333
1772639122999465700,4.5624658203125,0.0021025657188147306,-0.002825347473844886,-0.00560941593721509
1772639123009510700,4.5725107421875,0.002319879597052932,-0.0035800873301923275,-0.006833937484771013
1772639123019556900,4.582556884765625,0.002004827605560422,-0.003832821501418948,-0.005911418702453375
1772639123029601500,4.5926015625,0.002814162289723754,-0.0028959212359040976,-0.006968959700316191
1772639123039646700,4.602646728515625,0.0028820729348808527,-0.002796052722260356,-0.007248857989907265
1772639123049692700,4.612692626953125,0.0013928331900388002,-0.004225371405482292,-0.007426757365465164
1772639123059737600,4.622737548828125,-0.00047857005847617984,-0.0049034119583666325,-0.006853645201772451
1772639123069783800,4.63278369140625,0.0026048377621918917,-0.004119643941521645,-0.006446447689086199
1772639123079828700,4.642828857421875,0.003126817522570491,-0.00437956815585494,-0.007157511543482542
1772639123089873700,4.652873779296875,0.0008274441352114081,-0.003974235150963068,-0.0062855929136276245
1772639123099920000,4.662919921875,0.0004135889175813645,-0.003433879930526018,-0.006456567905843258
1772639123109964500,4.672964599609375,0.00173717993311584,-0.004907939583063126,-0.007340204436331987
1772639123120009700,4.683009765625,0.0007009439868852496,-0.0036125779151916504,-0.006961503066122532
1772639123130055700,4.6930556640625,0.0014881744282320142,-0.005379585549235344,-0.0068211546167731285
1772639123140100600,4.7031005859375,0.002122006844729185,-0.004237888380885124,-0.0062573631294071674
1772639123150146800,4.713146728515625,0.0012596751330420375,-0.005796636454761028,-0.004941229242831469
1772639123160191700,4.723191650390625,0.0016724651213735342,-0.004087419714778662,-0.006127933505922556
1772639123170236700,4.733236572265625,0.0019888486713171005,-0.00421232171356678,-0.00652687530964613
1772639123180282600,4.74328271484375,0.0018157431622967124,-0.003501790575683117,-0.007755124941468239
1772639123190327600,4.75332763671875,0.0017480988753959537,-0.004096740856766701,-0.006962568499147892
1772639123200372700,4.763372802734375,0.0008852347382344306,-0.003864779369905591,-0.004956408869475126
1772639123210418700,4.773418701171875,0.0021547635551542044,-0.0043590618297457695,-0.005455751903355122
1772639123220463900,4.7834638671875,0.0017150756902992725,-0.004007791168987751,-0.006103964988142252
1772639123230508500,4.793508544921875,0.001817607437260449,-0.0034027209039777517,-0.006895456463098526
1772639123240554500,4.803554443359375,0.0027718180790543556,-0.00398568669334054,-0.006536195985972881
1772639123250599700,4.813599609375,0.0008279767935164273,-0.0031611721497029066,-0.006951382849365473
1772639123260645600,4.823645751953125,0.0015630092239007354,-0.005756688769906759,-0.006412625312805176
1772639123270690600,4.833690673828125,0.001654622028581798,-0.0035060516092926264,-0.007122890558093786
1772639123280735700,4.84373583984375,0.0013158678775653243,-0.005546299275010824,-0.004827245604246855
1772639123290781700,4.85378173828125,0.00026604978484101593,-0.003195793367922306,-0.005657885689288378
1772639123300827000,4.863826904296875,0.0009379653492942452,-0.004935636185109615,-0.007279750891029835
1772639123310871600,4.87387158203125,0.0005826996639370918,-0.004250671248883009,-0.008213188499212265
1772639123320917500,4.88391748046875,0.0014524880098178983,-0.004299407359212637,-0.00481233187019825
1772639123330962700,4.893962646484375,0.0015989618841558695,-0.004307929426431656,-0.0057098171673715115
1772639123341007600,4.904007568359375,0.0035691685043275356,-0.005515939090400934,-0.007802795618772507
1772639123351053800,4.9140537109375,0.0021702100057154894,-0.0035081820096820593,-0.007159908767789602
1772639123361098800,4.9240986328125,-0.00041678472189232707,-0.004340153653174639,-0.006197974551469088
1772639123371144700,4.934144775390625,0.002653307281434536,-0.004585430957376957,-0.007820905186235905
1772639123381189600,4.944189697265625,0.0016266588354483247,-0.0029891319572925568,-0.006780674215406179
1772639123391234600,4.954234619140625,0.0017438378417864442,-0.0028421254828572273,-0.0074619110673666
1772639123401280800,4.96428076171875,0.001145159243606031,-0.003969175275415182,-0.005354018881917
1772639123411325700,4.97432568359375,0.0012873720843344927,-0.004033357370644808,-0.007122624199837446
1772639123421370600,4.98437060546875,0.0023611586075276136,-0.003568103304132819,-0.006613427773118019
1772639123431416800,4.994416748046875,0.00004394215648062527,-0.00376011710613966,-0.007514375261962414
1772639123441461500,5.00446142578125,0.001823466387577355,-0.004265052266418934,-0.004736431874334812
1772639123451506700,5.014506591796875,0.0018913770327344537,-0.0028610338922590017,-0.006906375754624605
1772639123461552600,5.024552734375,0.002124936319887638,-0.004860268905758858,-0.007237406447529793
1772639123471597600,5.03459765625,0.002915895078331232,-0.0034264230635017157,-0.007092796731740236
1772639123481643800,5.044643798828125,0.0017092167399823666,-0.005465338937938213,-0.0049156625755131245
1772639123491688700,5.054688720703125,0.0025063008069992065,-0.005095159634947777,-0.008155664429068565
1772639123501734000,5.06473388671875,0.0021435783710330725,-0.0039265644736588,-0.006825149059295654
1772639123511779800,5.07477978515625,0.00227939966134727,-0.003385410411283374,-0.00689039658755064
1772639123521824500,5.084824462890625,0.002073803450912237,-0.001585912425071001,-0.0054815844632685184
1772639123531869700,5.09486962890625,0.0010684601729735732,-0.004037884995341301,-0.005106611177325249
1772639123541915600,5.10491552734375,0.0014231932582333684,-0.003156644757837057,-0.007041397970169783
1772639123551960800,5.1149609375,0.0009592706337571144,-0.004853344522416592,-0.006928213406354189
1772639123562005800,5.125005859375,0.0014152037911117077,-0.004431233741343021,-0.004658934194594622
1772639123572051700,5.1350517578125,0.0010298443958163261,-0.00407383730635047,-0.00711623253300786
1772639123582096600,5.1450966796875,0.0005816344055347145,-0.004048271104693413,-0.006757771130651236
1772639123592142600,5.155142578125,0.0022498385515064,-0.0037798245903104544,-0.006749515421688557
1772639123602187500,5.1651875,0.0006857639527879655,-0.0035505264531821012,-0.006427273154258728
1772639123612232700,5.175232666015625,0.001044225413352251,-0.004713795147836208,-0.005395830608904362
1772639123622278700,5.185278564453125,0.0019097528420388699,-0.003623230615630746,-0.0072869411669671535
1772639123632323800,5.19532373046875,0.0026908579748123884,-0.002603772561997175,-0.007000385317951441
1772639123642368800,5.20536865234375,0.0018362496048212051,-0.003879959462210536,-0.005650429055094719
1772639123652414700,5.215414794921875,0.0015326491557061672,-0.004311657976359129,-0.006108226254582405
1772639123662459600,5.225459716796875,0.001442900625988841,-0.002939597237855196,-0.006699980702251196
1772639123672504600,5.235504638671875,0.0014239922165870667,-0.002665824256837368,-0.006518885493278503
1772639123682550800,5.24555078125,0.0026607641484588385,-0.003294063964858651,-0.005583050660789013
1772639123692595700,5.255595703125,0.002031192881986499,-0.003870371961966157,-0.00609357887879014
1772639123702641700,5.2656416015625,0.0022266688756644726,-0.0034317492973059416,-0.00634924229234457
1772639123712686800,5.275686767578125,0.002755572786554694,-0.0039145806804299355,-0.006503439508378506
1772639123722731500,5.2857314453125,0.0012144014472141862,-0.0036695697344839573,-0.007081611547619104
1772639123732777500,5.295777587890625,0.0025473134592175484,-0.0031129689887166023,-0.006013151258230209
1772639123742822700,5.30582275390625,0.0019382486352697015,-0.004217115696519613,-0.004875715356320143
1772639123752867600,5.31586767578125,-0.00013528858835343271,-0.005274390336126089,-0.007062969263643026
1772639123762913800,5.325913818359375,0.0030658310279250145,-0.005360144190490246,-0.0057012951001524925
1772639123772958700,5.335958740234375,0.002257827902212739,-0.0030064424499869347,-0.006852846127003431
1772639123783004700,5.346004638671875,0.0007329019135795534,-0.002734533743932843,-0.00774686923250556
1772639123793049600,5.356049560546875,0.002138518262654543,-0.00293400464579463,-0.007288539316505194
1772639123803094500,5.366094482421875,0.001347293145954609,-0.004008057527244091,-0.005916478578001261
1772639123813140700,5.376140625,0.00250523560680449,-0.0036690370179712772,-0.005803294479846954
1772639123823185700,5.386185546875,0.0012013519881293178,-0.004261856433004141,-0.007670969236642122
1772639123833230800,5.39623095703125,-0.00002157160452043172,-0.0035246936604380608,-0.006474943365901709
1772639123843276800,5.40627685546875,0.0014082795241847634,-0.00330311874859035,-0.006013151258230209
1772639123853321700,5.41632177734375,0.0014237258583307266,-0.00418355967849493,-0.007698133587837219
1772639123863366700,5.42636669921875,0.0010604707058519125,-0.0029289445374161005,-0.004525509662926197
1772639123873412600,5.43641259765625,0.0021377194207161665,-0.0035353463608771563,-0.006521016359329224
1772639123883457500,5.44645751953125,0.0013749900972470641,-0.00373135507106781,-0.008806806989014149
1772639123893502700,5.456502685546875,0.00039947417099028826,-0.0035489285364747047,-0.005840312223881483
1772639123903548700,5.466548583984375,0.001202150946483016,-0.0029201561119407415,-0.005705023650079966
1772639123913593900,5.47659375,0.0015302523970603943,-0.003457049373537302,-0.005703425966203213
1772639123923639800,5.486639892578125,0.0023276028223335743,-0.004608334042131901,-0.005921006202697754
1772639123933684500,5.4966845703125,0.0020804614759981632,-0.004017910920083523,-0.006476807873696089
1772639123943729700,5.506729736328125,0.0014801849611103535,-0.004402471706271172,-0.006738330237567425
1772639123953775600,5.516775634765625,0.001118527608923614,-0.0035571842454373837,-0.008015315979719162
1772639123963820800,5.52682080078125,0.0011792477453127503,-0.004313255660235882,-0.007155913859605789
1772639123973865700,5.53686572265625,0.0008069378091022372,-0.005007541738450527,-0.008580172434449196
1772639123983911700,5.54691162109375,0.002508165081962943,-0.003876763628795743,-0.007955394685268402
1772639123993956600,5.55695654296875,0.0022242721170186996,-0.0044075315818190575,-0.0059961071237921715
1772639124004002600,5.56700244140625,0.002715891692787409,-0.005194761790335178,-0.008024370297789574
1772639124014047700,5.5770478515625,0.0035148400347679853,-0.0035390746779739857,-0.006455236114561558
1772639124024092700,5.5870927734375,0.0016069513512775302,-0.003662378992885351,-0.005922603886574507
1772639124034138600,5.597138671875,0.001547030289657414,-0.004541488364338875,-0.005438707303255796
1772639124044183800,5.607183837890625,0.001061802264302969,-0.004192348103970289,-0.005652559455484152
1772639124054228700,5.617228759765625,0.0015281217638403177,-0.0034796863328665495,-0.007435545790940523
1772639124064274700,5.627274658203125,0.0005704491049982607,-0.0028541097417473793,-0.006994792725890875
1772639124074319600,5.637319580078125,0.0018836538074538112,-0.0036783581599593163,-0.006193447392433882
1772639124084364500,5.647364501953125,0.0012306467397138476,-0.00307675008662045,-0.006410761270672083
1772639124094410800,5.65741064453125,0.002703641075640917,-0.004963599611073732,-0.007187072653323412
1772639124104455700,5.66745556640625,0.0003707120195031166,-0.0031284152064472437,-0.0070698936469852924
1772639124114501600,5.677501708984375,0.0022660838440060616,-0.003195527009665966,-0.005810218397527933
1772639124124546800,5.687546875,0.003044259501621127,-0.002709766384214163,-0.005203017964959145
1772639124134591500,5.697591552734375,0.0012261193478479981,-0.00401551416143775,-0.005930326879024506
1772639124144637700,5.7076376953125,0.0006831008358858526,-0.0046517434529960155,-0.007184143178164959
1772639124154682600,5.7176826171875,0.001960885478183627,-0.004200870171189308,-0.006339654792100191
1772639124164727800,5.727727783203125,0.0010077401529997587,-0.004254399798810482,-0.006879211403429508
1772639124174773800,5.737773681640625,0.003823234001174569,-0.004086886998265982,-0.0076302229426801205
1772639124184818700,5.747818603515625,0.003433613572269678,-0.0037148434203118086,-0.007016364019364119
1772639124194863900,5.75786376953125,0.0023132218047976494,-0.00481233187019825,-0.006165483966469765
1772639124204909600,5.76790966796875,0.0028306739404797554,-0.0033489251509308815,-0.007987619377672672
1772639124214954500,5.77795458984375,0.002969424705952406,-0.004294347018003464,-0.006142048165202141
1772639124225000700,5.788000732421875,0.002659698948264122,-0.003995007835328579,-0.006607302464544773
1772639124235045600,5.798045654296875,0.0017038905061781406,-0.003724164329469204,-0.005770271178334951
1772639124245090800,5.8080908203125,0.00023196132679004222,-0.003864513011649251,-0.007056578062474728
1772639124255136800,5.81813671875,0.0018700717482715845,-0.0032780850306153297,-0.006125270389020443
1772639124265181700,5.828181640625,-0.00013262542779557407,-0.0037742317654192448,-0.007154315710067749
1772639124275226600,5.8382265625,0.0017816547770053148,-0.003132942598313093,-0.008311991579830647
1772639124285272600,5.8482724609375,0.002600044244900346,-0.0034788872580975294,-0.0062278020195662975
1772639124295317800,5.85831787109375,0.002430400811135769,-0.004566255956888199,-0.006505569908767939
1772639124305362700,5.86836279296875,0.0006372944335453212,-0.0038754320703446865,-0.005800098646432161
1772639124315408600,5.87840869140625,0.0024314660113304853,-0.003197923768311739,-0.007472030818462372
1772639124325453800,5.888453857421875,-0.00009560748003423214,-0.00404454255476594,-0.006146043073385954
1772639124335499800,5.898499755859375,0.0026375947054475546,-0.004255198873579502,-0.006917560938745737
1772639124345544700,5.908544677734375,0.002692189533263445,-0.00430153775960207,-0.006993194576352835
1772639124355589600,5.918589599609375,0.0001877528557088226,-0.0030839405953884125,-0.004653607495129108
1772639124365635600,5.928635498046875,0.0034408040810376406,-0.0025630262680351734,-0.006962834391742945
1772639124375680800,5.9386806640625,0.0008684568456374109,-0.004434163216501474,-0.005595567636191845
1772639124385725700,5.9487255859375,0.00192226970102638,-0.005017129238694906,-0.00800199992954731
1772639124395771600,5.958771728515625,0.002379800658673048,-0.005336442030966282,-0.007782555650919676
1772639124405816800,5.96881689453125,0.001443166984245181,-0.004518585279583931,-0.007435013074427843
1772639124415861500,5.978861572265625,0.00187992537394166,-0.0033952640369534492,-0.00782623142004013
1772639124425907700,5.98890771484375,0.0010793792316690087,-0.004197141621261835,-0.008166050538420677
1772639124435952600,5.99895263671875,0.0008791094878688455,-0.004222441930323839,-0.0065588331781327724
1772639124445998600,6.00899853515625,0.001976065570488572,-0.0034679684322327375,-0.007071491796523333
1772639124456043800,6.019043701171875,0.0009382316493429244,-0.004490888677537441,-0.006954845041036606
1772639124466088700,6.029088623046875,0.00031372037483379245,-0.005052282940596342,-0.007387342397123575
1772639124476134700,6.039134765625,0.002400839701294899,-0.003707919269800186,-0.006864031311124563
1772639124486179600,6.0491796875,0.0006764429272152483,-0.004711132030934095,-0.00771650904789567
1772639124496224800,6.059224853515625,0.002398176584392786,-0.005131112411618233,-0.006929545197635889
1772639124506270700,6.069270751953125,0.0007600661483593285,-0.0035870117135345936,-0.00624191714450717
1772639124516315600,6.079315673828125,0.001059139147400856,-0.0035803536884486675,-0.00759933004155755
1772639124526361600,6.089361572265625,0.001976331928744912,-0.0034445326309651136,-0.006563893053680658
1772639124536406800,6.09940673828125,0.0025300029665231705,-0.0035302862524986267,-0.007071491796523333
1772639124546451500,6.109451416015625,0.0020849888678640127,-0.004446147475391626,-0.006858971435576677
1772639124556497700,6.11949755859375,0.003279150230810046,-0.005775597412139177,-0.007210242096334696
1772639124566542600,6.12954248046875,0.0005994775565341115,-0.0033401367254555225,-0.006427539046853781
1772639124576587800,6.139587890625,0.0026381274219602346,-0.005271194502711296,-0.0067569720558822155
1772639124586633700,6.1496337890625,0.002808303339406848,-0.004306597635149956,-0.006324474699795246
1772639124596678700,6.1596787109375,0.0013374395202845335,-0.0036424053832888603,-0.007004113402217627
1772639124606723800,6.169723876953125,0.0021859225817024708,-0.0036160401068627834,-0.0062642875127494335
1772639124616769800,6.179769775390625,0.002600044244900346,-0.004653607495129108,-0.006641124840825796
1772639124626814700,6.189814697265625,0.0006032059900462627,-0.004131894558668137,-0.007102650590240955
1772639124636860700,6.199860595703125,0.002132392954081297,-0.004188885912299156,-0.006174272391945124
1772639124646905600,6.209905517578125,0.0009675264009274542,-0.0035537220537662506,-0.0056922403164207935
1772639124656950800,6.21995068359375,0.0012125372886657715,-0.004287955816835165,-0.0065231467597186565
1772639124666996700,6.229996826171875,0.002528937766328454,-0.005200620740652084,-0.007892011664807796
1772639124677042200,6.240042236328125,0.0025505092926323414,-0.003982490859925747,-0.006295979022979736
1772639124687087400,6.25008740234375,0.002528405049815774,-0.003546265186741948,-0.005916212219744921
1772639124697133000,6.260133056640625,0.0019507654942572117,-0.004455202259123325,-0.007312774192541838
1772639124707178200,6.27017822265625,0.0010639328975230455,-0.005113535560667515,-0.006855775602161884
1772639124717223200,6.28022314453125,0.0012543488992378116,-0.004264520015567541,-0.0063066319562494755
1772639124727269000,6.29026904296875,0.0017454357584938407,-0.0038666436448693275,-0.006698116194456816
1772639124737314300,6.300314208984375,0.0014892396284267306,-0.0054512242786586285,-0.0068033114075660706
1772639124747360300,6.3103603515625,0.0011249192757532,-0.0036796897184103727,-0.008212655782699585
1772639124757405200,6.3204052734375,0.0026610305067151785,-0.0034938009921461344,-0.00866326317191124
1772639124767450000,6.3304501953125,0.0013432984706014395,-0.00475560687482357,-0.006424343679100275
1772639124777496000,6.34049609375,0.0020807278342545033,-0.003960120491683483,-0.006051234435290098
1772639124787541200,6.350541259765625,0.0006745787104591727,-0.0036069853231310844,-0.005571865476667881
1772639124797586200,6.360586181640625,0.0009566074586473405,-0.004761465825140476,-0.005848035216331482
1772639124807632100,6.370632080078125,0.0015816513914614916,-0.00315984059125185,-0.007690410129725933
1772639124817677300,6.38067724609375,0.0029981867410242558,-0.0034581145737320185,-0.0068001155741512775
1772639124827722000,6.390721923828125,0.0022599585354328156,-0.0038045919500291348,-0.008163920603692532
1772639124837768200,6.400768310546875,0.002591255819424987,-0.0054850466549396515,-0.006579872220754623
1772639124847813000,6.410813232421875,0.0007275756215676665,-0.00501073757186532,-0.004451207350939512
1772639124857859000,6.420859130859375,0.0019406455103307962,-0.0028706213925033808,-0.0073684342205524445
1772639124867904300,6.430904296875,0.0016285229939967394,-0.003629355924203992,-0.006930077914148569
1772639124877949200,6.44094921875,0.002046372974291444,-0.0036605149507522583,-0.007223025429993868
1772639124887995100,6.4509951171875,0.0015150723047554493,-0.004683168604969978,-0.006235259119421244
1772639124898040300,6.461040283203125,0.0010783139150589705,-0.003781422507017851,-0.0073234266601502895
1772639124908085000,6.4710849609375,0.002112685702741146,-0.003314836649224162,-0.0073322150856256485
1772639124918131200,6.481131103515625,0.0017294568242505193,-0.0039145806804299355,-0.006114085204899311
1772639124928176000,6.491176025390625,0.0010133327450603247,-0.004643221385776997,-0.005886384751647711
1772639124938221300,6.50122119140625,0.0008668589289300144,-0.005338572897017002,-0.00626002624630928
1772639124948267300,6.511267333984375,0.00003062635369133204,-0.00424188282340765,-0.007743673399090767
1772639124958312200,6.521312255859375,0.0021462414879351854,-0.002365153282880783,-0.006897853687405586
1772639124968358400,6.5313583984375,0.0015030881622806191,-0.004764928016811609,-0.00669225724413991
1772639124978403000,6.541403076171875,0.0034461303148418665,-0.0024810009635984898,-0.005113801918923855
1772639124988448300,6.5514482421875,0.0007137271459214389,-0.0054213968105614185,-0.004969192203134298
1772639124998494200,6.561494140625,0.0013068130938336253,-0.005228051450103521,-0.006446447689086199
1772639125008539100,6.5715390625,0.002417883835732937,-0.00512738386169076,-0.00646775308996439
1772639125018584300,6.581584228515625,0.0013992248568683863,-0.0027172232512384653,-0.006852579768747091
1772639125028630300,6.59163037109375,0.001044758129864931,-0.0035153725184500217,-0.006660299375653267
1772639125038675000,6.601675048828125,0.0010905644157901406,-0.004537760280072689,-0.007394000422209501
1772639125048720100,6.61172021484375,0.001437041675671935,-0.004422445315867662,-0.00640783179551363
1772639125058766000,6.62176611328125,0.002650377806276083,-0.003999269101768732,-0.008729309774935246
1772639125068811300,6.631811279296875,0.0012397015234455466,-0.005408347584307194,-0.0067758806981146336
1772639125078857200,6.641857177734375,0.0020812603179365396,-0.0046996804885566235,-0.00612234091386199
1772639125088902100,6.651902099609375,0.0017132115317508578,-0.0018764632986858487,-0.006934871431440115
1772639125098947300,6.661947265625,0.0025904567446559668,-0.003910585772246122,-0.005446430761367083
1772639125108993300,6.6719931640625,0.0014053500490263104,-0.004964132327586412,-0.006733802612870932
1772639125119038200,6.6820380859375,0.0012362393317744136,-0.0038189729675650597,-0.006170544307678938
1772639125129083100,6.692083251953125,0.0009291769238188863,-0.003073554253205657,-0.0054733287543058395
1772639125139129000,6.702129150390625,0.0023545008152723312,-0.003276220755651593,-0.005402488633990288
1772639125149174300,6.71217431640625,0.001190433045849204,-0.005077849142253399,-0.005559348501265049
1772639125159219200,6.72221923828125,0.0026581010315567255,-0.005578257143497467,-0.008058725856244564
1772639125169265200,6.73226513671875,0.0004703142330981791,-0.0028871328104287386,-0.007296528667211533
1772639125179310000,6.74231005859375,0.0018674085149541497,-0.004338289611041546,-0.006201969459652901
1772639125189356000,6.75235595703125,0.002567820018157363,-0.00418489146977663,-0.005458415020257235
1772639125199401200,6.762401123046875,0.003285275539383292,-0.0044378917664289474,-0.005901564843952656
1772639125209446100,6.772446044921875,0.0011004181578755379,-0.0038338867016136646,-0.007979629561305046
1772639125219492000,6.7824921875,0.0017214673571288586,-0.004933239426463842,-0.006335926707834005
1772639125229537300,6.792537353515625,0.0018540926976129413,-0.0049010151997208595,-0.00688959751278162
1772639125239582000,6.80258203125,0.003311374457553029,-0.0030482541769742966,-0.005964681971818209
1772639125249628200,6.812628173828125,0.002843457041308284,-0.0049159289337694645,-0.006560963578522205
1772639125259673000,6.822673095703125,0.0020221380982548,-0.003123355330899358,-0.006334861274808645
1772639125269718300,6.83271826171875,0.0019920445047318935,-0.003979827743023634,-0.007107444107532501
1772639125279764200,6.84276416015625,0.0016386429779231548,-0.005101551301777363,-0.006277603097259998
1772639125289809200,6.85280908203125,0.0018216022290289402,-0.004206196404993534,-0.006742591038346291
1772639125299855400,6.86285546875,0.002091380301862955,-0.004857339430600405,-0.007640076335519552
1772639125309900300,6.872900390625,0.002438922878354788,-0.003516171593219042,-0.006248041987419128
1772639125319945200,6.8829453125,0.002033855998888612,-0.0034961977507919073,-0.005711148958653212
1772639125329991200,6.8929912109375,0.0015603461069986224,-0.003826962551102042,-0.008518386632204056
1772639125340036000,6.9030361328125,0.0022801985032856464,-0.004640558268874884,-0.006792924832552671
1772639125350081300,6.913081298828125,0.0010162622202187777,-0.0026727484073489904,-0.006129798013716936
1772639125360127200,6.923127197265625,0.001574194524437189,-0.0038181741256266832,-0.005781722720712423
1772639125370172200,6.933172119140625,0.0014953649369999766,-0.0044320328161120415,-0.006617689039558172
1772639125380218400,6.94321826171875,0.0013401026371866465,-0.004807005636394024,-0.005630721338093281
1772639125390263000,6.953262939453125,0.0019180085510015488,-0.003192863892763853,-0.007858987897634506
1772639125400308200,6.96330810546875,0.0016282566357403994,-0.004208593629300594,-0.0057047572918236256
1772639125410354200,6.973354248046875,0.0014511564513668418,-0.003478088416159153,-0.0071039823815226555
1772639125420399000,6.983399169921875,0.0030543794855475426,-0.004546815063804388,-0.007370830979198217
1772639125430444300,6.9934443359375,0.0014101437991485,-0.004050401505082846,-0.005349758081138134
1772639125440490200,7.003490234375,0.0015773903578519821,-0.003058374160900712,-0.005993976723402739
1772639125450535400,7.013535400390625,0.0013057478936389089,-0.003796336008235812,-0.006590524688363075
1772639125460580000,7.023580078125,0.0019507654942572117,-0.003924167715013027,-0.00657507823780179
1772639125470626000,7.0336259765625,0.0028969866689294577,-0.00427117757499218,-0.006203301250934601
1772639125480671200,7.043671142578125,0.0018865832826122642,-0.004541488364338875,-0.007331416010856628
1772639125490716200,7.053716064453125,0.0013108078856021166,-0.004206196404993534,-0.0057561565190553665
1772639125500762000,7.06376220703125,0.002025600289925933,-0.0038482677191495895,-0.004034422803670168
1772639125510807300,7.073807373046875,0.0024527714122086763,-0.0024413196370005608,-0.006843258626759052
1772639125520853200,7.083853271484375,0.0021291973534971476,-0.0029489181470125914,-0.0070677632465958595
1772639125530898200,7.093898193359375,0.0017161410069093108,-0.0027174896094948053,-0.005959089379757643
1772639125540943000,7.103943115234375,0.0028394623659551144,-0.005135905928909779,-0.005634449888020754
1772639125550989000,7.113989013671875,0.00001651159800530877,-0.003522030543535948,-0.0073567163199186325
1772639125561034200,7.1240341796875,0.002160090021789074,-0.004196076653897762,-0.006623814348131418
1772639125571079200,7.1340791015625,0.0013028184184804559,-0.004102067090570927,-0.007355118170380592
1772639125581125400,7.14412548828125,0.0007853662245906889,-0.003930559381842613,-0.008139153011143208
1772639125591170000,7.154170166015625,0.0002996056282427162,-0.0038637141697108746,-0.007512777578085661
1772639125601215200,7.16421533203125,0.0026615632232278585,-0.005394765175879002,-0.0073716300539672375
1772639125611261200,7.17426123046875,0.0017321199411526322,-0.0038802255876362324,-0.00700757559388876
1772639125621306000,7.18430615234375,0.002189651131629944,-0.004735632799565792,-0.006168946158140898
1772639125631352000,7.19435205078125,0.0008103998843580484,-0.0022117553744465113,-0.007237406447529793
1772639125641397200,7.204397216796875,0.0012860405258834362,-0.003555319970473647,-0.006283728405833244
1772639125651442200,7.214442138671875,0.001141963410191238,-0.004555869847536087,-0.006715693045407534
1772639125661488400,7.22448828125,0.00270710326731205,-0.003491936717182398,-0.007381217088550329
1772639125671533000,7.234532958984375,0.0010285128373652697,-0.004240817856043577,-0.006702643819153309
1772639125681578200,7.244578125,0.0017635452095419168,-0.0037494644057005644,-0.0060048955492675304
1772639125691624200,7.254624267578125,0.0006572681595571339,-0.0041553303599357605,-0.0070832096971571445
1772639125701669000,7.264669189453125,0.0024144218768924475,-0.004281564150005579,-0.00809094961732626
1772639125711714300,7.27471435546875,0.0020216056145727634,-0.004122573416680098,-0.005966812372207642
1772639125721760300,7.28476025390625,0.001645300886593759,-0.004698615055531263,-0.006536728702485561
1772639125731805200,7.29480517578125,0.002552373567596078,-0.004234159830957651,-0.006254167295992374
1772639125741851100,7.30485107421875,-0.0002079928817693144,-0.003680488560348749,-0.006616090890020132
1772639125751896000,7.31489599609375,0.0015600797487422824,-0.004764395300298929,-0.007908256724476814
1772639125761941200,7.324941162109375,0.001692705205641687,-0.003742273896932602,-0.007168164476752281
1772639125771987200,7.3349873046875,0.0025896579027175903,-0.0049372343346476555,-0.006304767448455095
1772639125782032100,7.3450322265625,0.001270594191737473,-0.004030161537230015,-0.006449110805988312
1772639125792077000,7.3550771484375,0.002201901515945792,-0.0037939392495900393,-0.0056741307489573956
1772639125802123000,7.365123046875,0.0016322514275088906,-0.0038008634001016617,-0.006515157409012318
1772639125812168200,7.375168212890625,0.0006647250265814364,-0.004742024466395378,-0.00669225724413991
1772639125822213000,7.385213134765625,0.00040000680019147694,-0.0037910097744315863,-0.006262955721467733
1772639125832259000,7.395259033203125,0.0017068199813365936,-0.004584898240864277,-0.005090632475912571
1772639125842304300,7.40530419921875,0.002502306131646037,-0.0046269758604466915,-0.005844839382916689
1772639125852350200,7.41535009765625,0.0015576828736811876,-0.003775297198444605,-0.007345797028392553
1772639125862395400,7.4253955078125,0.0007491472060792148,-0.0036365464329719543,-0.005307679995894432
1772639125872440000,7.435440185546875,0.0027292075101286173,-0.0031342741567641497,-0.006884537637233734
1772639125882486000,7.445486083984375,0.002981142606586218,-0.003988349810242653,-0.00806405209004879
1772639125892531200,7.45553125,0.002046905690804124,-0.0036517265252768993,-0.007419832982122898
1772639125902576000,7.465576171875,0.0030301446095108986,-0.004735366906970739,-0.005726861767470837
1772639125912622300,7.475622314453125,0.0024264061357825994,-0.005662412848323584,-0.004787564743310213
1772639125922667300,7.485667236328125,0.0014540859265252948,-0.00387383415363729,-0.006274407263845205
1772639125932712200,7.495712158203125,0.0021787320729345083,-0.003655987558886409,-0.0076158419251441956
1772639125942758100,7.505758056640625,0.0024919197894632816,-0.0034029872622340918,-0.006523679476231337
1772639125952803000,7.515802978515625,0.0019712718203663826,-0.005139101762324572,-0.0064805359579622746
1772639125962849000,7.52584912109375,0.0019283948931843042,-0.003479952458292246,-0.005973736755549908
1772639125972894200,7.535894287109375,0.0021813951898366213,-0.004003796260803938,-0.00711809704080224
1772639125982939100,7.545939208984375,0.0025965820532292128,-0.00635057408362627,-0.006707703694701195
1772639125992985300,7.5559853515625,0.0021515677217394114,-0.0034346787724643946,-0.006098905112594366
1772639126003030000,7.566030029296875,0.0011443602852523327,-0.0038426751270890236,-0.006511961575597525
1772639126013075200,7.5760751953125,0.0022181468084454536,-0.005002481862902641,-0.00711729796603322
1772639126023121200,7.58612109375,0.0014413028256967664,-0.004851480480283499,-0.007573231123387814
1772639126033166000,7.596166015625,0.00242187874391675,-0.0031308121979236603,-0.0060059609822928905
1772639126043211300,7.606211181640625,0.0023212111555039883,-0.003847202518954873,-0.005861351266503334
1772639126053257200,7.61625732421875,0.0013960290234535933,-0.00381391285918653,-0.00538517814129591
1772639126063302400,7.626302490234375,0.0014018879737704992,-0.003355582943186164,-0.008702411316335201
1772639126073348400,7.636348388671875,0.00315957423299551,-0.004575044382363558,-0.006721286103129387
1772639126083393000,7.64639306640625,0.003352120751515031,-0.004188885912299156,-0.00615243474021554
1772639126093438200,7.656438232421875,0.002671949565410614,-0.003930026665329933,-0.007268299348652363
1772639126103484200,7.666484130859375,0.002198439557105303,-0.00503870053216815,-0.008157795295119286
1772639126113529000,7.676529052734375,0.001032241270877421,-0.0035262915771454573,-0.0065260762348771095
1772639126123574300,7.68657421875,0.0002348908019484952,-0.005772934295237064,-0.006989998742938042
1772639126133620200,7.6966201171875,0.0012237224727869034,-0.004508731886744499,-0.006126602180302143
1772639126143665200,7.7066650390625,0.0009496832499280572,-0.004090349189937115,-0.006560697220265865
1772639126153710000,7.7167099609375,0.0015694007743149996,-0.003924434073269367,-0.006706372369080782
1772639126163756000,7.726756103515625,0.0018399780383333564,-0.004632302559912205,-0.006341785658150911
1772639126173801200,7.73680126953125,0.0013632721966132522,-0.004277036525309086,-0.0075639099813997746
1772639126183846100,7.74684619140625,0.002627741079777479,-0.0038091193418949842,-0.007526359520852566
1772639126193892400,7.756892333984375,0.0008042746339924634,-0.004055195488035679,-0.004713795147836208
1772639126203937300,7.766937255859375,0.0025158883072435856,-0.004683168604969978,-0.006194512825459242
1772639126213983200,7.776983154296875,0.001892175991088152,-0.0028759476263076067,-0.007635815534740686
1772639126224028200,7.787028076171875,0.00301682879216969,-0.003936684690415859,-0.006883472204208374
1772639126234073000,7.797072998046875,0.001853826455771923,-0.004221110139042139,-0.007438208907842636
1772639126244119000,7.807119140625,0.0025774072855710983,-0.003954794257879257,-0.0052203284576535225
1772639126254164200,7.817164306640625,0.0006921555614098907,-0.004744155332446098,-0.005879727192223072
1772639126264209200,7.827209228515625,0.0023209447972476482,-0.0037175065372139215,-0.006703709252178669
1772639126274255400,7.83725537109375,0.0008767126128077507,-0.005037901923060417,-0.006731938570737839
1772639126284300000,7.847300048828125,0.0022088258992880583,-0.003168629016727209,-0.008353803306818008
1772639126294345200,7.85734521484375,0.0013659353135153651,-0.005082376766949892,-0.005970540922135115
1772639126304391200,7.86739111328125,0.00199390877969563,-0.004092213232070208,-0.007536745630204678
1772639126314436000,7.87743603515625,0.0018141453620046377,-0.004711132030934095,-0.006581203546375036
1772639126324482300,7.887482421875,0.0012221246724948287,-0.0032170985359698534,-0.005431783385574818
1772639126334527200,7.89752734375,0.0011579424608498812,-0.003108175238594413,-0.0062738750129938126
1772639126344572200,7.907572265625,0.00034408041392453015,-0.004629373084753752,-0.006728742737323046
1772639126354618000,7.9176181640625,0.0026852653827518225,-0.005228584166616201,-0.007517038378864527
1772639126364663000,7.9276630859375,0.001216798322275281,-0.004465854726731777,-0.008797486312687397
1772639126374708200,7.937708251953125,0.0011464908020570874,-0.003590473672375083,-0.006190784275531769
1772639126384754200,7.947754150390625,0.0006815029191784561,-0.0028778119012713432,-0.007167099043726921
1772639126394799400,7.95779931640625,0.0010287790792062879,-0.00316063966602087,-0.006743922829627991
1772639126404844300,7.96784423828125,0.0019329222850501537,-0.004477306269109249,-0.00777643034234643
1772639126414890200,7.97789013671875,0.0024807346053421497,-0.004765193909406662,-0.007487477269023657
1772639126424935200,7.98793505859375,0.0017219999572262168,-0.003108707955107093,-0.005793973337858915
1772639126434980000,7.99797998046875,0.002435993403196335,-0.0020391824655234814,-0.004916994366794825
1772639126445026000,8.008026123046875,0.0017073525814339519,-0.004372910596430302,-0.007132478058338165
1772639126455071200,8.0180712890625,0.0008380967774428427,-0.0030535804107785225,-0.007026217877864838
1772639126465117200,8.0281171875,0.0023377228062599897,-0.0035087147261947393,-0.00561207951977849
1772639126475162400,8.038162353515625,0.0015880429418757558,-0.004763329867273569,-0.00538304727524519
1772639126485207000,8.04820703125,0.0014237258583307266,-0.004595550708472729,-0.0062738750129938126
1772639126495253000,8.0582529296875,0.0022295983508229256,-0.004677576012909412,-0.007561513222754002
1772639126505298200,8.068298095703126,0.0017699368763715029,-0.0038221688009798527,-0.00666269613429904
1772639126515343000,8.078343017578124,0.0021020330023020506,-0.0015076154377311468,-0.006197974551469088
1772639126525389300,8.088389404296874,0.0023454460315406322,-0.00330231967382133,-0.006137254647910595
1772639126535434200,8.098434326171875,0.0031198931392282248,-0.0036677054595202208,-0.005553755909204483
1772639126545479400,8.1084794921875,0.0026261431630700827,-0.0035140409599989653,-0.006132727488875389
1772639126555525000,8.118525146484375,0.0020413128659129143,-0.003910053055733442,-0.0070216902531683445
1772639126565570000,8.128570068359375,0.001582716591656208,-0.003952663857489824,-0.006058691535145044
1772639126575616000,8.138615966796875,0.002344380598515272,-0.005037901923060417,-0.006591057404875755
1772639126585661200,8.1486611328125,0.0022538332268595695,-0.0043862261809408665,-0.00689119566231966
1772639126595706000,8.1587060546875,0.0014026869321241975,-0.003652791725471616,-0.007463775109499693
1772639126605752300,8.16875244140625,0.0026852653827518225,-0.004882373381406069,-0.005283711478114128
1772639126615797200,8.17879736328125,0.001472461735829711,-0.0028639633674174547,-0.0065588331781327724
1772639126625842200,8.18884228515625,0.0015188007382676005,-0.0036964674945920706,-0.006616889964789152
1772639126635888000,8.19888818359375,0.0020815266761928797,-0.0033318807836622,-0.008281632326543331
1772639126645933000,8.20893310546875,0.001561944023706019,-0.004736964590847492,-0.007309844717383385
1772639126655978200,8.218978271484374,0.0028186896815896034,-0.004226969089359045,-0.006452306639403105
1772639126666024200,8.229024169921875,0.0018972359830513597,-0.004770254250615835,-0.0073255570605397224
1772639126676068900,8.23906884765625,0.002409095410257578,-0.003922303672879934,-0.0067966533824801445
1772639126686114800,8.24911474609375,0.0014444985426962376,-0.004701011814177036,-0.005511411931365728
1772639126696159700,8.25915966796875,0.0025720810517668724,-0.0041161817498505116,-0.005850698333233595
1772639126706205000,8.269204833984375,0.0010101370280608535,-0.003951598424464464,-0.0065079666674137115
1772639126716251000,8.2792509765625,0.0009116000146605074,-0.004306863993406296,-0.006749515421688557
1772639126726295800,8.2892958984375,0.001714010490104556,-0.00436145905405283,-0.007238471880555153
1772639126736340700,8.2993408203125,0.002273540711030364,-0.004107393324375153,-0.0057106162421405315
1772639126746386700,8.30938671875,0.0026786073576658964,-0.003922836389392614,-0.006277603097259998
1772639126756432000,8.319431884765624,0.0023782027419656515,-0.00490314606577158,-0.0068155620247125626
1772639126766476800,8.329476806640624,0.00361790438182652,-0.003656253917142749,-0.005656288005411625
1772639126776522800,8.339522705078124,0.0015105449128895998,-0.0037001960445195436,-0.006283994764089584
1772639126786567700,8.349567626953124,0.002517219865694642,-0.0036724992096424103,-0.004444282967597246
1772639126796613600,8.359613525390625,0.0019065570086240768,-0.0023337281309068203,-0.006304767448455095
1772639126806658800,8.369658935546875,0.0009390306076966226,-0.005251220893114805,-0.007567904889583588
1772639126816703700,8.379703857421875,0.0017310547409579158,-0.005310875829309225,-0.006975884083658457
1772639126826749700,8.389749755859375,0.0004772384709212929,-0.00526746641844511,-0.007439007982611656
1772639126836795000,8.399794921875,0.0024399880785495043,-0.004181961994618177,-0.006617422681301832
1772639126846839800,8.40983984375,0.0003563309437595308,-0.00427357479929924,-0.007183610461652279
1772639126856886000,8.419885986328126,0.002043709857389331,-0.001990712946280837,-0.005888781975954771
1772639126866930700,8.4299306640625,0.0005715143634006381,-0.003958788700401783,-0.005072789266705513
1772639126876975900,8.439975830078126,0.0020306603983044624,-0.003054911969229579,-0.006853112485259771
1772639126887021800,8.450021728515624,0.0017675400013104081,-0.00478383619338274,-0.007480819243937731
1772639126897066800,8.460066650390624,0.0019166769925504923,-0.004129497334361076,-0.006618488114327192
1772639126907112000,8.47011181640625,0.002704173792153597,-0.002662628423422575,-0.008355135098099709
1772639126917158000,8.480157958984375,0.0017800568602979183,-0.004020840395241976,-0.006971889175474644
1772639126927202800,8.490202880859375,0.0032530513126403093,-0.005167331546545029,-0.00820972677320242
1772639126937248800,8.500248779296875,0.0018578211311250925,-0.0024429175537079573,-0.005441370885819197
1772639126947293700,8.510293701171875,0.0022716764360666275,-0.0037409423384815454,-0.007831557653844357
1772639126957339000,8.5203388671875,0.002538258908316493,-0.0028881982434540987,-0.006953780073672533
1772639126967384800,8.530384765625,0.0010599381057545543,-0.003922037314623594,-0.006706106010824442
1772639126977429800,8.5404296875,0.0021233384031802416,-0.0036157737486064434,-0.007493336219340563
1772639126987475000,8.550474853515626,0.0008157262345775962,-0.004274639766663313,-0.0072805495001375675
1772639126997521000,8.56052099609375,0.001752093667164445,-0.003266367129981518,-0.006082393694669008
1772639127007565800,8.57056591796875,0.001502555445767939,-0.002665557898581028,-0.0062738750129938126
1772639127017610800,8.58061083984375,0.0019736685790121555,-0.0038136467337608337,-0.006918093655258417
1772639127027656700,8.59065673828125,0.0010820423485711217,-0.0027164241764694452,-0.005702094174921513
1772639127037702000,8.600701904296875,0.0006689860601909459,-0.003736947663128376,-0.005340170580893755
1772639127047747800,8.610747802734375,-0.00048602689639665186,-0.003026682650670409,-0.006888532545417547
1772639127057793000,8.62079296875,0.004147606901824474,-0.004160656593739986,-0.006229400169104338
1772639127067837700,8.630837646484375,0.0023065637797117233,0.001273523666895926,-0.003605387406423688
1772639127077883600,8.640883544921875,0.00041199102997779846,0.014041250571608543,0.003552124137058854
1772639127087928800,8.6509287109375,0.002624545246362686,-0.004524710588157177,-0.005534048657864332
1772639127097973800,8.660973876953125,0.0015387744642794132,-0.0010942928493022919,-0.003983822651207447
1772639127108019700,8.671019775390626,0.0017065536230802536,-0.003781156148761511,-0.006762298755347729
1772639127118065000,8.68106494140625,0.0021497036796063185,-0.009589510038495064,-0.010119745507836342
1772639127128109600,8.691109619140626,-0.0007795072160661221,-0.0029025792609900236,-0.005570001434534788
1772639127138155800,8.70115576171875,0.0015275891637429595,-0.01218502689152956,-0.010182863101363182
1772639127148200700,8.71120068359375,0.0022362563759088516,-0.01267185341566801,-0.011438542976975441
1772639127158246000,8.721245849609375,0.0024117587599903345,-0.006686664652079344,-0.007444067858159542
1772639127168291800,8.731291748046875,0.000749679864384234,-0.0024109596852213144,-0.004995024763047695
