time,seconds_elapsed,z,y,x
1772639197179489500,0.054489501953125,-0.9906158447265625,-0.002044677734375,0.0077056884765625
1772639197189555500,0.064555419921875,-0.9904937744140625,-0.0000762939453125,0.008514404296875
1772639197199613700,0.07461376953125,-0.9914398193359375,-0.00091552734375,0.00909423828125
1772639197209665500,0.08466552734375,-0.989471435546875,-0.0005035400390625,0.0088043212890625
1772639197219710500,0.09471044921875,-0.990386962890625,-0.0017852783203125,0.007720947265625
1772639197229755400,0.10475537109375,-0.9901580810546875,-0.0006866455078125,0.00726318359375
1772639197239801300,0.11480126953125,-0.990692138671875,-0.0009307861328125,0.0084991455078125
1772639197249846500,0.124846435546875,-0.992095947265625,-0.001678466796875,0.008270263671875
1772639197259891500,0.134891357421875,-0.98956298828125,-0.001220703125,0.0089263916015625
1772639197269936600,0.1449365234375,-0.990264892578125,-0.001495361328125,0.0091705322265625
1772639197279982600,0.154982666015625,-0.9912567138671875,-0.00152587890625,0.0089111328125
1772639197290027500,0.165027587890625,-0.9910125732421875,-0.000335693359375,0.00958251953125
1772639197300072400,0.175072509765625,-0.99029541015625,0.000091552734375,0.0084686279296875
1772639197310117400,0.185117431640625,-0.990814208984375,-0.0004425048828125,0.00830078125
1772639197320162600,0.19516259765625,-0.990875244140625,-0.00030517578125,0.0094451904296875
1772639197330208500,0.20520849609375,-0.9910125732421875,-0.0005950927734375,0.0088653564453125
1772639197340253700,0.215253662109375,-0.9910736083984375,-0.0002899169921875,0.0087890625
1772639197350298400,0.22529833984375,-0.99169921875,-0.0005340576171875,0.0071868896484375
1772639197360343600,0.235343505859375,-0.9902191162109375,-0.001373291015625,0.008819580078125
1772639197370388500,0.245388427734375,-0.9902801513671875,-0.0011138916015625,0.0080413818359375
1772639197380434400,0.255434326171875,-0.9908447265625,-0.0004425048828125,0.007568359375
1772639197390479600,0.265479736328125,-0.9908905029296875,-0.000701904296875,0.0092315673828125
1772639197400524500,0.275524658203125,-0.9900054931640625,0.0005340576171875,0.0081939697265625
1772639197410569500,0.285569580078125,-0.9911041259765625,0.0004730224609375,0.00921630859375
1772639197420614400,0.295614501953125,-0.9915771484375,-0.0008544921875,0.00836181640625
1772639197430660600,0.30566064453125,-0.98980712890625,-0.0010223388671875,0.0094757080078125
1772639197440705500,0.31570556640625,-0.9905242919921875,-0.0005950927734375,0.0086212158203125
1772639197450750500,0.32575048828125,-0.9911651611328125,-0.000579833984375,0.008453369140625
1772639197460795400,0.33579541015625,-0.990966796875,-0.001068115234375,0.00823974609375
1772639197470841300,0.34584130859375,-0.9904632568359375,-0.0006103515625,0.0086517333984375
1772639197480886500,0.355886474609375,-0.99066162109375,-0.000579833984375,0.0087432861328125
1772639197490931500,0.365931396484375,-0.990997314453125,-0.00067138671875,0.007568359375
1772639197500976600,0.3759765625,-0.9902496337890625,-0.0005645751953125,0.009033203125
1772639197511021600,0.386021484375,-0.9896087646484375,-0.0006103515625,0.0085601806640625
1772639197521067500,0.396067626953125,-0.99029541015625,-0.000244140625,0.008575439453125
1772639197531112400,0.406112548828125,-0.9890899658203125,-0.0001678466796875,0.0082550048828125
1772639197541157400,0.416157470703125,-0.99090576171875,0.000030517578125,0.0077362060546875
1772639197551202600,0.42620263671875,-0.992034912109375,-0.0006103515625,0.0082550048828125
1772639197561247500,0.43624755859375,-0.990325927734375,-0.001922607421875,0.0087890625
1772639197571293700,0.446293701171875,-0.9907989501953125,-0.0010528564453125,0.008087158203125
1772639197581338400,0.45633837890625,-0.9909515380859375,0.0001220703125,0.0077972412109375
1772639197591383600,0.466383544921875,-0.9915313720703125,-0.0012664794921875,0.008148193359375
1772639197601428500,0.476428466796875,-0.990447998046875,-0.0012969970703125,0.00848388671875
1772639197611474400,0.486474365234375,-0.989776611328125,-0.001434326171875,0.008880615234375
1772639197621519600,0.49651953125,-0.9898529052734375,-0.000030517578125,0.009033203125
1772639197631564500,0.506564453125,-0.991424560546875,0.0000457763671875,0.0089263916015625
1772639197641609500,0.516609375,-0.9915771484375,-0.0007781982421875,0.01007080078125
1772639197651654400,0.526654296875,-0.9911041259765625,0.0000762939453125,0.009124755859375
1772639197661700600,0.53670068359375,-0.990753173828125,-0.0004425048828125,0.009735107421875
1772639197671745500,0.54674560546875,-0.9915313720703125,0.0001678466796875,0.0087890625
1772639197681790500,0.55679052734375,-0.9909210205078125,-0.00054931640625,0.0088958740234375
1772639197691835400,0.56683544921875,-0.9903564453125,-0.000457763671875,0.0089874267578125
1772639197701880600,0.576880615234375,-0.9889068603515625,-0.001556396484375,0.008880615234375
1772639197711926500,0.586926513671875,-0.9901123046875,-0.0001678466796875,0.0078125
1772639197721971500,0.596971435546875,-0.990631103515625,-0.0002593994140625,0.008880615234375
1772639197732016600,0.6070166015625,-0.9913787841796875,-0.0003814697265625,0.009002685546875
1772639197742060500,0.617060546875,-0.9908447265625,-0.000152587890625,0.0087432861328125
1772639197752105500,0.62710546875,-0.99017333984375,-0.0009613037109375,0.008453369140625
1772639197762151400,0.6371513671875,-0.9913177490234375,-0.001556396484375,0.00897216796875
1772639197772196600,0.647196533203125,-0.991302490234375,-0.0006866455078125,0.0090179443359375
1772639197782241500,0.657241455078125,-0.9906005859375,-0.0014801025390625,0.0081939697265625
1772639197792286500,0.667286376953125,-0.9891815185546875,-0.000579833984375,0.0078582763671875
1772639197802332400,0.67733251953125,-0.9900360107421875,-0.0016326904296875,0.00860595703125
1772639197812377300,0.68737744140625,-0.991180419921875,-0.00054931640625,0.00958251953125
1772639197822422500,0.697422607421875,-0.9918670654296875,0.00006103515625,0.0090484619140625
1772639197832467500,0.707467529296875,-0.9915924072265625,-0.0000152587890625,0.0075531005859375
1772639197842512600,0.7175126953125,-0.990692138671875,-0.000885009765625,0.0087738037109375
1772639197852558600,0.72755859375,-0.99102783203125,0.0001373291015625,0.008270263671875
1772639197862603500,0.737603515625,-0.9909820556640625,-0.0005645751953125,0.0091705322265625
1772639197872648400,0.7476484375,-0.9901275634765625,-0.0002899169921875,0.0086212158203125
1772639197882693600,0.757693603515625,-0.9909515380859375,-0.0005950927734375,0.0079345703125
1772639197892738600,0.767738525390625,-0.9892730712890625,-0.0008544921875,0.0090484619140625
1772639197902784500,0.777784423828125,-0.990081787109375,-0.0010833740234375,0.0075531005859375
1772639197912829400,0.787829345703125,-0.99078369140625,-0.00140380859375,0.0080108642578125
1772639197922874400,0.797874267578125,-0.9905853271484375,-0.00115966796875,0.0099334716796875
1772639197932919600,0.80791943359375,-0.9901275634765625,-0.000640869140625,0.00909423828125
1772639197942965500,0.817965576171875,-0.9912109375,-0.0004730224609375,0.0081329345703125
1772639197953010400,0.828010498046875,-0.9897918701171875,-0.0004119873046875,0.0092315673828125
1772639197963055600,0.8380556640625,-0.9911041259765625,0.00030517578125,0.0092315673828125
1772639197973100500,0.8481005859375,-0.9922943115234375,-0.0006561279296875,0.0090179443359375
1772639197983145500,0.8581455078125,-0.990020751953125,-0.0008087158203125,0.007904052734375
1772639197993191400,0.86819140625,-0.99212646484375,-0.00091552734375,0.0077972412109375
1772639198003236600,0.878236572265625,-0.9921875,0.0003662109375,0.0086212158203125
1772639198013281500,0.888281494140625,-0.9906005859375,-0.0007171630859375,0.0091400146484375
1772639198023326500,0.898326416015625,-0.990142822265625,0.0002593994140625,0.008026123046875
1772639198033371400,0.908371337890625,-0.9918365478515625,-0.0009307861328125,0.0088958740234375
1772639198043417300,0.918417236328125,-0.9894256591796875,-0.0014801025390625,0.009613037109375
1772639198053462500,0.928462646484375,-0.99066162109375,0.0006103515625,0.0087432861328125
1772639198063507500,0.938507568359375,-0.99139404296875,0.000335693359375,0.008697509765625
1772639198073552600,0.948552734375,-0.990753173828125,-0.0003204345703125,0.00750732421875
1772639198083598600,0.9585986328125,-0.9901123046875,-0.00140380859375,0.0093231201171875
1772639198093643500,0.9686435546875,-0.991546630859375,-0.0013275146484375,0.0096282958984375
1772639198103688400,0.9786884765625,-0.9910888671875,-0.00164794921875,0.0071563720703125
1772639198113733600,0.988733642578125,-0.989105224609375,-0.00091552734375,0.008331298828125
1772639198123778600,0.998778564453125,-0.990997314453125,-0.000274658203125,0.0087432861328125
1772639198133824500,1.008824462890625,-0.9920806884765625,-0.00006103515625,0.009307861328125
1772639198143869400,1.018869384765625,-0.99102783203125,0.000946044921875,0.00830078125
1772639198153914400,1.028914306640625,-0.990814208984375,0.0002593994140625,0.008575439453125
1772639198163959600,1.03895947265625,-0.991180419921875,0.000640869140625,0.008758544921875
1772639198174004500,1.04900439453125,-0.9910125732421875,-0.0000152587890625,0.0088653564453125
1772639198184050400,1.059050537109375,-0.9906005859375,-0.001495361328125,0.0088653564453125
1772639198194095600,1.069095703125,-0.9906158447265625,-0.001953125,0.0094146728515625
1772639198204140500,1.079140625,-0.99163818359375,-0.0006256103515625,0.0084686279296875
1772639198214185500,1.089185546875,-0.99029541015625,0.001007080078125,0.00714111328125
1772639198224231400,1.0992314453125,-0.989776611328125,0,0.00848388671875
1772639198234276600,1.109276611328125,-0.9923553466796875,-0.0001220703125,0.0089569091796875
1772639198244321500,1.119321533203125,-0.9911651611328125,-0.0009918212890625,0.0088043212890625
1772639198254366500,1.129366455078125,-0.99114990234375,-0.0008392333984375,0.0077667236328125
1772639198264411400,1.139411376953125,-0.990875244140625,-0.0006561279296875,0.0075225830078125
1772639198274457300,1.149457275390625,-0.9894561767578125,0.00006103515625,0.008880615234375
1772639198284502500,1.15950244140625,-0.990203857421875,-0.001220703125,0.009368896484375
1772639198294547500,1.16954736328125,-0.990264892578125,-0.000152587890625,0.0083160400390625
1772639198304592600,1.179592529296875,-0.9913787841796875,-0.0007476806640625,0.0079498291015625
1772639198314637300,1.18963720703125,-0.9911956787109375,-0.001251220703125,0.008331298828125
1772639198324683500,1.19968359375,-0.99041748046875,-0.000518798828125,0.008819580078125
1772639198334728400,1.209728515625,-0.9905548095703125,-0.0011444091796875,0.00897216796875
1772639198344773600,1.219773681640625,-0.989410400390625,0.0000152587890625,0.0079498291015625
1772639198354818600,1.229818603515625,-0.9909820556640625,0.000091552734375,0.0091705322265625
1772639198364864500,1.239864501953125,-0.9908599853515625,-0.0011749267578125,0.0082550048828125
1772639198374909400,1.249909423828125,-0.990386962890625,-0.001556396484375,0.0086822509765625
1772639198384954400,1.259954345703125,-0.9917144775390625,0.0000152587890625,0.0081634521484375
1772639198394999600,1.26999951171875,-0.9921722412109375,-0.0003204345703125,0.0088043212890625
1772639198405044500,1.28004443359375,-0.989013671875,-0.001495361328125,0.00909423828125
1772639198415090700,1.290090576171875,-0.990478515625,-0.0010528564453125,0.0081634521484375
1772639198425135600,1.300135498046875,-0.9903564453125,-0.00018310546875,0.009429931640625
1772639198435180500,1.3101806640625,-0.9923248291015625,0.0002288818359375,0.008941650390625
1772639198445225500,1.3202255859375,-0.99169921875,-0.000457763671875,0.0089111328125
1772639198455270700,1.330270751953125,-0.9898834228515625,-0.000396728515625,0.00897216796875
1772639198465316600,1.340316650390625,-0.9897613525390625,-0.0013275146484375,0.0095977783203125
1772639198475361500,1.350361572265625,-0.9915924072265625,-0.0012359619140625,0.008209228515625
1772639198485406500,1.360406494140625,-0.9897003173828125,-0.0014495849609375,0.0082244873046875
1772639198495451400,1.370451416015625,-0.9910430908203125,-0.00048828125,0.008575439453125
1772639198505497300,1.380497314453125,-0.99127197265625,-0.000823974609375,0.009857177734375
1772639198515542500,1.39054248046875,-0.989715576171875,-0.000701904296875,0.00909423828125
1772639198525587500,1.40058740234375,-0.990234375,-0.0016021728515625,0.0073699951171875
1772639198535632600,1.410632568359375,-0.990814208984375,-0.0003204345703125,0.0081787109375
1772639198545677300,1.42067724609375,-0.9902496337890625,-0.000396728515625,0.00909423828125
1772639198555723500,1.4307236328125,-0.991668701171875,-0.0013427734375,0.007965087890625
1772639198565768400,1.4407685546875,-0.99041748046875,-0.00152587890625,0.008941650390625
1772639198575813600,1.450813720703125,-0.9914398193359375,-0.0009002685546875,0.0084991455078125
1772639198585858600,1.460858642578125,-0.9909820556640625,-0.0006256103515625,0.0087890625
1772639198595903500,1.470903564453125,-0.9915924072265625,-0.001129150390625,0.0079498291015625
1772639198605949400,1.480949462890625,-0.9899444580078125,-0.0013885498046875,0.0091094970703125
1772639198615994400,1.490994384765625,-0.9903717041015625,-0.0002288818359375,0.0084228515625
1772639198626039600,1.50103955078125,-0.991363525390625,-0.0012054443359375,0.0093994140625
1772639198636084500,1.51108447265625,-0.990814208984375,-0.001068115234375,0.0088348388671875
1772639198646130700,1.521130615234375,-0.9898223876953125,-0.001495361328125,0.00872802734375
1772639198656175600,1.531175537109375,-0.99041748046875,-0.001190185546875,0.0075531005859375
1772639198666220500,1.541220458984375,-0.9906158447265625,-0.0013885498046875,0.0088653564453125
1772639198676265500,1.551265380859375,-0.9906768798828125,-0.0017852783203125,0.0089111328125
1772639198686310700,1.561310546875,-0.99041748046875,-0.000518798828125,0.0088348388671875
1772639198696356600,1.571356689453125,-0.9908905029296875,-0.0010223388671875,0.008544921875
1772639198706401500,1.581401611328125,-0.990325927734375,-0.0015106201171875,0.0083160400390625
1772639198716446500,1.591446533203125,-0.9904937744140625,-0.00067138671875,0.008544921875
1772639198726491400,1.601491455078125,-0.9902496337890625,-0.00164794921875,0.00848388671875
1772639198736536600,1.61153662109375,-0.99127197265625,-0.0010528564453125,0.007843017578125
1772639198746583300,1.621583251953125,-0.9908905029296875,-0.000213623046875,0.008270263671875
1772639198756628200,1.631628173828125,-0.99053955078125,0.0001983642578125,0.0084991455078125
1772639198766673400,1.64167333984375,-0.9902191162109375,-0.000579833984375,0.00836181640625
1772639198776718300,1.65171826171875,-0.9917144775390625,0.0001678466796875,0.008819580078125
1772639198786764000,1.661763916015625,-0.991851806640625,-0.0008697509765625,0.00860595703125
1772639198796809200,1.671809326171875,-0.9907989501953125,-0.0006866455078125,0.009429931640625
1772639198806854100,1.681854248046875,-0.9906768798828125,-0.00189208984375,0.0092620849609375
1772639198816899300,1.6918994140625,-0.99017333984375,-0.00042724609375,0.0081024169921875
1772639198826944300,1.7019443359375,-0.9910125732421875,0.0002288818359375,0.008270263671875
1772639198836990500,1.711990478515625,-0.991302490234375,-0.0006561279296875,0.00726318359375
1772639198847035100,1.72203515625,-0.991729736328125,-0.0010528564453125,0.00927734375
1772639198857080300,1.732080322265625,-0.9908599853515625,-0.0009307861328125,0.0078582763671875
1772639198867125200,1.742125244140625,-0.9907073974609375,-0.00128173828125,0.0085906982421875
1772639198877170400,1.75217041015625,-0.9903564453125,-0.0006256103515625,0.008758544921875
1772639198887216400,1.76221630859375,-0.9911651611328125,-0.000762939453125,0.0090484619140625
1772639198897261000,1.772260986328125,-0.9914398193359375,-0.001495361328125,0.009613037109375
1772639198907306200,1.78230615234375,-0.990997314453125,-0.0011444091796875,0.0101776123046875
1772639198917351200,1.79235107421875,-0.9903411865234375,-0.001190185546875,0.0082855224609375
1772639198927396400,1.802396240234375,-0.989654541015625,-0.0004425048828125,0.0081939697265625
1772639198937442300,1.8124423828125,-0.9907684326171875,-0.00177001953125,0.00830078125
1772639198947487200,1.8224873046875,-0.9910888671875,-0.0010986328125,0.0084228515625
1772639198957532200,1.8325322265625,-0.991790771484375,-0.00048828125,0.008331298828125
1772639198967577300,1.842577392578125,-0.9904327392578125,-0.0006561279296875,0.00830078125
1772639198977623300,1.852623291015625,-0.989715576171875,-0.0008392333984375,0.010101318359375
1772639198987668200,1.862668212890625,-0.9900054931640625,-0.0016021728515625,0.008453369140625
1772639198997713400,1.87271337890625,-0.9911346435546875,-0.0003814697265625,0.0093841552734375
1772639199007758300,1.88275830078125,-0.99090576171875,-0.0009002685546875,0.0095367431640625
1772639199017803300,1.89280322265625,-0.9906158447265625,-0.0014801025390625,0.0074310302734375
1772639199027849200,1.90284912109375,-0.99005126953125,-0.000701904296875,0.0085601806640625
1772639199037894100,1.91289404296875,-0.9914703369140625,-0.00054931640625,0.0087738037109375
1772639199047939300,1.922939208984375,-0.990509033203125,0.0000457763671875,0.0102081298828125
1772639199057984300,1.932984375,-0.990875244140625,-0.000701904296875,0.0076141357421875
1772639199068029200,1.943029296875,-0.9902496337890625,-0.00103759765625,0.0086517333984375
1772639199078075100,1.9530751953125,-0.9912109375,-0.0023345947265625,0.0081939697265625
1772639199088120300,1.963120361328125,-0.991851806640625,-0.001739501953125,0.0081329345703125
1772639199098165200,1.973165283203125,-0.99139404296875,-0.0018463134765625,0.0097808837890625
1772639199108210400,1.98321044921875,-0.9912872314453125,-0.000946044921875,0.0085906982421875
1772639199118256400,1.99325634765625,-0.9908905029296875,0.0002288818359375,0.0083160400390625
1772639199128301000,2.003301025390625,-0.9916534423828125,-0.000396728515625,0.0093231201171875
1772639199138346200,2.01334619140625,-0.9896392822265625,-0.00042724609375,0.008697509765625
1772639199148391200,2.02339111328125,-0.99151611328125,-0.0004425048828125,0.0081329345703125
1772639199158436400,2.033436279296875,-0.99139404296875,-0.0008544921875,0.009124755859375
1772639199168482300,2.043482421875,-0.9898834228515625,-0.0023040771484375,0.0090179443359375
1772639199178527200,2.05352734375,-0.9895477294921875,-0.0006103515625,0.0087738037109375
1772639199188572200,2.063572265625,-0.9906463623046875,-0.000762939453125,0.0082244873046875
1772639199198617300,2.073617431640625,-0.990509033203125,-0.00115966796875,0.007904052734375
1772639199208662300,2.083662353515625,-0.990478515625,-0.000091552734375,0.0088958740234375
1772639199218708200,2.093708251953125,-0.9908905029296875,-0.000030517578125,0.008575439453125
1772639199228753400,2.10375341796875,-0.9915618896484375,-0.0009765625,0.009307861328125
1772639199238798300,2.11379833984375,-0.9903106689453125,-0.0011749267578125,0.00927734375
1772639199248843300,2.12384326171875,-0.9911041259765625,-0.0003509521484375,0.0092315673828125
1772639199258889200,2.13388916015625,-0.9910125732421875,-0.000030517578125,0.0073089599609375
1772639199268934100,2.14393408203125,-0.991485595703125,-0.001068115234375,0.007415771484375
1772639199278979300,2.153979248046875,-0.990570068359375,-0.0009765625,0.009124755859375
1772639199289024300,2.164024169921875,-0.991943359375,-0.0005035400390625,0.0086212158203125
1772639199299069200,2.174069091796875,-0.9914398193359375,0.000640869140625,0.0092315673828125
1772639199309115100,2.184115234375,-0.991058349609375,-0.0003204345703125,0.0089569091796875
1772639199319160300,2.194160400390625,-0.9904632568359375,-0.0007781982421875,0.007720947265625
1772639199329205200,2.204205322265625,-0.990142822265625,-0.0003509521484375,0.00872802734375
1772639199339250400,2.21425048828125,-0.99169921875,-0.001373291015625,0.0089569091796875
1772639199349295400,2.22429541015625,-0.9907073974609375,0.0001983642578125,0.0076141357421875
1772639199359341000,2.234341064453125,-0.99102783203125,-0.0009002685546875,0.008880615234375
1772639199369386200,2.24438623046875,-0.9908905029296875,0.000274658203125,0.0092315673828125
1772639199379431200,2.25443115234375,-0.9914703369140625,-0.0003204345703125,0.00860595703125
1772639199389476400,2.264476318359375,-0.9907989501953125,0.0002288818359375,0.0093994140625
1772639199399522300,2.274522216796875,-0.990234375,-0.0009765625,0.008575439453125
1772639199409567200,2.284567138671875,-0.99102783203125,0.0000762939453125,0.0083770751953125
1772639199419612200,2.294612060546875,-0.9912872314453125,-0.0001068115234375,0.0092010498046875
1772639199429657300,2.3046572265625,-0.991241455078125,-0.0011138916015625,0.009063720703125
1772639199439702300,2.314702392578125,-0.9905853271484375,-0.0016326904296875,0.0088043212890625
1772639199449748200,2.324748291015625,-0.9897613525390625,-0.001007080078125,0.0079345703125
1772639199459793400,2.33479345703125,-0.992218017578125,-0.0007171630859375,0.0081024169921875
1772639199469838000,2.344838134765625,-0.9905853271484375,-0.001190185546875,0.008209228515625
1772639199479883300,2.35488330078125,-0.9896087646484375,-0.000640869140625,0.007904052734375
1772639199489928200,2.36492822265625,-0.9902801513671875,-0.00054931640625,0.0083160400390625
1772639199499974100,2.37497412109375,-0.9912109375,-0.000274658203125,0.0071868896484375
1772639199510019300,2.385019287109375,-0.990997314453125,-0.001556396484375,0.00799560546875
1772639199520064300,2.395064208984375,-0.9910888671875,-0.000640869140625,0.008758544921875
1772639199530109200,2.405109130859375,-0.98974609375,-0.0006103515625,0.008819580078125
1772639199540155100,2.415155029296875,-0.989410400390625,-0.0006561279296875,0.008056640625
1772639199550200300,2.425200439453125,-0.989990234375,-0.0005950927734375,0.0078887939453125
1772639199560245200,2.435245361328125,-0.9911651611328125,0.0001068115234375,0.0086822509765625
1772639199570290400,2.44529052734375,-0.990631103515625,-0.0004730224609375,0.0076904296875
1772639199580335400,2.45533544921875,-0.9898834228515625,-0.0015716552734375,0.0086669921875
1772639199590381000,2.465381103515625,-0.991668701171875,-0.000701904296875,0.0090484619140625
1772639199600426200,2.47542626953125,-0.99169921875,-0.0010986328125,0.007598876953125
1772639199610471200,2.48547119140625,-0.9912567138671875,-0.00054931640625,0.008544921875
1772639199620516400,2.495516357421875,-0.9900970458984375,-0.0003662109375,0.0088958740234375
1772639199630561300,2.505561279296875,-0.9899444580078125,-0.0011444091796875,0.0084228515625
1772639199640607200,2.515607177734375,-0.9922943115234375,-0.001617431640625,0.0086669921875
1772639199650652200,2.525652099609375,-0.990203857421875,-0.0008544921875,0.0093841552734375
1772639199660697300,2.535697265625,-0.9920654296875,-0.0005340576171875,0.0093231201171875
1772639199670742300,2.5457421875,-0.9925384521484375,-0.0006256103515625,0.00848388671875
1772639199680788200,2.555788330078125,-0.9901275634765625,-0.0018463134765625,0.0088043212890625
1772639199690833400,2.56583349609375,-0.9897003173828125,-0.001220703125,0.008209228515625
1772639199700878000,2.575878173828125,-0.990875244140625,-0.0006561279296875,0.008575439453125
1772639199710923300,2.58592333984375,-0.9916534423828125,-0.0003509521484375,0.008941650390625
1772639199720968200,2.59596826171875,-0.99078369140625,-0.0001983642578125,0.00848388671875
1772639199731014100,2.60601416015625,-0.99029541015625,-0.00079345703125,0.008392333984375
1772639199741059300,2.616059326171875,-0.9903564453125,-0.0004425048828125,0.0067138671875
1772639199751103500,2.626103515625,-0.9900054931640625,-0.00103759765625,0.0087127685546875
1772639199761148400,2.6361484375,-0.990478515625,-0.0009307861328125,0.0081634521484375
1772639199771193600,2.646193603515625,-0.9911956787109375,-0.0006103515625,0.0091552734375
1772639199781239600,2.656239501953125,-0.99090576171875,-0.0012969970703125,0.0093536376953125
1772639199791284500,2.666284423828125,-0.9910430908203125,-0.000701904296875,0.0082855224609375
1772639199801329700,2.67632958984375,-0.9922637939453125,0.0005340576171875,0.0085296630859375
1772639199811374300,2.686374267578125,-0.991424560546875,-0.0011444091796875,0.0080718994140625
1772639199821420500,2.696420654296875,-0.990997314453125,-0.001190185546875,0.0081787109375
1772639199831465500,2.706465576171875,-0.9911041259765625,-0.0006561279296875,0.009307861328125
1772639199841510700,2.7165107421875,-0.9898223876953125,-0.0001373291015625,0.0092010498046875
1772639199851555600,2.7265556640625,-0.990997314453125,-0.0013275146484375,0.0084381103515625
1772639199861600500,2.7366005859375,-0.9905242919921875,-0.0022125244140625,0.0087127685546875
1772639199871646500,2.746646484375,-0.989776611328125,-0.001373291015625,0.0091705322265625
1772639199881691400,2.75669140625,-0.991455078125,-0.0000457763671875,0.00823974609375
1772639199891736600,2.766736572265625,-0.99188232421875,-0.000640869140625,0.0084991455078125
1772639199901781500,2.776781494140625,-0.991302490234375,-0.0003814697265625,0.0081634521484375
1772639199911826700,2.78682666015625,-0.9900665283203125,-0.0006256103515625,0.00872802734375
1772639199921872600,2.79687255859375,-0.9914398193359375,-0.0005645751953125,0.0082855224609375
1772639199931917300,2.806917236328125,-0.992218017578125,-0.000457763671875,0.0089111328125
1772639199941962500,2.81696240234375,-0.991241455078125,-0.0001983642578125,0.00738525390625
1772639199952007400,2.82700732421875,-0.9918212890625,-0.00079345703125,0.007598876953125
1772639199962053600,2.8370537109375,-0.9920654296875,-0.00128173828125,0.0085296630859375
1772639199972098600,2.8470986328125,-0.99066162109375,-0.0010223388671875,0.00872802734375
1772639199982143500,2.8571435546875,-0.990936279296875,-0.000457763671875,0.00909423828125
1772639199992188400,2.8671884765625,-0.992462158203125,-0.0006103515625,0.0079498291015625
1772639200002233600,2.877233642578125,-0.9916839599609375,0.00115966796875,0.0088653564453125
1772639200012279600,2.887279541015625,-0.9924774169921875,-0.00006103515625,0.0094451904296875
1772639200022324500,2.897324462890625,-0.9902191162109375,-0.0004730224609375,0.0091705322265625
1772639200032369700,2.90736962890625,-0.9905548095703125,-0.000335693359375,0.0088653564453125
1772639200042414300,2.917414306640625,-0.9908447265625,-0.000579833984375,0.008697509765625
1772639200052459500,2.92745947265625,-0.990234375,-0.000244140625,0.0089874267578125
1772639200062505500,2.93750537109375,-0.9906463623046875,-0.0008544921875,0.0077362060546875
1772639200072550700,2.947550537109375,-0.9907379150390625,-0.00146484375,0.008087158203125
1772639200082595600,2.957595703125,-0.9913482666015625,-0.0004730224609375,0.00775146484375
1772639200092640500,2.967640625,-0.9909210205078125,0.0000457763671875,0.0079345703125
1772639200102686500,2.9776865234375,-0.990142822265625,0.00103759765625,0.0080108642578125
1772639200112731400,2.9877314453125,-0.99188232421875,-0.00048828125,0.00811767578125
1772639200122776600,2.997776611328125,-0.99017333984375,0.0005340576171875,0.009796142578125
1772639200132821500,3.007821533203125,-0.9896392822265625,-0.0004730224609375,0.00860595703125
1772639200142866700,3.01786669921875,-0.9901580810546875,-0.001007080078125,0.0088348388671875
1772639200152912600,3.02791259765625,-0.990264892578125,-0.0003204345703125,0.0093231201171875
1772639200162957300,3.037957275390625,-0.991668701171875,0.0006561279296875,0.007720947265625
1772639200173002500,3.04800244140625,-0.990264892578125,-0.0001983642578125,0.00933837890625
1772639200183047400,3.05804736328125,-0.989715576171875,-0.00079345703125,0.00872802734375
1772639200193092600,3.068092529296875,-0.98980712890625,0.0003509521484375,0.007415771484375
1772639200203138600,3.078138671875,-0.9901580810546875,-0.001678466796875,0.0078582763671875
1772639200213183500,3.08818359375,-0.989410400390625,-0.0013885498046875,0.0088043212890625
1772639200223228400,3.098228515625,-0.991668701171875,0.0001678466796875,0.0080718994140625
1772639200233273600,3.108273681640625,-0.9909515380859375,-0.00128173828125,0.0092620849609375
1772639200243319600,3.118319580078125,-0.9911651611328125,0.0006561279296875,0.0089263916015625
1772639200253364500,3.128364501953125,-0.9907379150390625,0.0005340576171875,0.008636474609375
1772639200263409700,3.13840966796875,-0.989654541015625,-0.000213623046875,0.007965087890625
1772639200273454300,3.148454345703125,-0.9906463623046875,0.000640869140625,0.0089569091796875
1772639200283499500,3.15849951171875,-0.9903717041015625,-0.000213623046875,0.0078125
1772639200293545500,3.16854541015625,-0.9892730712890625,-0.0009765625,0.009552001953125
1772639200303590700,3.178590576171875,-0.99151611328125,-0.00115966796875,0.0098876953125
1772639200313635600,3.188635498046875,-0.9916534423828125,-0.0001983642578125,0.0090789794921875
1772639200323680500,3.198680419921875,-0.99163818359375,-0.000762939453125,0.0093231201171875
1772639200333725400,3.208725341796875,-0.989990234375,-0.0016632080078125,0.0087127685546875
1772639200343771400,3.218771484375,-0.9912109375,-0.000732421875,0.0093231201171875
1772639200353816600,3.228816650390625,-0.99078369140625,-0.00006103515625,0.0093536376953125
1772639200363861500,3.238861572265625,-0.9895782470703125,-0.00067138671875,0.009979248046875
1772639200373906700,3.24890673828125,-0.989166259765625,-0.0001373291015625,0.0099945068359375
1772639200383952600,3.25895263671875,-0.99078369140625,-0.001556396484375,0.0086517333984375
1772639200393997300,3.268997314453125,-0.9905548095703125,-0.0004730224609375,0.008758544921875
1772639200404042500,3.27904248046875,-0.9915618896484375,0.0003662109375,0.0093231201171875
1772639200414087400,3.28908740234375,-0.9904327392578125,-0.0012969970703125,0.0084381103515625
1772639200424132600,3.299132568359375,-0.9893035888671875,-0.001220703125,0.008148193359375
1772639200434178600,3.309178466796875,-0.990142822265625,-0.0001678466796875,0.009307861328125
1772639200444223500,3.319223388671875,-0.9908447265625,-0.0012969970703125,0.0084991455078125
1772639200454268400,3.329268310546875,-0.9908599853515625,-0.0010223388671875,0.0095672607421875
1772639200464313600,3.339313720703125,-0.990875244140625,-0.00067138671875,0.00830078125
1772639200474358500,3.349358642578125,-0.990325927734375,-0.000762939453125,0.0087432861328125
1772639200484404500,3.359404541015625,-0.9919891357421875,-0.0004730224609375,0.0082550048828125
1772639200494449700,3.36944970703125,-0.9907989501953125,-0.000030517578125,0.008636474609375
1772639200504494300,3.379494384765625,-0.989898681640625,-0.00030517578125,0.0087890625
1772639200514539500,3.38953955078125,-0.98980712890625,-0.000701904296875,0.0089111328125
1772639200524585500,3.39958544921875,-0.991180419921875,-0.0006103515625,0.009857177734375
1772639200534630700,3.409630615234375,-0.9901275634765625,-0.0001678466796875,0.008575439453125
1772639200544675600,3.419675537109375,-0.9917144775390625,-0.0014495849609375,0.0094451904296875
1772639200554720500,3.429720458984375,-0.991546630859375,-0.00140380859375,0.008941650390625
1772639200564765400,3.439765380859375,-0.9913330078125,0.000091552734375,0.00897216796875
1772639200574811400,3.449811279296875,-0.989990234375,-0.000030517578125,0.00653076171875
1772639200584856600,3.459856689453125,-0.9909210205078125,-0.0000457763671875,0.0081787109375
1772639200594901500,3.469901611328125,-0.98980712890625,-0.0009765625,0.0089111328125
1772639200604946700,3.47994677734375,-0.990936279296875,0.0006561279296875,0.00823974609375
1772639200614991400,3.489991455078125,-0.991607666015625,-0.0005645751953125,0.0086669921875
1772639200625037300,3.500037353515625,-0.9908294677734375,0.0001373291015625,0.0089569091796875
1772639200635082500,3.51008251953125,-0.9910736083984375,0.0000457763671875,0.00836181640625
1772639200645127400,3.52012744140625,-0.990142822265625,-0.0010528564453125,0.008880615234375
1772639200655172600,3.530172607421875,-0.9900970458984375,-0.0010223388671875,0.008697509765625
1772639200665218600,3.540218505859375,-0.9901580810546875,-0.0009002685546875,0.0082244873046875
1772639200675263500,3.550263427734375,-0.9900054931640625,-0.0014190673828125,0.0082244873046875
1772639200685308400,3.560308349609375,-0.9918365478515625,-0.000640869140625,0.008056640625
1772639200695353600,3.570353515625,-0.9911041259765625,0.0007781982421875,0.008636474609375
1772639200705398500,3.5803984375,-0.991729736328125,-0.0000152587890625,0.0085296630859375
1772639200715444500,3.590444580078125,-0.9904022216796875,-0.00152587890625,0.009185791015625
1772639200725489700,3.60048974609375,-0.990234375,-0.0008544921875,0.0087432861328125
1772639200735534300,3.610534423828125,-0.9908294677734375,-0.0001068115234375,0.008087158203125
1772639200745580000,3.620580078125,-0.990447998046875,-0.000030517578125,0.008941650390625
1772639200755625000,3.630625,-0.990325927734375,-0.00018310546875,0.00830078125
1772639200765671000,3.6406708984375,-0.989898681640625,-0.0006866455078125,0.009185791015625
1772639200775716000,3.650716064453125,-0.99188232421875,-0.00042724609375,0.008941650390625
1772639200785761000,3.660760986328125,-0.991668701171875,-0.000244140625,0.008209228515625
1772639200795806000,3.670805908203125,-0.991241455078125,-0.00115966796875,0.0081024169921875
1772639200805852000,3.680851806640625,-0.9911346435546875,-0.0002288818359375,0.008087158203125
1772639200815897000,3.69089697265625,-0.9925537109375,-0.00115966796875,0.0090789794921875
1772639200825942000,3.70094189453125,-0.9907684326171875,-0.0003814697265625,0.0087127685546875
1772639200835987200,3.7109873046875,-0.9898834228515625,-0.0004119873046875,0.0099334716796875
1772639200846032000,3.721031982421875,-0.991302490234375,-0.0012359619140625,0.0088348388671875
1772639200856077800,3.731077880859375,-0.9916839599609375,-0.0010986328125,0.008880615234375
1772639200866123000,3.741123046875,-0.9908447265625,0.0004425048828125,0.0085906982421875
1772639200876168000,3.75116796875,-0.9903564453125,0.0003814697265625,0.0088348388671875
1772639200886213000,3.761213134765625,-0.989776611328125,-0.0013580322265625,0.008758544921875
1772639200896259000,3.771259033203125,-0.9914703369140625,-0.0009002685546875,0.008941650390625
1772639200906304000,3.781303955078125,-0.990570068359375,0.0004730224609375,0.008941650390625
1772639200916349000,3.791348876953125,-0.9914703369140625,-0.000701904296875,0.008758544921875
1772639200926394000,3.80139404296875,-0.9908599853515625,-0.000457763671875,0.0104217529296875
1772639200936439000,3.81143896484375,-0.990020751953125,0.00018310546875,0.0091400146484375
1772639200946485000,3.821485107421875,-0.9907684326171875,-0.00140380859375,0.00885009765625
1772639200956530200,3.8315302734375,-0.9900665283203125,-0.0010986328125,0.0089569091796875
1772639200966574800,3.841574951171875,-0.9895782470703125,-0.0004730224609375,0.008697509765625
1772639200976620000,3.8516201171875,-0.9910430908203125,-0.00030517578125,0.0087127685546875
1772639200986665000,3.8616650390625,-0.9898681640625,-0.0004425048828125,0.0078277587890625
1772639200996711000,3.8717109375,-0.99053955078125,-0.0005340576171875,0.00823974609375
1772639201006756000,3.881756103515625,-0.990081787109375,-0.000457763671875,0.0081939697265625
1772639201016801000,3.891801025390625,-0.9912872314453125,-0.00140380859375,0.00946044921875
1772639201026846000,3.901845947265625,-0.99139404296875,-0.000732421875,0.00762939453125
1772639201036892000,3.911891845703125,-0.9903411865234375,-0.0012664794921875,0.00885009765625
1772639201046937000,3.92193701171875,-0.9914398193359375,-0.000946044921875,0.0080718994140625
1772639201056982000,3.93198193359375,-0.9918060302734375,0.0000152587890625,0.007568359375
1772639201067027200,3.942027099609375,-0.991241455078125,-0.0006256103515625,0.0082244873046875
1772639201077072000,3.95207177734375,-0.990936279296875,-0.00042724609375,0.0089569091796875
1772639201087117800,3.962117919921875,-0.991851806640625,0.00006103515625,0.0081939697265625
1772639201097163000,3.9721630859375,-0.990692138671875,-0.00177001953125,0.0091705322265625
1772639201107208000,3.9822080078125,-0.9913482666015625,-0.0007781982421875,0.0083770751953125
1772639201117253000,3.992253173828125,-0.99102783203125,-0.0003662109375,0.00872802734375
1772639201127298000,4.002298095703125,-0.9907379150390625,-0.0009307861328125,0.007415771484375
1772639201137344000,4.012343994140625,-0.99066162109375,-0.0001983642578125,0.0081939697265625
1772639201147389000,4.022388916015625,-0.990325927734375,0.0000457763671875,0.008758544921875
1772639201157434000,4.03243408203125,-0.9912109375,0.00067138671875,0.0096282958984375
1772639201167479000,4.04247900390625,-0.990447998046875,0.00048828125,0.0081634521484375
1772639201177525000,4.05252490234375,-0.990875244140625,-0.001129150390625,0.0083465576171875
1772639201187570200,4.062570068359375,-0.9902191162109375,-0.0014190673828125,0.009124755859375
1772639201197614800,4.07261474609375,-0.9901275634765625,-0.0009002685546875,0.0095367431640625
1772639201207660000,4.082659912109375,-0.990264892578125,-0.001190185546875,0.0091552734375
1772639201217705000,4.092705078125,-0.9900054931640625,-0.001007080078125,0.00848388671875
1772639201227751000,4.1027509765625,-0.989990234375,-0.0007171630859375,0.00872802734375
1772639201237796000,4.112796142578125,-0.991729736328125,-0.0008087158203125,0.0076751708984375
1772639201247841000,4.122841064453125,-0.9906768798828125,-0.0003662109375,0.0083465576171875
1772639201257886000,4.132885986328125,-0.9909210205078125,-0.0015411376953125,0.009857177734375
1772639201267931000,4.142930908203125,-0.9915618896484375,-0.0013275146484375,0.009368896484375
1772639201277977000,4.15297705078125,-0.9915924072265625,-0.00067138671875,0.0084075927734375
1772639201288022000,4.16302197265625,-0.9920501708984375,-0.001007080078125,0.0077056884765625
1772639201298067200,4.173067138671875,-0.991119384765625,-0.0010833740234375,0.0082244873046875
1772639201308112000,4.18311181640625,-0.9919891357421875,-0.000701904296875,0.0079803466796875
1772639201318157800,4.19315771484375,-0.99102783203125,0.0002593994140625,0.0098876953125
1772639201328203000,4.203203125,-0.991973876953125,-0.00079345703125,0.0084228515625
1772639201338248000,4.213248046875,-0.9904327392578125,-0.0012969970703125,0.0081787109375
1772639201348293000,4.223293212890625,-0.9910430908203125,-0.0001678466796875,0.0098419189453125
1772639201358338000,4.233338134765625,-0.99114990234375,-0.0005950927734375,0.0079803466796875
1772639201368384000,4.243384033203125,-0.9905548095703125,-0.0006256103515625,0.008544921875
1772639201378429000,4.253428955078125,-0.991119384765625,-0.000518798828125,0.008697509765625
1772639201388474000,4.26347412109375,-0.9906005859375,0.000213623046875,0.008941650390625
1772639201398519000,4.27351904296875,-0.9901123046875,-0.0010986328125,0.008331298828125
1772639201408564000,4.28356396484375,-0.990386962890625,-0.000091552734375,0.0091705322265625
1772639201418610200,4.293610107421875,-0.991546630859375,-0.0011749267578125,0.0090484619140625
1772639201428654800,4.30365478515625,-0.9918670654296875,-0.001190185546875,0.0091705322265625
1772639201438700000,4.313699951171875,-0.9915008544921875,-0.0015411376953125,0.008544921875
1772639201448745000,4.323744873046875,-0.990570068359375,-0.0001678466796875,0.0087738037109375
1772639201458791000,4.333791015625,-0.9904327392578125,0.0002288818359375,0.00958251953125
1772639201468836000,4.343836181640625,-0.9907989501953125,-0.0015106201171875,0.008453369140625
1772639201478881000,4.353881103515625,-0.9923858642578125,-0.00067138671875,0.0079193115234375
1772639201488926000,4.363926025390625,-0.9918365478515625,-0.000946044921875,0.0082244873046875
1772639201498971000,4.373970947265625,-0.9913787841796875,0.001068115234375,0.00933837890625
1772639201509017000,4.38401708984375,-0.9915771484375,0.0001373291015625,0.0081024169921875
1772639201519062000,4.39406201171875,-0.991943359375,-0.0019378662109375,0.009185791015625
1772639201529107200,4.404107177734375,-0.990325927734375,-0.001373291015625,0.008331298828125
1772639201539152000,4.41415185546875,-0.989715576171875,0.0004425048828125,0.0083770751953125
1772639201549197000,4.424197021484375,-0.991363525390625,-0.000244140625,0.0098724365234375
1772639201559243000,4.434242919921875,-0.990325927734375,-0.000091552734375,0.009002685546875
1772639201569288000,4.444287841796875,-0.9907073974609375,-0.0000152587890625,0.00860595703125
1772639201579333000,4.4543330078125,-0.9911956787109375,-0.00140380859375,0.008331298828125
1772639201589378000,4.4643779296875,-0.9902496337890625,-0.000335693359375,0.008758544921875
1772639201599424000,4.474424072265625,-0.99066162109375,-0.0013275146484375,0.0084991455078125
1772639201609469000,4.484468994140625,-0.9897918701171875,-0.000518798828125,0.009033203125
1772639201619514000,4.49451416015625,-0.991485595703125,-0.00030517578125,0.0084991455078125
1772639201629559000,4.50455908203125,-0.99017333984375,-0.000274658203125,0.008331298828125
1772639201639604000,4.51460400390625,-0.9901580810546875,-0.000457763671875,0.0080718994140625
1772639201649650200,4.524650146484375,-0.99114990234375,-0.0005340576171875,0.008392333984375
1772639201659694800,4.53469482421875,-0.9917755126953125,-0.0015411376953125,0.0098724365234375
1772639201669740000,4.544739990234375,-0.99029541015625,-0.0004119873046875,0.00921630859375
1772639201679785000,4.554784912109375,-0.990234375,-0.00018310546875,0.0094451904296875
1772639201689830100,4.564830078125,-0.9912872314453125,-0.0016326904296875,0.0087738037109375
1772639201699876000,4.5748759765625,-0.990814208984375,-0.0003662109375,0.0081329345703125
1772639201709921000,4.584921142578125,-0.9926605224609375,0,0.009307861328125
1772639201719966000,4.594966064453125,-0.99127197265625,-0.00128173828125,0.00860595703125
1772639201730011000,4.605010986328125,-0.9906158447265625,-0.00115966796875,0.0079345703125
1772639201740057000,4.61505712890625,-0.9906158447265625,0.0001678466796875,0.007965087890625
1772639201750101200,4.625101318359375,-0.99090576171875,-0.0008697509765625,0.009002685546875
1772639201760146400,4.635146484375,-0.99029541015625,-0.0006256103515625,0.008026123046875
1772639201770191000,4.645191162109375,-0.99139404296875,-0.0006103515625,0.008453369140625
1772639201780236300,4.655236328125,-0.9905242919921875,-0.00103759765625,0.0096893310546875
1772639201790282200,4.6652822265625,-0.9903717041015625,-0.0013580322265625,0.0084991455078125
1772639201800327400,4.675327392578125,-0.99017333984375,-0.0009002685546875,0.00921630859375
1772639201810372400,4.685372314453125,-0.990997314453125,-0.0002899169921875,0.0079193115234375
1772639201820417300,4.695417236328125,-0.990936279296875,-0.001495361328125,0.009490966796875
1772639201830462200,4.705462158203125,-0.9899139404296875,-0.000213623046875,0.00811767578125
1772639201840508200,4.715508056640625,-0.9894561767578125,-0.001007080078125,0.008636474609375
1772639201850553300,4.72555322265625,-0.989959716796875,-0.002349853515625,0.00775146484375
1772639201860598300,4.735598388671875,-0.990325927734375,-0.000762939453125,0.0085906982421875
1772639201870643500,4.7456435546875,-0.9914398193359375,-0.00018310546875,0.0086517333984375
1772639201880689200,4.755689208984375,-0.9904327392578125,-0.0003662109375,0.00933837890625
1772639201890734000,4.765734130859375,-0.990966796875,-0.0000152587890625,0.0080718994140625
1772639201900779300,4.775779296875,-0.9908905029296875,-0.0004425048828125,0.0081787109375
1772639201910824200,4.78582421875,-0.9911346435546875,-0.0004119873046875,0.0085296630859375
1772639201920869400,4.795869384765625,-0.9918365478515625,-0.0006256103515625,0.00885009765625
1772639201930915300,4.805915283203125,-0.9912567138671875,-0.0013275146484375,0.0084228515625
1772639201940960300,4.815960205078125,-0.99005126953125,-0.000396728515625,0.0093536376953125
1772639201951005200,4.826005126953125,-0.9912567138671875,-0.0006561279296875,0.0086669921875
1772639201961050400,4.83605029296875,-0.9917144775390625,-0.000579833984375,0.0086212158203125
1772639201971095300,4.84609521484375,-0.9911041259765625,0,0.009979248046875
1772639201981141200,4.856141357421875,-0.989532470703125,-0.001678466796875,0.00872802734375
1772639201991186400,4.8661865234375,-0.990081787109375,-0.00103759765625,0.0085296630859375
1772639202001231000,4.876231201171875,-0.9914093017578125,-0.001129150390625,0.008056640625
1772639202011276300,4.8862763671875,-0.990447998046875,-0.0010223388671875,0.009765625
1772639202021322200,4.896322265625,-0.9899444580078125,-0.0006103515625,0.0094757080078125
1772639202031367400,4.906367431640625,-0.9903411865234375,-0.0007476806640625,0.00872802734375
1772639202041412400,4.916412353515625,-0.9914703369140625,-0.00201416015625,0.008636474609375
1772639202051457300,4.926457275390625,-0.9896087646484375,-0.0005340576171875,0.0088653564453125
1772639202061502200,4.936502197265625,-0.99017333984375,0.0008392333984375,0.0090789794921875
1772639202071548200,4.946548095703125,-0.990966796875,-0.0012359619140625,0.00799560546875
1772639202081593300,4.95659326171875,-0.9908294677734375,-0.0020751953125,0.008941650390625
1772639202091638300,4.96663818359375,-0.99114990234375,-0.0016021728515625,0.0088348388671875
1772639202101683500,4.976683349609375,-0.9902801513671875,-0.000518798828125,0.0086669921875
1772639202111728000,4.98672802734375,-0.9900665283203125,-0.000457763671875,0.0091400146484375
1772639202121774000,4.996774169921875,-0.9919281005859375,-0.0000762939453125,0.008148193359375
1772639202131819300,5.0068193359375,-0.990997314453125,0.0001983642578125,0.008941650390625
1772639202141864200,5.0168642578125,-0.990875244140625,-0.000701904296875,0.0083465576171875
1772639202151909400,5.026909423828125,-0.990631103515625,-0.001007080078125,0.0096282958984375
1772639202161955300,5.036955322265625,-0.990234375,0.00006103515625,0.010040283203125
1772639202172000300,5.047000244140625,-0.9889678955078125,0.0005645751953125,0.0088958740234375
1772639202182045200,5.057045166015625,-0.9901885986328125,0.0001068115234375,0.0079345703125
1772639202192090400,5.06709033203125,-0.9903106689453125,-0.0003814697265625,0.0092010498046875
1772639202202135300,5.07713525390625,-0.9902496337890625,-0.0008697509765625,0.0091705322265625
1772639202212181200,5.08718115234375,-0.9903106689453125,-0.0017547607421875,0.0083160400390625
1772639202222226200,5.09722607421875,-0.9921875,-0.00115966796875,0.0086669921875
1772639202232271000,5.10727099609375,-0.9901885986328125,0.0000152587890625,0.0080413818359375
1772639202242316300,5.11731640625,-0.990936279296875,-0.0011444091796875,0.0081939697265625
1772639202252361200,5.127361328125,-0.9908905029296875,-0.0021209716796875,0.0087890625
1772639202262407400,5.137407470703125,-0.9902191162109375,0.0000457763671875,0.0090484619140625
1772639202272452400,5.147452392578125,-0.9899749755859375,-0.0001983642578125,0.009368896484375
1772639202282497300,5.157497314453125,-0.9908447265625,0.0002288818359375,0.008392333984375
1772639202292542200,5.167542236328125,-0.9908294677734375,-0.0004425048828125,0.0071258544921875
1772639202302588200,5.177588134765625,-0.991058349609375,-0.0009002685546875,0.0080108642578125
1772639202312633300,5.18763330078125,-0.99072265625,-0.0010528564453125,0.00830078125
1772639202322678300,5.19767822265625,-0.990478515625,0.0000762939453125,0.0077056884765625
1772639202332723500,5.207723388671875,-0.989654541015625,-0.00091552734375,0.0073699951171875
1772639202342768000,5.21776806640625,-0.99127197265625,-0.0006103515625,0.00811767578125
1772639202352814000,5.22781396484375,-0.9915771484375,-0.0003204345703125,0.0084686279296875
1772639202362859300,5.237859375,-0.990966796875,-0.0004730224609375,0.00927734375
1772639202372904200,5.247904296875,-0.99029541015625,-0.000701904296875,0.0084381103515625
1772639202382949400,5.257949462890625,-0.9902801513671875,-0.000396728515625,0.009185791015625
1772639202392995300,5.267995361328125,-0.9896087646484375,-0.000030517578125,0.008941650390625
1772639202403040300,5.278040283203125,-0.9910430908203125,-0.000457763671875,0.0101470947265625
1772639202413085200,5.288085205078125,-0.9918212890625,-0.000457763671875,0.009307861328125
1772639202423130400,5.29813037109375,-0.99078369140625,-0.0006103515625,0.00897216796875
1772639202433175300,5.30817529296875,-0.9902496337890625,-0.000579833984375,0.008880615234375
1772639202443221200,5.31822119140625,-0.99090576171875,-0.0017852783203125,0.0080718994140625
1772639202453266200,5.32826611328125,-0.9918975830078125,-0.0014190673828125,0.007659912109375
1772639202463311000,5.33831103515625,-0.9918670654296875,-0.0005340576171875,0.00933837890625
1772639202473356300,5.348356201171875,-0.99169921875,-0.0014801025390625,0.0078582763671875
1772639202483401200,5.358401123046875,-0.991455078125,-0.0011749267578125,0.0083770751953125
1772639202493447400,5.368447509765625,-0.9910125732421875,-0.000640869140625,0.0083160400390625
1772639202503492400,5.378492431640625,-0.9910125732421875,-0.0001068115234375,0.008575439453125
1772639202513537300,5.388537353515625,-0.9910736083984375,-0.000885009765625,0.0083770751953125
1772639202523582200,5.398582275390625,-0.9898223876953125,-0.0004425048828125,0.0084228515625
1772639202533628200,5.408628173828125,-0.9911651611328125,-0.000396728515625,0.00836181640625
1772639202543673300,5.41867333984375,-0.992095947265625,-0.0006256103515625,0.0082244873046875
1772639202553718300,5.42871826171875,-0.9914093017578125,-0.0014190673828125,0.0077667236328125
1772639202563763500,5.438763427734375,-0.99102783203125,-0.0001068115234375,0.0081634521484375
1772639202573808000,5.44880810546875,-0.9921875,-0.000244140625,0.0086517333984375
1772639202583854000,5.45885400390625,-0.9919281005859375,-0.0009002685546875,0.00762939453125
1772639202593899300,5.468899169921875,-0.9910888671875,-0.0005340576171875,0.009246826171875
1772639202603944200,5.478944091796875,-0.9920654296875,-0.00103759765625,0.0094757080078125
1772639202613989400,5.4889892578125,-0.9918060302734375,-0.001678466796875,0.007659912109375
1772639202624034000,5.499033935546875,-0.9905853271484375,-0.0020599365234375,0.0066680908203125
1772639202634080300,5.509080322265625,-0.99127197265625,-0.0018463134765625,0.0084991455078125
1772639202644125200,5.519125244140625,-0.9914703369140625,0.0003662109375,0.008056640625
1772639202654170400,5.52917041015625,-0.9914093017578125,-0.000701904296875,0.0079193115234375
1772639202664215300,5.53921533203125,-0.990234375,0.00048828125,0.0089111328125
1772639202674261200,5.54926123046875,-0.991180419921875,0.00042724609375,0.007904052734375
1772639202684306200,5.55930615234375,-0.98992919921875,-0.001190185546875,0.007965087890625
1772639202694351000,5.56935107421875,-0.9904022216796875,-0.00067138671875,0.0079193115234375
1772639202704396300,5.579396240234375,-0.9904632568359375,-0.000701904296875,0.0091094970703125
1772639202714441200,5.589441162109375,-0.9915618896484375,-0.0003814697265625,0.0075531005859375
1772639202724487400,5.5994873046875,-0.990447998046875,-0.0007171630859375,0.009185791015625
1772639202734532400,5.609532470703125,-0.98944091796875,-0.0003204345703125,0.008758544921875
1772639202744577300,5.619577392578125,-0.990692138671875,-0.0020904541015625,0.0097198486328125
1772639202754623500,5.62962353515625,-0.99114990234375,0.000030517578125,0.0083465576171875
1772639202764668400,5.63966845703125,-0.992431640625,-0.0019378662109375,0.0081939697265625
1772639202774714400,5.64971435546875,-0.9899749755859375,-0.000335693359375,0.007659912109375
1772639202784759300,5.65975927734375,-0.9896697998046875,-0.0005645751953125,0.0078887939453125
1772639202794804200,5.66980419921875,-0.99114990234375,-0.000457763671875,0.009033203125
1772639202804849400,5.679849365234375,-0.9911041259765625,-0.0014801025390625,0.0091094970703125
1772639202814894300,5.689894287109375,-0.99029541015625,-0.0009918212890625,0.0093994140625
1772639202824940500,5.6999404296875,-0.9899444580078125,-0.0005950927734375,0.009063720703125
1772639202834985500,5.7099853515625,-0.9913482666015625,-0.000701904296875,0.0084686279296875
1772639202845030400,5.720030517578125,-0.9914703369140625,-0.0000457763671875,0.0078125
1772639202855075300,5.730075439453125,-0.990570068359375,-0.00079345703125,0.0081634521484375
1772639202865121300,5.740121337890625,-0.99066162109375,-0.000579833984375,0.0077972412109375
1772639202875166500,5.75016650390625,-0.9895782470703125,-0.0005645751953125,0.00909423828125
1772639202885211400,5.76021142578125,-0.990936279296875,-0.00152587890625,0.008880615234375
1772639202895256300,5.77025634765625,-0.9912261962890625,-0.000274658203125,0.0076904296875
1772639202905301200,5.78030126953125,-0.9918670654296875,-0.0009307861328125,0.0084686279296875
1772639202915347500,5.790347412109375,-0.9917755126953125,-0.0003662109375,0.01007080078125
1772639202925392400,5.800392333984375,-0.990631103515625,-0.0001068115234375,0.007843017578125
1772639202935437600,5.8104375,-0.9912261962890625,-0.0006561279296875,0.008392333984375
1772639202945482500,5.820482421875,-0.992156982421875,-0.00079345703125,0.0103607177734375
1772639202955527400,5.83052734375,-0.9909820556640625,-0.0004119873046875,0.008514404296875
1772639202965573400,5.840573486328125,-0.9910430908203125,-0.0000457763671875,0.00860595703125
1772639202975618300,5.850618408203125,-0.9906463623046875,-0.0016632080078125,0.007781982421875
1772639202985663500,5.86066357421875,-0.99066162109375,0.00018310546875,0.0086517333984375
1772639202995708400,5.87070849609375,-0.9901580810546875,-0.0007171630859375,0.0076751708984375
1772639203005754400,5.88075439453125,-0.990020751953125,0.00091552734375,0.008392333984375
1772639203015799300,5.89079931640625,-0.9912872314453125,-0.0005645751953125,0.0074920654296875
1772639203025844200,5.90084423828125,-0.99176025390625,-0.0004730224609375,0.0089874267578125
1772639203035889400,5.910889404296875,-0.9903564453125,-0.0012969970703125,0.008880615234375
1772639203045934300,5.920934326171875,-0.9904937744140625,-0.0010223388671875,0.00830078125
1772639203055980500,5.93098046875,-0.9904327392578125,-0.0002593994140625,0.0080413818359375
1772639203066025500,5.941025390625,-0.9911041259765625,-0.00103759765625,0.008575439453125
1772639203076070400,5.9510703125,-0.99072265625,-0.000396728515625,0.0082550048828125
1772639203086115300,5.961115234375,-0.9912872314453125,-0.0005645751953125,0.0102996826171875
1772639203096160500,5.971160400390625,-0.9918212890625,-0.0012054443359375,0.009307861328125
1772639203106206500,5.98120654296875,-0.991363525390625,-0.0009002685546875,0.0090789794921875
1772639203116251400,5.99125146484375,-0.9914093017578125,-0.00091552734375,0.008880615234375
1772639203126296300,6.00129638671875,-0.9908905029296875,-0.0008392333984375,0.00836181640625
1772639203136341200,6.01134130859375,-0.989715576171875,-0.000732421875,0.0090179443359375
1772639203146386400,6.021386474609375,-0.9902801513671875,-0.0012359619140625,0.007781982421875
1772639203156432400,6.031432373046875,-0.9901123046875,-0.0006866455078125,0.00909423828125
1772639203166477600,6.0414775390625,-0.9914093017578125,-0.0010528564453125,0.009552001953125
1772639203176522500,6.0515224609375,-0.990142822265625,0.0008544921875,0.0101470947265625
1772639203186567400,6.0615673828125,-0.99017333984375,-0.0000152587890625,0.0086822509765625
1772639203196613400,6.07161328125,-0.9907073974609375,-0.00164794921875,0.0092926025390625
1772639203206658300,6.081658203125,-0.990081787109375,-0.000946044921875,0.00946044921875
1772639203216703500,6.091703369140625,-0.99053955078125,-0.0005035400390625,0.009033203125
1772639203226748400,6.10174853515625,-0.9907379150390625,-0.000579833984375,0.007781982421875
1772639203236793300,6.11179345703125,-0.990631103515625,-0.0015716552734375,0.0077972412109375
1772639203246839300,6.12183935546875,-0.9903106689453125,-0.0005645751953125,0.0098114013671875
1772639203256884200,6.13188427734375,-0.99127197265625,-0.0005950927734375,0.0096282958984375
1772639203266929400,6.141929443359375,-0.991058349609375,-0.0010528564453125,0.008941650390625
1772639203276974300,6.151974365234375,-0.99139404296875,-0.001220703125,0.0097808837890625
1772639203287019500,6.16201953125,-0.9913177490234375,-0.0006103515625,0.0090484619140625
1772639203297065500,6.1720654296875,-0.990203857421875,-0.001007080078125,0.0089111328125
1772639203307110400,6.1821103515625,-0.990081787109375,-0.0005340576171875,0.0095672607421875
1772639203317155300,6.1921552734375,-0.9910430908203125,-0.000091552734375,0.0085601806640625
1772639203327200500,6.202200439453125,-0.9895477294921875,-0.0003509521484375,0.008026123046875
1772639203337246500,6.21224658203125,-0.990386962890625,-0.001800537109375,0.0076751708984375
1772639203347291400,6.22229150390625,-0.9911041259765625,-0.0013275146484375,0.0086822509765625
1772639203357336300,6.23233642578125,-0.9910430908203125,-0.0011138916015625,0.008209228515625
1772639203367381200,6.24238134765625,-0.9910736083984375,-0.0008392333984375,0.0099334716796875
1772639203377426400,6.252426513671875,-0.9900360107421875,-0.000091552734375,0.00860595703125
1772639203387472400,6.262472412109375,-0.990020751953125,-0.0004119873046875,0.0084991455078125
1772639203397517600,6.272517578125,-0.99017333984375,-0.001068115234375,0.009490966796875
1772639203407562500,6.2825625,-0.990020751953125,-0.000701904296875,0.0093994140625
1772639203417607400,6.292607421875,-0.9905242919921875,-0.0009307861328125,0.0095062255859375
1772639203427652400,6.30265234375,-0.990264892578125,-0.000823974609375,0.00897216796875
1772639203437698300,6.3126982421875,-0.9918670654296875,-0.0009918212890625,0.0084228515625
1772639203447743500,6.322743408203125,-0.9911041259765625,-0.000152587890625,0.0078887939453125
1772639203457788400,6.332788330078125,-0.9904632568359375,-0.000946044921875,0.0084991455078125
1772639203467833300,6.342833251953125,-0.9915618896484375,-0.00091552734375,0.008941650390625
1772639203477879300,6.35287939453125,-0.9904327392578125,0.00048828125,0.0097503662109375
1772639203487924200,6.36292431640625,-0.9915313720703125,0.00048828125,0.008270263671875
1772639203497969400,6.372969482421875,-0.991729736328125,-0.000701904296875,0.00860595703125
1772639203508014300,6.383014404296875,-0.9901885986328125,-0.000213623046875,0.0080413818359375
1772639203518059500,6.3930595703125,-0.990264892578125,-0.0006256103515625,0.009124755859375
1772639203528105500,6.40310546875,-0.9906158447265625,-0.000946044921875,0.0096893310546875
1772639203538150400,6.413150390625,-0.9901885986328125,-0.0004425048828125,0.00927734375
1772639203548195300,6.4231953125,-0.991943359375,-0.00079345703125,0.008758544921875
1772639203558240500,6.433240478515625,-0.9901885986328125,0,0.008575439453125
1772639203568286500,6.443286376953125,-0.9901885986328125,-0.0017242431640625,0.0080413818359375
1772639203578331400,6.453331298828125,-0.99127197265625,-0.001251220703125,0.008514404296875
1772639203588376300,6.463376220703125,-0.9908599853515625,-0.0000457763671875,0.0094451904296875
1772639203598421200,6.473421142578125,-0.99139404296875,-0.0010986328125,0.0081024169921875
1772639203608466400,6.483466552734375,-0.9913787841796875,0.0001220703125,0.0085601806640625
1772639203618512400,6.493512451171875,-0.991455078125,-0.001007080078125,0.0087738037109375
1772639203628557600,6.5035576171875,-0.9906005859375,-0.00091552734375,0.008758544921875
1772639203638602500,6.5136025390625,-0.989776611328125,-0.0005645751953125,0.00897216796875
1772639203648647400,6.5236474609375,-0.9923858642578125,-0.0000762939453125,0.0088958740234375
1772639203658692400,6.5336923828125,-0.9916534423828125,-0.0004730224609375,0.0087432861328125
1772639203668738300,6.54373828125,-0.9907379150390625,-0.0012054443359375,0.0083160400390625
1772639203678783500,6.553783447265625,-0.992156982421875,-0.0008087158203125,0.009307861328125
1772639203688828400,6.563828369140625,-0.9923858642578125,-0.000335693359375,0.0086212158203125
1772639203698873300,6.573873291015625,-0.990814208984375,-0.00042724609375,0.0092315673828125
1772639203708918300,6.583918212890625,-0.9905548095703125,-0.0003204345703125,0.0079498291015625
1772639203718964200,6.593964111328125,-0.9914093017578125,-0.0004119873046875,0.0086669921875
1772639203729009400,6.604009521484375,-0.99176025390625,-0.000457763671875,0.0087432861328125
1772639203739054300,6.614054443359375,-0.99090576171875,-0.00054931640625,0.0084075927734375
1772639203749099000,6.62409912109375,-0.9912872314453125,0.0003814697265625,0.0088348388671875
1772639203759145000,6.63414501953125,-0.99176025390625,-0.0004119873046875,0.009033203125
1772639203769190000,6.64418994140625,-0.9912872314453125,-0.001708984375,0.0085296630859375
1772639203779234800,6.65423486328125,-0.99151611328125,-0.001434326171875,0.0100250244140625
1772639203789280000,6.664280029296875,-0.991302490234375,-0.0009002685546875,0.00872802734375
1772639203799325000,6.674324951171875,-0.9900665283203125,-0.0006561279296875,0.0080718994140625
1772639203809371000,6.684370849609375,-0.9918060302734375,-0.0009918212890625,0.007843017578125
1772639203819416000,6.694416015625,-0.9904632568359375,0.00054931640625,0.0087127685546875
1772639203829460700,6.704460693359375,-0.9897613525390625,-0.0001068115234375,0.00933837890625
1772639203839506000,6.714505859375,-0.990234375,0.000030517578125,0.008819580078125
1772639203849550800,6.72455078125,-0.991729736328125,-0.0006256103515625,0.0092010498046875
1772639203859597000,6.73459716796875,-0.9915924072265625,-0.0005950927734375,0.0086669921875
1772639203869642000,6.74464208984375,-0.991943359375,-0.0001068115234375,0.008819580078125
1772639203879687000,6.75468701171875,-0.989715576171875,-0.00079345703125,0.0087890625
1772639203889731800,6.76473193359375,-0.9901123046875,0.00006103515625,0.01025390625
1772639203899777800,6.77477783203125,-0.991302490234375,0.0005035400390625,0.0090179443359375
1772639203909823000,6.784822998046875,-0.9911651611328125,-0.00140380859375,0.0084075927734375
1772639203919868000,6.794867919921875,-0.99078369140625,-0.0004425048828125,0.008087158203125
1772639203929913000,6.8049130859375,-0.9916839599609375,-0.0021209716796875,0.0096282958984375
1772639203939957800,6.814957763671875,-0.9903411865234375,-0.0014495849609375,0.008636474609375
1772639203950004000,6.82500390625,-0.9889678955078125,-0.000457763671875,0.007965087890625
1772639203960049000,6.835048828125,-0.9900665283203125,-0.00054931640625,0.0082550048828125
1772639203970094000,6.845093994140625,-0.9913330078125,-0.0004730224609375,0.008209228515625
1772639203980139000,6.855138916015625,-0.9919586181640625,0.0004425048828125,0.00921630859375
1772639203990184000,6.865183837890625,-0.9912109375,-0.0008697509765625,0.008575439453125
1772639204000230000,6.87522998046875,-0.9912872314453125,-0.001373291015625,0.0091094970703125
1772639204010274800,6.88527490234375,-0.9913482666015625,0.000457763671875,0.007843017578125
1772639204020320000,6.895320068359375,-0.9905853271484375,0.0004425048828125,0.0086517333984375
1772639204030365000,6.905364990234375,-0.9901123046875,0.000701904296875,0.00921630859375
1772639204040411000,6.915410888671875,-0.99090576171875,0.00042724609375,0.0094146728515625
1772639204050456000,6.9254560546875,-0.9910430908203125,-0.000152587890625,0.0078277587890625
1772639204060500700,6.935500732421875,-0.9911041259765625,-0.0006256103515625,0.0073394775390625
1772639204070546000,6.9455458984375,-0.9899139404296875,-0.00030517578125,0.008453369140625
1772639204080590800,6.9555908203125,-0.99114990234375,-0.00091552734375,0.008514404296875
1772639204090637000,6.965636962890625,-0.990997314453125,-0.0014190673828125,0.007568359375
1772639204100682000,6.975681884765625,-0.9903717041015625,-0.00048828125,0.0083465576171875
1772639204110727000,6.985726806640625,-0.990631103515625,-0.001708984375,0.0084991455078125
1772639204120771800,6.995771728515625,-0.990814208984375,-0.0008697509765625,0.0084991455078125
1772639204130817000,7.005817138671875,-0.992218017578125,-0.0001068115234375,0.0096893310546875
1772639204140863000,7.015863037109375,-0.99249267578125,0,0.00775146484375
1772639204150908000,7.025907958984375,-0.9910125732421875,-0.000335693359375,0.0086212158203125
1772639204160953000,7.035953125,-0.990875244140625,-0.0008087158203125,0.0097808837890625
1772639204170997800,7.045997802734375,-0.9911956787109375,-0.0002288818359375,0.008209228515625
1772639204181043000,7.05604296875,-0.9903564453125,-0.00054931640625,0.0086669921875
1772639204191089000,7.0660888671875,-0.9897918701171875,-0.0001678466796875,0.009246826171875
1772639204201134000,7.076134033203125,-0.990570068359375,-0.0015411376953125,0.0080413818359375
1772639204211179000,7.086178955078125,-0.989593505859375,-0.000640869140625,0.007171630859375
1772639204221224000,7.096223876953125,-0.99090576171875,-0.0010528564453125,0.0081329345703125
1772639204231270000,7.106269775390625,-0.9907073974609375,-0.000701904296875,0.008453369140625
1772639204241314800,7.116314697265625,-0.9905548095703125,-0.000091552734375,0.0094146728515625
1772639204251360000,7.126360107421875,-0.9898834228515625,-0.0009765625,0.0083160400390625
1772639204261405000,7.136405029296875,-0.9901580810546875,-0.000640869140625,0.0088348388671875
1772639204271450000,7.1464501953125,-0.990875244140625,-0.00067138671875,0.00787353515625
1772639204281495800,7.156495849609375,-0.9910888671875,-0.0009918212890625,0.0084381103515625
1772639204291540700,7.166540771484375,-0.9908294677734375,0.00030517578125,0.0079345703125
1772639204301586000,7.1765859375,-0.9911651611328125,-0.00079345703125,0.0085296630859375
1772639204311630800,7.186630859375,-0.9912109375,0.000701904296875,0.0089874267578125
1772639204321677000,7.196677001953125,-0.9913482666015625,-0.00048828125,0.00860595703125
1772639204331722000,7.206721923828125,-0.99169921875,-0.00103759765625,0.0097503662109375
1772639204341767000,7.216766845703125,-0.9907073974609375,-0.0006866455078125,0.00994873046875
1772639204351811800,7.226811767578125,-0.9920806884765625,-0.00146484375,0.0089569091796875
1772639204361857000,7.23685693359375,-0.99066162109375,-0.00140380859375,0.0083465576171875
1772639204371903000,7.246903076171875,-0.990509033203125,0.000030517578125,0.009796142578125
1772639204381948000,7.256947998046875,-0.989837646484375,-0.0007476806640625,0.008819580078125
1772639204391993000,7.2669931640625,-0.990386962890625,-0.0004730224609375,0.007659912109375
1772639204402037800,7.277037841796875,-0.9887847900390625,-0.0007476806640625,0.0093536376953125
1772639204412083000,7.2870830078125,-0.9906768798828125,-0.0006866455078125,0.0087127685546875
1772639204422129000,7.29712890625,-0.9904327392578125,-0.00128173828125,0.00872802734375
1772639204432174000,7.307174072265625,-0.991729736328125,-0.00128173828125,0.008453369140625
1772639204442219000,7.317218994140625,-0.989044189453125,-0.001129150390625,0.0090484619140625
1772639204452264000,7.327263916015625,-0.990386962890625,-0.0006561279296875,0.0084228515625
1772639204462310000,7.337309814453125,-0.990570068359375,-0.0007781982421875,0.0085601806640625
1772639204472354800,7.347354736328125,-0.99029541015625,-0.0014495849609375,0.00946044921875
1772639204482400000,7.35739990234375,-0.9923248291015625,-0.000640869140625,0.008880615234375
1772639204492445000,7.36744482421875,-0.990966796875,-0.0020904541015625,0.0081634521484375
1772639204502490000,7.377489990234375,-0.9917755126953125,-0.0009613037109375,0.009429931640625
1772639204512535800,7.387535888671875,-0.9909820556640625,-0.001953125,0.0088653564453125
1772639204522580700,7.397580810546875,-0.9911041259765625,-0.00030517578125,0.008087158203125
1772639204532626000,7.4076259765625,-0.98974609375,-0.000274658203125,0.008819580078125
1772639204542670800,7.4176708984375,-0.991790771484375,-0.00042724609375,0.00897216796875
1772639204552716000,7.427716064453125,-0.9920806884765625,-0.001617431640625,0.0085906982421875
1772639204562762000,7.437761962890625,-0.9911651611328125,-0.0018463134765625,0.0089111328125
1772639204572807000,7.447806884765625,-0.9918365478515625,-0.0012054443359375,0.0083160400390625
1772639204582851800,7.457851806640625,-0.990936279296875,-0.002227783203125,0.0079193115234375
1772639204592897000,7.46789697265625,-0.990478515625,-0.001373291015625,0.008392333984375
1772639204602943000,7.47794287109375,-0.9916839599609375,-0.0005950927734375,0.00836181640625
1772639204612988000,7.48798779296875,-0.9918060302734375,-0.0010528564453125,0.0097503662109375
1772639204623033000,7.498033203125,-0.9900665283203125,-0.000518798828125,0.0081939697265625
1772639204633077800,7.508077880859375,-0.9909210205078125,-0.001190185546875,0.0083160400390625
1772639204643123000,7.518123046875,-0.9901885986328125,-0.0007171630859375,0.00823974609375
1772639204653169000,7.5281689453125,-0.9910430908203125,-0.0007171630859375,0.0081329345703125
1772639204663214000,7.538214111328125,-0.9915313720703125,0.00079345703125,0.008544921875
1772639204673259000,7.548259033203125,-0.9908599853515625,0.00048828125,0.0084228515625
1772639204683304000,7.558303955078125,-0.9917755126953125,-0.0010528564453125,0.008026123046875
1772639204693348900,7.568348876953125,-0.992523193359375,-0.0009307861328125,0.0089263916015625
1772639204703394800,7.578394775390625,-0.99072265625,-0.0000152587890625,0.009490966796875
1772639204713440000,7.58843994140625,-0.990325927734375,-0.000885009765625,0.0090789794921875
1772639204723485000,7.59848486328125,-0.9911346435546875,-0.000518798828125,0.0087890625
1772639204733530000,7.608530029296875,-0.99078369140625,-0.0009918212890625,0.007720947265625
1772639204743575800,7.618575927734375,-0.9900054931640625,-0.0003814697265625,0.009246826171875
1772639204753620700,7.628620849609375,-0.9922637939453125,0.000396728515625,0.0079345703125
1772639204763665700,7.638665771484375,-0.9918365478515625,-0.0010223388671875,0.0089569091796875
1772639204773710800,7.6487109375,-0.9908294677734375,-0.000244140625,0.0087127685546875
1772639204783755500,7.658755615234375,-0.9907379150390625,0.00006103515625,0.0083160400390625
1772639204793801500,7.668801513671875,-0.9915008544921875,-0.00103759765625,0.0086212158203125
1772639204803846700,7.6788466796875,-0.9900360107421875,0.0000762939453125,0.009307861328125
1772639204813891600,7.6888916015625,-0.990631103515625,-0.0003662109375,0.00885009765625
1772639204823936800,7.698936767578125,-0.991424560546875,-0.0001220703125,0.00885009765625
1772639204833981700,7.708981689453125,-0.99053955078125,-0.0009765625,0.0075836181640625
1772639204844027400,7.71902734375,-0.9908905029296875,0.0001983642578125,0.0062103271484375
1772639204854072600,7.729072509765625,-0.9912872314453125,-0.0005645751953125,0.0080413818359375
1772639204864117500,7.739117431640625,-0.9901885986328125,-0.001434326171875,0.0085296630859375
1772639204874162700,7.74916259765625,-0.9900360107421875,-0.0005645751953125,0.0083770751953125
1772639204884208600,7.759208740234375,-0.99078369140625,-0.00140380859375,0.0086669921875
1772639204894253800,7.76925390625,-0.990386962890625,-0.0004425048828125,0.0085906982421875
1772639204904298500,7.779298583984375,-0.990386962890625,-0.002471923828125,0.0087738037109375
1772639204914343700,7.78934375,-0.9898223876953125,-0.0007476806640625,0.0086822509765625
1772639204924388600,7.799388671875,-0.991180419921875,-0.000213623046875,0.0088043212890625
1772639204934434600,7.8094345703125,-0.9912109375,-0.0012359619140625,0.008819580078125
1772639204944479700,7.819479736328125,-0.991180419921875,-0.000274658203125,0.0082855224609375
1772639204954524700,7.829524658203125,-0.9901123046875,0.0005950927734375,0.008575439453125
1772639204964569600,7.839569580078125,-0.991241455078125,-0.0001678466796875,0.008544921875
1772639204974614500,7.849614501953125,-0.99005126953125,-0.000579833984375,0.008331298828125
1772639204984660700,7.85966064453125,-0.9897918701171875,0.0003509521484375,0.00823974609375
1772639204994705700,7.86970556640625,-0.9910125732421875,-0.0006103515625,0.00897216796875
1772639205004750800,7.879750732421875,-0.9910430908203125,-0.0000152587890625,0.0088958740234375
1772639205014795500,7.88979541015625,-0.9897308349609375,-0.000030517578125,0.0085601806640625
1772639205024841500,7.899841552734375,-0.9909820556640625,-0.0003509521484375,0.0071563720703125
1772639205034886700,7.90988671875,-0.9912567138671875,-0.0018310546875,0.0081634521484375
1772639205044931600,7.919931640625,-0.989959716796875,-0.0010223388671875,0.008819580078125
1772639205054976800,7.929976806640625,-0.991058349609375,-0.000701904296875,0.008636474609375
1772639205065021700,7.940021728515625,-0.99066162109375,-0.001922607421875,0.0091400146484375
1772639205075067600,7.950067626953125,-0.990386962890625,-0.001007080078125,0.008544921875
1772639205085112600,7.960112548828125,-0.990570068359375,-0.000152587890625,0.008056640625
1772639205095157500,7.970157470703125,-0.9908447265625,-0.0006866455078125,0.0091094970703125
1772639205105202700,7.98020263671875,-0.990692138671875,-0.000885009765625,0.0100860595703125
1772639205115247600,7.99024755859375,-0.991424560546875,-0.000823974609375,0.00909423828125
1772639205125293800,8.0002939453125,-0.9901580810546875,-0.00079345703125,0.008026123046875
1772639205135338500,8.01033837890625,-0.9901123046875,-0.00054931640625,0.0088958740234375
1772639205145383700,8.0203837890625,-0.9908447265625,-0.0008087158203125,0.007904052734375
1772639205155428600,8.0304287109375,-0.99212646484375,-0.000701904296875,0.008758544921875
1772639205165474600,8.040474609375,-0.991180419921875,-0.001129150390625,0.00762939453125
1772639205175519700,8.050519775390624,-0.9909210205078125,-0.00146484375,0.007781982421875
1772639205185564400,8.060564453125,-0.9915008544921875,-0.0010986328125,0.0083770751953125
1772639205195609600,8.070609619140624,-0.990386962890625,-0.00091552734375,0.009246826171875
1772639205205654500,8.080654541015624,-0.990386962890625,-0.00030517578125,0.0094451904296875
1772639205215700700,8.09070068359375,-0.9904022216796875,-0.000152587890625,0.00714111328125
1772639205225745700,8.10074560546875,-0.992034912109375,-0.000732421875,0.0088653564453125
1772639205235790800,8.110790771484375,-0.9917144775390625,-0.0004730224609375,0.0091552734375
1772639205245835500,8.12083544921875,-0.990325927734375,-0.000762939453125,0.00946044921875
1772639205255880700,8.130880615234375,-0.9903411865234375,-0.0010528564453125,0.0096588134765625
1772639205265926700,8.1409267578125,-0.9922027587890625,0.0001678466796875,0.00823974609375
1772639205275971600,8.1509716796875,-0.9904632568359375,0.000244140625,0.0081939697265625
1772639205286016800,8.161016845703125,-0.991607666015625,-0.0004730224609375,0.0089263916015625
1772639205296061700,8.171061767578125,-0.9913330078125,-0.0007476806640625,0.009918212890625
1772639205306107600,8.181107666015626,-0.98980712890625,-0.0006103515625,0.01043701171875
1772639205316152600,8.191152587890626,-0.9911041259765625,-0.000885009765625,0.009307861328125
1772639205326197500,8.201197509765626,-0.99090576171875,-0.0008392333984375,0.009185791015625
1772639205336242700,8.21124267578125,-0.991363525390625,-0.00006103515625,0.0087127685546875
1772639205346287600,8.22128759765625,-0.9906463623046875,-0.000396728515625,0.0077362060546875
1772639205356333800,8.231333740234374,-0.9908905029296875,-0.00018310546875,0.0090484619140625
1772639205366378500,8.24137841796875,-0.99005126953125,-0.0005035400390625,0.007659912109375
1772639205376423700,8.251423583984375,-0.99102783203125,-0.00177001953125,0.0084075927734375
1772639205386468600,8.261468505859375,-0.99053955078125,-0.0005340576171875,0.009307861328125
1772639205396513800,8.271513671875,-0.98992919921875,-0.0004119873046875,0.0085601806640625
1772639205406559700,8.281559814453125,-0.990264892578125,-0.001129150390625,0.0088348388671875
1772639205416604400,8.2916044921875,-0.9905853271484375,-0.001007080078125,0.009063720703125
1772639205426649600,8.301649658203125,-0.9912872314453125,-0.0010528564453125,0.0083465576171875
1772639205436694500,8.311694580078125,-0.9907379150390625,-0.0008087158203125,0.0079193115234375
1772639205446740700,8.32174072265625,-0.991485595703125,-0.0011749267578125,0.0082855224609375
1772639205456785700,8.33178564453125,-0.9908599853515625,-0.000579833984375,0.008636474609375
1772639205466830800,8.341830810546876,-0.9915771484375,-0.00152587890625,0.0097198486328125
1772639205476875500,8.35187548828125,-0.9909210205078125,-0.0012054443359375,0.0090484619140625
1772639205486920700,8.361920654296876,-0.9909515380859375,-0.0015716552734375,0.009033203125
1772639205496966700,8.371966552734374,-0.992156982421875,-0.0021209716796875,0.0093841552734375
1772639205507011600,8.382011474609374,-0.99200439453125,-0.0010528564453125,0.0081787109375
1772639205517056800,8.392056884765625,-0.9923553466796875,-0.0009613037109375,0.008087158203125
1772639205527101700,8.402101806640625,-0.99139404296875,0.000762939453125,0.0076904296875
1772639205537146600,8.412146728515625,-0.9895782470703125,-0.000396728515625,0.0080413818359375
1772639205547192600,8.422192626953125,-0.99066162109375,-0.0007476806640625,0.008575439453125
1772639205557237500,8.432237548828125,-0.9910736083984375,-0.0005035400390625,0.0089569091796875
1772639205567282700,8.44228271484375,-0.9913787841796875,-0.0005340576171875,0.007537841796875
1772639205577327600,8.45232763671875,-0.9911041259765625,-0.00115966796875,0.0081787109375
1772639205587373800,8.462373779296875,-0.9903411865234375,0.000030517578125,0.0093231201171875
1772639205597418500,8.47241845703125,-0.9903564453125,-0.0002288818359375,0.0088043212890625
1772639205607463700,8.482463623046876,-0.9910125732421875,-0.00054931640625,0.0088653564453125
1772639205617508600,8.492508544921876,-0.9915771484375,-0.0013275146484375,0.0078277587890625
1772639205627553800,8.5025537109375,-0.9908447265625,-0.0006866455078125,0.0076904296875
1772639205637599700,8.512599853515624,-0.991912841796875,-0.0013580322265625,0.00738525390625
1772639205647644400,8.52264453125,-0.989532470703125,-0.00054931640625,0.0078277587890625
1772639205657689600,8.532689697265624,-0.990631103515625,-0.0002593994140625,0.008392333984375
1772639205667734500,8.542734619140624,-0.9904022216796875,-0.0010986328125,0.0092010498046875
1772639205677779700,8.55277978515625,-0.9904632568359375,0.0009307861328125,0.00933837890625
1772639205687825700,8.56282568359375,-0.99017333984375,0.0008544921875,0.008941650390625
1772639205697870800,8.572870849609375,-0.9916229248046875,-0.000732421875,0.0088958740234375
1772639205707915500,8.58291552734375,-0.991241455078125,0.00042724609375,0.00872802734375
1772639205717960700,8.592960693359375,-0.99114990234375,0.0008087158203125,0.008392333984375
1772639205728006700,8.603006591796875,-0.9904632568359375,-0.0001068115234375,0.0101165771484375
1772639205738051600,8.613051513671875,-0.990570068359375,-0.0001220703125,0.008209228515625
1772639205748096800,8.6230966796875,-0.9912872314453125,-0.000885009765625,0.0086212158203125
1772639205758141700,8.6331416015625,-0.9918212890625,-0.0009918212890625,0.010284423828125
1772639205768186600,8.6431865234375,-0.9907379150390625,0.000518798828125,0.00897216796875
1772639205778232600,8.653232666015626,-0.9909820556640625,0.0001983642578125,0.008697509765625
1772639205788277500,8.663277587890626,-0.9909515380859375,-0.000762939453125,0.007843017578125
1772639205798322700,8.67332275390625,-0.9900970458984375,-0.0020751953125,0.008697509765625
1772639205808367600,8.68336767578125,-0.990814208984375,-0.00079345703125,0.0091400146484375
1772639205818412800,8.693412841796874,-0.992401123046875,-0.000762939453125,0.00836181640625
1772639205828458800,8.703458740234375,-0.9915313720703125,-0.000457763671875,0.0087432861328125
1772639205838503700,8.713503662109375,-0.9905853271484375,-0.0012359619140625,0.0088958740234375
1772639205848548600,8.723548583984375,-0.9913177490234375,-0.00140380859375,0.0078125
1772639205858593800,8.73359375,-0.9924774169921875,-0.00238037109375,0.0081329345703125
1772639205868639700,8.7436396484375,-0.9911956787109375,-0.0004730224609375,0.0081024169921875
1772639205878684700,8.7536845703125,-0.998199462890625,0.0007476806640625,0.008880615234375
1772639205888729600,8.7637294921875,-0.9870758056640625,-0.0020751953125,0.0092315673828125
1772639205898774500,8.7737744140625,-0.98809814453125,-0.001495361328125,0.010101318359375
1772639205908819700,8.78381982421875,-0.9892578125,-0.001129150390625,0.0092315673828125
1772639205918865700,8.79386572265625,-0.98699951171875,-0.0010833740234375,0.0088958740234375
1772639205928910800,8.803910888671876,-0.993621826171875,-0.001312255859375,0.008392333984375
1772639205938955800,8.813955810546876,-0.991851806640625,-0.0016937255859375,0.0092010498046875
1772639205949000700,8.824000732421876,-0.994140625,0,0.00775146484375
1772639205959045600,8.834045654296874,-0.98773193359375,0.00018310546875,0.00946044921875
