time,seconds_elapsed,z,y,x
1772639197223476500,0.0984765625,0.005328186322003603,-0.001062068622559309,-0.0021310613956302404
1772639197233521400,0.108521484375,0.0016759273130446672,-0.0041374871507287025,-0.006190517917275429
1772639197243567400,0.1185673828125,0.0018247979460284114,-0.0027561055030673742,-0.006157228257507086
1772639197253612500,0.128612548828125,0.000568052229937166,-0.004804076161235571,-0.007392934989184141
1772639197263657500,0.138657470703125,0.0020367854740470648,-0.004138552118092775,-0.005687979515641928
1772639197273702700,0.14870263671875,0.0020501012913882732,-0.0046996804885566235,-0.006366819143295288
1772639197283748600,0.15874853515625,0.0010050770360976458,-0.004102067090570927,-0.008348477073013783
1772639197293793500,0.16879345703125,0.002516420790925622,-0.0024791366886347532,-0.00646801944822073
1772639197303838500,0.17883837890625,0.0008037420338951051,-0.0041489386931061745,-0.00686163455247879
1772639197313883600,0.188883544921875,0.0013025520602241158,-0.004102599807083607,-0.007105580065399408
1772639197323928600,0.198928466796875,0.0007073355955071747,-0.002147306688129902,-0.0065441858023405075
1772639197333974500,0.208974609375,0.001970472978428006,-0.0028674255590885878,-0.005649363622069359
1772639197344019500,0.21901953125,0.0007712514488957822,-0.0028581044171005487,-0.005819273181259632
1772639197354064400,0.229064453125,0.002275404753163457,-0.0033830134198069572,-0.00809308048337698
1772639197364109600,0.239109619140625,0.0023643544409424067,-0.0029941920656710863,-0.006334594916552305
1772639197374154500,0.249154541015625,0.00022903185163158923,-0.003923901356756687,-0.005646434146910906
1772639197384200400,0.259200439453125,0.000966727442573756,-0.003171824850142002,-0.006690659560263157
1772639197394245600,0.26924560546875,0.0008178567513823509,-0.002544117858633399,-0.0065436530858278275
1772639197404290600,0.27929052734375,0.0008609999786131084,-0.0031878037843853235,-0.006685066968202591
1772639197414335500,0.28933544921875,0.001193096162751317,-0.0036599822342395782,-0.00640809815376997
1772639197424380400,0.29938037109375,0.0007022755453363061,-0.004649080336093903,-0.006893059704452753
1772639197434426600,0.309426513671875,0.002545981900766492,-0.003838414093479514,-0.006821953225880861
1772639197444471600,0.319471435546875,0.0006644586683250964,-0.0036365464329719543,-0.006415821146219969
1772639197454516500,0.3295166015625,-0.0003299656673334539,-0.002995523624122143,-0.0062858592718839645
1772639197464561400,0.3395615234375,0.0007677893154323101,-0.003347060875967145,-0.006804110016673803
1772639197474607400,0.349607421875,0.001537709147669375,-0.0036035231314599514,-0.0067846691235899925
1772639197484652500,0.359652587890625,0.004288488067686558,-0.0030900659039616585,-0.006131395697593689
1772639197494697500,0.369697509765625,0.0008101335843093693,-0.0041731735691428185,-0.006990531459450722
1772639197504742700,0.37974267578125,0.0027385284192860126,-0.005063734482973814,-0.00660463934764266
1772639197514787300,0.389787353515625,0.0032120386604219675,-0.0022650184109807014,-0.006690126843750477
1772639197524833500,0.39983349609375,0.0010626012226566672,-0.003718571737408638,-0.006689860485494137
1772639197534878500,0.40987841796875,0.0014386395923793316,-0.003011236200109124,-0.005277586169540882
1772639197544923600,0.419923583984375,0.0008471515611745417,-0.003977430984377861,-0.005208876915276051
1772639197554968600,0.429968505859375,0.001740375766530633,-0.0036597158759832382,-0.006665891967713833
1772639197565013500,0.440013427734375,0.0012535499408841133,-0.003713778220117092,-0.007102384231984615
1772639197575059500,0.4500595703125,0.0018793927738443017,-0.003774764481931925,-0.006293315906077623
1772639197585104400,0.4601044921875,0.003364904085174203,-0.003309244057163596,-0.00632021389901638
1772639197595149600,0.470149658203125,0.0021204089280217886,-0.002216282533481717,-0.006566822528839111
1772639197605194500,0.480194580078125,0.0013345100451260805,-0.0043832967057824135,-0.006666957400739193
1772639197615240400,0.490240478515625,0.0021403825376182795,-0.004580903332680464,-0.005918076727539301
1772639197625285600,0.50028564453125,0.0032525185961276293,-0.0034269557800143957,-0.006661897525191307
1772639197635330600,0.51033056640625,0.00230816169641912,-0.0031670311000198126,-0.007120760157704353
1772639197645375500,0.52037548828125,0.0020365193486213684,-0.004482632502913475,-0.006400907412171364
1772639197655420400,0.53042041015625,0.0022146848496049643,-0.004354268312454224,-0.006351639050990343
1772639197665466600,0.540466552734375,0.0019174759509041905,-0.003742273896932602,-0.006479470990598202
1772639197675511600,0.550511474609375,0.0013827132061123848,-0.002787264296784997,-0.005733252968639135
1772639197685556500,0.560556396484375,0.0011821772204712033,-0.004080228973180056,-0.006208893842995167
1772639197695601400,0.570601318359375,0.0011299792677164078,-0.0031553131993860006,-0.006105296779423952
1772639197705646600,0.580646484375,0.0017446368001401424,-0.0031164311803877354,-0.005965214688330889
1772639197715692500,0.590692626953125,0.0009004147723317146,-0.003376621985808015,-0.006303968373686075
1772639197725737500,0.600737548828125,0.001041562296450138,-0.004542021080851555,-0.007583617232739925
1772639197735782700,0.61078271484375,-0.0003249056462664157,-0.002871420234441757,-0.0072930664755403996
1772639197745826600,0.62082666015625,0.0016993631143122911,-0.0034027209039777517,-0.006687197368592024
1772639197755871500,0.63087158203125,0.001957956003025174,-0.004111920483410358,-0.00529489666223526
1772639197765917400,0.64091748046875,0.0023371900897473097,-0.0019230686593800783,-0.006903712637722492
1772639197775962600,0.650962646484375,0.0022423816844820976,-0.004251736681908369,-0.006509032100439072
1772639197786007300,0.66100732421875,0.001580053474754095,-0.003305249148979783,-0.005312473513185978
1772639197796052500,0.671052490234375,0.0015249260468408465,-0.004465055651962757,-0.006608367897570133
1772639197806098400,0.681098388671875,0.0014000238152220845,-0.0033076461404561996,-0.007655789144337177
1772639197816143600,0.6911435546875,0.0017363809747621417,-0.003907123580574989,-0.005660548806190491
1772639197826188500,0.7011884765625,0.003964648116379976,-0.0026229473296552896,-0.006584399379789829
1772639197836233700,0.711233642578125,0.0029055087361484766,-0.0030897995457053185,-0.006413424387574196
1772639197846278400,0.7212783203125,0.0015592807903885841,-0.0025331987999379635,-0.007139934692531824
1772639197856324400,0.731324462890625,0.0014628743520006537,-0.004878112114965916,-0.005875465925782919
1772639197866369500,0.74136962890625,0.0009054747642949224,-0.003209641668945551,-0.006410761270672083
1772639197876414500,0.75141455078125,0.003379285102710128,-0.0032024511601775885,-0.006214486435055733
1772639197886459600,0.761459716796875,0.0012950951931998134,-0.003409911412745714,-0.007126885466277599
1772639197896504300,0.77150439453125,0.000050866376113845035,-0.004069576505571604,-0.007049920037388802
1772639197906550500,0.781550537109375,0.0026519757229834795,-0.0032810145057737827,-0.005986253265291452
1772639197916595500,0.791595458984375,0.0024058998096734285,-0.004810201469808817,-0.00595562718808651
1772639197926640400,0.801640380859375,0.00019893812714144588,-0.003430417738854885,-0.00669358903542161
1772639197936685600,0.811685546875,0.0028365328907966614,-0.002201635157689452,-0.005547630600631237
1772639197946731500,0.8217314453125,0.0029731530230492353,-0.004743888974189758,-0.007099987473338842
1772639197956776700,0.831776611328125,0.0005576659459620714,-0.004727377090603113,-0.006666957400739193
1772639197966821400,0.8418212890625,0.000919323181733489,-0.0029060414526611567,-0.006556968670338392
1772639197976866600,0.851866455078125,0.0034051176626235247,-0.0027571707032620907,-0.0052083441987633705
1772639197986911500,0.861911376953125,0.002816559048369527,-0.006190784275531769,-0.005769472103565931
1772639197996957400,0.87195751953125,0.001463406952098012,-0.002971821464598179,-0.005209941882640123
1772639198007002600,0.882002685546875,0.0008066715090535581,-0.002525475574657321,-0.007215036079287529
1772639198017047300,0.89204736328125,0.002037051832303405,-0.0036096484400331974,-0.007726895622909069
1772639198027092500,0.902092529296875,0.0014729943359270692,-0.0033281524665653706,-0.005966546013951302
1772639198037137400,0.912137451171875,0.0015161376213654876,-0.005254683084785938,-0.0076115806587040424
1772639198047183600,0.92218359375,0.0010349043877795339,-0.003078347770497203,-0.007645402569323778
1772639198057228500,0.932228515625,0.0016314524691551924,-0.0033534523099660873,-0.006873086094856262
1772639198067273700,0.942273681640625,0.001907089608721435,-0.003035204717889428,-0.004851214122027159
1772639198077318400,0.952318359375,0.001460477476939559,-0.004837365821003914,-0.006941529456526041
1772639198087364400,0.9623642578125,0.0009190568816848099,-0.0037617150228470564,-0.0057681407779455185
1772639198097409500,0.972409423828125,-0.00037151097785681486,-0.003576359013095498,-0.006602242588996887
1772639198107454500,0.982454345703125,0.002079662401229143,-0.0036096484400331974,-0.006899185013025999
1772639198117499600,0.992499755859375,0.002086054068058729,-0.003081543603911996,-0.0059662796556949615
1772639198127544300,1.00254443359375,0.002356631215661764,-0.0046360306441783905,-0.0062826634384691715
1772639198137590500,1.012590576171875,0.001651159836910665,-0.003359045134857297,-0.004837898537516594
1772639198147635500,1.022635498046875,0.0009925601771101356,-0.0041638524271547794,-0.0058080879971385
1772639198157680400,1.032680419921875,0.0006988134700804949,-0.004655738361179829,-0.0070464578457176685
1772639198167725600,1.0427255859375,0.001933987601660192,-0.00418382603675127,-0.005055212415754795
1772639198177770500,1.0527705078125,0.00213532242923975,-0.0036602485924959183,-0.007022755686193705
1772639198187816700,1.062816650390625,0.0022980417124927044,-0.002880208659917116,-0.005948969163000584
1772639198197861400,1.072861328125,0.0016844493802636862,-0.005272792652249336,-0.006125803105533123
1772639198207906600,1.082906494140625,0.0027683558873832226,-0.003743072971701622,-0.005362540949136019
1772639198217951500,1.092951416015625,0.0014900385867804289,-0.0027289411518722773,-0.006970291491597891
1772639198227997400,1.10299755859375,0.0009297095239162445,-0.003492203075438738,-0.007125287316739559
1772639198238042600,1.113042724609375,0.0026077672373503447,-0.004087153356522322,-0.0054972972720861435
1772639198248087300,1.12308740234375,0.0013201289111748338,-0.003920439630746841,-0.007875233888626099
1772639198258132500,1.133132568359375,0.002428004052489996,-0.0036815537605434656,-0.006566822528839111
1772639198268177400,1.143177490234375,0.0011664645280689,-0.0031372036319226027,-0.0057044909335672855
1772639198278223600,1.1532236328125,0.0012921657180413604,-0.003272492438554764,-0.006616889964789152
1772639198288268500,1.1632685546875,0.0017739315517246723,-0.003519101068377495,-0.00683074165135622
1772639198298313700,1.173313720703125,0.001121457084082067,-0.003959854133427143,-0.006446980405598879
1772639198308358400,1.1833583984375,0.0022828616201877594,-0.0038368161767721176,-0.006674148142337799
1772639198318403600,1.193403564453125,0.0016418388113379478,-0.005283178761601448,-0.0049614692106842995
1772639198328449500,1.203449462890625,0.002400573343038559,-0.0037199032958596945,-0.006399309728294611
1772639198338494500,1.213494384765625,0.0010644654976204038,-0.004192081745713949,-0.00806112214922905
1772639198348539600,1.22353955078125,0.0021877868566662073,-0.003400856629014015,-0.007113303057849407
1772639198358584300,1.233584228515625,0.0010546117555350065,-0.003995274193584919,-0.007272293791174889
1772639198368630500,1.243630615234375,0.002799248555675149,-0.0032139027025550604,-0.006984139792621136
1772639198378675500,1.253675537109375,0.001222390914335847,-0.0023992417845875025,-0.007821171544492245
1772639198388720600,1.263720703125,0.0016607472207397223,-0.004406732507050037,-0.006971622817218304
1772639198398765600,1.273765625,0.0008633967954665422,-0.0024056334514170885,-0.0065106297843158245
1772639198408810500,1.283810546875,0.001222390914335847,-0.003478088416159153,-0.007795871235430241
1772639198418856700,1.293856689453125,0.002579005202278495,-0.0032117723021656275,-0.006052033510059118
1772639198428901400,1.3039013671875,0.0016666061710566282,-0.004299940075725317,-0.005853894166648388
1772639198438946600,1.313946533203125,0.002569417702034116,-0.0033859428949654102,-0.006439789664000273
1772639198448991500,1.323991455078125,0.0025683525018393993,-0.0043891556560993195,-0.007730357814580202
1772639198459036700,1.33403662109375,0.002487925114110112,-0.004085022956132889,-0.006902913562953472
1772639198469082600,1.34408251953125,0.0013430321123450994,-0.003951864782720804,-0.007319165393710136
1772639198479127300,1.354127197265625,0.001058872789144516,-0.005240035708993673,-0.006383330561220646
1772639198489172500,1.36417236328125,0.0026908579748123884,-0.0041492050513625145,-0.006837399676442146
1772639198499217400,1.374217529296875,0.00199284334667027,-0.0031489215325564146,-0.007919175550341606
1772639198509263600,1.384263671875,0.0016953683225437999,-0.004006459377706051,-0.006055229343473911
1772639198519308500,1.39430859375,0.0032439965289086103,-0.0038219024427235126,-0.006457366514950991
1772639198529353700,1.404353759765625,0.0022626216523349285,-0.003561178920790553,-0.0060083577409386635
1772639198539398400,1.4143984375,0.0010237190872430801,-0.0037830201908946037,-0.006140716839581728
1772639198549443600,1.424443603515625,0.0010104032699018717,-0.0038599856197834015,-0.00803289283066988
1772639198559489500,1.434489501953125,0.0023076289799064398,-0.0023433153983205557,-0.005155613645911217
1772639198569534500,1.444534423828125,0.0010626012226566672,-0.003919906914234161,-0.007120760157704353
1772639198579579600,1.45457958984375,0.0016919062472879887,-0.0037145770620554686,-0.005835785064846277
1772639198589624300,1.464624267578125,0.0028032432310283184,-0.003939614165574312,-0.006381999235600233
1772639198599669500,1.47466943359375,0.0020663465838879347,-0.003921504598110914,-0.005331115797162056
1772639198609715500,1.484715576171875,0.0021811288315802813,-0.003471164032816887,-0.007980162277817726
1772639198619760600,1.4947607421875,0.0010839065071195364,-0.0028306739404797554,-0.006579872220754623
1772639198629805600,1.5048056640625,0.0008005462004803121,-0.005049353465437889,-0.0059662796556949615
1772639198639850500,1.5148505859375,0.0007835020078346133,-0.0037145770620554686,-0.005140433553606272
1772639198649896700,1.524896728515625,0.002493517706170678,-0.004463191609829664,-0.006551642436534166
1772639198659941400,1.53494140625,0.0007861651247367263,-0.0036400086246430874,-0.006107427179813385
1772639198669986600,1.544986572265625,0.0032567796297371387,-0.002921221312135458,-0.006522081326693296
1772639198680031500,1.555031494140625,0.0023105584550648928,-0.0026876621413975954,-0.0067694890312850475
1772639198690076700,1.56507666015625,-0.000010918960470007733,-0.0036301547661423683,-0.006747118663042784
1772639198700122600,1.57512255859375,0.002115348819643259,-0.0065345983020961285,-0.00592686515301466
1772639198710167300,1.585167236328125,0.001207743538543582,-0.0041364217177033424,-0.006858172360807657
1772639198720212500,1.59521240234375,0.0020538298413157463,-0.002766491612419486,-0.005430984310805798
1772639198730257400,1.60525732421875,0.001990446588024497,-0.0023220102302730083,-0.005764145869761705
1772639198740302600,1.615302490234375,0.0007531419396400452,-0.004467719234526157,-0.005475192796438932
1772639198750349300,1.625349365234375,0.0017291904659941792,-0.004465322010219097,-0.006508499383926392
1772639198760394200,1.635394287109375,0.001680987305007875,-0.003344397759065032,-0.005614209920167923
1772639198770439200,1.645439208984375,0.0017156084068119526,-0.004090082831680775,-0.006672816351056099
1772639198780484000,1.655484130859375,0.000245543458731845,-0.004024835303425789,-0.006326339207589626
1772639198790530300,1.6655302734375,0.001264735241420567,-0.004769721534103155,-0.005818474106490612
1772639198800575200,1.6755751953125,0.001912948559038341,-0.0033774208277463913,-0.0049215215258300304
1772639198810620400,1.685620361328125,0.0007193197961896658,-0.003306314582005143,-0.00839614775031805
1772639198820665300,1.695665283203125,0.0007038734620437026,-0.002496713539585471,-0.006967628374695778
1772639198830710300,1.705710205078125,0.001722798915579915,-0.004196875728666782,-0.006929545197635889
1772639198840756200,1.715756103515625,0.0019361181184649467,-0.0034820830915123224,-0.005275988485664129
1772639198850801200,1.72580126953125,0.0021084246691316366,-0.0043739755637943745,-0.005637645721435547
1772639198860846300,1.735846435546875,0.0022064289078116417,-0.0031550468411296606,-0.0063210129737854
1772639198870891300,1.745891357421875,0.001070857048034668,-0.00612287363037467,-0.006201170384883881
1772639198880936200,1.755936279296875,0.0019030949333682656,-0.0037673076149076223,-0.00621182331815362
1772639198890982100,1.765982177734375,0.002419215627014637,-0.003650128608569503,-0.007050186395645142
1772639198901027300,1.77602734375,0.003459712490439415,-0.0019121496006846428,-0.006056561134755611
1772639198911072300,1.786072265625,0.0031047132797539234,-0.00333134806714952,-0.008285626769065857
1772639198921117200,1.7961171875,0.002596848411485553,-0.003829092951491475,-0.0062943813391029835
1772639198931162400,1.806162353515625,0.0017598168924450874,-0.003552656853571534,-0.006305832881480455
1772639198941208300,1.816208251953125,0.002701510675251484,-0.0037590519059449434,-0.006846720818430185
1772639198951253200,1.826253173828125,0.003613909473642707,-0.0027545075863599777,-0.006158826407045126
1772639198961298200,1.836298095703125,0.002560895634815097,-0.0035305526107549667,-0.007041664328426123
1772639198971343400,1.84634326171875,0.001913214917294681,-0.0049132658168673515,-0.007770038675516844
1772639198981389300,1.856389404296875,0.0003832288784906268,-0.0046847667545080185,-0.007573497481644154
1772639198991434200,1.866434326171875,0.000809068325906992,-0.003748399205505848,-0.006536995060741901
1772639199001479200,1.876479248046875,0.00034727618913166225,-0.004066380672156811,-0.0062371231615543365
1772639199011524000,1.886524169921875,0.003862382611259818,-0.0034410704392939806,-0.007238738238811493
1772639199021569300,1.8965693359375,0.00005805691034765914,-0.0036037894897162914,-0.0054509579204022884
1772639199031615200,1.906615234375,0.0023097596131265163,-0.0032320122700184584,-0.007208644412457943
1772639199041660400,1.916660400390625,0.000696150294970721,-0.004289287142455578,-0.007282946724444628
1772639199051705300,1.926705322265625,0.0018125474452972412,-0.00350365461781621,-0.006141782272607088
1772639199061750300,1.936750244140625,0.002758768619969487,-0.0024282701779156923,-0.005278917960822582
1772639199071795200,1.946795166015625,0.0014679343439638615,-0.003936418332159519,-0.006309028714895248
1772639199081841200,1.956841064453125,0.0034080471377819777,-0.0033156354911625385,-0.006442452780902386
1772639199091886300,1.96688623046875,0.0023105584550648928,-0.004864530172199011,-0.006917294580489397
1772639199101931300,1.97693115234375,-0.0006511429091915488,-0.003953995183110237,-0.008971390314400196
1772639199111976200,1.98697607421875,0.0014045510906726122,-0.004965996369719505,-0.006875482853502035
1772639199122022100,1.997022216796875,-0.000672181835398078,-0.0024525050539523363,-0.0054850466549396515
1772639199132067300,2.0070673828125,0.0020485036075115204,-0.0034703651908785105,-0.0070248860865831375
1772639199142112300,2.0171123046875,0.0025161546654999256,-0.004554538056254387,-0.0073295519687235355
1772639199152157200,2.0271572265625,0.0026373283471912146,-0.004168645944446325,-0.006358030717819929
1772639199162202400,2.037202392578125,0.0003677825443446636,-0.004381699021905661,-0.006398244295269251
1772639199172248300,2.047248291015625,0.0018194715958088636,-0.002769953804090619,-0.007556453347206116
1772639199182293200,2.057293212890625,0.0011323761427775025,-0.003771835006773472,-0.0065316688269376755
1772639199192338200,2.067338134765625,0.0010045443195849657,-0.002796585438773036,-0.005654956214129925
1772639199202383400,2.07738330078125,-0.0005201153689995408,-0.0031438616570085287,-0.006172941066324711
1772639199212428300,2.08742822265625,0.000847950461320579,-0.004145476501435041,-0.00743234995752573
1772639199222474200,2.09747412109375,0.004878911189734936,-0.004084756597876549,-0.0078102522529661655
1772639199232519200,2.107519287109375,0.001079911831766367,-0.003367833560332656,-0.006966030225157738
1772639199242564000,2.117564208984375,0.0011182613670825958,-0.003970240708440542,-0.006434197071939707
1772639199252609300,2.127609375,0.0027081684675067663,-0.0036163064651191235,-0.0057444386184215546
1772639199262655200,2.1376552734375,0.0009302421822212636,-0.004177168011665344,-0.0062248725444078445
1772639199272700400,2.147700439453125,0.0013888385146856308,-0.003457049373537302,-0.006272543221712112
1772639199282745300,2.157745361328125,0.0023281353060156107,-0.00472657848149538,-0.006673615425825119
1772639199292790300,2.167790283203125,0.0019001654582098126,-0.002787264296784997,-0.0075689698569476604
1772639199302835200,2.177835205078125,0.0016269250772893429,-0.0029800771735608578,-0.004699147772043943
1772639199312881200,2.187881103515625,-0.0007920240750536323,-0.0032658344134688377,-0.006710100453346968
1772639199322926300,2.19792626953125,0.0002623213513288647,-0.003721501212567091,-0.007188670802861452
1772639199332971300,2.20797119140625,0.0015419702976942062,-0.004537493921816349,-0.00714632635936141
1772639199343016200,2.21801611328125,0.0008868326549418271,-0.004041879437863827,-0.004967061802744865
1772639199353061000,2.22806103515625,0.002895122393965721,-0.004229366313666105,-0.00652714166790247
1772639199363107300,2.238107421875,-0.000031425301131093875,-0.003762780223041773,-0.00544323492795229
1772639199373152300,2.24815234375,0.0037257622461766005,-0.004328435752540827,-0.005667206831276417
1772639199383197200,2.258197265625,0.0028964539524167776,-0.003412574529647827,-0.006284793838858604
1772639199393242400,2.268242431640625,0.0009989517275243998,-0.004766259342432022,-0.006771353539079428
1772639199403288300,2.278288330078125,0.0008602010202594101,-0.003951065707951784,-0.007812915369868279
1772639199413333200,2.288333251953125,0.00037257623625919223,-0.002924417145550251,-0.008185758255422115
1772639199423378200,2.298378173828125,0.001654089312069118,-0.004421912599354982,-0.006828611250966787
1772639199433423400,2.30842333984375,0.0023182816803455353,-0.0032735576387494802,-0.006385461427271366
1772639199443468300,2.31846826171875,0.0013491574209183455,-0.002653573639690876,-0.007253385614603758
1772639199453514200,2.32851416015625,0.002683933824300766,-0.0038831550627946854,-0.007841943763196468
1772639199463559200,2.33855908203125,0.0025739450938999653,-0.0026972496416419744,-0.006911968346685171
1772639199473604000,2.34860400390625,0.0010636665392667055,-0.004335892386734486,-0.007450725883245468
1772639199483649300,2.358649169921875,0.0016077503096312284,-0.0016735304379835725,-0.008255266584455967
1772639199493694200,2.368694091796875,0.0007262440049089491,-0.0043955473229289055,-0.006274673622101545
1772639199503740400,2.378740478515625,0.0009928264189511538,-0.0039039277471601963,-0.007151918951421976
1772639199513785300,2.388785400390625,0.0023339942563325167,-0.004503671545535326,-0.007041664328426123
1772639199523830300,2.398830322265625,0.0008498146780766547,-0.004512193612754345,-0.006479470990598202
1772639199533875200,2.408875244140625,0.001065264455974102,-0.00276116537861526,-0.006843524985015392
1772639199543921200,2.418921142578125,0.002439455594867468,-0.003853061469271779,-0.006274673622101545
1772639199553966300,2.42896630859375,0.0007294398383237422,-0.0032293491531163454,-0.007799599785357714
1772639199564011300,2.43901123046875,0.00023276027059182525,-0.005094626918435097,-0.006592122372239828
1772639199574056200,2.44905615234375,0.0014032195322215557,-0.0032509206794202328,-0.005612345412373543
1772639199584101000,2.45910107421875,0.001136370818130672,-0.003969175275415182,-0.0051718587055802345
1772639199594147300,2.469147216796875,0.0023073628544807434,-0.0028032432310283184,-0.0065292720682919025
1772639199604192300,2.479192138671875,0.0017747305100783706,-0.004054662771522999,-0.0059598879888653755
1772639199614237200,2.4892373046875,0.001710814656689763,-0.004513259045779705,-0.006243514828383923
1772639199624282400,2.499282470703125,0.0005387574783526361,-0.0034264230635017157,-0.007253385614603758
1772639199634327300,2.509327392578125,0.002847185591235757,-0.004487692844122648,-0.006342051550745964
1772639199644373200,2.519373291015625,0.002805906580761075,-0.0038535939529538155,-0.006654440425336361
1772639199654418200,2.529418212890625,0.0015387744642794132,-0.004442152567207813,-0.007448861375451088
1772639199664463400,2.53946337890625,0.0004980111261829734,-0.0035537220537662506,-0.006061887368559837
1772639199674508300,2.54950830078125,0.0007214503129944205,-0.004453071393072605,-0.006855775602161884
1772639199684554200,2.55955419921875,0.002011219272390008,-0.00436145905405283,-0.007255782373249531
1772639199694599200,2.56959912109375,0.0007680556736886501,-0.004614459350705147,-0.00541314110159874
1772639199704644000,2.57964404296875,0.0015622102655470371,-0.004394215997308493,-0.005542837083339691
1772639199714689300,2.589689208984375,0.002581668319180608,-0.005140699911862612,-0.0064983791671693325
1772639199724734200,2.599734130859375,0.002027997048571706,-0.004740426782518625,-0.006718888878822327
1772639199734780400,2.609780517578125,0.0007302387384697795,-0.004263720940798521,-0.0070491209626197815
1772639199744825300,2.619825439453125,0.0010005496442317963,-0.004611263517290354,-0.007429686840623617
1772639199754869500,2.629869384765625,0.002246642718091607,-0.00472444761544466,-0.00643792562186718
1772639199764914400,2.63991455078125,0.0026429209392517805,-0.0034551850985735655,-0.007196393795311451
1772639199774959600,2.649959716796875,0.0016562198288738728,-0.0027150926180183887,-0.006439523305743933
1772639199785005600,2.660005615234375,0.002145176287740469,-0.004448277875781059,-0.00854635052382946
1772639199795050500,2.670050537109375,0.0021499700378626585,-0.003204581793397665,-0.00683233980089426
1772639199805095400,2.680095458984375,0.0030304109677672386,-0.004220843780785799,-0.005660016089677811
1772639199815140600,2.690140625,0.002947586588561535,-0.002764893928542733,-0.007137005217373371
1772639199825186600,2.7001865234375,0.00020346550445538014,-0.004206729121506214,-0.006503705866634846
1772639199835231500,2.7102314453125,0.0014631407102569938,-0.004334294702857733,-0.0062544336542487144
1772639199845276700,2.720276611328125,0.002924417145550251,-0.005008340813219547,-0.00703793577849865
1772639199855321300,2.7303212890625,0.0002724413643591106,-0.004956675227731466,-0.0057676080614328384
1772639199865366500,2.740366455078125,0.0017409083666279912,-0.003209908027201891,-0.0080898841843009
1772639199875412500,2.75041259765625,0.0024349282030016184,-0.003314037574455142,-0.005939914379268885
1772639199885457400,2.76045751953125,0.0005616606795229018,-0.0023190807551145554,-0.00660410663112998
1772639199895502600,2.770502685546875,0.0024557008873671293,-0.003602457931265235,-0.006946056615561247
1772639199905547500,2.780547607421875,0.0019473034190014005,-0.0024431839119642973,-0.00552259711548686
1772639199915592400,2.790592529296875,0.0013646037550643086,-0.0035113778430968523,-0.006508765742182732
1772639199925638400,2.800638427734375,0.0029385320376604795,-0.005434180144220591,-0.0073596457950770855
1772639199935683600,2.81068359375,0.0024833977222442627,-0.003230680711567402,-0.007809187285602093
1772639199945728500,2.820728515625,0.0014969628537073731,-0.0033939324785023928,-0.005546565633267164
1772639199955773700,2.830773681640625,0.0016088156262412667,-0.003662112867459655,-0.0057678744196891785
1772639199965819600,2.840819580078125,0.0014948323369026184,-0.004318315535783768,-0.005810751114040613
1772639199975864300,2.8508642578125,0.001529187080450356,-0.0028333370573818684,-0.0059628174640238285
1772639199985909500,2.860909423828125,0.0017382452497258782,-0.0035302862524986267,-0.007158044259995222
1772639199995954400,2.870954345703125,0.0007115966291166842,-0.0038685076870024204,-0.007269630674272776
1772639200005999600,2.88099951171875,0.001826662220992148,-0.004650145769119263,-0.007513842545449734
1772639200016045600,2.891045654296875,0.002469016704708338,-0.005030977539718151,-0.005579056218266487
1772639200026090500,2.901090576171875,0.001279382617212832,-0.0035454663448035717,-0.006342317909002304
1772639200036135400,2.911135498046875,0.0020532971248030663,-0.0034908715169876814,-0.006200638134032488
1772639200046180600,2.9211806640625,0.0015251922886818647,-0.004223241005092859,-0.00700810831040144
1772639200056225500,2.9312255859375,0.003156644757837057,-0.0038892803713679314,-0.0062634884379804134
1772639200066271500,2.941271484375,0.0015635418239980936,-0.0036818201187998056,-0.007682420779019594
1772639200076316700,2.951316650390625,0.001496430253610015,-0.0038304245099425316,-0.007790012285113335
1772639200086361300,2.961361328125,0.0016221314435824752,-0.0025515747256577015,-0.007369765546172857
1772639200096406500,2.971406494140625,0.0007488809060305357,-0.004453604109585285,-0.00606508320197463
1772639200106452500,2.981452392578125,0.0010823087068274617,-0.004627508576959372,-0.007251254748553038
1772639200116497400,2.991497314453125,0.0019497001776471734,-0.0043867588974535465,-0.00755112711340189
1772639200126542600,3.00154248046875,0.0014660701854154468,-0.0029728866647928953,-0.006874151527881622
1772639200136587500,3.01158740234375,0.0007741809240542352,-0.004521781112998724,-0.0052200620993971825
1772639200146632400,3.021632568359375,0.001113201375119388,-0.0028852687682956457,-0.006736998446285725
1772639200156678400,3.031678466796875,0.001107076066546142,-0.0038101845420897007,-0.006928746122866869
1772639200166723600,3.0417236328125,0.0007504787645302713,-0.0036751623265445232,-0.006586529780179262
1772639200176768500,3.0517685546875,0.003352387109771371,-0.00336170825175941,-0.0073226275853812695
1772639200186813700,3.061813720703125,0.003079146845266223,-0.004346811678260565,-0.00634791050106287
1772639200196858400,3.0718583984375,0.001106809708289802,-0.002804841147735715,-0.009351423941552639
1772639200206904300,3.081904296875,0.0008609999786131084,-0.002624811604619026,-0.00680171325802803
1772639200216949500,3.091949462890625,0.0026732811238616705,-0.003811782458797097,-0.005286374595016241
1772639200226994400,3.101994384765625,0.00310577847994864,-0.004683701321482658,-0.005204349290579557
1772639200237039600,3.11203955078125,0.0030298782512545586,-0.0036658411845564842,-0.0062333946116268635
1772639200247085600,3.12208544921875,0.003145193215459585,-0.004445614758878946,-0.006940996740013361
1772639200257130500,3.132130615234375,-0.000570981705095619,-0.004762797150760889,-0.006883738562464714
1772639200267175400,3.142175537109375,0.0007499461644329131,-0.002968092914670706,-0.007653658743947744
1772639200277220600,3.152220703125,0.0004266384057700634,-0.0034647725988179445,-0.006198240909725428
1772639200287265500,3.162265625,-0.00029534456552937627,-0.004775314126163721,-0.006674148142337799
1772639200297311500,3.1723115234375,0.001178182428702712,-0.0031033814884722233,-0.007714911364018917
1772639200307356700,3.182356689453125,0.0013065468519926071,-0.004519117996096611,-0.0067575047723948956
1772639200317401300,3.1924013671875,0.0008751147543080151,-0.0030831415206193924,-0.0057313889265060425
1772639200327446500,3.202446533203125,0.0015715312911197543,-0.0035430695861577988,-0.005976399872452021
1772639200337491500,3.212491455078125,0.0027955202385783195,-0.0012551478575915098,-0.0062248725444078445
1772639200347537400,3.222537353515625,0.0011385013349354267,-0.003913248889148235,-0.007479487918317318
1772639200357582600,3.23258251953125,0.0014524880098178983,-0.003837881376966834,-0.006829410325735807
1772639200367627500,3.24262744140625,0.002698048483580351,-0.0028415927663445473,-0.007194263394922018
1772639200377672400,3.25267236328125,0.0010258496040478349,-0.004070375580340624,-0.006966030225157738
1772639200387718400,3.262718505859375,0.0040978058241307735,-0.003662645351141691,-0.007779359817504883
1772639200397763600,3.272763671875,0.0007355650886893272,-0.003638677066192031,-0.0054336474277079105
1772639200407808500,3.28280859375,0.002822950715199113,-0.003954261541366577,-0.0046882289461791515
1772639200417853700,3.292853759765625,0.0018524948973208666,-0.003468500915914774,-0.005440838169306517
1772639200427898400,3.3028984375,0.002183259464800358,-0.003168895374983549,-0.0064922538585960865
1772639200437944300,3.3129443359375,0.0013917679898440838,-0.0036171053070575,-0.005284776911139488
1772639200447989500,3.322989501953125,0.0035838158801198006,-0.004975583869963884,-0.006965497974306345
1772639200458034400,3.333034423828125,0.00010892329009948298,-0.0037982002831995487,-0.006387059111148119
1772639200468079600,3.34307958984375,0.002852511825039983,-0.004878644831478596,-0.006074936594814062
1772639200478124500,3.35312451171875,0.0015510249650105834,-0.0032461269292980433,-0.00558278476819396
1772639200488170500,3.36317041015625,0.001689509372226894,-0.00478410255163908,-0.005534048657864332
1772639200498215400,3.37321533203125,0.0011203918838873506,-0.0032381375785917044,-0.0062762717716395855
1772639200508260600,3.383260498046875,0.0012743226252496243,-0.0030365362763404846,-0.006666957400739193
1772639200518305500,3.393305419921875,0.002484462922438979,-0.003970240708440542,-0.008129299618303776
1772639200528351500,3.4033515625,0.0012394351651892066,-0.0032522522378712893,-0.006168147549033165
1772639200538396700,3.413396728515625,0.003406715579330921,-0.003233876544982195,-0.006636330857872963
1772639200548441300,3.42344140625,0.00046924897469580173,-0.0031491878908127546,-0.007982026785612106
1772639200558486500,3.433486572265625,0.002409894485026598,-0.003373692510649562,-0.006480802316218615
1772639200568531500,3.443531494140625,0.0009174589649774134,-0.003948668949306011,-0.006167348474264145
1772639200578577400,3.453577392578125,0.0019504991360008717,-0.0032266860362142324,-0.005830192007124424
1772639200588622600,3.46362255859375,0.0029137644451111555,-0.003337739733979106,-0.008478972129523754
1772639200598667500,3.47366748046875,0.0014168017078191042,-0.0038165762089192867,-0.004991562571376562
1772639200608712400,3.48371240234375,0.0011805793037638068,-0.0035808864049613476,-0.006888266187161207
1772639200618757400,3.49375732421875,0.0015686018159613013,-0.004000334069132805,-0.005331914871931076
1772639200628803600,3.503803466796875,0.002311357529833913,-0.004032824654132128,-0.006448311731219292
1772639200638848500,3.5138486328125,0.002286856295540929,-0.003584881080314517,-0.0060118199326097965
1772639200648893700,3.523893798828125,0.0037643781397491693,-0.002304699504747987,-0.0060115535743534565
1772639200658938400,3.5339384765625,0.0019078885670751333,-0.004204598721116781,-0.006274407263845205
1772639200668984300,3.543984375,0.0019795275293290615,-0.005210474599152803,-0.007625162601470947
1772639200679029500,3.554029541015625,-0.0004218447138555348,-0.005402222275733948,-0.006924218963831663
1772639200689074400,3.564074462890625,-0.00038988678716123104,-0.0035228293854743242,-0.00640756543725729
1772639200699119600,3.57411962890625,0.0009675264009274542,-0.004014449194073677,-0.006809703074395657
1772639200709164500,3.58416455078125,0.0019409117521718144,-0.0037923413328826427,-0.005566006526350975
1772639200719210800,3.594210693359375,0.0013020194601267576,-0.0023843280505388975,-0.006434729788452387
1772639200729255400,3.60425537109375,0.00141041015740484,-0.004796619527041912,-0.004947354551404715
1772639200739300600,3.614300537109375,0.002269812161102891,-0.004480502102524042,-0.00487092137336731
1772639200749346000,3.624345947265625,-0.00018242653459310532,-0.0037294907961040735,-0.006963633466511965
1772639200759391000,3.634390869140625,0.0020652813836932182,-0.004570783115923405,-0.007327953819185495
1772639200769437200,3.644437255859375,0.0017321199411526322,-0.002909769769757986,-0.00800253264605999
1772639200779482000,3.654482177734375,0.0019142802339047194,-0.0038812910206615925,-0.006569219287484884
1772639200789527000,3.664527099609375,0.001913214917294681,-0.0036171053070575,-0.008473912253975868
1772639200799572000,3.674572021484375,0.0006468818173743784,-0.004742823541164398,-0.005419000051915646
1772639200809618000,3.684617919921875,0.0005083974683657289,-0.004341751337051392,-0.0073745595291256905
1772639200819663000,3.6946630859375,0.00011158645065734163,-0.004190484061837196,-0.006405435036867857
1772639200829708000,3.7047080078125,0.0008311725687235594,-0.003369697602465749,-0.005352687556296587
1772639200839753000,3.7147529296875,0.0018247979460284114,-0.003704723436385393,-0.007482151035219431
1772639200849798000,3.7247978515625,0.001127582392655313,-0.004546548705548048,-0.006157228257507086
1772639200859844000,3.734843994140625,-0.00003222424857085571,-0.0027715517207980156,-0.0073106433264911175
1772639200869889000,3.744888916015625,0.002207760466262698,-0.005563609767705202,-0.0059686764143407345
1772639200879934000,3.754933837890625,0.0010165285784751177,-0.0059929112903773785,-0.006132461130619049
1772639200889979100,3.764979248046875,0.0017012272728607059,-0.002936135046184063,-0.006600378546863794
1772639200900025000,3.775025146484375,0.001121989800594747,-0.005269596818834543,-0.007784419693052769
1772639200910070000,3.785070068359375,0.001427720650099218,-0.0035515916533768177,-0.0060445768758654594
1772639200920115000,3.795114990234375,0.0014170679496601224,-0.005608350969851017,-0.006044842768460512
1772639200930160000,3.80516015625,0.0012482235906645656,-0.0021435783710330725,-0.007458981592208147
1772639200940205000,3.815205078125,0.0014165353495627642,-0.0049343048594892025,-0.006514891050755978
1772639200950251000,3.8252509765625,0.0025750105269253254,-0.0026407905388623476,-0.0065681543201208115
1772639200960296000,3.8352958984375,0.0014631407102569938,-0.003936151973903179,-0.00743208359926939
1772639200970340900,3.8453408203125,0.0013169331941753626,-0.0035353463608771563,-0.007486145943403244
1772639200980386000,3.855385986328125,0.0014202637830749154,-0.003593935864046216,-0.00686136819422245
1772639200990431000,3.865430908203125,0.0006005428149364889,-0.004189152270555496,-0.006357498001307249
1772639201000477200,3.875477294921875,0.001067661214619875,-0.004537493921816349,-0.0067226174287498
1772639201010522000,3.885522216796875,0.00221974472515285,-0.0036506610922515392,-0.006943659856915474
1772639201020567000,3.895567138671875,0.0012186624808236957,-0.0041643851436674595,-0.005822202656418085
1772639201030612000,3.905612060546875,0.0007222492713481188,-0.00256355875171721,-0.006999586243182421
1772639201040658000,3.915657958984375,0.0025648903101682663,-0.0029787456151098013,-0.005861617624759674
1772639201050703000,3.925703125,0.0020413128659129143,-0.0028578380588442087,-0.007135407533496618
1772639201060748000,3.935748046875,0.001955026527866721,-0.004319913685321808,-0.008420648984611034
1772639201070793000,3.94579296875,0.0016306535108014941,-0.003982757218182087,-0.007500526960939169
1772639201080838000,3.955837890625,0.0028599686920642853,-0.004092479590326548,-0.006395314820110798
1772639201090884000,3.965884033203125,0.0011504855938255787,-0.00424374733120203,-0.004763596225529909
1772639201100929000,3.975928955078125,0.0014761901693418622,-0.004354801028966904,-0.004894357640296221
1772639201110974000,3.985973876953125,0.0013369068037718534,-0.0046842340379953384,-0.00552312983199954
1772639201121019100,3.99601904296875,0.0006064017652533948,-0.0025007082149386406,-0.006195844151079655
1772639201131064000,4.00606396484375,0.0006985471700318158,-0.003412574529647827,-0.0037020600866526365
1772639201141110000,4.016110107421875,0.004189684987068176,-0.0038717035204172134,-0.0057313889265060425
1772639201151155000,4.026155029296875,0.000291616132017225,-0.0029342707712203264,-0.005685582756996155
1772639201161200000,4.0362001953125,0.001998702296987176,-0.004794755019247532,-0.0065444521605968475
1772639201171245000,4.0462451171875,0.0015036207623779774,-0.003596332622691989,-0.005890113301575184
1772639201181291000,4.056291015625,0.0024445154704153538,-0.003719370812177658,-0.006332730874419212
1772639201191336000,4.0663359375,0.0008847020799294114,-0.004598213825374842,-0.0065465825609862804
1772639201201380900,4.076380859375,0.00012436961696948856,-0.003922836389392614,-0.006725546903908253
1772639201211426000,4.086426025390625,0.0003635214816313237,-0.003710049670189619,-0.006117281038314104
1772639201221471000,4.096470947265625,0.0013792511308565736,-0.004526575095951557,-0.007104248274117708
1772639201231517200,4.10651708984375,0.0018455706303939223,-0.0024977787397801876,-0.005682120565325022
1772639201241562000,4.11656201171875,0.0016551546286791563,-0.004358795937150717,-0.0070131681859493256
1772639201251607000,4.12660693359375,0.00032091091270558536,-0.004860801622271538,-0.0054541537538170815
1772639201261652000,4.13665185546875,0.001630120910704136,-0.003973702434450388,-0.005225121974945068
1772639201271697200,4.146697265625,0.000598145998083055,-0.00395799009129405,-0.006435262504965067
1772639201281743000,4.1567431640625,0.0013917679898440838,-0.003561178920790553,-0.006596649996936321
1772639201291788000,4.1667880859375,0.0024085629265755415,-0.00333134806714952,-0.005811017472296953
1772639201301833000,4.1768330078125,-0.00037044569035060704,-0.003899666713550687,-0.006573746912181377
1772639201311878000,4.1868779296875,0.0002948119363281876,-0.0041153826750814915,-0.005965214688330889
1772639201321924000,4.196924072265625,0.0017973673529922962,-0.004090082831680775,-0.0068419273011386395
1772639201331969000,4.206968994140625,0.00048416267964057624,-0.004275705199688673,-0.005233644042164087
1772639201342014000,4.217013916015625,-0.0001917476038215682,-0.005507949739694595,-0.006891462020576
1772639201352059100,4.22705908203125,0.0018961706664413214,-0.005682120565325022,-0.005453088786453009
1772639201362104000,4.23710400390625,0.0022152173332870007,-0.0044381581246852875,-0.005556951742619276
1772639201372150000,4.24714990234375,0.0025414545089006424,-0.0026498453225940466,-0.005105279851704836
1772639201382195000,4.25719482421875,0.002061553066596389,-0.003291400847956538,-0.007361509837210178
1772639201392240000,4.267240234375,0.0025249430909752846,-0.0030980552546679974,-0.005175587255507708
1772639201402285000,4.27728515625,0.0021941782906651497,-0.0036250948905944824,-0.007207046262919903
1772639201412330000,4.287330078125,0.0017917747609317303,-0.005672000348567963,-0.0064773401245474815
1772639201422376000,4.2973759765625,-0.00016484966909047216,-0.004550543148070574,-0.007369765546172857
1772639201432420900,4.3074208984375,0.0007627293234691024,-0.005015264730900526,-0.005653358530253172
1772639201442466000,4.317466064453125,0.002409361768513918,-0.004851480480283499,-0.006302104331552982
1772639201452511000,4.327510986328125,0.0032959282398223877,-0.0037230991292744875,-0.006690925918519497
1772639201462557200,4.33755712890625,0.0008106662426143885,-0.0037822213489562273,-0.004834969062358141
1772639201472602000,4.34760205078125,0.0013283847365528345,-0.0028477180749177933,-0.006720753386616707
1772639201482647000,4.35764697265625,0.0017214673571288586,-0.004607002250850201,-0.006298908498138189
1772639201492692000,4.36769189453125,0.0013451626291498542,-0.0036245621740818024,-0.005768673028796911
1772639201502737200,4.377737060546875,0.0025835325941443443,-0.0041822283528745174,-0.008328503929078579
1772639201512783000,4.387783203125,0.003023486817255616,-0.003512975759804249,-0.006399576086550951
1772639201522828000,4.397828125,0.0023015039041638374,-0.003510046284645796,-0.007953796535730362
1772639201532873000,4.407873046875,0.0034346787724643946,-0.0033071134239435196,-0.005181446205824614
1772639201542918000,4.41791796875,0.0011909656459465623,-0.003995007835328579,-0.005614209920167923
1772639201552963000,4.427963134765625,0.0017925737192854285,-0.004465854726731777,-0.007111705373972654
1772639201563009000,4.438009033203125,0.0033505228348076344,-0.003704457078129053,-0.007740477565675974
1772639201573054000,4.448053955078125,0.0004159857635386288,-0.002561694709584117,-0.00589517317712307
1772639201583099100,4.45809912109375,0.0017986990278586745,-0.0037374801468104124,-0.006945523899048567
1772639201593144000,4.46814404296875,0.00261788722127676,-0.004820055328309536,-0.007188937161117792
1772639201603190000,4.47818994140625,0.0006532734259963036,-0.004037884995341301,-0.006883472204208374
1772639201613235000,4.48823486328125,0.0014405038673430681,-0.004063451196998358,-0.007450193166732788
1772639201623280000,4.498280029296875,-0.00022184131375979632,-0.004896754398941994,-0.006821686867624521
1772639201633325000,4.508324951171875,0.0018871158827096224,-0.004521248396486044,-0.006098372396081686
1772639201643370000,4.518369873046875,0.0028389296494424343,-0.0049012815579771996,-0.005620068870484829
1772639201653416000,4.528416015625,0.0023118900135159492,-0.004591289907693863,-0.005234709475189447
1772639201663460900,4.5384609375,0.001877262257039547,-0.005079979542642832,-0.00649704784154892
1772639201673506000,4.548506103515625,0.003011236200109124,-0.0038301581516861916,-0.005903429351747036
1772639201683551000,4.558551025390625,0.0010964233661070466,-0.004341219086199999,-0.005981726106256247
1772639201693596200,4.56859619140625,0.0010735202813521028,-0.003233610186725855,-0.008012918755412102
1772639201703642000,4.57864208984375,0.0005808354471810162,-0.002636529505252838,-0.006520483642816544
1772639201713687000,4.58868701171875,0.0012181298807263374,-0.002633866388350725,-0.006010221783071756
1772639201723732000,4.59873193359375,0.0025300029665231705,-0.0027744811959564686,-0.0062584285624325275
1772639201733777200,4.608777099609375,0.0014290522085502744,-0.00467651104554534,-0.006896788254380226
1772639201743823000,4.618822998046875,0.001654622028581798,-0.004718855023384094,-0.005391569808125496
1772639201753867300,4.6288671875,0.0020929782185703516,-0.0049223206005990505,-0.006400375161319971
1772639201763912200,4.638912109375,0.002180329989641905,-0.0030061763245612383,-0.004808337427675724
1772639201773957400,4.648957275390625,0.000758734589908272,-0.0049678608775138855,-0.005596366710960865
1772639201784002300,4.659002197265625,0.00264851376414299,-0.004196875728666782,-0.0057534934021532536
1772639201794048300,4.66904833984375,0.001886050682514906,-0.0034490597900003195,-0.005434979218989611
1772639201804093400,4.679093505859375,0.001961684552952647,-0.004877313040196896,-0.006727410946041346
1772639201814138000,4.68913818359375,0.0015414375811815262,-0.002951048780232668,-0.004375307355076075
1772639201824183300,4.699183349609375,0.0001579254458192736,-0.004500742070376873,-0.005346828605979681
1772639201834228200,4.709228271484375,0.0014900385867804289,-0.003899666713550687,-0.005886384751647711
1772639201844274200,4.719274169921875,0.002457032445818186,-0.004634432960301638,-0.007418235298246145
1772639201854319400,4.7293193359375,0.0012152004055678844,-0.0025156219489872456,-0.007321828510612249
1772639201864364000,4.739364013671875,0.0004138552176300436,-0.0023403859231621027,-0.005501025356352329
1772639201874409200,4.7494091796875,0.0012567456578835845,-0.003625627374276519,-0.006223008502274752
1772639201884455200,4.759455078125,0.002138784620910883,-0.0030866037122905254,-0.006143113598227501
1772639201894500400,4.769500244140625,0.0014860439114272594,-0.005828327964991331,-0.006111155729740858
1772639201904545300,4.779545166015625,0.0025297366082668304,-0.005021656397730112,-0.006112221162766218
1772639201914590500,4.789590576171875,0.0016759273130446672,-0.0024469124618917704,-0.0065287393517792225
1772639201924635100,4.79963525390625,-0.0001328917423961684,-0.004308195784687996,-0.0070280819199979305
1772639201934681000,4.80968115234375,0.0017994979862123728,-0.00407543545588851,-0.008567921817302704
1772639201944726300,4.819726318359375,0.0014572817599400878,-0.004131894558668137,-0.006881874520331621
1772639201954771200,4.829771240234375,0.0018671422731131315,-0.004742823541164398,-0.007193197961896658
1772639201964816400,4.83981640625,0.0027273432351648808,-0.004009655211120844,-0.007493602577596903
1772639201974861000,4.849861083984375,0.0005512743373401463,-0.0030061763245612383,-0.006085855886340141
1772639201984907300,4.8599072265625,0.0021760689560323954,-0.003370230318978429,-0.006970824208110571
1772639201994952200,4.8699521484375,0.002067412016913295,-0.004369448404759169,-0.006897853687405586
1772639202004997400,4.879997314453125,0.001112935016863048,-0.0036602485924959183,-0.007409446872770786
1772639202015042300,4.890042236328125,0.0015928366919979453,-0.0049132658168673515,-0.007190002128481865
1772639202025088300,4.900088134765625,0.0017768610268831253,-0.0029827402904629707,-0.006695453077554703
1772639202035133400,4.910133544921875,0.0027683558873832226,-0.0033182986080646515,-0.00552126532420516
1772639202045178000,4.92017822265625,-0.00039521310827694833,-0.002579537918791175,-0.006398777011781931
1772639202055223300,4.930223388671875,0.002892725635319948,-0.0039041941054165363,-0.0059694754891097546
1772639202065268200,4.940268310546875,0.0007904262165538967,-0.0035092474427074194,-0.0073236930184066296
1772639202075314200,4.950314208984375,0.0016250609187409282,-0.004496214911341667,-0.005362807307392359
1772639202085359400,4.960359375,0.002633600030094385,-0.0036104475148022175,-0.005794506054371595
1772639202095404000,4.970404052734375,0.0015480954898521304,-0.0049438923597335815,-0.00675271125510335
1772639202105449200,4.98044921875,0.002614957746118307,-0.004053064621984959,-0.005675728898495436
1772639202115494100,4.990494140625,0.0004548678989522159,-0.0037710361648350954,-0.00689199473708868
1772639202125540400,5.000540283203125,0.003334810258820653,-0.0041153826750814915,-0.006036320701241493
1772639202135585300,5.010585205078125,0.0031246868893504143,-0.0038868836127221584,-0.006166283041238785
1772639202145630500,5.02063037109375,0.00517691858112812,-0.004500475712120533,-0.0070366039872169495
1772639202155675100,5.030675048828125,0.00029401297797448933,-0.004465588368475437,-0.005614742636680603
1772639202165721000,5.04072119140625,0.0011771172285079956,-0.0026013758033514023,-0.006739395204931498
1772639202175766300,5.050766357421875,0.003067695302888751,-0.003719104453921318,-0.006874950136989355
1772639202185811200,5.060811279296875,0.0023550332989543676,-0.0032522522378712893,-0.006307696923613548
1772639202195856400,5.0708564453125,0.0011587414192035794,-0.00415319949388504,-0.0068155620247125626
1772639202205901000,5.080901123046875,0.0008223841432482004,-0.005049619823694229,-0.006671750918030739
1772639202215947300,5.090947265625,0.0024868599139153957,-0.003430684097111225,-0.004969192203134298
1772639202225992200,5.1009921875,0.0020639498252421618,-0.002685797866433859,-0.007285077124834061
1772639202236037400,5.111037353515625,0.0022892532870173454,-0.0040456079877913,-0.006484797224402428
1772639202246082300,5.121082275390625,0.0006644586683250964,-0.003491936717182398,-0.0051934304647147655
1772639202256127200,5.131127197265625,0.0013731258222833276,-0.0036719664931297302,-0.005791310220956802
1772639202266173400,5.14117333984375,0.0009683253592811525,-0.0027305390685796738,-0.007243798114359379
1772639202276218000,5.151218017578125,0.0018703379901126027,-0.004229366313666105,-0.0054879761300981045
1772639202286263300,5.16126318359375,0.0018865832826122642,-0.004279699642211199,-0.005930593237280846
1772639202296308200,5.17130810546875,0.0015241270884871483,-0.003882622579112649,-0.006142048165202141
1772639202306354200,5.181354248046875,0.0012535499408841133,-0.0025957829784601927,-0.0070523167960345745
1772639202316399400,5.1913994140625,0.0017816547770053148,-0.003192064817994833,-0.007314904592931271
1772639202326444000,5.201444091796875,0.0014759238110855222,-0.00501100393012166,-0.007736216764897108
1772639202336489200,5.2114892578125,0.0022921827621757984,-0.00407383730635047,-0.005609150044620037
1772639202346534100,5.2215341796875,0.0019209380261600018,-0.0028186896815896034,-0.00694951880723238
1772639202356580400,5.231580322265625,0.0007113303290680051,-0.004495948553085327,-0.006502107717096806
1772639202366625300,5.241625244140625,0.0021022993605583906,-0.0030125677585601807,-0.004249073565006256
1772639202376670500,5.25167041015625,0.0004423510399647057,-0.005787315312772989,-0.007240335922688246
1772639202386715100,5.261715087890625,0.001702026231214404,-0.0037473340053111315,-0.006583333946764469
1772639202396761000,5.271760986328125,0.0016016251174733043,-0.003117762738838792,-0.007160707376897335
1772639202406806300,5.28180615234375,0.0019805929623544216,-0.004475974943488836,-0.007648066151887178
1772639202416851200,5.291851318359375,0.0018719359068199992,-0.005314338020980358,-0.0065039717592298985
1772639202426896400,5.301896484375,0.0024429175537079573,-0.00384427304379642,-0.007488276343792677
1772639202436941000,5.311941162109375,0.0016695356462150812,-0.004700212739408016,-0.007357781287282705
1772639202446987300,5.3219873046875,0.0011888351291418076,-0.0036189695820212364,-0.006579605862498283
1772639202457032200,5.3320322265625,0.0011736550368368626,-0.004162520635873079,-0.006925550289452076
1772639202467077400,5.342077392578125,0.0012490225490182638,-0.0040916805155575275,-0.005833121482282877
1772639202477122300,5.352122314453125,0.002606702037155628,-0.0038948729634284973,-0.005642172880470753
1772639202487167200,5.362167236328125,0.0014357101172208786,-0.00421258807182312,-0.005519933998584747
1772639202497213400,5.37221337890625,0.0008721852791495621,-0.0034029872622340918,-0.007363640237599611
1772639202507258000,5.382258056640625,0.0011299792677164078,-0.005005944054573774,-0.007336742244660854
1772639202517303300,5.39230322265625,0.0010705908061936498,-0.004721251782029867,-0.007808654569089413
1772639202527348200,5.40234814453125,0.0008588694618083537,-0.00407383730635047,-0.006868026219308376
1772639202537394200,5.412394287109375,0.0017219999572262168,-0.0035172367934137583,-0.005298092495650053
1772639202547439400,5.422439453125,0.0013552826130762696,-0.003052248852327466,-0.007835020311176777
1772639202557484000,5.432484130859375,0.0022120214998722076,-0.0034961977507919073,-0.006641657557338476
1772639202567529200,5.442529296875,0.002386192325502634,-0.004238686989992857,-0.006171875633299351
1772639202577574100,5.45257421875,0.001871403306722641,-0.003734284546226263,-0.005566006526350975
1772639202587620400,5.462620361328125,0.0015448997728526592,-0.00458836043253541,-0.004994226153939962
1772639202597665300,5.472665283203125,0.0012903015594929457,-0.003279150230810046,-0.006301837973296642
1772639202607710500,5.48271044921875,0.0015701997326686978,-0.0019462381023913622,-0.0052080778405070305
1772639202617755100,5.492755126953125,0.001600293442606926,-0.0028735508676618338,-0.007345797028392553
1772639202627800300,5.50280029296875,0.00199364242143929,-0.004797152243554592,-0.005173723213374615
1772639202637846300,5.51284619140625,0.0030282805673778057,-0.0033840788528323174,-0.0059902481734752655
1772639202647891200,5.52289111328125,0.0007693872321397066,-0.0041212416253983974,-0.00791624654084444
1772639202657936400,5.532936279296875,0.0011116034584119916,-0.004761199466884136,-0.005511678289622068
1772639202667981000,5.54298095703125,0.002283926820382476,-0.003864246653392911,-0.006963100749999285
1772639202678027300,5.55302734375,0.002484729280695319,-0.004674380179494619,-0.007268299348652363
1772639202688072200,5.563072265625,0.002139317337423563,-0.004442152567207813,-0.0059963734820485115
1772639202698117400,5.573117431640625,0.002841060282662511,-0.005142297595739365,-0.006110356654971838
1772639202708162300,5.583162353515625,0.0020873856265097857,-0.004059456288814545,-0.006618221756070852
1772639202718207200,5.593207275390625,0.0007957525085657835,-0.0024802018888294697,-0.006383863277733326
1772639202728253400,5.60325341796875,0.002395247109234333,-0.0032466596458107233,-0.0065649584867060184
1772639202738298000,5.613298095703125,0.001989913871511817,-0.004548412747681141,-0.00700730923563242
1772639202748343300,5.62334326171875,0.001425057533197105,-0.003561178920790553,-0.006071474403142929
1772639202758389500,5.633389404296875,0.0011965582380071282,-0.004322843160480261,-0.006465089973062277
1772639202768434200,5.64343408203125,-0.00023808660625945777,-0.003653058083727956,-0.005173723213374615
1772639202778480400,5.65348046875,0.003306314582005143,-0.004621649626642466,-0.007421963382512331
1772639202788525300,5.663525390625,0.001657018787227571,-0.0037947380915284157,-0.006445648614317179
1772639202798570500,5.673570556640625,0.000592287047766149,-0.0036011263728141785,-0.005309277679771185
1772639202808615400,5.683615478515625,0.002071140334010124,-0.005063468124717474,-0.005855492316186428
1772639202818660600,5.69366064453125,0.0029617014806717634,-0.0034884747583419085,-0.007513842545449734
1772639202828706600,5.70370654296875,0.0007099987124092877,-0.003547064261510968,-0.00791225116699934
1772639202838751200,5.713751220703125,0.0027052389923483133,-0.0036631780676543713,-0.005517803598195314
1772639202848796400,5.72379638671875,0.0007086671539582312,-0.003911118488758802,-0.0052951630204916
1772639202858841300,5.73384130859375,0.0016652746126055717,-0.0035891421139240265,-0.0067481836304068565
1772639202868887600,5.743887451171875,0.00036751621519215405,-0.003582750679925084,-0.006256031803786755
1772639202878932500,5.753932373046875,0.0020213392563164234,-0.0037987329997122288,-0.006367351859807968
1772639202888977400,5.763977294921875,0.002232261700555682,-0.0032770195975899696,-0.006413424387574196
1772639202899022300,5.774022216796875,0.0007989483419805765,-0.004908205941319466,-0.006960703991353512
1772639202909067500,5.784067626953125,0.002216548891738057,-0.0029254823457449675,-0.006750580854713917
1772639202919113500,5.794113525390625,0.0034434671979397535,-0.0034647725988179445,-0.006412093061953783
1772639202929158400,5.804158447265625,0.0019353191601112485,-0.0038637141697108746,-0.005843508057296276
1772639202939203600,5.81420361328125,0.00046818371629342437,-0.004291950259357691,-0.007720503956079483
1772639202949248300,5.824248291015625,0.0024229439441114664,-0.0030740867368876934,-0.008187356404960155
1772639202959293400,5.83429345703125,0.0012892362428829074,-0.002796319080516696,-0.007691209204494953
1772639202969339400,5.84433935546875,0.0008676578872837126,-0.003950532991439104,-0.006406500469893217
1772639202979384300,5.85438427734375,0.00227806787006557,-0.005333778914064169,-0.006951649207621813
1772639202989429500,5.864429443359375,0.0015257250051945448,-0.004504204262048006,-0.006054696626961231
1772639202999474200,5.87447412109375,0.0011797803454101086,-0.004808071069419384,-0.004826180636882782
1772639203009520400,5.884520263671875,0.0003278351214248687,-0.0027166905347257853,-0.006192914675921202
1772639203019565300,5.8945654296875,0.0015209312550723553,-0.0035601137205958366,-0.0076331524178385735
1772639203029610500,5.904610595703125,0.0005241101025603712,-0.0033036512322723866,-0.0067604342475533485
1772639203039655400,5.914655517578125,0.00040799626731313765,-0.005138303153216839,-0.007456318475306034
1772639203049700600,5.92470068359375,0.0013821806060150266,-0.003519633784890175,-0.007110906299203634
1772639203059746600,5.93474658203125,0.002350772265344858,-0.004026965703815222,-0.006037652492523193
1772639203069791200,5.944791259765625,0.0010157296201214194,-0.003299123840406537,-0.005992378573864698
1772639203079836400,5.95483642578125,0.0010120011866092682,-0.0044293696992099285,-0.006856841035187244
1772639203089881300,5.96488134765625,0.001674595638178289,-0.004747617058455944,-0.006745520513504744
1772639203099926500,5.974926513671875,0.001806155894882977,-0.00466532539576292,-0.004841360729187727
1772639203109972500,5.984972412109375,0.0024591628462076187,-0.0038000645581632853,-0.005622199270874262
1772639203120017400,5.995017333984375,0.0034325483720749617,-0.004053330980241299,-0.006431267596781254
1772639203130062300,6.005062255859375,0.001787779969163239,-0.0038898130878806114,-0.006398777011781931
1772639203140107500,6.015107421875,0.002031725598499179,-0.002612294629216194,-0.006088519003242254
1772639203150152400,6.02515234375,0.0028075044974684715,-0.004239219706505537,-0.006704241503030062
1772639203160198400,6.035198486328125,0.002371278591454029,-0.003995540551841259,-0.007505586836487055
1772639203170243600,6.04524365234375,0.0019113506423309445,-0.003917243797332048,-0.0073071811348199844
1772639203180288300,6.055288330078125,0.002430400811135769,-0.003721234854310751,-0.007143396884202957
1772639203190333400,6.06533349609375,0.001327053178101778,-0.004682635888457298,-0.007283479440957308
1772639203200379400,6.07537939453125,0.001540904981084168,-0.0037023264449089766,-0.0039044604636728764
1772639203210424300,6.08542431640625,0.0023409186396747828,-0.0032519858796149492,-0.00746244378387928
1772639203220469500,6.095469482421875,0.0018381137633696198,-0.002996056107804179,-0.0065079666674137115
1772639203230514200,6.10551416015625,0.003590740030631423,-0.0026019082870334387,-0.0065436530858278275
1772639203240559400,6.115559326171875,-0.0005819007055833936,-0.002770220162346959,-0.0067423246800899506
1772639203250605300,6.125605224609375,0.0011789813870564103,-0.00270630419254303,-0.005120726302266121
1772639203260650500,6.135650390625,0.002778209513053298,-0.0028690234757959843,-0.006997722201049328
1772639203270695400,6.1456953125,0.00233825552277267,-0.003771568648517132,-0.006924218963831663
1772639203280740600,6.15574072265625,0.003822701284661889,-0.004730572924017906,-0.006299174856394529
1772639203290785300,6.165785400390625,0.0022687469609081745,-0.0030304109677672386,-0.007760983891785145
1772639203300831200,6.175831298828125,0.000618918624240905,-0.0032439965289086103,-0.005101551301777363
1772639203310876400,6.18587646484375,0.0015102786710485816,-0.00427250936627388,-0.006590524688363075
1772639203320921300,6.19592138671875,0.0017382452497258782,-0.0031217574141919613,-0.006772951222956181
1772639203330966500,6.205966552734375,0.0011728560784831643,-0.0019449065439403057,-0.006247509736567736
1772639203341012500,6.216012451171875,0.00002450108149787411,-0.004175570327788591,-0.006256031803786755
1772639203351057400,6.226057373046875,0.0006628608098253608,-0.0037209687288850546,-0.004802744835615158
1772639203361102300,6.236102294921875,0.001927595934830606,-0.0033281524665653706,-0.007054447196424007
1772639203371147500,6.2461474609375,0.00024767397553659976,-0.004789162427186966,-0.0052171326242387295
1772639203381192400,6.2561923828125,0.0014378406340256333,-0.0048978193663060665,-0.006069610361009836
1772639203391238400,6.26623828125,0.002085787709802389,-0.0036221654154360294,-0.007529288996011019
1772639203401283600,6.27628369140625,0.0022796657867729664,-0.0035236284602433443,-0.005224056541919708
1772639203411328300,6.286328369140625,0.002679672557860613,-0.003983023576438427,-0.007251787465065718
1772639203421373400,6.29637353515625,0.0009933591354638338,-0.002950516063719988,-0.005160673521459103
1772639203431418400,6.30641845703125,0.002439189236611128,-0.004855475388467312,-0.006705573294311762
1772639203441464300,6.31646435546875,0.0029726203065365553,-0.003938548732548952,-0.004823251161724329
1772639203451509500,6.326509521484375,0.0012514194240793586,-0.003582750679925084,-0.0064714811742305756
1772639203461554200,6.33655419921875,0.001961418194696307,-0.0037473340053111315,-0.006173473782837391
1772639203471599400,6.346599365234375,0.0019299928098917007,-0.00544323492795229,-0.005404352676123381
1772639203481645300,6.356645263671875,0.0013321131700649858,-0.00395612558349967,-0.004997155629098415
1772639203491690500,6.3666904296875,0.0025832662358880043,-0.0046762446872889996,-0.006828344892710447
1772639203501735400,6.3767353515625,0.0015952334506437182,-0.005073321983218193,-0.006265885196626186
1772639203511780600,6.386780517578125,0.0029736857395619154,-0.0032618397381156683,-0.00817936658859253
1772639203521825300,6.3968251953125,0.0009720537927933037,-0.003442401997745037,-0.006397977937012911
1772639203531871200,6.406871337890625,0.001056209672242403,-0.003313771216198802,-0.005718073341995478
1772639203541916400,6.41691650390625,0.001100684516131878,-0.0041492050513625145,-0.0048767803236842155
1772639203551961300,6.42696142578125,0.0019331886433064938,-0.004649080336093903,-0.006490656174719334
1772639203562006500,6.437006591796875,0.0008639294537715614,-0.0036069853231310844,-0.00692102313041687
1772639203572052500,6.447052490234375,0.0024626250378787518,-0.00336170825175941,-0.006202502176165581
1772639203582097400,6.457097412109375,0.0026999127585440874,-0.002645584288984537,-0.006274141371250153
1772639203592142300,6.467142333984375,0.0009930927772074938,-0.0033017871901392937,-0.006217415910214186
1772639203602187500,6.4771875,0.00011105381418019533,-0.004779042676091194,-0.007533816155046225
1772639203612232400,6.487232421875,0.0014327806420624256,-0.004130030050873756,-0.006754841655492783
1772639203622278400,6.4972783203125,0.0012767193838953972,-0.0038072550669312477,-0.0070397998206317425
1772639203632323600,6.507323486328125,0.0020823257509618998,-0.0028479844331741333,-0.0062975771725177765
1772639203642368300,6.5173681640625,0.0030573089607059956,-0.004591289907693863,-0.007783886976540089
1772639203652413400,6.527413330078125,0.0005041363765485585,-0.0036735644098371267,-0.0058080879971385
1772639203662458400,6.537458251953125,0.0023664848413318396,-0.0057561565190553665,-0.005575594026595354
1772639203672504300,6.54750439453125,-0.0007880293414928019,-0.0033425334841012955,-0.006128466222435236
1772639203682549500,6.557549560546875,0.0004844290087930858,-0.0046666571870446205,-0.007020092569291592
1772639203692594200,6.56759423828125,0.001163268811069429,-0.004147340543568134,-0.007218231912702322
1772639203702639400,6.577639404296875,0.0023643544409424067,-0.00339153571985662,-0.0057316552847623825
1772639203712684300,6.587684326171875,0.0008660599705763161,-0.0027662254869937897,-0.006511695217341185
1772639203722730500,6.59773046875,0.0020812603179365396,-0.0033478597179055214,-0.007910121232271194
1772639203732775400,6.607775390625,0.002326537622138858,-0.004441353492438793,-0.005122057627886534
1772639203742820600,6.617820556640625,0.0005760417552664876,-0.005169195588678122,-0.00458809407427907
1772639203752864800,6.62786474609375,0.0020066918805241585,-0.004553472623229027,-0.006589725613594055
1772639203762910700,6.63791064453125,0.001820803270675242,-0.0046602655202150345,-0.006638461723923683
1772639203772956000,6.647955810546875,0.000883636821527034,-0.0034533210564404726,-0.006764429155737162
1772639203783000800,6.658000732421875,0.0026559706311672926,-0.005735383834689856,-0.008322112262248993
1772639203793046000,6.6680458984375,0.001427987008355558,-0.004292749334126711,-0.005090632475912571
1772639203803090700,6.678090576171875,0.002469815546646714,-0.00364719913341105,-0.006322344299405813
1772639203813137000,6.688136962890625,0.0020391824655234814,-0.0037145770620554686,-0.007426224648952484
1772639203823181800,6.698181884765625,0.0017164073651656508,-0.004322843160480261,-0.00577932596206665
1772639203833227000,6.70822705078125,0.0016136092599481344,-0.004188619554042816,-0.0059811933897435665
1772639203843272000,6.71827197265625,0.0036453348584473133,-0.003334810258820653,-0.006375074852257967
1772639203853317000,6.728317138671875,0.0024533038958907127,-0.005607019178569317,-0.008196144364774227
1772639203863363000,6.738363037109375,0.0025180187076330185,-0.0019518306944519281,-0.006924751214683056
1772639203873407700,6.74840771484375,0.002201635157689452,-0.004892493132501841,-0.0070366039872169495
1772639203883453000,6.758452880859375,0.0017028251895681024,-0.004821386653929949,-0.006183859892189503
1772639203893497900,6.768497802734375,0.002237854292616248,-0.00440939562395215,-0.006964698899537325
1772639203903544000,6.7785439453125,0.00035926041891798377,-0.003896470880135894,-0.006162554491311312
1772639203913589000,6.788589111328125,0.0017646105261519551,-0.004595550708472729,-0.007510113995522261
1772639203923634000,6.798634033203125,0.0019401127938181162,-0.002846386516466737,-0.005756688769906759
1772639203933678800,6.808678955078125,0.0020271982066333294,-0.0040442761965096,-0.00621049152687192
1772639203943724000,6.81872412109375,0.002162220422178507,-0.004493285436183214,-0.0059785302728414536
1772639203953770000,6.82877001953125,0.0019166769925504923,-0.004270378965884447,-0.006623814348131418
1772639203963815000,6.83881494140625,0.0017888452857732773,-0.003501524217426777,-0.007182279136031866
1772639203973860000,6.848860107421875,0.0027390611357986927,-0.0033390712924301624,-0.0051718587055802345
1772639203983904800,6.85890478515625,0.002561694709584117,-0.005016596522182226,-0.007127684075385332
1772639203993950000,6.868949951171875,0.0012692625168710947,-0.0038978024385869503,-0.006280532572418451
1772639204003996000,6.878995849609375,0.0019411781104281545,-0.0024051007349044085,-0.007415305823087692
1772639204014040800,6.889040771484375,0.001797101111151278,-0.0028301412239670753,-0.006442452780902386
1772639204024086000,6.8990859375,0.002270611235871911,-0.0037318875547498465,-0.006493585649877787
1772639204034130700,6.909130615234375,0.002150236163288355,-0.004073038697242737,-0.006740726996213198
1772639204044177000,6.919177001953125,0.0018879148410633206,-0.003072488820180297,-0.006307696923613548
1772639204054221800,6.929221923828125,0.0015624766238033772,-0.0027257453184574842,-0.006457899231463671
1772639204064267000,6.93926708984375,0.0015033544041216373,-0.003546531544998288,-0.006432333029806614
1772639204074312000,6.94931201171875,0.0012351741315796971,-0.0028061727061867714,-0.006989466026425362
1772639204084357000,6.959357177734375,0.001549693406559527,-0.0030160299502313137,-0.005494633689522743
1772639204094403000,6.969403076171875,0.0015137407463043928,-0.0032091091852635145,-0.00592659879475832
1772639204104447700,6.97944775390625,0.0007784419576637447,-0.004483431577682495,-0.008126103319227695
1772639204114493000,6.989492919921875,0.0015422365395352244,-0.0025720810517668724,-0.005693039391189814
1772639204124537900,6.999537841796875,0.0022530341520905495,-0.00310524576343596,-0.006481867749243975
1772639204134583000,7.0095830078125,0.001511343871243298,-0.002927080262452364,-0.00708773685619235
1772639204144629000,7.01962890625,0.001856489572674036,-0.0037417414132505655,-0.00700864102691412
1772639204154674000,7.029673828125,0.0011949603212997317,-0.0022599585354328156,-0.006138586439192295
1772639204164718800,7.03971875,0.0029087045695632696,-0.00367116741836071,-0.006672549992799759
1772639204174764000,7.049763916015625,0.0012399677652865648,-0.00392869533970952,-0.007229150738567114
1772639204184809000,7.05980908203125,0.00256409146822989,-0.005287173669785261,-0.006284527480602264
1772639204194855000,7.06985498046875,0.00024740767548792064,-0.0036962011363357306,-0.004293814767152071
1772639204204900000,7.079900146484375,0.0017363809747621417,-0.004403270315378904,-0.007500260602682829
1772639204214944800,7.08994482421875,0.0015781891997903585,-0.004269579891115427,-0.006589991971850395
1772639204224990000,7.099989990234375,0.00267674308270216,-0.0031241541728377342,-0.006886934395879507
1772639204235036000,7.110035888671875,0.002931075170636177,-0.004926049150526524,-0.006930610164999962
1772639204245080800,7.120080810546875,0.0027534421533346176,-0.005577724426984787,-0.0059806606732308865
1772639204255126000,7.1301259765625,0.0024687503464519978,-0.0031878037843853235,-0.007128216791898012
1772639204265170700,7.140170654296875,0.0028602350503206253,-0.002651443239301443,-0.0059654805809259415
1772639204275216000,7.1502158203125,0.0009483516332693398,-0.004421646241098642,-0.005081044975668192
1772639204285261800,7.16026171875,0.0012985573848709464,-0.004564391914755106,-0.006909837480634451
1772639204295307000,7.17030712890625,0.0027502465527504683,-0.003870371961966157,-0.0067844027653336525
1772639204305352000,7.18035205078125,0.002037318190559745,-0.004206196404993534,-0.00558012118563056
1772639204315397000,7.190397216796875,0.0026900589000433683,-0.003637611633166671,-0.006069344002753496
1772639204325443000,7.200443115234375,0.002326271263882518,-0.004225371405482292,-0.00570023013278842
1772639204335487700,7.21048779296875,0.0012916331179440022,-0.0038543930277228355,-0.0054365769028663635
1772639204345533000,7.220532958984375,0.0014559502014890313,-0.003225088119506836,-0.005535646807402372
1772639204355577900,7.230577880859375,0.001898301183246076,-0.003853061469271779,-0.0070975907146930695
1772639204365623000,7.240623046875,0.0018935075495392084,-0.003911917097866535,-0.006645119283348322
1772639204375669000,7.2506689453125,0.0018783274572342634,-0.004573712591081858,-0.005781190004199743
1772639204385714000,7.2607138671875,0.0017467673169448972,-0.004415254574269056,-0.005375856999307871
1772639204395758800,7.2707587890625,0.0017526262672618032,-0.004874383565038443,-0.005357214715331793
1772639204405804000,7.280803955078125,0.002549177734181285,-0.004834969062358141,-0.005709284916520119
1772639204415849000,7.290848876953125,0.002502572489902377,-0.003397394670173526,-0.005743106827139854
1772639204425895000,7.30089501953125,0.0014985607704147696,-0.0044197821989655495,-0.005763879511505365
1772639204435940000,7.310940185546875,0.0009478190331719816,-0.002606169320642948,-0.005863748025149107
1772639204445984800,7.32098486328125,0.00020399813365656883,-0.0028764803428202868,-0.0057439059019088745
1772639204456030000,7.331030029296875,0.0028423918411135674,-0.0034077810123562813,-0.00635030772536993
1772639204466076000,7.341075927734375,0.0023483755066990852,-0.004147606901824474,-0.006391853094100952
1772639204476120800,7.351120849609375,0.0026442527305334806,-0.003322825999930501,-0.007002515718340874
1772639204486166000,7.361166015625,0.003875964554026723,-0.004595550708472729,-0.007680822629481554
1772639204496210700,7.371210693359375,0.0017955031944438815,-0.0029289445374161005,-0.006456301547586918
1772639204506256000,7.381255859375,0.00043329631444066763,-0.004022438544780016,-0.005851231049746275
1772639204516301800,7.3913017578125,0.0007411577389575541,-0.0035569178871810436,-0.00643899105489254
1772639204526347000,7.401346923828125,0.0020940436515957117,-0.005166266113519669,-0.005227785091847181
1772639204536392000,7.411391845703125,0.0017132115317508578,-0.0027979169972240925,-0.005705556366592646
1772639204546437000,7.42143701171875,0.00018189390539191663,-0.003884486621245742,-0.008068312890827656
1772639204556481800,7.431481689453125,0.0014231932582333684,-0.003156378399580717,-0.007063235621899366
1772639204566527700,7.44152783203125,0.0014407701091840863,-0.004355866461992264,-0.004357730504125357
1772639204576573000,7.451572998046875,0.0024288028944283724,-0.0037140443455427885,-0.006281331647187471
1772639204586617900,7.461617919921875,0.0025273398496210575,-0.0032168321777135134,-0.004779309034347534
1772639204596663000,7.4716630859375,0.0026088326703757048,-0.00458702864125371,-0.007369232829660177
1772639204606709000,7.481708984375,0.0026647590566426516,-0.003309244057163596,-0.007281881291419268
1772639204616754000,7.49175390625,0.003937750123441219,-0.004923918284475803,-0.005268531385809183
1772639204626798800,7.501798828125,0.0016295883106067777,-0.004375307355076075,-0.006584665738046169
1772639204636844000,7.511843994140625,0.0020093549974262714,-0.004342017695307732,-0.007290403358638287
1772639204646889000,7.521888916015625,0.0031063109636306763,-0.0026101642288267612,-0.004278101958334446
1772639204656935000,7.531934814453125,0.0016761935548856854,-0.004884503781795502,-0.0057710702531039715
1772639204666980000,7.54197998046875,0.0021084246691316366,-0.003922303672879934,-0.006203833501785994
1772639204677024800,7.552024658203125,0.0016157397767528892,-0.005308212712407112,-0.006760966964066029
1772639204687070000,7.562070068359375,0.0019326560432091355,-0.004521514754742384,-0.006342317909002304
1772639204697115000,7.572114990234375,0.0019718045368790627,-0.003960653208196163,-0.005461877211928368
1772639204707160800,7.582160888671875,0.0012892362428829074,-0.0033398703671991825,-0.006717024836689234
1772639204717206000,7.5922060546875,0.0003403519804123789,-0.0033665020018815994,-0.007643272168934345
1772639204727250700,7.602250732421875,0.002305232221260667,-0.005045891273766756,-0.006959904916584492
1772639204737296000,7.6122958984375,0.002995523624122143,-0.0031396006233990192,-0.006657103542238474
1772639204747341800,7.622341796875,0.00043835630640387535,-0.004736964590847492,-0.007395864464342594
1772639204757386800,7.63238671875,0.0032490564044564962,-0.0046152579598128796,-0.006959106307476759
1772639204767431700,7.642431640625,0.0031100395135581493,-0.0035116442013531923,-0.0060293967835605145
1772639204777476600,7.6524765625,0.0005848301807418466,-0.004236290231347084,-0.006643521599471569
1772639204787521500,7.662521484375,0.0018964370246976614,-0.003471696749329567,-0.00737376045435667
1772639204797567500,7.6725673828125,0.002379534300416708,-0.004808870144188404,-0.007066165097057819
1772639204807612700,7.68261279296875,0.0013712616637349129,-0.0026578346733003855,-0.006909837480634451
1772639204817657600,7.69265771484375,0.0031015174463391304,-0.006084524095058441,-0.006894391495734453
1772639204827702500,7.70270263671875,0.003982490859925747,-0.0044229780323803425,-0.007217166479676962
1772639204837747500,7.71274755859375,0.00045327001134864986,-0.0044168527238070965,-0.0072962623089551926
1772639204847793700,7.722793701171875,0.0029739518649876118,-0.0026463831309229136,-0.007127950433641672
1772639204857838600,7.732838623046875,0.003175287041813135,-0.0035840822383761406,-0.0054815844632685184
1772639204867883800,7.7428837890625,0.0008881642133928835,-0.003141997382044792,-0.005979862064123154
1772639204877928700,7.7529287109375,0.002828809665516019,-0.004219246096909046,-0.007000651676207781
1772639204887974700,7.762974609375,0.0013970943400636315,-0.003154247999191284,-0.005908489227294922
1772639204898019600,7.77301953125,0.0024170849937945604,-0.003990480676293373,-0.005328452680259943
1772639204908064500,7.783064453125,0.002804841147735715,-0.0043713124468922615,-0.008284561336040497
1772639204918109700,7.793109619140625,0.0028639633674174547,-0.004610464442521334,-0.006968959700316191
1772639204928154600,7.803154541015625,0.0017443705582991242,-0.002832271857187152,-0.006874417886137962
1772639204938200800,7.813200927734375,0.002243713242933154,-0.00449754623696208,-0.0065383268520236015
1772639204948245500,7.82324560546875,0.0025092302821576595,-0.004627774935215712,-0.0062605589628219604
1772639204958290700,7.833290771484375,0.00247594085521996,-0.005944708362221718,-0.005915945861488581
1772639204968335600,7.843335693359375,0.0005150553770363331,-0.004283694550395012,-0.0073535204865038395
1772639204978380800,7.853380859375,0.0016053534345701337,-0.00347409350797534,-0.006933273747563362
1772639204988426800,7.8634267578125,0.00001651159800530877,-0.003001648932695389,-0.006677343975752592
1772639204998471700,7.8734716796875,0.002269812161102891,-0.004332430195063353,-0.006654440425336361
1772639205008516600,7.8835166015625,0.0012727247085422277,-0.003913781605660915,-0.0070765516720712185
1772639205018561500,7.8935615234375,0.001192829804494977,-0.00449994346126914,-0.005625128746032715
1772639205028607500,7.903607421875,0.00009933590627042577,-0.0036882117856293917,-0.005531385540962219
1772639205038652700,7.913652587890625,0.0009882990270853043,-0.004299141000956297,-0.006231796927750111
1772639205048697600,7.923697509765625,0.0011888351291418076,-0.003242132253944874,-0.005588909611105919
1772639205058742500,7.933742431640625,0.002748914761468768,-0.003943609073758125,-0.006739927921444178
1772639205068787500,7.943787353515625,0.0010418286547064781,-0.004336957819759846,-0.006652576383203268
1772639205078833700,7.953833740234375,0.0007720504072494805,-0.003233077470213175,-0.006205165293067694
1772639205088878600,7.963878662109375,0.00016351809608750045,-0.004347876645624638,-0.005151885095983744
1772639205098923800,7.973923828125,0.0025033713318407536,-0.00316010694950819,-0.005785983521491289
1772639205108968700,7.98396875,0.002656503114849329,-0.0032711606472730637,-0.0062858592718839645
1772639205119013600,7.994013671875,0.002429868094623089,-0.00341550400480628,-0.008057660423219204
1772639205129059600,8.0040595703125,0.0006599313346669078,-0.0027228158432990313,-0.005291168577969074
1772639205139104500,8.0141044921875,0.0011646003695204854,-0.0040823593735694885,-0.006162022240459919
1772639205149149700,8.024149658203125,0.0006095975404605269,-0.003394465195015073,-0.006960970349609852
1772639205159194600,8.034194580078125,-0.00026791400159709156,-0.002269279444590211,-0.007740477565675974
1772639205169240800,8.04424072265625,0.0025598304346203804,-0.003721501212567091,-0.005997971165925264
1772639205179285500,8.054285400390626,0.0026501116808503866,-0.003192331176251173,-0.0065532405860722065
1772639205189330700,8.06433056640625,0.0014037522487342358,-0.004043477587401867,-0.006836866959929466
1772639205199375600,8.074375732421874,0.0025590313598513603,-0.0034498588647693396,-0.005615274887531996
1772639205209420800,8.0844208984375,0.00138058268930763,-0.005095692351460457,-0.006131395697593689
1772639205219466800,8.094466796875,0.001945705502294004,-0.0033481260761618614,-0.006951915565878153
1772639205229511700,8.10451171875,0.00040080572944134474,-0.004479170776903629,-0.006542587652802467
1772639205239556600,8.114556640625,0.0011299792677164078,-0.0022210762836039066,-0.007494934368878603
1772639205249601500,8.1246015625,0.0009725864510983229,-0.00458622956648469,-0.006638195365667343
1772639205259646700,8.134646728515625,0.002730805426836014,-0.004246410448104143,-0.006807572208344936
1772639205269692700,8.144692626953125,0.0035502600949257612,-0.0037462685722857714,-0.006708769127726555
1772639205279737600,8.154737548828125,0.001446096459403634,-0.004125769250094891,-0.007142065558582544
1772639205289782500,8.164782470703125,0.0023345269728451967,-0.0051923650316894054,-0.005437642335891724
1772639205299827500,8.174827392578125,0.0015326491557061672,-0.0033811493776738644,-0.006416087504476309
1772639205309873700,8.184873779296876,0.00166580721270293,-0.004347876645624638,-0.006440855097025633
1772639205319918600,8.194918701171876,0.0029617014806717634,-0.005086903925985098,-0.006626211106777191
1772639205329963800,8.2049638671875,0.001752360025420785,-0.0022359900176525116,-0.0069489860907197
1772639205340008700,8.2150087890625,0.0013725932221859694,-0.0028644960839301348,-0.006563626695424318
1772639205350053600,8.2250537109375,0.0019361181184649467,-0.004283960908651352,-0.007408914156258106
1772639205360099600,8.235099609375,0.0015773903578519821,-0.002703641075640917,-0.005616073962301016
1772639205370144500,8.24514453125,0.0017976337112486362,-0.0032618397381156683,-0.007016364019364119
1772639205380189700,8.255189697265624,0.0013243899447843432,-0.0024716798216104507,-0.005850166082382202
1772639205390234600,8.265234619140625,0.0012290488230064511,-0.003079679561778903,-0.0070730894804000854
1772639205400279600,8.275279541015625,0.001368598430417478,-0.002686064224690199,-0.0060323262587189674
1772639205410325500,8.285325439453125,0.00021411814668681473,-0.0032384039368480444,-0.007074421271681786
1772639205420370700,8.29537060546875,0.0017630126094445586,-0.0047060721553862095,-0.0046719834208488464
1772639205430415600,8.30541552734375,0.0006322344415821135,-0.005449360236525536,-0.00740252248942852
1772639205440460800,8.315460693359375,0.0012578109744936228,-0.0038248319178819656,-0.006674148142337799
1772639205450506800,8.3255068359375,0.00040187101694755256,-0.003989415243268013,-0.008442486636340618
1772639205460551700,8.3355517578125,0.0009837717516347766,-0.005623797420412302,-0.007524229120463133
1772639205470596600,8.3455966796875,0.0017741979099810123,-0.002538258908316493,-0.0063066319562494755
1772639205480641500,8.3556416015625,0.0019198728259652853,-0.003999002743512392,-0.006216084118932486
1772639205490686700,8.365686767578126,0.001418932224623859,-0.0037441381718963385,-0.006523679476231337
1772639205500732700,8.375732666015624,0.0029262814205139875,-0.0025446503423154354,-0.006138320080935955
1772639205510777600,8.385777587890624,0.0016285229939967394,-0.00333267985843122,-0.007185474969446659
1772639205520822500,8.395822509765624,0.0004652542411349714,-0.0029372002463787794,-0.007246461231261492
1772639205530867500,8.405867431640624,0.002171541564166546,-0.0014375743921846151,-0.007056045345962048
1772639205540912600,8.41591259765625,0.0009435579413548112,-0.003028546692803502,-0.005095958709716797
1772639205550958600,8.42595849609375,0.002082858234643936,-0.004760666750371456,-0.00689039658755064
1772639205561003800,8.436003662109375,0.002606435678899288,-0.003724697045981884,-0.005080245900899172
1772639205571048700,8.446048583984375,0.001395230065099895,-0.002838397165760398,-0.007395331747829914
1772639205581093600,8.45609375,0.0022365227341651917,-0.0034357442054897547,-0.006493585649877787
1772639205591139600,8.4661396484375,0.001603755634278059,-0.0036703685764223337,-0.006346046458929777
1772639205601184500,8.4761845703125,0.0005925533478148282,-0.005830458365380764,-0.007667240686714649
1772639205611229700,8.486229736328125,0.00222027744166553,-0.004150802735239267,-0.007842210121452808
1772639205621274600,8.496274658203125,0.0010721886064857244,-0.003612045431509614,-0.006971889175474644
1772639205631319600,8.506319580078125,0.0023310647811740637,-0.004120176658034325,-0.004641357343643904
1772639205641365500,8.516365478515626,0.0014327806420624256,-0.0029643645975738764,-0.00686083547770977
1772639205651410700,8.52641064453125,-0.000002663161012605997,-0.0035430695861577988,-0.006253102328628302
1772639205661455600,8.53645556640625,0.0007099987124092877,-0.0030711572617292404,-0.00618199585005641
1772639205671500800,8.546500732421874,0.0033358754590153694,-0.004490089602768421,-0.005781190004199743
1772639205681545700,8.556545654296874,0.0012900352012366056,-0.0037499971222132444,-0.00589517317712307
1772639205691591700,8.566591796875,0.001734250457957387,-0.0035774242132902145,-0.007080812472850084
1772639205701636600,8.57663671875,0.001916410750709474,-0.0027236149180680513,-0.006933539640158415
1772639205711681500,8.586681640625,0.0014684670604765415,-0.0029028456192463636,-0.0068240840919315815
1772639205721726700,8.596726806640625,0.0010610034223645926,-0.004496747627854347,-0.00768748065456748
1772639205731772700,8.606772705078125,0.0009558085002936423,-0.005711681675165892,-0.006296245381236076
1772639205741817600,8.616817626953125,0.0012841762509196997,-0.004448011517524719,-0.00646615494042635
1772639205751862500,8.626862548828125,0.0021856562234461308,-0.0032144354190677404,-0.008212123066186905
1772639205761907500,8.636907470703125,0.0020240023732185364,-0.003477822057902813,-0.0057012951001524925
1772639205771952600,8.64695263671875,0.0023824640084058046,-0.003849865635856986,-0.005527656991034746
1772639205781998600,8.65699853515625,0.0007648598402738571,-0.00395585922524333,-0.006530603393912315
1772639205792043800,8.667043701171876,0.0015401060227304697,-0.005273591727018356,-0.0057106162421405315
1772639205802088700,8.677088623046876,0.0026059031952172518,-0.0043896883726119995,-0.0059870523400604725
1772639205812134000,8.6871337890625,0.0016397082945331931,-0.0024687503464519978,-0.006223008502274752
1772639205822178600,8.697178466796874,0.0027206854429095984,-0.0046267095021903515,-0.006383330561220646
1772639205832224500,8.707224609375,0.0011656655697152019,-0.0036418726667761803,-0.007993211969733238
1772639205842269700,8.717269775390625,0.0014644722687080503,-0.0033957967534661293,-0.006056028418242931
1772639205852314600,8.727314697265625,0.0005113269435241818,-0.003136138431727886,-0.007779892534017563
1772639205862359800,8.73735986328125,0.0020477045327425003,-0.0030975225381553173,-0.007780425250530243
1772639205872405800,8.74740576171875,0.0020061591640114784,0.013710219413042068,0.0025891251862049103
1772639205882450700,8.75745068359375,0.002145442645996809,0.00478410255163908,-0.0010290454374626279
1772639205892495600,8.76749560546875,0.0024114924017339945,-0.0028189560398459435,-0.005781190004199743
1772639205902540800,8.777540771484375,0.0008093346259556711,-0.006487993057817221,-0.008350075222551823
1772639205912585700,8.787585693359375,0.002673813607543707,-0.014867895282804966,-0.012606872245669365
1772639205922631700,8.797631591796875,0.0036306874826550484,-0.013042831793427467,-0.012046010233461857
1772639205932676900,8.8076767578125,0.001651159836910665,-0.008289088495075703,-0.009066465310752392
1772639205942721500,8.817721435546876,0.0024642229545861483,0.00041811628034338355,-0.004808603785932064
1772639205952766700,8.8277666015625,0.0018551580142229795,-0.0034016557037830353,-0.00643899105489254
1772639205962811600,8.837811767578126,0.001121989800594747,-0.007102916948497295,-0.007758320774883032
