time,seconds_elapsed,z,y,x
1772639556087586800,0.0625869140625,0.006137358024716377,-0.012526188977062702,-0.06082190200686455
1772639556097632000,0.072632080078125,0.012070881202816963,-0.022015830501914024,-0.0807705670595169
1772639556107677000,0.082677001953125,0.015874141827225685,-0.028658552095294,-0.07913592457771301
1772639556117721900,0.092721923828125,0.019887259230017662,-0.019866660237312317,-0.06786195933818817
1772639556127766800,0.102766845703125,0.018735036253929138,-0.017632344737648964,-0.05784379318356514
1772639556137811700,0.112811767578125,0.01958857849240303,-0.02638881839811802,-0.04509497806429863
1772639556147856600,0.122856689453125,0.007684842683374882,-0.017137436196208,-0.0173526369035244
1772639556157901800,0.13290185546875,-0.011879270896315575,-0.020279966294765472,0.008707992732524872
1772639556167946800,0.14294677734375,-0.02622181922197342,-0.02564331702888012,0.027169501408934593
1772639556177991700,0.15299169921875,-0.026004239916801453,-0.020938044413924217,0.033792249858379364
1772639556188036600,0.16303662109375,-0.013787192292511463,-0.019756436347961426,0.028192764148116112
1772639556198081800,0.173081787109375,-0.003646407276391983,-0.019450172781944275,0.015256991609930992
1772639556208126000,0.1831259765625,-0.0007597761577926576,-0.026211228221654892,0.008013024926185608
1772639556218170600,0.193170654296875,0.0012442526640370488,-0.024887103587388992,0.004752516746520996
1772639556228215800,0.2032158203125,0.002543186768889427,-0.030780913308262825,0.0017118831165134907
1772639556238260700,0.2132607421875,-0.00014687213115394115,-0.020354105159640312,0.0020000371150672436
1772639556248306000,0.223305908203125,-0.003823146689683199,-0.018363995477557182,-0.005620951764285564
1772639556258350800,0.233350830078125,-0.009308991953730583,-0.02021755464375019,-0.01590687781572342
1772639556268395800,0.243395751953125,-0.011206353083252907,-0.008562551811337471,-0.02266199141740799
1772639556278440700,0.253440673828125,-0.011632192879915237,-0.004153688438236713,-0.023376252502202988
1772639556288486000,0.26348583984375,-0.007520946208387613,0.0005473776254802942,-0.018545804545283318
1772639556298530800,0.27353076171875,-0.002963744569569826,-0.0006094996351748705,-0.013911904767155647
1772639556308575700,0.28357568359375,-0.0012478393036872149,0.0000775093212723732,-0.003642392810434103
1772639556318620700,0.29362060546875,0.0029961741529405117,-0.0018223896622657776,0.0009113466367125511
1772639556328664800,0.303664794921875,0.0034701083786785603,-0.004606088623404503,0.00690078129991889
1772639556338709800,0.313709716796875,0.00015793496277183294,-0.005191451869904995,0.006309293210506439
1772639556348754700,0.323754638671875,0.0005824746331200004,-0.0013748274650424719,0.000787477008998394
1772639556358799600,0.333799560546875,0.004089058842509985,-0.004707241430878639,-0.009751183912158012
1772639556368844800,0.3438447265625,0.007978776469826698,-0.0028126779943704605,-0.018719438463449478
1772639556378889700,0.3538896484375,0.010053113102912903,-0.0015282351523637772,-0.022870507091283798
1772639556388935000,0.363934814453125,0.008656378835439682,-0.0007967902347445488,-0.028311170637607574
1772639556398979600,0.3739794921875,0.005804665852338076,-0.00608476297929883,-0.0299689881503582
1772639556409024800,0.384024658203125,0.003210215363651514,-0.009377893060445786,-0.03180961310863495
1772639556419069700,0.394069580078125,0.0016306949546560645,-0.006793827749788761,-0.029516367241740227
1772639556429115000,0.404114990234375,0.010154765099287033,0.0028858352452516556,-0.02280479297041893
1772639556439159600,0.41415966796875,0.008730240166187286,0.004102899692952633,-0.012734848074615002
1772639556449203700,0.42420361328125,0.009298906661570072,-0.00016882317140698433,-0.002405028324574232
1772639556459249000,0.434248779296875,0.005924148950725794,-0.008860582485795021,0.00003309501335024834
1772639556469293800,0.4442939453125,0.0013077475596219301,-0.015365070663392544,0.0004944382235407829
1772639556479338800,0.4543388671875,-0.0030052417423576117,-0.017917443066835403,0.00010934518650174141
1772639556489383700,0.4643837890625,-0.005453736986964941,-0.012075244449079037,-0.0011334475129842758
1772639556499428900,0.474428955078125,-0.004075018689036369,-0.0076520005241036415,-0.003475431352853775
1772639556509473800,0.484473876953125,-0.0008446042193099856,-0.003689483040943742,-0.002716696821153164
1772639556519519000,0.49451904296875,0.00382018880918622,-0.0009384376462548971,-0.0031534554436802864
1772639556529563600,0.504563720703125,0.007234001532196999,0.001330302795395255,-0.006624375004321337
1772639556539608800,0.51460888671875,0.005659007932990789,0.0036999834701418877,-0.007294958923012018
1772639556549653800,0.52465380859375,0.0037268679589033127,0.00399530166760087,-0.008025873452425003
1772639556559699000,0.534698974609375,0.001977437175810337,0.006453932262957096,-0.009205654263496399
1772639556569743600,0.54474365234375,0.0017703064950183034,0.010130121372640133,-0.008266545832157135
1772639556579787800,0.554787841796875,-0.00021294946782290936,0.00975141953676939,-0.006393011659383774
1772639556589832700,0.564832763671875,0.0011743528302758932,0.002309042727574706,-0.0038236663676798344
1772639556599878000,0.5748779296875,0.001643601804971695,-0.006090567447245121,-0.0013826130889356136
1772639556609922600,0.584922607421875,0.00714176194742322,-0.008929535746574402,-0.00019210251048207283
1772639556619967700,0.5949677734375,0.00800142902880907,-0.005504177883267403,-0.00012818677350878716
1772639556630012700,0.6050126953125,0.007389529142528772,-0.005865160375833511,0.0008264640346169472
1772639556640057900,0.615057861328125,0.0052693868055939674,-0.0023308799136430025,-0.002417532727122307
1772639556650102500,0.6251025390625,0.005382571369409561,-0.002982022939249873,-0.0062064118683338165
1772639556660147700,0.635147705078125,0.003073344472795725,-0.005372209474444389,-0.01386326551437378
1772639556670192600,0.645192626953125,0.0013433868298307061,-0.002108457265421748,-0.01691287010908127
1772639556680237800,0.65523779296875,0.0009788001189008355,0.000351770780980587,-0.019290274009108543
1772639556690282800,0.66528271484375,0.0017253138357773423,-0.002819743473082781,-0.021374784409999847
1772639556700326700,0.67532666015625,0.0004459311021491885,-0.00698359590023756,-0.019930550828576088
1772639556710371800,0.685371826171875,0.00010396470315754414,-0.008668468333780766,-0.019528403878211975
1772639556720416800,0.695416748046875,0.0014989284100010991,-0.0062857381999492645,-0.022101284936070442
1772639556730462000,0.7054619140625,-0.00044251594226807356,-0.0034582605585455894,-0.02448960766196251
1772639556740506600,0.715506591796875,-0.00013279030099511147,-0.0015988415107131004,-0.021892758086323738
1772639556750551800,0.7255517578125,-0.0020165054593235254,-0.000990668311715126,-0.02317766286432743
1772639556760596700,0.7355966796875,-0.004126527812331915,-0.0018905503675341606,-0.02130492776632309
1772639556770642000,0.745641845703125,-0.004487542435526848,-0.00339254061691463,-0.021578801795840263
1772639556780686600,0.7556865234375,-0.00019399402663111687,-0.007021896541118622,-0.018411770462989807
1772639556790731800,0.765731689453125,-0.002274078782647848,-0.0071947043761610985,-0.018995370715856552
1772639556800776700,0.775776611328125,-0.00041812192648649216,-0.00928022526204586,-0.011140642687678337
1772639556810822000,0.78582177734375,-0.0015253101009875536,-0.010940873064100742,-0.0070207808166742325
1772639556820865500,0.795865478515625,-0.006573864724487066,-0.008181305602192879,-0.004259881563484669
1772639556830910700,0.80591064453125,-0.007270044181495905,-0.005748818628489971,-0.00342785706743598
1772639556840955600,0.81595556640625,-0.010192064568400383,-0.0036688903346657753,-0.004182863514870405
1772639556851000800,0.826000732421875,-0.007635368034243584,-0.005512503907084465,-0.0021746475249528885
1772639556861045800,0.836045654296875,-0.008350159972906113,-0.008309622295200825,0.0006315256468951702
1772639556871090700,0.846090576171875,-0.004959313198924065,-0.00441205408424139,0.0027486374601721764
1772639556881135600,0.856135498046875,-0.008173482492566109,-0.0021033594384789467,0.002307884395122528
1772639556891180800,0.866180908203125,-0.008922096341848373,-0.0037683676928281784,0.001488695852458477
1772639556901225700,0.876225830078125,-0.009545010514557362,-0.0030125626362860203,-0.005489584989845753
1772639556911270700,0.886270751953125,-0.011447025462985039,0.0011286751832813025,-0.00924666691571474
1772639556921315600,0.896315673828125,-0.013414035551249981,0.008182057179510593,-0.012237928807735443
1772639556931360800,0.90636083984375,-0.00822554063051939,0.011591756716370583,-0.013803862035274506
1772639556941405700,0.91640576171875,-0.00611658301204443,0.010007176548242569,-0.012735402211546898
1772639556951449600,0.92644970703125,-0.009580071084201336,0.00457185972481966,-0.011677416041493416
1772639556961494800,0.936494873046875,-0.014697601087391376,-0.004854132421314716,-0.012745875865221024
1772639556971539700,0.946539794921875,-0.020034058019518852,-0.012155742384493351,-0.014680502936244011
1772639556981585000,0.9565849609375,-0.023499896749854088,-0.00959671102464199,-0.016817422583699226
1772639556991629800,0.9666298828125,-0.026196423918008804,-0.0034463913179934025,-0.01887037232518196
1772639557001674800,0.9766748046875,-0.020527886226773262,0.0010966949630528688,-0.019411258399486542
1772639557011719700,0.9867197265625,-0.018934939056634903,0.003385980613529682,-0.022688645869493484
1772639557021764900,0.996764892578125,-0.01650267466902733,0.0029401674401015043,-0.024737149477005005
1772639557031809800,1.006809814453125,-0.01371151115745306,0.006924779154360294,-0.02672259509563446
1772639557041854700,1.016854736328125,-0.009389201179146767,0.010393546894192696,-0.027538854628801346
1772639557051899600,1.026899658203125,-0.006930775009095669,0.014216606505215168,-0.026513874530792236
1772639557061943800,1.03694384765625,-0.008454635739326477,0.01625232771039009,-0.022349491715431213
1772639557071988700,1.04698876953125,-0.010205539874732494,0.015756767243146896,-0.017044467851519585
1772639557082033700,1.05703369140625,-0.010131503455340862,0.01252901554107666,-0.00669728871434927
1772639557092078600,1.06707861328125,-0.005955977365374565,0.011116675101220608,0.0014884169213473797
1772639557102123800,1.077123779296875,-0.00018890202045440674,0.002350614406168461,0.00938415713608265
1772639557112169000,1.0871689453125,0.0022402277681976557,0.0012160656042397022,0.011487031355500221
1772639557122214100,1.097214111328125,0.004193656146526337,-0.0011821112129837275,0.009234529919922352
1772639557132258800,1.1072587890625,0.0029691983945667744,-0.0006029121577739716,0.004691519774496555
1772639557142304000,1.117303955078125,0.0027430960908532143,0.0013664953876286745,-0.001620704773813486
1772639557152349000,1.127348876953125,0.000015314319171011448,0.003376258071511984,-0.006482131313532591
1772639557162394000,1.13739404296875,0.0007817720761522651,0.004233796149492264,-0.008575376123189926
1772639557172439000,1.14743896484375,0.0018157833255827427,0.004384655971080065,-0.005986957810819149
1772639557182484000,1.15748388671875,0.0037652174942195415,-0.00101516954600811,-0.005426894873380661
1772639557192528100,1.167528076171875,0.001889317180030048,-0.006151694338768721,-0.007444674149155617
1772639557202573000,1.177572998046875,-0.00003401772119104862,-0.00744199613109231,-0.00975310243666172
1772639557212618000,1.187617919921875,0.000870266929268837,-0.000796132255345583,-0.009542983956634998
1772639557222663000,1.197662841796875,0.0026889394503086805,0.004712350200861692,-0.010740607045590878
1772639557232708000,1.2077080078125,0.0018560277530923486,0.002217821776866913,-0.005682993680238724
1772639557242753000,1.2177529296875,0.0016586874844506383,0.0002739804331213236,-0.0005100695416331291
1772639557252798200,1.227798095703125,0.004641147330403328,-0.0070470720529556274,0.002579356776550412
1772639557262843000,1.2378427734375,0.004602531436830759,-0.011506535112857819,0.003063253127038479
1772639557272888000,1.24788818359375,0.003125165356323123,-0.016635814681649208,0.0019022170454263687
1772639557282933000,1.25793310546875,0.005624808371067047,-0.029259463772177696,-0.006151980720460415
1772639557292978200,1.267978271484375,0.005717439576983452,-0.032496340572834015,-0.009824300184845924
1772639557303023000,1.278023193359375,-0.0016802895115688443,-0.050961900502443314,-0.02900811657309532
1772639557313067000,1.28806689453125,-0.0090643260627985,-0.05746797099709511,-0.051852814853191376
1772639557323112000,1.29811181640625,-0.005314062349498272,-0.05243432894349098,-0.06613720953464508
1772639557333157000,1.3081572265625,0.0031795413233339787,-0.03597775101661682,-0.06684879213571548
1772639557343201800,1.318201904296875,0.005333239678293467,-0.020887481048703194,-0.06079968810081482
1772639557353247000,1.3282470703125,-0.005043265875428915,-0.010281089693307877,-0.04855697229504585
1772639557363292000,1.3382919921875,-0.013451664708554745,-0.004034644924104214,-0.025778155773878098
1772639557373337000,1.348337158203125,-0.014664595015347004,-0.001737059559673071,-0.0025720573030412197
1772639557383382000,1.358382080078125,-0.014586830511689186,-0.005265748128294945,0.014633560553193092
1772639557393427000,1.368427001953125,-0.01030728593468666,-0.008445263840258121,0.025466132909059525
1772639557403472000,1.378471923828125,-0.004783623851835728,-0.005526172928512096,0.02719159424304962
1772639557413517000,1.38851708984375,-0.002245914191007614,-0.0011363753583282232,0.022202705964446068
1772639557423562000,1.39856201171875,0.0024835935328155756,0.005413669161498547,0.008227501064538956
1772639557433606000,1.40860595703125,-0.001297607901506126,0.010234055109322071,-0.0022386591881513596
1772639557443651000,1.418651123046875,-0.011850117705762386,0.004471773747354746,-0.017673542723059654
1772639557453696000,1.428696044921875,-0.02343098446726799,0.0022290933411568403,-0.03269420191645622
1772639557463741200,1.4387412109375,-0.031762152910232544,0.0036040833219885826,-0.04099687188863754
1772639557473785900,1.448785888671875,-0.03271780163049698,-0.0005049400497227907,-0.04456514120101929
1772639557483831000,1.4588310546875,-0.028050879016518593,0.00925954058766365,-0.039858534932136536
1772639557493876000,1.4688759765625,-0.019630588591098785,0.0034684904385358095,-0.029635485261678696
1772639557503921200,1.478921142578125,-0.011353750713169575,-0.004677053540945053,-0.01889202557504177
1772639557513966000,1.488966064453125,-0.00660535367205739,-0.005675232969224453,-0.006494349800050259
1772639557524011000,1.499010986328125,-0.0057443538680672646,0.0003658814821392298,0.0032589449547231197
1772639557534056000,1.509055908203125,-0.006770295090973377,0.011011062189936638,0.008391361683607101
1772639557544101000,1.51910107421875,-0.010624954476952553,0.01511579193174839,0.008252078667283058
1772639557554145000,1.52914501953125,-0.010117153637111187,0.016156861558556557,0.006247707176953554
1772639557564190000,1.53918994140625,-0.014508705586194992,0.016133425757288933,0.002643651096150279
1772639557574235000,1.54923486328125,-0.01670857146382332,0.015058165416121483,0.0009361244738101959
1772639557584280000,1.559280029296875,-0.015392170287668705,0.009668726474046707,0.0029793018475174904
1772639557594325000,1.569324951171875,-0.010632896795868874,-0.0012963991612195969,0.004643582738935947
1772639557604370000,1.579369873046875,-0.004748109728097916,-0.008826220408082008,0.0021961377933621407
1772639557614414800,1.589414794921875,-0.0009482482564635575,-0.008776191622018814,0.0007714242674410343
1772639557624460000,1.5994599609375,-0.0009370629559271038,-0.008616401813924313,-0.001281872857362032
1772639557634505000,1.6095048828125,-0.0037165116518735886,-0.009844379499554634,-0.004150605294853449
1772639557644550100,1.619550048828125,-0.005947708152234554,-0.002273811725899577,-0.006789532024413347
1772639557654594800,1.6295947265625,-0.005333816632628441,0.009925644844770432,-0.0015974529087543488
1772639557664640000,1.639639892578125,-0.0033654742874205112,0.011246839538216591,0.007822147570550442
1772639557674685000,1.649684814453125,-0.004066670313477516,0.003205446759238839,0.02117028459906578
1772639557684729000,1.65972900390625,-0.001005100435577333,-0.003385877003893256,0.02899678237736225
1772639557694774000,1.66977392578125,0.0007439242908731103,-0.006456578150391579,0.03130616247653961
1772639557704819000,1.67981884765625,-0.0002371842274442315,0.002945445477962494,0.0332084596157074
1772639557714864000,1.689864013671875,-0.001233380287885666,0.007399854715913534,0.03142789378762245
1772639557724909000,1.699908935546875,-0.0037410128861665726,0.010816956870257854,0.031439345329999924
1772639557734954000,1.7099541015625,-0.004901726730167866,0.008206096477806568,0.0308475773781538
1772639557744999000,1.7199990234375,-0.0035184810403734446,0.005970905069261789,0.032678768038749695
1772639557755044000,1.730044189453125,-0.004647003952413797,0.0019128350540995598,0.03234188258647919
1772639557765089000,1.740089111328125,-0.005912537686526775,-0.0008049206808209419,0.02735511213541031
1772639557775134200,1.75013427734375,-0.0070036184042692184,0.001833097543567419,0.021418917924165726
1772639557785179000,1.760178955078125,-0.005462180823087692,0.004369758535176516,0.01199665293097496
1772639557795224000,1.77022412109375,-0.006417958531528711,0.007792898919433355,0.0034160446375608444
1772639557805268000,1.78026806640625,-0.0017395837930962443,0.008534323424100876,-0.0026935129426419735
1772639557815313200,1.790313232421875,-0.0008545210584998131,3.6437995731830597e-7,-0.007271578535437584
1772639557825357800,1.80035791015625,0.0014254112029448152,-0.00841815397143364,-0.005165018141269684
1772639557835403000,1.810403076171875,0.0015792475314810872,-0.015203496441245079,-0.007654715795069933
1772639557845448000,1.820447998046875,0.002009614370763302,-0.015237851068377495,-0.008080821484327316
1772639557855493000,1.8304931640625,-0.00028515385929495096,-0.009123781695961952,-0.01305542141199112
1772639557865537800,1.840537841796875,-0.001671329140663147,-0.00018834462389349937,-0.014660509303212166
1772639557875583000,1.8505830078125,-0.002776743844151497,0.007149957120418549,-0.011814577504992485
1772639557885628000,1.8606279296875,-0.002181260846555233,0.006334497593343258,-0.006636327598243952
1772639557895673000,1.870673095703125,0.002289684722200036,0.005610563792288303,0.0047655608505010605
1772639557905718000,1.880718017578125,0.0064476775005459785,0.0029026614502072334,0.016876552253961563
1772639557915763000,1.890762939453125,0.010914817452430725,0.005540984217077494,0.026596203446388245
1772639557925807000,1.90080712890625,0.010407219640910625,0.007122369483113289,0.03011743538081646
1772639557935852000,1.91085205078125,0.004238837864249945,0.0005452092736959457,0.027626561000943184
1772639557945897200,1.920897216796875,-0.0038217520341277122,-0.005410151556134224,0.0187598317861557
1772639557955942000,1.93094189453125,-0.00881759449839592,-0.010603873990476131,0.0039144353941082954
1772639557965987000,1.940987060546875,-0.010525745339691639,-0.009918909519910812,-0.00859949178993702
1772639557976032000,1.951031982421875,-0.009439032524824142,-0.006123824045062065,-0.021287713199853897
1772639557986077200,1.9610771484375,-0.005551349837332964,-0.0015067020431160927,-0.02660098671913147
1772639557996121900,1.971121826171875,-0.0005619197618216276,-0.0026184404268860817,-0.027612069621682167
1772639558006167000,1.9811669921875,0.0011225296184420586,-0.0031508062966167927,-0.024959029629826546
1772639558016212000,1.9912119140625,0.0032661408185958862,0.0034621369559317827,-0.01751604862511158
1772639558026257200,2.001257080078125,0.008769297040998936,0.00354309706017375,-0.011607559397816658
1772639558036302000,2.011302001953125,0.008202497847378254,0.0027809166349470615,-0.008681194856762886
1772639558046346000,2.021345947265625,0.009082673117518425,0.004814240150153637,-0.007430308498442173
1772639558056391000,2.031390869140625,0.00769855035468936,0.008656132966279984,-0.0060355281457304955
1772639558066436000,2.04143603515625,0.006748067680746317,0.0064643509685993195,-0.005563083104789257
1772639558076480800,2.051480712890625,0.006778988987207413,0.0028041466139256954,-0.003543660044670105
1772639558086526000,2.06152587890625,0.006965942680835724,0.002397481817752123,0.0002854331396520138
1772639558096571000,2.07157080078125,0.0074017164297401905,0.004424798768013716,0.0021337326616048813
1772639558106616000,2.081615966796875,0.011749060824513435,0.004421070218086243,0.007040606811642647
1772639558116661000,2.091660888671875,0.00950205884873867,0.0021571111865341663,0.006952965632081032
1772639558126706200,2.1017060546875,0.008162755519151688,-0.001428302377462387,0.005020841956138611
1772639558136751000,2.111751220703125,0.004728279542177916,-0.002227478427812457,0.0014710365794599056
1772639558146796300,2.12179638671875,0.0023641916923224926,0.00030811713077127934,-0.0038992278277873993
1772639558156841000,2.131841064453125,0.0009464804315939546,0.0034495494328439236,-0.00919109396636486
1772639558166886100,2.14188623046875,0.0010604638373479247,0.004070332273840904,-0.011944003403186798
1772639558176930300,2.151930419921875,0.003400003770366311,0.0032814336009323597,-0.012959553860127926
1772639558186975000,2.16197509765625,0.0059704864397645,0.0011993742082268,-0.01148016657680273
1772639558197020200,2.172020263671875,0.007031112909317017,-0.0010193376801908016,-0.008207838982343674
1772639558207065000,2.182065185546875,0.008388792164623737,-0.0021581053733825684,-0.006761209573596716
1772639558217110300,2.1921103515625,0.007620248477905989,0.0007968740537762642,-0.0025119278579950333
1772639558227155200,2.2021552734375,0.0060274116694927216,0.0006703739054501057,-0.004100769758224487
1772639558237200100,2.2122001953125,0.008038933388888836,0.0030508905183523893,-0.003499835729598999
1772639558247245000,2.2222451171875,0.006245027761906385,0.00199388200417161,-0.004080671817064285
1772639558257290200,2.232290283203125,0.006888273172080517,0.00360376900061965,-0.00046007847413420677
1772639558267335200,2.242335205078125,0.003252526046708226,0.012020956724882126,0.0016872282139956951
1772639558277380400,2.25238037109375,0.004180936608463526,0.011508345603942871,0.007524057757109404
1772639558287425000,2.262425048828125,0.004545523319393396,0.007502951193600893,0.0134743582457304
1772639558297469200,2.27246923828125,0.0031645940616726875,-0.0008048983290791512,0.01951088011264801
1772639558307514000,2.28251416015625,0.0006865228060632944,-0.004135448019951582,0.01944669708609581
1772639558317559000,2.29255908203125,-0.0001417342573404312,-0.006142694503068924,0.015651851892471313
1772639558327604000,2.30260400390625,-0.0027841227129101753,-0.0006073140539228916,0.012872043997049332
1772639558337649200,2.312649169921875,-0.006026490591466427,0.006325606256723404,0.005911970045417547
1772639558347694000,2.322694091796875,-0.010108317248523235,0.011782157234847546,0.0022120401263237
1772639558357739300,2.3327392578125,-0.013532296754419804,0.01405443623661995,0.0003678882494568825
1772639558367784000,2.342783935546875,-0.013289682567119598,0.012504477053880692,0.0029921671375632286
1772639558377829000,2.3528291015625,-0.012161441147327423,0.00768567668274045,0.003418427426367998
1772639558387874000,2.3628740234375,-0.009330234490334988,0.008261718787252903,0.008184686303138733
1772639558397919200,2.372919189453125,-0.004517260938882828,0.009384137578308582,0.01208516675978899
1772639558407964000,2.3829638671875,-0.0020109598990529776,0.010360718704760075,0.014672961086034775
1772639558418008000,2.393008056640625,-0.004372446797788143,0.009010936133563519,0.014964649453759193
1772639558428053200,2.40305322265625,-0.009313675574958324,0.0015958966687321663,0.011643953621387482
1772639558438098200,2.41309814453125,-0.011856571771204472,-0.007561681792140007,0.005322509910911322
1772639558448143000,2.42314306640625,-0.01346911583095789,-0.009344401769340038,-0.004797768779098988
1772639558458188000,2.43318798828125,-0.012328406795859337,-0.007294582203030586,-0.010840030387043953
1772639558468233200,2.443233154296875,-0.010474313981831074,-0.0029802615754306316,-0.015348495915532112
1772639558478278100,2.453278076171875,-0.0038544777780771255,0.0047356062568724155,-0.018111269921064377
1772639558488323300,2.4633232421875,0.0005051166517660022,0.010577516630291939,-0.012368428520858288
1772639558498368000,2.473367919921875,0.006005044095218182,0.008277029730379581,-0.001557039562612772
1772639558508413200,2.4834130859375,0.009847985580563545,0.005810409784317017,0.004549055825918913
1772639558518458000,2.4934580078125,0.010343272238969803,0.001022219192236662,0.009224573150277138
1772639558528503300,2.50350341796875,0.009303574450314045,-0.002353337360545993,0.006205614190548658
1772639558538548000,2.5135478515625,0.0025588665157556534,0.00018627545796334743,0.0019161677919328213
1772639558548592000,2.523592041015625,-0.0032292476389557123,0.006186110898852348,-0.004636273253709078
1772639558558637000,2.533636962890625,-0.008177980780601501,0.013616259209811687,-0.010549908503890038
1772639558568682200,2.54368212890625,-0.00693641509860754,0.011871889233589172,-0.011972835287451744
1772639558578727000,2.553726806640625,-0.002335927216336131,0.010177932679653168,-0.009979847818613052
1772639558588772000,2.563772216796875,0.0024811984039843082,0.007792273536324501,-0.0026918421499431133
1772639558598817000,2.573817138671875,0.009237605147063732,0.0025982619263231754,0.005632153246551752
1772639558608862200,2.5838623046875,0.015071526169776917,-0.0006177714094519615,0.016819028183817863
1772639558618907100,2.5939072265625,0.01546645537018776,-0.0010232620406895876,0.02163376659154892
1772639558628952000,2.6039521484375,0.012032842263579369,0.0042029256001114845,0.024068161845207214
1772639558638997000,2.6139970703125,0.008388024754822254,0.008073939010500908,0.01944093033671379
1772639558649042200,2.624042236328125,0.0045205820351839066,0.004156695678830147,0.009735040366649628
1772639558659087000,2.634087158203125,0.0037461216561496258,0.006096122786402702,0.0032612041104584932
1772639558669131000,2.644131103515625,0.0053962161764502525,0.005026064347475767,0.0016934010200202465
1772639558679176200,2.65417626953125,0.009644456207752228,0.006023234687745571,0.0027817063964903355
1772639558689221000,2.66422119140625,0.012930797412991524,0.007099950686097145,0.007194830570369959
1772639558699266300,2.674266357421875,0.013234383426606655,0.0009187315590679646,0.010955903679132462
1772639558709311000,2.68431103515625,0.008856945671141148,0.001946978154592216,0.015600989572703838
1772639558719356200,2.694356201171875,0.0061486209742724895,0.00001275632530450821,0.015407275408506393
1772639558729401000,2.704401123046875,-0.0009982376359403133,-0.004208886995911598,0.011313997209072113
1772639558739446300,2.7144462890625,-0.004155226983129978,-0.0030016594100743532,0.005834892392158508
1772639558749491200,2.7244912109375,-0.0042556277476251125,0.0011350286658853292,0.00022281287238001823
1772639558759536000,2.7345361328125,-0.0036782873794436455,0.007261316291987896,0.0010111280716955662
1772639558769581000,2.7445810546875,-0.00045186770148575306,0.011277096346020699,-0.00052977679297328
1772639558779626200,2.754626220703125,-0.001460767351090908,0.010467087849974632,0.007036090362817049
1772639558789671200,2.764671142578125,0.0004465887323021889,0.0019662780687212944,0.008817212656140327
1772639558799715000,2.774715087890625,0.0002667475491762161,-0.0030742711387574673,0.011336377821862698
1772639558809760000,2.784760009765625,0.0001602211268618703,-0.00936838611960411,0.01140828337520361
1772639558819805200,2.79480517578125,-0.0037383167073130608,-0.010684824548661709,0.01163579523563385
1772639558829850000,2.80485009765625,-0.0038027651607990265,-0.0014242148026823997,0.00946425274014473
1772639558839895000,2.81489501953125,-0.0019679274410009384,0.006879668682813644,0.009571244940161705
1772639558849940000,2.82493994140625,-0.0014563342556357384,0.006618146318942308,0.008633280172944069
1772639558859985200,2.834985107421875,-0.0036375715862959623,0.0025071273557841778,0.007222587708383799
1772639558870030000,2.845030029296875,-0.001723291352391243,-0.0027683284133672714,0.0040726009756326675
1772639558880075300,2.8550751953125,0.0005216604331508279,-0.003935597836971283,0.0010192636400461197
1772639558890120000,2.865119873046875,0.0025307489559054375,0.003519655205309391,-0.0028652227483689785
1772639558900165000,2.8751650390625,0.004382460378110409,0.009581563994288445,-0.003282434307038784
1772639558910210000,2.8852099609375,-0.0036613515112549067,0.005897880531847477,-0.002313576638698578
1772639558920254000,2.89525390625,-0.005948099307715893,-0.0017697294242680073,-0.005298699252307415
1772639558930299100,2.905299072265625,-0.007745733018964529,-0.008197268471121788,-0.005288046784698963
1772639558940344000,2.915343994140625,-0.007338802330195904,-0.005462468136101961,-0.005809227004647255
1772639558950389200,2.92538916015625,-0.0031160940416157246,-0.0030594985000789165,-0.0033623147755861282
1772639558960434200,2.93543408203125,0.0022245007567107677,-0.0014063715934753418,-0.0008163475431501865
1772639558970479000,2.94547900390625,0.005393129773437977,-0.0030215787701308727,0.0015370878390967846
1772639558980524000,2.95552392578125,0.00837599579244852,-0.004596251994371414,0.00479866610839963
1772639558990569200,2.9655693359375,0.009992001578211784,0.004780738614499569,0.0055986796505749226
1772639559000614100,2.9756142578125,0.009164274670183659,0.008625387214124203,0.008788623847067356
1772639559010659300,2.985659423828125,0.010690798051655293,0.01158735528588295,0.011158837005496025
1772639559020704000,2.9957041015625,0.0071188416332006454,0.01145520806312561,0.013177774846553802
1772639559030749200,3.005749267578125,0.012257677502930164,0.00843731313943863,0.014929069206118584
1772639559040794000,3.015794189453125,0.008913356810808182,0.00562047166749835,0.014211798086762428
1772639559050838000,3.025838134765625,0.007018784526735544,0.0007942912634462118,0.010689235292375088
1772639559060883000,3.035883056640625,0.00893776398152113,0.00020852102898061275,0.008651209995150566
1772639559070928100,3.04592822265625,0.009646697901189327,-0.00009135110303759575,0.004037283360958099
1772639559080973000,3.05597314453125,0.00867406465113163,-0.002979087410494685,-0.0018222909420728683
1772639559091018200,3.066018310546875,0.00730546610429883,-0.002982283243909478,-0.0033131279051303864
1772639559101063000,3.07606298828125,0.011229947209358215,-0.002054899698123336,-0.005138371605426073
1772639559111108000,3.086108154296875,0.010131126269698143,-0.0013342483434826136,-0.0017244652844965458
1772639559121153000,3.096153076171875,0.016299087554216385,0.000702656339854002,0.00030040275305509567
1772639559131198200,3.1061982421875,0.015012781135737896,0.0028843178879469633,0.0016559516079723835
1772639559141243100,3.1162431640625,0.01654038392007351,0.0037056589499115944,0.0027005509473383427
1772639559151288300,3.126288330078125,0.01583198271691799,0.002618822967633605,0.0005873325280845165
1772639559161333200,3.136333251953125,0.015726929530501366,-0.0008345525711774826,0.0005037039518356323
1772639559171378200,3.146378173828125,0.014697086066007614,0.0007455009035766125,-0.002936834003776312
1772639559181422300,3.15642236328125,0.01274312473833561,0.0024145040661096573,-0.0022041979245841503
1772639559191467300,3.16646728515625,0.01264964696019888,0.003963131923228502,-0.005879893433302641
1772639559201512400,3.176512451171875,0.011876718141138554,0.004053826909512281,-0.005948135629296303
1772639559211557000,3.18655712890625,0.010913185775279999,0.002939826576039195,-0.006330299191176891
1772639559221602300,3.196602294921875,0.00905668269842863,0.003341941861435771,-0.005676069296896458
1772639559231647200,3.206647216796875,0.010897992178797722,0.002414362970739603,-0.0042076027020812035
1772639559241692400,3.2166923828125,0.008882464841008186,-0.0013708588667213917,-0.0012944568879902363
1772639559251737000,3.226737060546875,0.008877936750650406,-0.00024114595726132393,0.0018941457383334637
1772639559261782300,3.2367822265625,0.006172479130327702,0.000661470228806138,0.0021696030162274837
1772639559271827200,3.2468271484375,0.00721457414329052,0.006047180853784084,0.0035445932298898697
1772639559281872400,3.256872314453125,0.008048237301409245,0.0042203934863209724,0.0028558080084621906
1772639559291917300,3.266917236328125,0.008639725856482983,0.0029199719429016113,0.006121642421931028
1772639559301962200,3.276962158203125,0.012475116178393364,0.002475881949067116,0.00778727512806654
1772639559312006100,3.287006103515625,0.014511103741824627,0.0046519506722688675,0.006908964831382036
1772639559322051300,3.29705126953125,0.01335677970200777,0.009303530678153038,0.00823733489960432
1772639559332096300,3.30709619140625,0.010897350497543812,0.008870501071214676,0.008007237687706947
1772639559342141200,3.31714111328125,0.006810542196035385,0.002290878677740693,0.005539203528314829
1772639559352186000,3.32718603515625,0.005689617246389389,-0.0030799182131886482,0.000988394021987915
1772639559362231300,3.337231201171875,0.007427077740430832,-0.0011967746540904045,-0.0019114133901894093
1772639559372276200,3.347276123046875,0.01205405406653881,0.007593254558742046,-0.005125849042087793
1772639559382321200,3.357321044921875,0.014438868500292301,0.017471380531787872,-0.006056711543351412
1772639559392366000,3.367365966796875,0.013848711736500263,0.02245761826634407,-0.001990330871194601
1772639559402411300,3.377411376953125,0.009842941537499428,0.01443334948271513,0.002690159250050783
1772639559412456200,3.387456298828125,0.008303102105855942,0.003115714294835925,0.006725647486746311
1772639559422501400,3.39750146484375,0.009271330200135708,0.00038756243884563446,0.010558681562542915
1772639559432545300,3.407545166015625,0.010595986619591713,0.003152189776301384,0.012591738253831863
1772639559442590200,3.417590087890625,0.01380663551390171,0.007270810194313526,0.015410913154482841
1772639559452635400,3.427635498046875,0.016827993094921112,0.012978763319551945,0.017662348225712776
1772639559462680300,3.437680419921875,0.017242878675460815,0.0182656217366457,0.01780085265636444
1772639559472725200,3.447725341796875,0.018138499930500984,0.02332456223666668,0.012299029156565666
1772639559482770200,3.457770263671875,0.018283450976014137,0.022802166640758514,0.009508076123893261
1772639559492815400,3.4678154296875,0.02040891908109188,0.01759222336113453,0.005548221990466118
1772639559502860300,3.4778603515625,0.02003086544573307,0.014268766157329082,0.002594818128272891
1772639559512905200,3.4879052734375,0.020374145358800888,0.011203734204173088,0.0011820113286376
1772639559522950100,3.4979501953125,0.016778266057372093,0.007128446362912655,-0.003692704252898693
1772639559532995300,3.507995361328125,0.0150112584233284,0.00676971860229969,-0.005914313718676567
1772639559543040300,3.518040283203125,0.01166850607842207,0.0071721929125487804,-0.011619516648352146
1772639559553085400,3.52808544921875,0.011811251752078533,0.009252388030290604,-0.01248930487781763
1772639559563129000,3.538129150390625,0.014157291501760483,0.011310571804642677,-0.013184459879994392
1772639559573174300,3.54817431640625,0.016879573464393616,0.007165893912315369,-0.009933272376656532
1772639559583219200,3.55821923828125,0.02016584202647209,0.001089912373572588,-0.007557088974863291
1772639559593264400,3.568264404296875,0.021884912624955177,0.0008499615360051394,-0.004317086655646563
1772639559603309000,3.57830908203125,0.018843326717615128,0.005860585719347,-0.0027943337336182594
1772639559613354200,3.588354248046875,0.01686539687216282,0.011431919410824776,-0.0036729108542203903
1772639559623399200,3.598399169921875,0.014467662200331688,0.012569881975650787,-0.004320351406931877
1772639559633444400,3.6084443359375,0.013507327064871788,0.011194624938070774,-0.0029829116538167
1772639559643489000,3.618489013671875,0.013441169634461403,0.007429948542267084,-0.004972722847014666
1772639559653534200,3.6285341796875,0.01691632904112339,-0.00038935872726142406,-0.009093698114156723
1772639559663579100,3.6385791015625,0.014767504297196865,0.0003242210950702429,-0.014737136662006378
1772639559673624300,3.648624267578125,0.013739523477852345,0.004585278686136007,-0.016329174861311913
1772639559683669200,3.658669189453125,0.01192548405379057,0.009075396694242954,-0.01537482813000679
1772639559693713200,3.668713134765625,0.009772318415343761,0.006619695574045181,-0.014506904408335686
1772639559703758300,3.67875830078125,0.006852651014924049,0.0041496786288917065,-0.008146683685481548
1772639559713803300,3.68880322265625,0.008381571620702744,0.0009022201411426067,-0.0021559027954936028
1772639559723848400,3.698848388671875,0.008959494531154633,-0.0021059296559542418,-0.0011463086120784283
1772639559733893000,3.70889306640625,0.01083515863865614,-0.003104348899796605,0.0014361590147018433
1772639559743938300,3.718938232421875,0.011011459864675999,-0.0011724915821105242,0.0005820831283926964
1772639559753983200,3.728983154296875,0.00828411616384983,0.003946636337786913,0.002634581411257386
1772639559764028400,3.7390283203125,0.005647833459079266,0.011149129830300808,0.006121854763478041
1772639559774073000,3.749072998046875,0.0018285943660885096,0.006327210459858179,0.009990096092224121
1772639559784118300,3.7591181640625,-0.0011961129494011402,0.002376975491642952,0.008797694928944111
1772639559794163200,3.7691630859375,-0.0015721512027084827,-0.0009471820667386055,0.008903156034648418
1772639559804208400,3.77920849609375,-0.004190976731479168,0.0019417383009567857,0.004440916236490011
1772639559814253300,3.78925341796875,-0.008844051510095596,0.006096802186220884,-0.0007597049698233604
1772639559824297200,3.799297119140625,-0.010489165782928467,0.002214327221736312,-0.00986005924642086
1772639559834342100,3.809342041015625,-0.012054040096700191,0.0017368223052471876,-0.016874292865395546
1772639559844387300,3.81938720703125,-0.012847503647208214,0.005881869234144688,-0.019151844084262848
1772639559854432300,3.829432373046875,-0.012037369422614574,0.007757266983389854,-0.01169712282717228
1772639559864477200,3.839477294921875,-0.007897738367319107,0.011096893809735775,-0.010042126290500164
1772639559874522000,3.849522216796875,-0.0069733550772070885,0.005612379405647516,-0.006168825551867485
1772639559884567300,3.8595673828125,-0.011501636356115341,-0.003076080698519945,-0.007283373735845089
1772639559894612200,3.8696123046875,-0.017315849661827087,-0.005257475655525923,-0.013580151833593845
1772639559904657200,3.8796572265625,-0.01851074770092964,-0.0030659993644803762,-0.019842231646180153
1772639559914702000,3.8897021484375,-0.01608620397746563,0.0017655075062066317,-0.021259034052491188
1772639559924747300,3.899747314453125,-0.01293238066136837,0.0024799308739602566,-0.017901571467518806
1772639559934792200,3.909792236328125,-0.01079998817294836,0.0065210117027163506,-0.012243684381246567
1772639559944837400,3.91983740234375,-0.008980796672403812,0.008042719215154648,-0.000020150095224380493
1772639559954881300,3.92988134765625,-0.00392798101529479,0.0077180806547403336,0.009877754375338554
1772639559964926200,3.93992626953125,-0.0026716759894043207,0.005893022287636995,0.01630558632314205
1772639559974971400,3.949971435546875,0.0011068170424550772,0.005560659803450108,0.018110409379005432
1772639559985016300,3.960016357421875,0.0012466964544728398,0.005986993201076984,0.018065478652715683
1772639559995061200,3.970061279296875,-0.001392229925841093,0.008636306039988995,0.007783546578139067
1772639560005106200,3.980106201171875,-0.004181233234703541,0.0052392324432730675,0.00095707131549716
1772639560015151400,3.9901513671875,-0.007289142347872257,0.0031049749813973904,-0.005035574082285166
1772639560025196300,4.0001962890625,-0.006223267875611782,-0.00023304717615246773,-0.0053752087987959385
1772639560035241200,4.0102412109375,-0.006052026525139809,-0.0021364083513617516,-0.007725980598479509
1772639560045286100,4.0202861328125,-0.004368468187749386,-0.0018629080150276423,-0.008162232115864754
1772639560055331300,4.030331298828125,-0.004907225724309683,-0.0003185409586876631,-0.006853820756077766
1772639560065376300,4.040376220703125,-0.0012215046444907784,0.0010174254421144724,-0.007295280694961548
1772639560075421400,4.05042138671875,-0.0016148535069078207,-0.00043479609303176403,-0.007953880354762077
1772639560085465000,4.060465087890625,0.003996707499027252,0.000015034107491374016,-0.007376400288194418
1772639560095510300,4.07051025390625,0.0077424431219697,0.004097127355635166,-0.006376649718731642
1772639560105555200,4.08055517578125,0.007365214638411999,0.001693836646154523,-0.009111454710364342
1772639560115600400,4.090600341796875,0.00788053683936596,0.0007659911643713713,-0.015623947605490685
1772639560125645000,4.10064501953125,0.005371147766709328,0.005731352139264345,-0.016747785732150078
1772639560135690200,4.110690185546875,0.00449976185336709,0.01016391720622778,-0.01977207139134407
1772639560145735200,4.120735107421875,0.005490648560225964,0.01370367594063282,-0.018563833087682724
1772639560155780400,4.1307802734375,0.005657362751662731,0.010653823614120483,-0.015795476734638214
1772639560165825300,4.1408251953125,0.009514088742434978,0.005342453718185425,-0.009198371320962906
1772639560175870200,4.1508701171875,0.012880857102572918,0.0007943075615912676,-0.0031583216041326523
1772639560185915100,4.1609150390625,0.013605359010398388,-0.0008574654348194599,0.004334340803325176
1772639560195960300,4.170960205078125,0.0176155474036932,-0.0006942134350538254,0.009186886250972748
1772639560206005200,4.181005126953125,0.017724066972732544,-0.0010447625536471605,0.009396362118422985
1772639560216050400,4.191050537109375,0.01619967259466648,-0.002054899698123336,0.005261005833745003
1772639560226094300,4.20109423828125,0.014878382906317711,0.0005279590841382742,-0.0021318369545042515
1772639560236139300,4.21113916015625,0.015881862491369247,0.004221763461828232,-0.010459275916218758
1772639560246184400,4.221184326171875,0.01569216512143612,0.0033262898214161396,-0.01996762305498123
1772639560256229000,4.23122900390625,0.014058847911655903,0.00014088302850723267,-0.026115266606211662
1772639560266274300,4.2412744140625,0.012321357615292072,-0.0011996880639344454,-0.028680095449090004
1772639560276319200,4.2513193359375,0.011731467209756374,0.00006850948557257652,-0.025378042832016945
1772639560286364400,4.261364501953125,0.009511567652225494,0.002037948928773403,-0.022399399429559708
1772639560296409300,4.271409423828125,0.007939769886434078,0.0011077066883444786,-0.01735244318842888
1772639560306454300,4.281454345703125,0.005783219821751118,0.00048238062299788,-0.01509176753461361
1772639560316499200,4.291499267578125,0.007855691015720367,0.002754056826233864,-0.009644003584980965
1772639560326544400,4.30154443359375,0.010049179196357727,0.004181408789008856,-0.004437509458512068
1772639560336589300,4.31158935546875,0.01710815355181694,0.0053228395991027355,0.001503203995525837
1772639560346634500,4.321634521484375,0.0200535636395216,0.007559291087090969,0.004920485429465771
1772639560356678100,4.33167822265625,0.019408011808991432,0.006514799781143665,0.003972399979829788
1772639560366723300,4.341723388671875,0.01385433692485094,-0.0013475320301949978,-0.0037320591509342194
1772639560376768300,4.351768310546875,0.003993982914835215,-0.007974009960889816,-0.014500817283987999
1772639560386813200,4.361813232421875,-0.0016054239822551608,-0.015529694966971874,-0.024946697056293488
1772639560396858000,4.371858154296875,-0.004192418418824673,-0.014045248739421368,-0.036360207945108414
1772639560406903300,4.3819033203125,-0.003672556020319462,-0.005439755506813526,-0.038735903799533844
1772639560416948200,4.3919482421875,-0.0002887435257434845,-0.0008157084230333567,-0.030636433511972427
1772639560426993400,4.401993408203125,0.004235696978867054,-0.0003652363084256649,-0.019773276522755623
1772639560437038000,4.4120380859375,0.011834494769573212,0.0013903193175792694,-0.006542157847434282
1772639560447083300,4.422083251953125,0.013636878691613674,0.0015997076407074928,0.003486563451588154
1772639560457128200,4.432128173828125,0.012750311754643917,-0.0031734758522361517,0.01080599520355463
1772639560467173400,4.44217333984375,0.012883315794169903,0.0011864176485687494,0.013875184580683708
1772639560477218300,4.45221826171875,0.00956048909574747,0.0028706006705760956,0.01491221971809864
1772639560487263200,4.46226318359375,0.0036049869377166033,0.002735366579145193,0.014751103706657887
1772639560497307400,4.472307373046875,0.0012246535625308752,-0.0045334650203585625,0.01435029786080122
1772639560507352300,4.482352294921875,-0.0007090207654982805,-0.010305263102054596,0.00812791008502245
1772639560517397200,4.492397216796875,0.002684379229322076,-0.007259140256792307,0.006649855524301529
1772639560527442200,4.502442138671875,0.008723161183297634,-0.0030444597359746695,0.0015020417049527168
1772639560537487400,4.5124873046875,0.010489635169506073,0.00012310408055782318,-0.004598195198923349
1772639560547532300,4.5225322265625,0.011430577374994755,0.0025216175708919764,-0.007422124035656452
1772639560557577500,4.532577392578125,0.009064358659088612,0.0020190789364278316,-0.009254112839698792
1772639560567622100,4.5426220703125,0.011097554117441177,0.000612740172073245,-0.006926395930349827
1772639560577667300,4.552667236328125,0.00868126843124628,-0.0019201922696083784,-0.0027492279186844826
1772639560587712300,4.562712158203125,0.008601154200732708,-0.0020117342937737703,0.00044691842049360275
1772639560597757400,4.57275732421875,0.004476450849324465,-0.0034964464139193296,0.0018298979848623276
1772639560607802400,4.58280224609375,0.0022510827984660864,-0.0033877030946314335,0.0019933185540139675
1772639560617847300,4.592847412109375,0.0011653120163828135,0.002130100503563881,0.0010923710651695728
1772639560627891200,4.60289111328125,-0.002189492341130972,0.006554384715855122,-0.0006009987555444241
1772639560637936400,4.612936279296875,0.0008624901529401541,0.007982904091477394,0.000431242398917675
1772639560647981000,4.62298095703125,0.0028570126742124557,0.00394833367317915,0.0009104073978960514
1772639560658026200,4.633026123046875,0.0023960196413099766,-0.002133260713890195,0.0032792892307043076
1772639560668071200,4.6430712890625,0.0002781188813969493,-0.002633903408423066,0.0022482750937342644
1772639560678116400,4.653116455078125,-0.0029160764534026384,-0.00021388870663940907,-0.0006963820196688175
1772639560688161300,4.663161376953125,-0.007559581194072962,0.005334117449820042,-0.008168134838342667
1772639560698206200,4.673206298828125,-0.010542587377130985,0.011380558833479881,-0.009340991266071796
1772639560708251100,4.683251220703125,-0.010584787465631962,0.011767063289880753,-0.00907506700605154
1772639560718296300,4.69329638671875,-0.009303008206188679,0.011188358999788761,-0.009523277170956135
1772639560728341200,4.70334130859375,-0.005596220958977938,0.007915237918496132,-0.007198825478553772
1772639560738386400,4.713386474609375,-0.004913652781397104,0.00447310134768486,-0.00676366500556469
1772639560748431000,4.72343115234375,-0.004387395456433296,0.005571013316512108,-0.005501339212059975
1772639560758476300,4.733476318359375,-0.003985791001468897,0.007204330526292324,-0.0066315848380327225
1772639560768520400,4.7435205078125,-0.004694913048297167,0.008769188076257706,-0.008413851261138916
1772639560778565000,4.753565185546875,-0.008085915818810463,0.00951993279159069,-0.009082306176424026
1772639560788610300,4.7636103515625,-0.010624000802636147,0.007874892093241215,-0.010342275723814964
1772639560798655200,4.7736552734375,-0.008649265393614769,0.008367842994630337,-0.007893232628703117
1772639560808700400,4.783700439453125,-0.0015912179369479418,0.015384283848106861,-0.0025438922457396984
1772639560818745300,4.793745361328125,0.005729279480874538,0.016780579462647438,0.004893783945590258
1772639560828790300,4.803790283203125,0.010392210446298122,0.013859227299690247,0.009144069626927376
1772639560838835200,4.813835205078125,0.009743730537593365,0.009208548814058304,0.008513432927429676
1772639560848880400,4.82388037109375,0.004590386990457773,0.0031970718409866095,0.0013680187985301018
1772639560858925300,4.83392529296875,-0.0031916361767798662,-0.00040858215652406216,-0.009444947354495525
1772639560868970500,4.843970458984375,-0.00797977764159441,-0.004901270382106304,-0.020397137850522995
1772639560879015200,4.85401513671875,-0.009379801340401173,-0.0025875158607959747,-0.02728939987719059
1772639560889060400,4.864060302734375,-0.0050783418118953705,0.0017004557885229588,-0.027361221611499786
1772639560899104300,4.874104248046875,-0.0013565741246566176,0.008786328136920929,-0.019664952531456947
1772639560909149200,4.884149169921875,0.004427842330187559,0.007485820446163416,-0.009645776823163033
1772639560919194000,4.894194091796875,0.010381871834397316,0.008529513143002987,0.005955553147941828
1772639560929239300,4.9042392578125,0.012970872223377228,0.006801865994930267,0.01845083385705948
1772639560939284200,4.9142841796875,0.014311772771179676,0.0005314534064382315,0.02447144314646721
1772639560949329400,4.924329345703125,0.0094748605042696,-0.0015746934805065393,0.02363407611846924
1772639560959374000,4.9343740234375,0.0011729882098734379,0.0008866002317517996,0.014060813002288342
1772639560969419300,4.944419189453125,-0.005097219720482826,0.003315842943266034,0.0032633633818477392
1772639560979464200,4.954464111328125,-0.008788361214101315,0.008369723334908485,-0.006134665571153164
1772639560989509400,4.96450927734375,-0.012765791267156601,0.008117788471281528,-0.010380011051893234
1772639560999554000,4.974553955078125,-0.009203813970088959,0.0043989503756165504,-0.009852172806859016
1772639561009599200,4.98459912109375,-0.006422458216547966,0.002396846655756235,-0.002076773438602686
1772639561019644200,4.99464404296875,-0.0010226330487057567,-0.0058954376727342606,0.005909247323870659
1772639561029689300,5.004689453125,0.002023756969720125,-0.009396162815392017,0.013482212089002132
1772639561039733200,5.014733154296875,0.00027113070245832205,-0.01119060069322586,0.015706485137343407
1772639561049778200,5.024778076171875,-0.00010832271073013544,-0.011008902452886105,0.011058289557695389
1772639561059823400,5.0348232421875,-0.004134756047278643,-0.00487431138753891,0.005201998632401228
1772639561069868300,5.044868408203125,-0.0057732099667191505,-0.004299319349229336,-0.004289426375180483
1772639561079913500,5.05491357421875,-0.0063694920390844345,-0.003391713835299015,-0.010845862329006195
1772639561089958100,5.064958251953125,-0.00875451136380434,-0.005343913566321135,-0.014959363266825676
1772639561100003300,5.07500341796875,-0.00907835178077221,-0.004343630280345678,-0.018749041482806206
1772639561110048300,5.08504833984375,-0.013241499662399292,-0.0051863957196474075,-0.019306879490613937
1772639561120093400,5.095093505859375,-0.01479465514421463,-0.0070636579766869545,-0.018021374940872192
1772639561130138400,5.105138427734375,-0.017482617869973183,-0.010050441138446331,-0.015673240646719933
1772639561140183600,5.11518359375,-0.018648283556103706,-0.008854148909449577,-0.01216772198677063
1772639561150228500,5.125228515625,-0.019198626279830933,-0.0036364258266985416,-0.0049651735462248325
1772639561160273400,5.1352734375,-0.0166542436927557,0.0038422630168497562,0.005361232906579971
1772639561170318300,5.145318359375,-0.015713442116975784,0.002991241868585348,0.014258947223424911
1772639561180362500,5.155362548828125,-0.014737925492227077,0.00503148976713419,0.02274244651198387
1772639561190407400,5.165407470703125,-0.015288542956113815,0.0058280956000089645,0.024400003254413605
1772639561200452400,5.175452392578125,-0.016785239800810814,0.0002642194740474224,0.022431928664445877
1772639561210497300,5.185497314453125,-0.016626279801130295,-0.007485758513212204,0.012357623316347599
1772639561220542500,5.19554248046875,-0.017244132235646248,-0.012465071864426136,0.00024716509506106377
1772639561230587400,5.20558740234375,-0.0208960622549057,-0.014453692361712456,-0.012995859608054161
1772639561240632300,5.21563232421875,-0.02244948409497738,-0.011965766549110413,-0.02339177392423153
1772639561250677200,5.22567724609375,-0.022152462974190712,-0.004211190156638622,-0.026532256975769997
1772639561260722400,5.235722412109375,-0.023624392226338387,-0.0003405523020774126,-0.0247988048940897
1772639561270767400,5.245767333984375,-0.02540554851293564,-0.003361424198374152,-0.015289166942238808
1772639561280812500,5.2558125,-0.02077244594693184,-0.007348708808422089,-0.0002878475934267044
1772639561290857200,5.265857177734375,-0.012569766491651535,-0.0104682557284832,0.011845123954117298
1772639561300902400,5.27590234375,-0.002419128082692623,-0.014670723117887974,0.016429223120212555
1772639561310946600,5.285946533203125,0.00009281234815716743,-0.00972143467515707,0.018889006227254868
1772639561320991500,5.295991455078125,-0.0033796834759414196,-0.007064931094646454,0.016360335052013397
1772639561331036400,5.306036376953125,-0.010445382446050644,-0.008477302268147469,0.007126132491976023
1772639561341081300,5.316081298828125,-0.01656639203429222,-0.012470711953938007,-0.00008224556222558022
1772639561351126500,5.32612646484375,-0.01895175129175186,-0.01774558797478676,-0.0029520909301936626
1772639561361171500,5.33617138671875,-0.015622267499566078,-0.015843559056520462,-0.003928139340132475
1772639561371216400,5.34621630859375,-0.006216562353074551,-0.013163688592612743,-0.0010597347281873226
1772639561381261300,5.35626123046875,0.00042003486305475235,-0.012890714220702648,0.001666010357439518
1772639561391306500,5.366306396484375,0.005262898746877909,-0.01154143176972866,0.007928526028990746
1772639561401351400,5.376351318359375,0.004695112816989422,-0.009414365515112877,0.011460144072771072
1772639561411396600,5.386396728515625,0.006535323336720467,-0.007049527019262314,0.009888369590044022
1772639561421441300,5.396441162109375,0.005961146205663681,-0.0032811539713293314,0.005923721008002758
1772639561431486500,5.406486572265625,0.004559996537864208,0.0025068672839552164,0.006072394549846649
1772639561441531400,5.416531494140625,0.00022809859365224838,0.002964131999760866,0.0037413297686725855
1772639561451575600,5.426575439453125,-0.002104473067447543,0.00026449188590049744,0.002432681852951646
1772639561461620200,5.4366201171875,-0.003068537451326847,-0.004830934107303619,0.00464843213558197
1772639561471665400,5.44666552734375,0.0013052832800894976,-0.011509310454130173,0.005833168048411608
1772639561481710300,5.45671044921875,0.004578308202326298,-0.010664822533726692,0.0034184798132628202
1772639561491755500,5.466755615234375,0.005858506541699171,-0.0047580404207110405,0.0017169746570289135
1772639561501800200,5.47680029296875,0.00803377665579319,-0.0015033914241939783,-0.0008276756852865219
1772639561511845400,5.486845458984375,0.008090532384812832,0.0023961886763572693,-0.0016409065574407578
1772639561521890300,5.496890380859375,0.007499311119318008,0.0013658117968589067,-0.0016081496141850948
1772639561531935500,5.506935546875,0.007319705560803413,-0.000950769055634737,0.00024379510432481766
1772639561541980400,5.51698046875,0.005017402581870556,-0.005404373165220022,0.004159440752118826
1772639561552025300,5.527025390625,0.0061406465247273445,-0.00957486778497696,0.006983272265642881
1772639561562070300,5.5370703125,0.008241081610321999,-0.014892133884131908,0.007524959277361631
1772639561572115500,5.547115478515625,0.005570713430643082,-0.011614207178354263,0.00424981489777565
1772639561582160400,5.557160400390625,0.005431163124740124,-0.006167243700474501,-0.0066401176154613495
1772639561592204300,5.567204345703125,0.0029144478030502796,0.000014174962416291237,-0.015353130176663399
1772639561602249500,5.57724951171875,0.00012665055692195892,0.005625987891107798,-0.021062148734927177
1772639561612294400,5.58729443359375,0.0011403255630284548,0.0033238001633435488,-0.020121751353144646
1772639561622339600,5.597339599609375,0.0007557650096714497,-0.0010706819593906403,-0.013205520808696747
1772639561632384300,5.60738427734375,0.0008197282440960407,-0.008991384878754616,-0.005884404759854078
1772639561642429400,5.617429443359375,0.000008263043127954006,-0.012239109724760056,0.0010786959901452065
1772639561652474400,5.627474365234375,-0.000787004129961133,-0.011731581762433052,0.004913561046123505
1772639561662519600,5.63751953125,-0.004752184730023146,-0.008614351972937584,0.0064922827295959
1772639561672564500,5.647564453125,-0.005982612259685993,-0.0041211373172700405,0.00012005073949694633
1772639561682609400,5.657609375,-0.010334217920899391,-0.005189864430576563,-0.00793547835201025
1772639561692654300,5.667654296875,-0.011463165283203125,0.00040379143320024014,-0.014222114346921444
1772639561702699500,5.677699462890625,-0.012034147046506405,-0.0005637351423501968,-0.020566560328006744
1772639561712744400,5.687744384765625,-0.009931439533829689,-0.0049209874123334885,-0.017775043845176697
1772639561722789400,5.697789306640625,-0.009880040772259235,-0.004660263657569885,-0.010734178125858307
1772639561732833300,5.707833251953125,-0.00946972519159317,-0.0002476561348885298,-0.004324933979660273
1772639561742878500,5.71787841796875,-0.013330776244401932,0.00222588749602437,0.002063191030174494
1772639561752923400,5.72792333984375,-0.01830671727657318,0.003563587088137865,0.0066816178150475025
1772639561762968300,5.73796826171875,-0.01963057368993759,0.0021497150883078575,0.005289849825203419
1772639561773013200,5.74801318359375,-0.017619216814637184,0.002483752090483904,0.008996019139885902
1772639561783058400,5.758058349609375,-0.014754454605281353,0.0015191552229225636,0.01075636874884367
1772639561793103400,5.768103271484375,-0.009614317677915096,0.00550466263666749,0.011033771559596062
1772639561803148500,5.7781484375,-0.010641765780746937,0.00470704585313797,0.012683600187301636
1772639561813193200,5.788193115234375,-0.016835540533065796,-0.0037483172491192818,0.015383584424853325
1772639561823238400,5.79823828125,-0.022074511274695396,-0.01700260303914547,0.015001153573393822
1772639561833283300,5.808283447265625,-0.024419616907835007,-0.020410800352692604,0.010079937055706978
1772639561843328500,5.81832861328125,-0.025185009464621544,-0.02008003555238247,0.007004785351455212
1772639561853373200,5.828373291015625,-0.02104676514863968,-0.01466017309576273,0.004183757118880749
1772639561863418400,5.83841845703125,-0.017314080148935318,-0.008644891902804375,0.0007589319720864296
1772639561873462500,5.848462646484375,-0.013475824147462845,-0.002888305578380823,0.0024497900158166885
1772639561883507500,5.858507568359375,-0.01338634081184864,-0.0022456846199929714,0.0069984691217541695
1772639561893552400,5.868552490234375,-0.012012842111289501,-0.0012327209115028381,0.011988984420895576
1772639561903597300,5.878597412109375,-0.007819161750376225,-0.00006625638343393803,0.013356250710785389
1772639561913642500,5.888642578125,-0.01076812669634819,-0.0011097537353634834,0.01635594852268696
1772639561923687400,5.8986875,-0.01744360662996769,-0.004648029338568449,0.01197851076722145
1772639561933732600,5.908732666015625,-0.025480331853032112,-0.005854470189660788,0.007215843070298433
1772639561943777300,5.91877734375,-0.02685532346367836,-0.007789256516844034,0.003493010066449642
1772639561953822500,5.928822509765625,-0.022947920486330986,-0.011137094348669052,-0.0033874246291816235
1772639561963867400,5.938867431640625,-0.01499998103827238,-0.013402910903096199,-0.003601010423153639
1772639561973912600,5.94891259765625,-0.008358870632946491,-0.017716456204652786,-0.0006878864951431751
1772639561983957200,5.958957275390625,-0.007501066196709871,-0.02284490503370762,0.0017941794358193874
1772639561994002400,5.96900244140625,-0.009137018583714962,-0.02845028042793274,0.0046793995425105095
1772639562004047400,5.97904736328125,-0.01544551458209753,-0.032265789806842804,-0.001578762661665678
1772639562014091500,5.989091552734375,-0.02052483707666397,-0.025600643828511238,-0.002289021387696266
1772639562024136200,5.99913623046875,-0.026090577244758606,-0.019079361110925674,-0.004499178379774094
1772639562034181400,6.009181396484375,-0.028316710144281387,-0.015985967591404915,-0.0041576167568564415
1772639562044226300,6.019226318359375,-0.028350800275802612,-0.012416797690093517,-0.0038404343649744987
1772639562054271500,6.029271484375,-0.026367435231804848,-0.011982006952166557,-0.0010414347052574158
1772639562064316400,6.03931640625,-0.0263218954205513,-0.01021739561110735,0.002590051619336009
1772639562074361300,6.049361328125,-0.025627467781305313,-0.008056560531258583,0.0026734021957963705
1772639562084406300,6.05940625,-0.024731846526265144,-0.002269512275233865,0.004742145538330078
1772639562094451500,6.069451416015625,-0.021073604002594948,-0.0009831511415541172,0.004972515627741814
1772639562104496400,6.079496337890625,-0.020228583365678787,-0.0009253602474927902,0.010276200249791145
1772639562114541300,6.089541259765625,-0.02035353146493435,-0.0036082991864532232,0.013815187849104404
1772639562124585500,6.09958544921875,-0.022056622430682182,-0.007624879479408264,0.018319126218557358
1772639562134630400,6.10963037109375,-0.022580120712518692,-0.006719817873090506,0.018996432423591614
1772639562144675600,6.119675537109375,-0.020013365894556046,-0.0037855468690395355,0.016952723264694214
1772639562154719500,6.129719482421875,-0.01889781467616558,-0.003668438410386443,0.013192785903811455
1772639562164764400,6.139764404296875,-0.01600349135696888,-0.003964847885072231,0.00616976385936141
1772639562174809300,6.149809326171875,-0.015896212309598923,0.00045646121725440025,-0.00022510578855872154
1772639562184854500,6.1598544921875,-0.015842949971556664,-0.0005115976091474295,-0.0020123529247939587
1772639562194899500,6.1698994140625,-0.014457745477557182,-0.002811628859490156,-0.004154159687459469
1772639562204944400,6.1799443359375,-0.01162014715373516,-0.0026366589590907097,-0.0017642388120293617
1772639562214989300,6.1899892578125,-0.010298251174390316,0.0007199791725724936,0.0011422820389270782
1772639562225034500,6.200034423828125,-0.010032201185822487,0.0004171777982264757,0.0012165838852524757
1772639562235079400,6.210079345703125,-0.010680506005883217,-0.002563704736530781,-0.0007371394895017147
1772639562245124600,6.22012451171875,-0.012448311783373356,-0.008486308157444,-0.0028857779689133167
1772639562255169300,6.230169189453125,-0.01098167896270752,-0.003794970689341426,-0.005554167553782463
1772639562265214500,6.24021435546875,-0.008233829401433468,0.004044310189783573,-0.004283839836716652
1772639562275259400,6.25025927734375,-0.0018622030038386583,0.007223348133265972,0.0005222111940383911
1772639562285304600,6.2603046875,-0.0008371522999368608,0.004824638832360506,0.0041353218257427216
1772639562295348500,6.270348388671875,-0.0027170912362635136,-0.0025824334006756544,0.007498783990740776
1772639562305393400,6.280393310546875,-0.0058841221034526825,-0.01002303883433342,0.005191953852772713
1772639562315438600,6.2904384765625,-0.00960714090615511,-0.01370127871632576,0.00020844629034399986
1772639562325483500,6.3004833984375,-0.008782893419265747,-0.012466371059417725,-0.0030818888917565346
1772639562335528400,6.310528564453125,-0.005522401072084904,-0.004261594265699387,-0.00436951732262969
1772639562345573400,6.320573486328125,-0.0019684128928929567,0.001699624815955758,-0.004827580880373716
1772639562355618600,6.33061865234375,0.002506243996322155,0.006505587603896856,-0.0034844395704567432
1772639562365663500,6.34066357421875,0.003539284225553274,0.008175656199455261,-0.0019637751393020153
1772639562375708700,6.350708740234375,0.005296565592288971,0.008473586291074753,-0.002947128377854824
1772639562385753300,6.36075341796875,0.0065703559666872025,0.008059198968112469,-0.003703732043504715
1772639562395798500,6.370798583984375,0.010339085943996906,0.007214183919131756,-0.005757534876465797
1772639562405843500,6.380843505859375,0.00948607549071312,0.0067726317793130875,-0.006466735154390335
1772639562415888600,6.390888671875,0.007230300456285477,0.0029510119929909706,-0.005626159720122814
1772639562425932300,6.400932373046875,0.004786584060639143,0.0025161176454275846,-0.007937517017126083
1772639562435977500,6.4109775390625,0.007578220218420029,0.00007003662176430225,-0.006656373385339975
1772639562446022400,6.4210224609375,0.011184672825038433,-0.00018536043353378773,-0.006016948726028204
1772639562456067600,6.431067626953125,0.018033193424344063,0.004599046893417835,-0.001557827927172184
1772639562466112300,6.4411123046875,0.02230064384639263,0.001970506738871336,-0.00012131873518228531
1772639562476157400,6.451157470703125,0.023863622918725014,-0.0009351815097033978,0.0005515641532838345
1772639562486202400,6.461202392578125,0.022073712199926376,-0.004010866396129131,-0.00114540196955204
1772639562496247600,6.47124755859375,0.014279155060648918,-0.0009947277139872313,-0.0020234351977705956
1772639562506292500,6.48129248046875,0.010269233956933022,0.0026460797525942326,-0.003501756116747856
1772639562516337400,6.49133740234375,0.012151414528489113,0.003135623410344124,-0.004541448783129454
1772639562526382300,6.50138232421875,0.012239565141499043,-0.0020005491096526384,-0.00043059326708316803
1772639562536427500,6.511427490234375,0.012691911309957504,-0.006928250193595886,-0.001598927192389965
1772639562546472400,6.521472412109375,0.013686602003872395,-0.0038693437818437815,-0.004748115316033363
1772639562556517600,6.531517578125,0.009785417467355728,-0.0004896731115877628,-0.011828595772385597
1772639562566561500,6.5415615234375,0.006876712664961815,0.005451040342450142,-0.015424394980072975
1772639562576606500,6.5516064453125,0.007281400263309479,0.007848517037928104,-0.017883867025375366
1772639562586651600,6.561651611328125,0.004766576923429966,0.008228816092014313,-0.014871032908558846
1772639562596696300,6.5716962890625,0.0038946138229221106,0.004366764798760414,-0.005941928829997778
1772639562606741500,6.581741455078125,0.005352694541215897,0.002232240978628397,0.0034230768214911222
1772639562616786400,6.591786376953125,0.006988030392676592,-0.002036572201177478,0.011194550432264805
1772639562626831600,6.60183154296875,0.007396826054900885,-0.0024624119978398085,0.01733207143843174
1772639562636876500,6.61187646484375,0.004295025486499071,-0.002866570372134447,0.020150508731603622
1772639562646921500,6.62192138671875,0.003806069027632475,-0.00156002352014184,0.017042864114046097
1772639562656966400,6.63196630859375,0.0010385317727923393,-0.0009280294179916382,0.013930562883615494
1772639562667011600,6.642011474609375,0.0011594390962272882,-0.0008657113648951054,0.005748267285525799
1772639562677056500,6.652056396484375,-0.001241933205164969,-0.0016215168870985508,0.0015204991213977337
1772639562687101700,6.662101806640625,-0.0033144052140414715,-0.0026915748603641987,-0.0023938152007758617
1772639562697146400,6.672146484375,-0.004854591563344002,-0.003890915075317025,-0.002592019736766815
1772639562707190500,6.6821904296875,-0.008190200664103031,-0.004528209567070007,0.0006133606657385826
1772639562717235500,6.6922353515625,-0.012027000077068806,-0.002795665990561247,-0.00034059491008520126
1772639562727280400,6.7022802734375,-0.01455380767583847,-0.0061429934576153755,0.001992067787796259
1772639562737325300,6.7123251953125,-0.014290215447545052,-0.008101575076580048,0.0017537865787744522
1772639562747370500,6.72237060546875,-0.011526120826601982,-0.006690632086247206,-0.0027512162923812866
1772639562757415400,6.73241552734375,-0.00656667398288846,-0.0008954301010817289,-0.0012939195148646832
1772639562767460600,6.742460693359375,-0.003778610611334443,0.005201344378292561,-0.00038684671744704247
1772639562777505300,6.75250537109375,-0.00667368620634079,0.005198219791054726,0.001703288871794939
1772639562787550500,6.762550537109375,-0.012006133794784546,0.001964609371498227,0.001751758623868227
1772639562797595400,6.772595458984375,-0.017025504261255264,-0.008043847978115082,-0.00032220780849456787
1772639562807640600,6.782640625,-0.02223970741033554,-0.014729980379343033,-0.0015326146967709064
1772639562817685200,6.792685302734375,-0.020019426941871643,-0.011082647368311882,-0.004672599956393242
1772639562827730400,6.80273046875,-0.016555452719330788,-0.0045011769980192184,-0.005538926459848881
1772639562837775400,6.812775390625,-0.011483260430395603,-0.0016377074643969536,-0.0052279457449913025
1772639562847819500,6.822819580078125,-0.008060832507908344,-0.0011572730727493763,-0.0076836468651890755
1772639562857864400,6.832864501953125,-0.0036020430270582438,0.0016699929255992174,-0.010157985612750053
1772639562867909400,6.842909423828125,-0.00360310822725296,0.004850872792303562,-0.010391810908913612
1772639562877954600,6.85295458984375,-0.002258945954963565,0.005711969453841448,-0.008620847016572952
1772639562887999500,6.86299951171875,-0.006119996774941683,0.0019079101039096713,-0.006951044779270887
1772639562898044700,6.873044677734375,-0.004930100403726101,0.0003646044060587883,-0.0037819151766598225
1772639562908089300,6.88308935546875,-0.001447218470275402,-0.0015805682633072138,-0.0011001117527484894
1772639562918134500,6.893134521484375,0.0003902851603925228,-0.006501275114715099,0.0015077367424964905
1772639562928179500,6.903179443359375,0.0017476982902735472,-0.007002214901149273,0.005108064040541649
1772639562938224600,6.913224609375,0.005103135947138071,-0.0014653177931904793,0.0042264205403625965
1772639562948269300,6.923269287109375,0.009798555634915829,0.0016447219531983137,0.0021009515039622784
1772639562958314500,6.933314453125,0.009510405361652374,0.0028347568586468697,-0.001537315547466278
1772639562968359400,6.943359375,0.009340762160718441,-0.001745347399264574,-0.003973308485001326
1772639562978404600,6.953404541015625,0.00942961685359478,-0.004698934964835644,-0.00800364464521408
1772639562988448300,6.9634482421875,0.009603520855307579,-0.0026837203186005354,-0.012233544141054153
1772639562998493400,6.973493408203125,0.00985978078097105,0.0005703577771782875,-0.009540213271975517
1772639563008538400,6.983538330078125,0.010956737212836742,0.0015011327341198921,-0.009023560211062431
1772639563018583600,6.99358349609375,0.013846185989677906,-0.0016393857076764107,-0.00559160765260458
1772639563028628500,7.00362841796875,0.015405998565256596,-0.004610674921423197,-0.003694637678563595
1772639563038673400,7.01367333984375,0.012451552785933018,-0.007624080404639244,-0.003032767679542303
1772639563048718300,7.02371826171875,0.011454198509454727,-0.006148688495159149,-0.006274899933487177
1772639563058763500,7.033763427734375,0.01079414039850235,-0.001958660315722227,-0.00971638597548008
1772639563068808400,7.043808349609375,0.007669453043490648,0.0007569650188088417,-0.014847498387098312
1772639563078853400,7.053853271484375,0.006101497448980808,0.0021675422322005033,-0.014353441074490547
1772639563088898300,7.063898193359375,0.00574836228042841,0.003359573194757104,-0.00913258083164692
1772639563098943500,7.073943603515625,0.01002193707972765,0.0016618079971522093,0.0009490819647908211
1772639563108988400,7.083988525390625,0.011669368483126163,-0.0021627575624734163,0.008213385939598083
1772639563119033900,7.094033935546875,0.011286484077572823,-0.00391673156991601,0.013461596332490444
1772639563129078000,7.104078125,0.009142639115452766,-0.002586748916655779,0.011493519879877567
1772639563139123000,7.114123046875,0.006209949962794781,0.0034643281251192093,0.005674524698406458
1772639563149167900,7.12416796875,0.004658391699194908,0.006300328299403191,-0.0005647288635373116
1772639563159212800,7.134212890625,0.004607341252267361,0.0065639689564704895,-0.007533208001405001
1772639563169258000,7.144258056640625,0.0040976121090352535,0.004923994652926922,-0.013103742152452469
1772639563179303000,7.154302978515625,0.004460721276700497,0.001682978356257081,-0.011166581884026527
1772639563189347800,7.164347900390625,0.004171235486865044,-0.0032201677095144987,-0.009790260344743729
1772639563199392800,7.174392822265625,0.0034478602465242147,-0.0007531081791967154,-0.00890948437154293
1772639563209438000,7.18443798828125,0.0007306369952857494,0.003339105285704136,-0.004429248161613941
1772639563219483000,7.19448291015625,-0.0027647148817777634,0.003879264695569873,-0.003934078849852085
1772639563229528000,7.204528076171875,-0.003373247105628252,0.005848405882716179,-0.0027865227311849594
1772639563239572700,7.21457275390625,-0.004279709421098232,0.005362363066524267,-0.0017908480949699879
1772639563249618000,7.224617919921875,0.00071291858330369,0.009837538935244083,-0.0011002905666828156
1772639563259662800,7.234662841796875,0.003140345448628068,0.01626434363424778,-0.002591334283351898
1772639563269707000,7.24470703125,0.0012862526345998049,0.017249446362257004,-0.0016208789311349392
1772639563279751700,7.254751708984375,-0.0022087274119257927,0.01332484558224678,-0.0018592742271721363
1772639563289796900,7.264796875,-0.01185363158583641,0.004872238729149103,-0.007474815938621759
1772639563299841800,7.274841796875,-0.014102495275437832,-0.0021550506353378296,-0.0016270754858851433
1772639563309887000,7.284886962890625,-0.013683314435184002,-0.0018181605264544487,0.0026201338041573763
1772639563319931600,7.294931640625,-0.0076224952936172485,-0.004117402248084545,0.009074692614376545
1772639563329976800,7.304976806640625,-0.004271972458809614,-0.0028926150407642126,0.013740817084908485
1772639563340021800,7.315021728515625,-0.0010716351680457592,-0.0009869658388197422,0.01746896468102932
1772639563350067000,7.32506689453125,-0.00005963398143649101,0.001122790388762951,0.01703806407749653
1772639563360111900,7.33511181640625,0.0017617658013477921,0.0034596757031977177,0.013703862205147743
1772639563370156800,7.34515673828125,0.0005497612291947007,0.009876562282443047,0.01160582434386015
1772639563380201700,7.35520166015625,-0.0019241604022681713,0.011641939170658588,0.010914837941527367
1772639563390247000,7.365246826171875,-0.005287466570734978,0.007153714541345835,0.010085264220833778
1772639563400291800,7.375291748046875,-0.007657676935195923,0.005729591008275747,0.007659536320716143
1772639563410335700,7.385335693359375,-0.009913640096783638,0.005323458928614855,0.005310361739248037
1772639563420381000,7.395380859375,-0.006974950898438692,0.00551770580932498,0.004136690869927406
1772639563430425900,7.40542578125,-0.003740008920431137,0.0035472330637276173,0.0019957758486270905
1772639563440471000,7.415470947265625,0.0005337486509233713,0.003868689062073827,-0.0027379379607737064
1772639563450515700,7.425515625,0.004426224622875452,0.003709165845066309,-0.005606428254395723
1772639563460561000,7.435560791015625,0.004368579015135765,0.003073283238336444,-0.00979597307741642
1772639563470605800,7.445605712890625,0.0024931810330599546,0.0008846975397318602,-0.011409848928451538
1772639563480651000,7.455651123046875,0.001340045826509595,-0.0011739039327949286,-0.01362336054444313
1772639563490696000,7.465696044921875,0.0012263287790119648,-0.004732952453196049,-0.012952776625752449
1772639563500740900,7.475740966796875,0.0024232780560851097,-0.007268759422004223,-0.014049192890524864
1772639563510785800,7.485785888671875,0.005504022818058729,-0.011229945346713066,-0.010731426998972893
1772639563520831000,7.4958310546875,0.009093870408833027,-0.010391723364591599,-0.011416831985116005
1772639563530876000,7.5058759765625,0.013040408492088318,-0.006984475068747997,-0.007480680476874113
1772639563540919800,7.515919921875,0.0143231600522995,-0.006419625133275986,-0.004759490489959717
1772639563550964700,7.52596484375,0.012260276824235916,-0.006698457524180412,-0.001752515323460102
1772639563561010000,7.536010009765625,0.007898235693573952,-0.007951147854328156,0.0011623483151197433
1772639563571054800,7.546054931640625,0.004704039543867111,-0.006559379864484072,0.0014646169729530811
1772639563581099800,7.556099853515625,0.000989904161542654,-0.0024432046338915825,-0.0005093468353152275
1772639563591144700,7.566144775390625,-0.0013459543697535992,0.0016492751892656088,-0.0020579746924340725
1772639563601190000,7.57618994140625,-0.00460016867145896,-0.0003920481540262699,-0.004723585210740566
1772639563611234800,7.58623486328125,-0.002633956726640463,0.0007230176124721766,-0.0036599189043045044
1772639563621280000,7.596280029296875,-0.0017652470851317048,0.0019624303095042706,-0.0027255257591605186
1772639563631324700,7.60632470703125,-0.00044858024921268225,-0.0009465406183153391,0.003273776965215802
1772639563641369900,7.616369873046875,-0.0002946328604593873,-0.0001916433684527874,0.0011962344869971275
1772639563651414800,7.626414794921875,-0.003168183844536543,0.0012738942168653011,0.0018684160895645618
1772639563661460000,7.6364599609375,-0.0038699773140251637,0.0014438647776842117,0.0009363451972603798
1772639563671505000,7.6465048828125,0.00009147496894001961,-0.0007124969270080328,0.000536604318767786
1772639563681549800,7.6565498046875,0.004977407865226269,-0.0009207460097968578,0.0010296069085597992
1772639563691594000,7.666593994140625,0.006206989288330078,0.0021943533793091774,-0.0038234712556004524
1772639563701639000,7.676638916015625,0.003521285718306899,0.0009585213847458363,-0.0026706806384027004
1772639563711683800,7.686683837890625,-0.0038319681771099567,-0.006536945700645447,-0.005441433284431696
1772639563721728800,7.696728759765625,-0.003792520146816969,-0.006300674751400948,-0.010683087632060051
1772639563731774000,7.70677392578125,0.00044270476792007685,0.002465652534738183,-0.009097442030906677
1772639563741819000,7.71681884765625,0.006889300886541605,0.006532530300319195,-0.003359581809490919
1772639563751864000,7.726864013671875,0.01015114039182663,0.011763511225581169,0.005158538930118084
1772639563761908700,7.73690869140625,0.006230078171938658,0.011418625712394714,0.009634483605623245
1772639563771954000,7.746953857421875,-0.0017463554395362735,0.0005603854078799486,0.013016165234148502
1772639563781998800,7.756998779296875,-0.006775769405066967,-0.01192775834351778,0.00972691923379898
1772639563792044000,7.7670439453125,-0.011015255004167557,-0.01586603932082653,0.0019337115809321404
1772639563802089000,7.7770888671875,-0.010551393032073975,-0.016663217917084694,-0.008263995870947838
1772639563812134000,7.7871337890625,-0.011318117380142212,-0.010909724049270153,-0.018417298793792725
1772639563822178800,7.7971787109375,-0.009705101139843464,0.0003833170048892498,-0.02284579910337925
1772639563832223000,7.807222900390625,-0.005771080031991005,0.0063048554584383965,-0.018240127712488174
1772639563842267600,7.817267578125,-0.0008224546327255666,0.008428101427853107,-0.006500578951090574
1772639563852312800,7.827312744140625,0.002702771918848157,0.009220657870173454,0.004938763566315174
1772639563862357800,7.837357666015625,0.001078257104381919,0.009687532670795918,0.016906052827835083
1772639563872403000,7.84740283203125,-0.0005049922037869692,0.007765262387692928,0.026847898960113525
1772639563882448000,7.85744775390625,-0.0027672669384628534,0.005838318262249231,0.030551888048648834
1772639563892492800,7.867492919921875,-0.006689304020255804,0.004423114471137524,0.027022402733564377
1772639563902537700,7.877537841796875,-0.011343130841851234,-0.0014458890073001385,0.01805322803556919
1772639563912583000,7.8875830078125,-0.012570315971970558,-0.005998029839247465,0.007612305693328381
1772639563922627800,7.8976279296875,-0.009752538986504078,-0.004552633501589298,-0.003534663002938032
1772639563932673000,7.907673095703125,-0.005984432529658079,-0.0016548479907214642,-0.01129857636988163
1772639563942717700,7.9177177734375,-0.0057435547932982445,-0.00035929749719798565,-0.015908092260360718
1772639563952763000,7.927762939453125,-0.008234408684074879,-0.003932193852961063,-0.017321964725852013
1772639563962807800,7.937807861328125,-0.00990129541605711,-0.004479496274143457,-0.015080755576491356
1772639563972851700,7.947851806640625,-0.014226268976926804,-0.003960179630666971,-0.012255141511559486
1772639563982897000,7.95789697265625,-0.012940995395183563,-0.0009188011754304171,-0.013092193752527237
1772639563992941800,7.96794189453125,-0.011711680330336094,0.0049715787172317505,-0.00836082175374031
1772639564002987000,7.977987060546875,-0.010807804763317108,0.004710719920694828,-0.004783546086400747
1772639564013032000,7.988031982421875,-0.010584631934762001,0.0021255891770124435,0.0012724818661808968
1772639564023076900,7.998076904296875,-0.010694311000406742,0.003960709553211927,0.005051715765148401
1772639564033121800,8.008121826171875,-0.008873241022229195,0.002117002848535776,0.0076405745930969715
1772639564043167000,8.0181669921875,-0.009438282810151577,0.001862789853475988,0.006957270670682192
1772639564053212000,8.0282119140625,-0.009906732477247715,0.0017994067166000605,0.008014545775949955
1772639564063256800,8.0382568359375,-0.010774515569210052,0.0022110766731202602,0.008546107448637486
1772639564073301800,8.0483017578125,-0.00988422054797411,-0.001989793498069048,0.007979919202625751
1772639564083347000,8.058346923828125,-0.009890171699225903,-0.0063552530482411385,0.007659782189875841
1772639564093392000,8.068391845703125,-0.011900591664016247,-0.010451194830238819,0.006620083935558796
1772639564103437000,8.07843701171875,-0.010465211234986782,-0.00557943619787693,0.0035192882642149925
1772639564113480700,8.088480712890625,-0.012579761445522308,-0.011907372623682022,-0.0044536832720041275
1772639564123526400,8.0985263671875,-0.011812710203230381,0.0024117380380630493,-0.011118048802018166
1772639564133571000,8.108571044921876,-0.01261778362095356,-0.0029468084685504436,-0.016165271401405334
1772639564143616300,8.1186162109375,-0.011123217642307281,0.000521959038451314,-0.0199299156665802
1772639564153661200,8.1286611328125,-0.009679784066975117,-0.0018908646889030933,-0.02084258198738098
1772639564163706400,8.138706298828126,-0.007625405211001635,-0.005127513315528631,-0.018732301890850067
1772639564173751000,8.1487509765625,-0.00774817680940032,-0.006775743793696165,-0.014170042239129543
1772639564183796200,8.158796142578124,-0.00577975669875741,-0.00550809595733881,-0.009974580258131027
1772639564193841200,8.168841064453124,-0.00466868607327342,-0.0026451973244547844,-0.005356392357498407
1772639564203886300,8.17888623046875,-0.005767506547272205,-0.004607414826750755,-0.004332939628511667
1772639564213931300,8.18893115234375,-0.004474541638046503,-0.0015519699081778526,-0.0028186659328639507
1772639564223976200,8.19897607421875,-0.0018637035973370075,0.0022179465740919113,-0.0015704473480582237
1772639564234021000,8.209021240234375,0.005143606103956699,0.006173806264996529,0.0005683372728526592
1772639564244066300,8.21906640625,0.010370639152824879,0.007457520347088575,0.004680611193180084
1772639564254110500,8.2291103515625,0.00947182159870863,-0.0032848725095391273,0.0043027084320783615
1772639564264155100,8.239155029296874,0.005446920171380043,-0.0069382935762405396,-0.0019154609180986881
1772639564274200300,8.249200439453125,-0.0034890505485236645,-0.009858982637524605,-0.0033559645526111126
1772639564284245200,8.259245361328125,-0.011867915280163288,-0.013510487042367458,-0.007567174267023802
1772639564294290400,8.26929052734375,-0.012602148577570915,-0.016151543706655502,-0.0079962108284235
1772639564304335000,8.279335205078125,-0.009219435043632984,-0.011759241111576557,-0.006819337606430054
1772639564314380300,8.28938037109375,-0.005787685513496399,0.00213793246075511,0.0032053336035460234
1772639564324425200,8.29942529296875,-0.0018346005817875266,0.007320944685488939,0.011259105056524277
1772639564334470400,8.309470458984375,0.00008101121056824923,0.005014647264033556,0.016643483191728592
1772639564344515300,8.319515380859375,0.006191917695105076,-0.002213813364505768,0.016743605956435204
1772639564354560300,8.329560302734375,0.009573599323630333,-0.004536888562142849,0.019895724952220917
1772639564364605200,8.339605224609375,0.009720824658870697,-0.007180945947766304,0.022775845602154732
1772639564374650000,8.349650146484375,0.007129835430532694,-0.007583349011838436,0.02546590380370617
1772639564384695300,8.3596953125,-0.0019291702192276716,0.0034321523271501064,0.031697049736976624
1772639564394739200,8.3697392578125,-0.007596909534186125,-0.00023795012384653091,0.028612840920686722
1772639564404784000,8.3797841796875,-0.008419954217970371,-0.003351907478645444,0.02063439041376114
1772639564414829300,8.389829345703125,-0.0019969420973211527,-0.00455725472420454,0.01055991929024458
1772639564424874200,8.399874267578125,0.0018480656435713172,-0.004732451867312193,0.002059300895780325
1772639564434919200,8.409919189453126,0.0009836036479100585,-0.0062043811194598675,-0.005979184526950121
1772639564444964000,8.419964111328126,-0.0007595430943183601,-0.0024558790028095245,-0.009715616703033447
1772639564455009300,8.43000927734375,-0.004279443062841892,-0.004210369661450386,-0.013589451089501381
1772639564465054200,8.44005419921875,-0.004356971476227045,-0.0023561897687613964,-0.014456674456596375
1772639564475099400,8.450099365234376,-0.0015923440223559737,0.006089226342737675,-0.012733610346913338
1772639564485144000,8.46014404296875,-0.0005051337648183107,0.0075695752166211605,-0.007005399093031883
1772639564495189200,8.470189208984374,-0.004391751252114773,0.0013244624715298414,-0.0003552194684743881
1772639564505234200,8.480234130859374,-0.007364057935774326,-0.005696358624845743,0.00039534643292427063
1772639564515279400,8.490279296875,-0.005079864524304867,-0.0019511552527546883,-0.0003993408754467964
1772639564525324300,8.50032421875,-0.006040122825652361,-0.004013257101178169,0.0025052877608686686
1772639564535368200,8.5103681640625,-0.008165058679878712,-0.0039480095729231834,0.0013862275518476963
1772639564545413400,8.520413330078124,-0.009149063378572464,-0.0021316856145858765,-0.004072743467986584
1772639564555458300,8.530458251953124,-0.012604248709976673,-0.007407141383737326,-0.0015185056254267693
1772639564565503200,8.540503173828125,-0.015234480611979961,-0.004605370573699474,-0.0008773906156420708
1772639564575548200,8.550548095703125,-0.012356935068964958,-0.003272192319855094,0.0017333063296973705
1772639564585593300,8.56059326171875,-0.013136503286659718,-0.005192690063267946,0.005382174625992775
1772639564595638300,8.57063818359375,-0.011780422180891037,-0.00022456329315900803,0.003366694087162614
1772639564605683200,8.58068310546875,-0.010089927352964878,0.004863020032644272,0.005155474878847599
1772639564615728000,8.59072802734375,-0.01218077540397644,0.007374381180852652,0.006412220187485218
1772639564625773300,8.600773193359375,-0.015248741023242474,0.006546802818775177,0.0076866657473146915
1772639564635818200,8.610818359375,-0.01669803261756897,0.007538297213613987,0.007847520522773266
1772639564645863200,8.62086328125,-0.017579520121216774,-0.002003250177949667,0.00495013315230608
1772639564655908400,8.630908447265625,-0.015646064653992653,-0.008877668529748917,0.0036643592175096273
1772639564665953300,8.640953369140625,-0.016100415959954262,-0.006841306574642658,0.0012709880247712135
1772639564675997200,8.6509970703125,-0.018273023888468742,-0.00739444512873888,-0.0002912222407758236
1772639564686042400,8.66104248046875,-0.01957354135811329,-0.006918281316757202,-0.002815417479723692
1772639564696087000,8.671087158203125,-0.02041962929069996,-0.0059563471004366875,-0.00424739858135581
1772639564706132200,8.68113232421875,-0.02114412933588028,-0.008570159785449505,-0.007193516008555889
1772639564716177200,8.69117724609375,-0.019247958436608315,-0.005899542011320591,-0.006110674701631069
1772639564726222300,8.701222412109376,-0.01817254349589348,-0.00267826858907938,0.0004647676832973957
1772639564736267300,8.711267333984376,-0.014659302309155464,-0.0012886309996247292,0.004275218583643436
1772639564746312200,8.721312255859376,-0.014280334115028381,-0.00017835944890975952,0.010234041139483452
1772639564756357000,8.731357177734376,-0.020879380404949188,-0.005589902400970459,0.00883934460580349
1772639564766402300,8.74140234375,-0.025959141552448273,-0.008912533521652222,0.0030759102664887905
1772639564776447200,8.751447265625,-0.028600463643670082,-0.0038266945630311966,-0.0022506783716380596
1772639564786492400,8.761492431640624,-0.0320955328643322,-0.002345483051612973,-0.008488791063427925
1772639564796537000,8.771537109375,-0.033088624477386475,0.021465839818120003,-0.008652575314044952
1772639564806582300,8.781582275390624,-0.03220103681087494,0.025603126734495163,-0.006569923833012581
1772639564816626400,8.79162646484375,-0.030029764398932457,0.0057569826021790504,0.0010496466420590878
1772639564826671000,8.801671142578124,-0.023699574172496796,-0.0005207012873142958,0.011810272932052612
1772639564836716300,8.81171630859375,-0.02048220857977867,0.0013885190710425377,0.015461733564734459
1772639564846761200,8.82176123046875,-0.02143004536628723,-0.000181571114808321,0.016427941620349884
1772639564856806400,8.831806396484374,-0.024055389687418938,0.0018437625840306282,0.013929363340139389
1772639564866851300,8.841851318359375,-0.026519672945141792,0.0019533918239176273,0.009902466088533401
1772639564876896300,8.851896240234375,-0.027796659618616104,0.0032841733191162348,-0.0004519037902355194
1772639564886941200,8.861941162109375,-0.027107419446110725,0.011743726208806038,-0.006020729895681143
1772639564896986400,8.871986328125,-0.030116260051727295,0.031157372519373894,-0.016808129847049713
1772639564907031300,8.88203125,-0.029445094987750053,0.03304242715239525,-0.021064572036266327
1772639564917076200,8.892076171875,-0.024869250133633614,0.027976829558610916,-0.018340159207582474
1772639564927121200,8.90212109375,-0.019241882488131523,0.029602987691760063,-0.004132565576583147
1772639564937166300,8.912166259765625,-0.01694011129438877,0.02212030440568924,0.00670969532802701
1772639564947211300,8.922211181640625,-0.014971563592553139,0.003258106764405966,0.017652427777647972
1772639564957255200,8.932255126953125,-0.01599288545548916,-0.000939035089686513,0.026260031387209892
1772639564967300000,8.942300048828125,-0.015370272099971771,-0.0029929133597761393,0.029632413759827614
1772639564977345300,8.95234521484375,-0.010885508731007576,-0.0035511122550815344,0.026817718520760536
1772639564987390200,8.96239013671875,-0.011877489276230335,-0.0019084035884588957,0.02542736940085888
1772639564997435400,8.972435302734375,-0.011243656277656555,-0.021003268659114838,0.018003275617957115
1772639565007480000,8.98247998046875,-0.014749394729733467,-0.011961765587329865,0.019174354150891304
1772639565017525200,8.992525146484375,-0.01512356847524643,-0.005998948588967323,0.021571200340986252
1772639565027570200,9.002570068359375,-0.01375275943428278,-0.037787120789289474,0.04212953522801399
1772639565037615400,9.012615478515626,-0.01243582647293806,-0.04726584255695343,0.08762005716562271
1772639565047660300,9.022660400390626,-0.0032982402481138706,-0.09533268213272095,0.11229461431503296
1772639565057705200,9.032705322265626,0.007969594560563564,-0.11187411099672318,0.11376867443323135
1772639565067750100,9.042750244140626,0.016707928851246834,-0.07734480500221252,0.0767892599105835
1772639565077795300,9.05279541015625,0.013249014504253864,-0.01852196827530861,0.010546321049332619
1772639565087839200,9.062839111328126,0.00000753824133425951,0.0412260927259922,-0.059155575931072235
1772639565097884200,9.07288427734375,-0.011974822729825974,0.09691944718360901,-0.11638957262039185
1772639565107929300,9.082929443359374,-0.019653430208563805,0.1391313374042511,-0.1412811279296875
1772639565117974300,9.092974365234374,-0.025797875598073006,0.14719697833061218,-0.14175596833229065
1772639565128018700,9.103018798828124,-0.02637743018567562,0.12870405614376068,-0.10901450365781784
1772639565138063600,9.113063720703124,-0.018215641379356384,0.0783063992857933,-0.057718291878700256
1772639565148108800,9.12310888671875,0.001665797783061862,0.022461721673607826,0.005583977326750755
