time,seconds_elapsed,z,y,x
1772732869756059000,0.073058837890625,-0.06731003368496895,0.03868245308306068,-0.03643427229747176
1772732869766087200,0.083087158203125,0.005532499685883522,0.008843414332158864,0.007479322904720902
1772732869776115000,0.093114990234375,0.14259236142337323,-0.0546065829237923,0.051859074313938616
1772732869786143000,0.10314306640625,0.09342705623805522,-0.06942651438228786,0.004783288753777742
1772732869796171000,0.1131708984375,-0.010269465079903601,-0.07993577956743537,-0.04664605237338692
1772732869806199000,0.123198974609375,0.028990532162785528,-0.09749795893877744,-0.03409439464043826
1772732869816227000,0.13322705078125,0.0872059897661209,-0.10287176093161106,-0.015981303388066588
1772732869826255000,0.143255126953125,0.06771627639830112,-0.0764133775949478,-0.003262508927285671
1772732869836283000,0.153282958984375,0.01310381172299385,-0.09970471173543483,-0.02700516703184694
1772732869846311200,0.163311279296875,0.03423018638193607,-0.10086104216370731,-0.029999380411766467
1772732869856339000,0.1733388671875,0.07927344320118426,-0.10970025524478405,-0.0008819339336827396
1772732869866367000,0.183366943359375,0.05367196895480156,-0.11624682734403759,-0.01376527130641043
1772732869876395000,0.19339501953125,0.035868601238727565,-0.09441504436209797,-0.002045169026777148
1772732869886423000,0.203423095703125,0.04859773443043232,-0.06531144374627619,-0.001193118774704635
1772732869896451000,0.213451171875,0.06580488981902599,-0.06463675935510546,0.010143062221258879
1772732869906479000,0.22347900390625,0.053689504611492155,-0.056789918312244114,0.004085260019637644
1772732869916507000,0.2335068359375,0.040836452779173846,-0.04885470486618578,-0.020572430570609868
1772732869926535200,0.24353515625,0.04713058448731899,-0.04128061635009944,-0.02683302533533424
1772732869936562200,0.253562255859375,0.059898296123743054,-0.024070867145620286,-0.007224179099872708
1772732869946591200,0.26359130859375,0.03749824826717377,-0.03919182737730443,0.0069387497546151275
1772732869956618000,0.273617919921875,0.05129822556078434,-0.06994301253706216,-0.012312844008393584
1772732869966646000,0.28364599609375,0.06703472387492657,-0.07041318733207881,-0.01420603734385222
1772732869976674000,0.293674072265625,0.052103112202882766,-0.07420344646051526,-0.01036287898439914
1772732869986702000,0.3037021484375,0.047487727361917496,-0.0743853788986802,-0.00940824514068663
1772732869996730000,0.313730224609375,0.05243628968000412,-0.04734853808693588,0.009114924749918282
1772732870006758000,0.3237578125,0.0474959106683731,-0.03247925106137991,-0.002250336210057139
1772732870016786200,0.3337861328125,0.031037527820467946,-0.050113143962062894,-0.007810856414027512
1772732870026814000,0.34381396484375,0.056689270949363706,-0.04850019234009087,-0.008899601498804985
1772732870036842000,0.353842041015625,0.05397299772799015,-0.060245502126216884,-0.003961195248551667
1772732870046870000,0.3638701171875,0.04759527938961983,-0.07804645868949592,-0.00824661748278886
1772732870056898000,0.37389794921875,0.05138473480045795,-0.067984827673994,-0.024100312435813245
1772732870066926000,0.383926025390625,0.04482347658872604,-0.09913750630673021,-0.005176818116009235
1772732870076954000,0.3939541015625,0.06265022518038749,-0.07275328418482095,-0.03220065331570804
1772732870086982000,0.40398193359375,0.04679506892263889,-0.01974920455422252,-0.004817264088615775
1772732870097010200,0.41401025390625,0.03513385722339153,-0.010453041485883295,-0.0011879311429336666
1772732870107038000,0.424037841796875,0.050559389892220495,-0.016617336269281805,-0.00517813329026103
1772732870117066200,0.434066162109375,0.06075228260457515,-0.003173478936962783,-0.03429203610438853
1772732870127094000,0.444093994140625,0.05389525631666183,-0.015961356578581033,-0.05486680476255715
1772732870137122000,0.4541220703125,0.04374211109280586,-0.009264123962260782,-0.03473952414356172
1772732870147150000,0.464150146484375,0.05858779804706573,0.026101971114426848,0.0029972821198403833
1772732870157177900,0.474177734375,0.047663668450713154,0.10108864037450402,0.013051460481248795
1772732870167206100,0.4842060546875,0.06156885968446731,0.2331763762552291,0.05404646482300013
1772732870177234000,0.49423388671875,0.047938978260755535,0.3584721504408866,0.05911335629113018
1772732870187262000,0.504261962890625,0.04884440266788006,0.3908988675974309,0.03505615234468132
1772732870197290000,0.5142900390625,0.04603285237848759,0.16377422912921755,0.009909874519892036
1772732870207318000,0.524318115234375,0.04847089318037033,-0.2136541123246774,-0.026441103408299384
1772732870217346000,0.534345947265625,0.04506780673861503,-0.5281762080105021,-0.015149053815007208
1772732870227374000,0.5443740234375,0.059442369049787516,-0.7120961301982403,0.014481785545311867
1772732870237401900,0.55440185546875,0.06091828682124614,-0.6702208358906209,0.01730827767550945
1772732870247430100,0.56443017578125,0.06626023237109184,-0.39328956212624905,0.026372385553643105
1772732870257457000,0.574456787109375,0.04002104474306106,-0.10069211533758789,-0.0065943567637354135
1772732870267485200,0.584485107421875,0.03353869698643684,0.13241682170461863,-0.033035314041562375
1772732870277513000,0.594512939453125,0.044861470511555666,0.31260519268121567,-0.18449348429199308
1772732870287541200,0.604541259765625,0.005842296287417411,0.33617044839225707,-0.11529928082823752
1772732870297569000,0.614569091796875,0.040186464437842365,0.2117038550397381,0.025372926187515257
1772732870307596800,0.6245966796875,0.10053308885097503,-0.06420735496189445,0.04642539536003023
1772732870317625000,0.634625,0.04099135107994079,-0.3435295424507931,0.055648493192158636
1772732870327652900,0.64465283203125,0.03861994577348232,-0.40485659273602065,0.03269910435713828
1772732870337681200,0.65468115234375,0.04325169722735882,-0.3689014457250014,0.036235827115923165
1772732870347709000,0.664708984375,0.07119008998870849,-0.17066745924167334,0.035566732215322555
1772732870357737000,0.674737060546875,0.07981003429591656,0.13749481908865271,0.00787376558240503
1772732870367765000,0.684764892578125,0.041186581391096114,0.34989151523075995,-0.01146422782242298
1772732870377793000,0.69479296875,0.04255436261296272,0.3383259093930945,-0.05582742995563894
1772732870387821000,0.704821044921875,0.036302316480875015,0.08380019991062582,-0.07324461136572062
1772732870397849000,0.71484912109375,0.05728957493007183,-0.22340510648842898,-0.07451390064917504
1772732870407876900,0.724876953125,0.05850888759195804,-0.38677415235023943,-0.052228126822039485
1772732870417905200,0.7349052734375,0.06046119070351123,-0.3697755982110277,-0.03978946447689086
1772732870427933000,0.744932861328125,0.04532908802330494,-0.2535551839498803,-0.004405724145658314
1772732870437961200,0.754961181640625,0.05173837054371833,-0.04569740987904369,-0.0000621054507791996
1772732870447989000,0.764989013671875,0.05156476754248142,0.12406773022804408,0.0029689693408086896
1772732870458017000,0.77501708984375,0.06351940923035145,0.217869318866916,-0.006160166597552598
1772732870468045000,0.785045166015625,0.07280337040424346,0.2175501699151471,0.020116941888071595
1772732870478073000,0.795072998046875,0.0457446830868721,0.09203764770627021,0.05097491189055144
1772732870488101000,0.80510107421875,0.038003275179862975,-0.08092077201679349,0.0469827735144645
1772732870498129200,0.815129150390625,0.052989247387647626,-0.2279052674518898,0.03670936291180551
1772732870508157000,0.825156982421875,0.052695232877135276,-0.3219863306192681,0.001571633230894804
1772732870518185200,0.835185302734375,0.04579553649127483,-0.30183797067962587,-0.03989201153591275
1772732870528213000,0.845212890625,0.05100479557216167,-0.14084566388651729,-0.0889031125402078
1772732870538241000,0.855240966796875,0.04738660507500171,0.03457216822002083,-0.11874372219368814
1772732870548269000,0.86526904296875,0.036298224827647205,0.1781884293310344,-0.07523607744388282
1772732870558297000,0.875297119140625,0.021647183662652968,0.19200301967188715,-0.032653730845451354
1772732870568324000,0.885323974609375,0.054445875936746595,0.08435608022771775,0.008512501877360046
1772732870578351900,0.895351806640625,0.055823594030737875,-0.0686248426105827,0.043008499588631094
1772732870588380200,0.905380126953125,0.05809855322539806,-0.22134251140281558,0.08362575665917248
1772732870598408000,0.915407958984375,0.06005377894639968,-0.24435101001393048,0.07079663369171321
1772732870608436200,0.925436279296875,0.060038581377267836,-0.1699003473266959,0.06535024138670414
1772732870618464000,0.935464111328125,0.04160509906411171,0.0025463234819471836,0.05741002297196537
1772732870628492000,0.945491943359375,0.0662619859367609,0.03902925722673535,-0.006284194836020469
1772732870638520000,0.95552001953125,0.031823125240206716,0.10671155829019843,-0.06901990634277462
1772732870648548000,0.965548095703125,0.05666939720511436,0.06568593961447478,-0.09647913728505372
1772732870658576100,0.975576171875,0.04187514817714691,-0.009700542618148029,-0.128295869317092
1772732870668604200,0.985604248046875,0.053421793586015696,-0.070510985150747,-0.07058262561485171
1772732870678632200,0.995632080078125,0.039539398705959315,-0.13464808788802474,-0.015105981858260929
1772732870688660200,1.00566015625,0.034767361998558045,-0.14520396869387478,0.042229806833714245
1772732870698688300,1.015688232421875,0.06977203988432884,-0.11507321698740124,0.04858524027504026
1772732870708716000,1.025716064453125,0.03698386900424957,-0.02103562763556838,0.03241586696896702
1772732870718744300,1.035744384765625,0.05059153859615326,0.04505370514802635,0.04236216450911015
1772732870728772000,1.045772216796875,0.04818506197631359,0.08147939228024333,0.05416936055030674
1772732870738800000,1.055800048828125,0.05775134722292423,0.06815181827135383,0.0323158041279763
1772732870748828200,1.065828125,0.04055295966267586,-0.0046581280041486026,0.015772117616795003
1772732870758856000,1.07585595703125,0.040729485273361205,-0.11878767093326896,-0.007713058595359325
1772732870768884200,1.08588427734375,0.05556231274604797,-0.19981701789107173,-0.04395991856195032
1772732870778912000,1.095912109375,0.049742812812328334,-0.20902532001286744,-0.05949325898680836
1772732870788940300,1.105940185546875,0.05244271942079067,-0.13528134429026395,-0.0697333518417552
1772732870798968000,1.115968017578125,0.043158758246898646,-0.019356259713880716,-0.018269560455717145
1772732870808996000,1.12599609375,0.053479076731204986,0.08944416061434894,0.01780870147831738
1772732870819024100,1.136024169921875,0.037465515041351316,0.12092851888686418,0.020319369124993682
1772732870829052200,1.14605224609375,0.04436053525209427,0.07671992279347031,0.04580152784064412
1772732870839080200,1.156080078125,0.05637070651948452,-0.0272317423293367,0.03556348081231117
1772732870849108200,1.166108154296875,0.05625555570721626,-0.12465225211773066,0.028093327594734728
1772732870859136000,1.176135986328125,0.06406827528476715,-0.18732322782520203,0.001742898144572973
1772732870869164300,1.186164306640625,0.05629939484894275,-0.2138743674792349,-0.026975904404744504
1772732870879191000,1.19619091796875,0.03339841173291206,-0.1642402392057702,0.0023423618750646707
1772732870889219000,1.206218994140625,0.07316518945395946,-0.01202394406441599,-0.01207483400143683
1772732870899247000,1.2162470703125,0.05621931535005569,0.10999452548362314,-0.05536985891386866
1772732870909275100,1.226275146484375,0.038407179805636404,0.18614545275010166,-0.09608147973697632
1772732870919303200,1.23630322265625,0.03394669326543808,0.14495361066199838,-0.08887421523928642
1772732870929331000,1.2463310546875,0.03189385238885879,0.019412739141471683,-0.0613952566832304
1772732870939359200,1.256359130859375,0.05378419715762138,-0.12600092678032815,-0.010884382107853889
1772732870949387000,1.266386962890625,0.05381634586155414,-0.2822275900742039,0.03484243652876466
1772732870959415300,1.276415283203125,0.06071604224741459,-0.3134085084207356,0.07036094568818807
1772732870969443000,1.286443115234375,0.06398936482965946,-0.2130769700238481,0.07981807147189975
1772732870979471000,1.29647119140625,0.05392506693303585,-0.016779979485087096,0.07645604769289494
1772732870989499100,1.3064990234375,0.04641162256300449,0.1574618311120197,0.02432944501657039
1772732870999527200,1.316527099609375,0.051180152139067646,0.2004682483414188,-0.014213709193654358
1772732871009555200,1.32655517578125,0.04625555521845817,0.14033994285408408,-0.04077639315500855
1772732871019583200,1.336583251953125,0.051669981482625006,0.028960246622376142,-0.04209814327806234
1772732871029611000,1.346611083984375,0.05065174435079097,-0.10024141242802143,-0.02911773873902857
1772732871039639300,1.356639404296875,0.03990297132134437,-0.19414247938599435,-0.022617782260477542
1772732871049667000,1.3666669921875,0.04560030618011951,-0.20175883614122866,-0.014120916343666612
1772732871059695400,1.3766953125,0.04859247373342514,-0.16139869563691317,-0.033142902601882816
1772732871069723100,1.38672314453125,0.04004617918431758,-0.06433467113599181,-0.03777615189310163
1772732871079751200,1.396751220703125,0.0527507624566555,0.04662069873642176,-0.016014292342215776
1772732871089779200,1.406779296875,0.04674070838689804,0.122308502003178,0.019705657673440874
1772732871099807200,1.41680712890625,0.04299041594266891,0.14648454655632376,0.020223142208904026
1772732871109835300,1.426835205078125,0.03761749073266983,0.0773468955853954,0.01365070501603186
1772732871119863300,1.43686328125,0.04767535888850689,-0.054258901997283095,0.0048389644637703896
1772732871129891000,1.44689111328125,0.043354573079943656,-0.184023857486248,0.01007266386616975
1772732871139919400,1.45691943359375,0.05787058968842029,-0.2271431239729747,-0.014977350509911775
1772732871149947100,1.466947021484375,0.04723170677423477,-0.1627524483334273,-0.033199162833765145
1772732871159974100,1.47697412109375,0.03913140242695808,-0.05424326603673398,-0.026308234276250002
1772732871170002200,1.487002197265625,0.0452478394806385,0.04727459606789052,-0.02641231570523232
1772732871180030200,1.4970302734375,0.0362549702078104,0.09495543484911322,-0.008518200965784489
1772732871190058200,1.507058349609375,0.07157295182645321,0.06815569072887301,-0.009240998815000057
1772732871200086000,1.5170859375,0.039272272202372546,-0.016016593897156418,0.0035200638849288224
1772732871210114300,1.5271142578125,0.05172551106214523,-0.08940021187476813,0.03597377864625305
1772732871220142000,1.53714208984375,0.061331543797254556,-0.12784538560323416,0.05620422737877816
1772732871230170400,1.54717041015625,0.06150280871093273,-0.13092238189578057,0.05425850013848394
1772732871240198100,1.5571982421875,0.052369654184579846,-0.12184033650215714,0.012025953358411789
1772732871250226200,1.56722607421875,0.04411562058031559,-0.05715900735296309,-0.026137225090898573
1772732871260254200,1.577254150390625,0.045291094100475306,-0.004044160824269056,-0.07218571342993527
1772732871270282200,1.5872822265625,0.05605038852393627,0.06463807452935726,-0.06948562415838241
1772732871280310300,1.597310302734375,0.04468611394464969,0.0800932351514697,-0.043806883424706754
1772732871290338300,1.60733837890625,0.0493564438432455,0.0345213148156181,-0.01984700237289071
1772732871300366000,1.617365966796875,0.051040451407432554,-0.05583210613075643,0.009567015898972749
1772732871310394000,1.62739404296875,0.044642859324812885,-0.10799582594707607,0.020347608838789163
1772732871320422100,1.637422119140625,0.06472469336688517,-0.14926665155552327,0.014657982362434267
1772732871330450200,1.6474501953125,0.060389294511079786,-0.1058107735255733,-0.0033771848155185577
1772732871340478200,1.657478271484375,0.05422434214055538,-0.02072981308940798,-0.005841492569819092
1772732871350506000,1.667506103515625,0.03323240751624107,0.06224423819538206,0.010468348652869462
1772732871360534300,1.6775341796875,0.048320671054720876,0.07146850507128984,-0.020546784672699867
1772732871370562000,1.68756201171875,0.032303017711639403,0.028341932060942054,-0.038037323579937214
1772732871380590000,1.697590087890625,0.025592706418037414,-0.03572849864829331,-0.018269341260008513
1772732871390618000,1.7076181640625,0.04866553896963596,-0.1025365376278758,-0.01862264820970595
1772732871400646100,1.717646240234375,0.04301204325258732,-0.1241812005398795,0.003489157290011644
1772732871410674200,1.727674072265625,0.04393266522884369,-0.09997541843559592,0.009632884209416806
1772732871420702200,1.7377021484375,0.05680559080541134,-0.06361209248248487,0.01235452772565186
1772732871430730000,1.74772998046875,0.0542494765818119,-0.02057049434185028,0.0018951660968363284
1772732871440757200,1.75775732421875,0.042105449801683424,0.028644933595508335,-0.0036959319084882733
1772732871450785300,1.767785400390625,0.04403086490631103,0.02966854102220386,0.00031385172214359045
1772732871460813000,1.77781298828125,0.0483762006342411,0.0030975276239216328,-0.011023571382835507
1772732871470841000,1.787841064453125,0.04525777635276317,-0.017809286000207064,-0.009476013147272169
1772732871480869000,1.797869140625,0.056363107734918594,-0.05126417716071009,-0.00035356267802417275
1772732871490897200,1.807897216796875,0.0493523521900177,-0.08827763758562504,0.01401504481639713
1772732871500925200,1.81792529296875,0.045916532522439955,-0.09626618865411728,-0.008225903488323092
1772732871510953200,1.827953125,0.02990063274502754,-0.07107906736228614,-0.007438041046261787
1772732871520981000,1.83798095703125,0.04873918872773647,-0.015575937457568943,-0.0036861776994541284
1772732871531009300,1.84800927734375,0.037948914644122124,0.03879311038330197,-0.012273169585131107
1772732871541037000,1.858037109375,0.050365328624844545,0.04907466775979846,-0.006515811634808778
1772732871551065000,1.868065185546875,0.050965048083662985,0.012349303561262785,0.009082154991477727
1772732871561093000,1.878093017578125,0.04903378776013851,-0.04326634680721909,-0.0016303776808083057
1772732871571121200,1.88812109375,0.054904725620150564,-0.10024795176666229,0.014381101649813353
1772732871581149200,1.898149169921875,0.06495967116653918,-0.08899685523826628,0.005717829657532274
1772732871591177200,1.90817724609375,0.06153671098053455,-0.0935835254414007,-0.0064923211613669984
1772732871601205000,1.918205078125,0.04716624032258987,-0.03062993340026587,0.0025989304520189762
1772732871611233300,1.9282333984375,0.04639642499387264,0.04039130282755941,-0.01219926409870386
1772732871621261000,1.938260986328125,0.028419454276561736,0.03490059645678848,-0.03994377825576812
1772732871631289300,1.948289306640625,0.04787234276533127,0.005624708013981581,-0.0346475715437904
1772732871641317000,1.958317138671875,0.05731587841510773,-0.02766589596290141,-0.008724135334044694
1772732871651345200,1.96834521484375,0.044929859572649,-0.04908950000274926,0.0165322518017143
1772732871661373200,1.978373291015625,0.029249475359916684,-0.05652962340824306,0.020701427245140073
1772732871671401200,1.988401123046875,0.04888122754693031,-0.05849219218548387,0.020647943492233752
1772732871681429200,1.99842919921875,0.0581663577646017,-0.04993449945952743,0.02492185795176774
1772732871691457300,2.008457275390625,0.057686465293169016,-0.0245010021911934,0.003870338627323508
1772732871701485000,2.018485107421875,0.04448503841459751,-0.0013627031879499553,-0.0040080665975809095
1772732871711513300,2.028513427734375,0.04372106830477714,0.0362873746400699,0.003140343852341175
1772732871721541000,2.038541015625,0.05075637376904487,0.034155404112674294,-0.013442761353775859
1772732871731568000,2.048568115234375,0.04524316330552101,-0.013330569683574139,-0.009428411145880817
1772732871741596200,2.05859619140625,0.04152209695577621,-0.06528751488141715,-0.01276464289650321
1772732871751624200,2.068624267578125,0.043642157849669454,-0.10001428914126008,-0.014461400344409047
1772732871761652200,2.07865234375,0.061170800277590746,-0.06693561088200659,-0.029906952887959776
1772732871771680000,2.088679931640625,0.058335284590721126,-0.027730595229566096,-0.011603088303841649
1772732871781708300,2.098708251953125,0.04576163422167301,-0.01899612116459757,-0.01083484387770295
1772732871791736000,2.108736083984375,0.05592530083954334,0.02990724514890462,-0.007347695881687104
1772732871801764400,2.118764404296875,0.042892216265201566,0.025766784343309698,0.0033281580420210957
1772732871811792100,2.128792236328125,0.05531856711804867,-0.008085362506471573,0.005764956734888255
1772732871821820200,2.138820068359375,0.050991936090588566,-0.049041386544704434,0.009280673238262534
1772732871831848200,2.14884814453125,0.047727381336688995,-0.06154679398313164,0.006073511227406561
1772732871841876200,2.158876220703125,0.045637131059169764,-0.06337130599655211,0.0016865648474544287
1772732871851904300,2.168904296875,0.04189560644328594,-0.032005130743607876,0.007922353964485228
1772732871861932300,2.178932373046875,0.061498132535815236,-0.0017777867948636412,0.004753624267876148
1772732871871960000,2.1889599609375,0.031556583258509636,0.016246785923838613,-0.016271153180114923
1772732871881988000,2.198988037109375,0.0487555553406477,-0.010172726707160473,-0.02907262095566839
1772732871892016000,2.20901611328125,0.039787820509076116,-0.01614314288627356,-0.009939429407939314
1772732871902044200,2.219044189453125,0.05193944607377052,-0.030927016650699076,0.004553169792331755
1772732871912072200,2.229072265625,0.04807166472971439,-0.04730941165294498,-0.0040269174285233016
1772732871922100000,2.239099853515625,0.0431476523309946,-0.053965837334841484,0.01684928186163306
1772732871932128300,2.249128173828125,0.055277066063880914,-0.03488393758293241,0.016209449588134885
1772732871942156000,2.259156005859375,0.04091127158105373,-0.03242258897069841,-0.0263433055896312
1772732871952184300,2.269184326171875,0.039404958671331404,-0.01125697827991098,-0.030488040711544453
1772732871962212000,2.279212158203125,0.04763268879055976,0.017625271202810107,-0.032216070080548526
1772732871972240100,2.289240234375,0.05107902985215187,0.009854235342517495,-0.02038666220754385
1772732871982268200,2.29926806640625,0.03852408418357372,-0.013273103875294326,-0.0058098187899217005
1772732871992296200,2.309296142578125,0.04063245463967323,-0.045012240626476706,-0.007440269535966217
1772732872002323200,2.3193232421875,0.04543605552911758,-0.06236110604070127,0.015000329526700079
1772732872012351200,2.329351318359375,0.029583237358927726,-0.058648515258356924,0.011690035934932529
1772732872022379300,2.339379150390625,0.03212590757906437,-0.038187929298076774,0.036066534963622686
1772732872032407300,2.3494072265625,0.03750584705173969,0.00912221300723031,0.02970580429267138
1772732872042435000,2.35943505859375,0.050070145070552824,0.018670505939424036,0.012923523252643645
1772732872052463000,2.369463134765625,0.03584931201636791,0.038904754064232105,0.007433547534234822
1772732872062491100,2.3794912109375,0.03435702763199806,0.002705843158904463,-0.02141969504971057
1772732872072519200,2.389519287109375,0.04829261400401592,-0.03666112158959731,-0.009189999280124901
1772732872082547200,2.399547119140625,0.06596797142624855,-0.048891127886436875,-0.023478563808277248
1772732872092575000,2.409574951171875,0.06163724874556064,-0.05562299342472106,-0.012395042399130762
1772732872102603300,2.419603271484375,0.05671966608762741,-0.013254399174824356,-0.0004326192636042833
1772732872112631000,2.429631103515625,0.05044190099239349,-0.011458656598161905,-0.007671594073809683
1772732872122659300,2.439659423828125,0.061358431804180144,0.0033051242263056335,-0.008988887217454613
1772732872132687000,2.44968701171875,0.05595394241213798,0.018218780116550624,-0.011934037291258573
1772732872142715100,2.459715087890625,0.05789104795455932,0.0066057366742752486,-0.01551233416944742
1772732872152743200,2.4697431640625,0.06732172412276267,0.0061612443097867065,0.009496215685084462
1772732872162771200,2.479771240234375,0.051017070531845087,-0.010082491140440106,0.014889416498132049
1772732872172799200,2.48979931640625,0.03336977016031742,-0.04364104360481724,-0.0009149959530681372
1772732872182827300,2.4998271484375,0.04759586391150951,-0.03529671963490546,0.003374335271306336
1772732872192855000,2.50985498046875,0.04550093745887279,-0.05900843461193144,-0.00014722645096480847
1772732872202883300,2.51988330078125,0.05267535913288593,-0.03501974759073928,-0.012427848690189421
1772732872212911000,2.5299111328125,0.048026656544208526,0.013174575404264033,-0.011957929623499512
1772732872222939100,2.539939208984375,0.05145896908044815,0.010243252926412968,-0.004725749880261719
1772732872232967200,2.54996728515625,0.05505611678957939,0.010032258790545165,-0.001223915771767497
1772732872242995200,2.5599951171875,0.04788344868123531,-0.00007644450338557362,-0.00565576073937118
1772732872253023200,2.570023193359375,0.051638417300581926,-0.036580037443712354,0.009039886752329767
1772732872263051300,2.58005126953125,0.04251695321202278,-0.06260841359896585,0.008994842034205794
1772732872273078300,2.590078369140625,0.05703238529860973,-0.04230670799482614,-0.0066673489347100256
1772732872283106000,2.60010595703125,0.0423679001301527,-0.046561607226636256,-0.02440539632961154
1772732872293134300,2.61013427734375,0.032031799554824825,-0.004640957673639059,-0.016125607229582964
1772732872303162000,2.620162109375,0.05837269399166107,0.006834376064687967,-0.023504136640951037
1772732872313190100,2.630190185546875,0.03966565543413162,0.020523842188529668,-0.009884703546017408
1772732872323218200,2.64021826171875,0.06196341196000576,0.010693279982544482,0.004918386375531554
1772732872333246200,2.65024609375,0.045212183645367617,-0.0012061974519863724,-0.0005115662513300776
1772732872343274200,2.660274169921875,0.0627414105951786,-0.016609993213042615,0.026367234454490244
1772732872353302300,2.67030224609375,0.043591888967156406,-0.02546016607955098,0.02408993717227131
1772732872363330000,2.680330078125,0.04523439547717571,-0.03231896419944241,0.019406492063775656
1772732872373358300,2.6903583984375,0.061686933106184005,-0.025736900661699473,-0.002656286662444472
1772732872383386000,2.70038623046875,0.05584054516553878,-0.0011140256565064191,-0.013638576186820864
1772732872393414100,2.7104140625,0.0574824671536684,0.00680206296397373,-0.012338964830338955
1772732872403442200,2.720442138671875,0.04939969846308231,0.013846848642639815,-0.00807513337340206
1772732872413470200,2.73047021484375,0.03758125037550926,0.018315938614401964,-0.009662658293172716
1772732872423498200,2.740498291015625,0.03685118253529072,-0.009598105156980454,-0.00879694484192878
1772732872433526300,2.7505263671875,0.05841887122094631,-0.03875635856948793,-0.002363696924038231
1772732872443554000,2.760553955078125,0.05814122332334518,-0.05408513459926471,-0.004739632275141775
1772732872453582000,2.77058203125,0.03809270702898502,-0.049555765807628625,-0.009308401495404541
1772732872463610000,2.780610107421875,0.05245557890236378,-0.011056213277112693,0.004411277103610336
1772732872473638100,2.79063818359375,0.046313422885537144,0.008640548703819513,0.0023238763703033326
1772732872483666200,2.800666259765625,0.04660159217715263,0.027658023183699695,0.013309234634600578
1772732872493694000,2.81069384765625,0.058418286699056625,0.018145148624759168,0.0063444736558943985
1772732872503722200,2.82072216796875,0.04854805006980896,-0.015063293494004756,-0.006848623785749078
1772732872513750000,2.83075,0.05783318028748035,-0.01802135784830898,0.004459427094273269
1772732872523778300,2.8407783203125,0.03884089504778385,-0.03306744447918609,0.00458243241943419
1772732872533806000,2.85080615234375,0.04857786068618297,-0.023301070083212107,0.021459004146791992
1772732872543833300,2.860833251953125,0.052914428585767746,-0.030616361532639712,0.014675518019124865
1772732872553861000,2.870861083984375,0.04857201546728611,0.005392177899740636,0.01336695617120713
1772732872563889200,2.88088916015625,0.04407061239480972,0.0012506393819116054,-0.004734298512898385
1772732872573917200,2.890917236328125,0.057982817891240115,0.006821790577750652,-0.009056984017603098
1772732872583945200,2.9009453125,0.04092939175963402,0.0018233612359501421,-0.006911058030091226
1772732872593973200,2.91097314453125,0.04393149618506431,-0.01581299761645496,-0.0016327888336032628
1772732872604001300,2.921001220703125,0.061008887714147565,-0.011879512358736246,0.006329129956290125
1772732872614029000,2.931029052734375,0.06148527305424213,-0.026244302194565534,-0.012027158934809266
1772732872624057000,2.94105712890625,0.05611527045369148,-0.04122821030942723,-0.004938698511198163
1772732872634085000,2.951085205078125,0.057762453138828274,-0.02523340811897069,-0.017394567719474435
1772732872644113200,2.961113037109375,0.04563070131838321,-0.007013915616367012,-0.012013824529200792
1772732872654141200,2.97114111328125,0.05684007759690284,0.020670447584986686,0.011153846698999404
1772732872664168700,2.981168701171875,0.05937807164192199,0.008221190780587494,-0.005605893715657294
1772732872674196500,2.991196533203125,0.044268765315413475,0.003106879974156618,0.005001534614339471
1772732872684224500,3.001224609375,0.04113397442102432,-0.021671587451547382,0.00047463177442550657
1772732872694252500,3.01125244140625,0.058951370662450785,-0.029949970045778897,0.022342691646143793
1772732872704280600,3.021280517578125,0.06195932030677795,-0.03155404424155131,-0.00011807342171669006
1772732872714308600,3.03130859375,0.062111295998096464,-0.03273735400829464,-0.003825878431089222
1772732872724336600,3.041336669921875,0.059717094337940216,-0.01698032436277717,-0.011870032144337891
1772732872734364400,3.051364501953125,0.05386719926595687,-0.001353040310461074,-0.022389636060409248
1772732872744392700,3.061392822265625,0.04053834661543369,0.01562823390038684,0.006171235980838537
1772732872754420500,3.07142041015625,0.0353051221370697,0.014618289672862737,-0.016964286543428898
1772732872764448800,3.08144873046875,0.052523967963457104,-0.0004360715960152447,-0.005875796698220074
1772732872774476500,3.0914765625,0.04401566733717918,-0.011546152218524366,-0.017808884141407907
1772732872784504600,3.101504638671875,0.041942368194460865,-0.01683253165623173,-0.0017790289038792251
1772732872794532600,3.11153271484375,0.06126140117049217,-0.026296635170001536,-0.0038421354461461305
1772732872804560400,3.121560302734375,0.04629880983829498,-0.0085516831102781,0.0060545873312279576
1772732872814587600,3.131587646484375,0.03340659503936767,0.000845784908067435,0.0035941885670647024
1772732872824615400,3.141615478515625,0.045214521732926366,-0.00541387827489525,0.0019743688128888606
1772732872834643700,3.151643798828125,0.05596154119670391,0.007868267423380166,0.0036827436333522197
1772732872844671500,3.16167138671875,0.053714639052748675,0.005473700437042862,0.005087715060450137
1772732872854699500,3.171699462890625,0.05341244123578071,-0.011383929127827286,-0.006653101213648915
1772732872864727600,3.1817275390625,0.04459785113930702,-0.0019655461856164036,0.007671082617156207
1772732872874755600,3.191755615234375,0.060629533007740974,-0.02020325019834563,0.0129826330287382
1772732872884783600,3.20178369140625,0.05854688151478767,-0.02635263967355713,-0.013896752198971808
1772732872894811600,3.211811767578125,0.04254091860949993,-0.02362502307426184,-0.00009089315384626388
1772732872904839400,3.22183935546875,0.057357963991165155,0.002782251129671931,-0.001157426406815648
1772732872914867700,3.23186767578125,0.05151566770374775,-0.00009308511093258858,0.0024692761903628707
1772732872924895500,3.2418955078125,0.0633341157913208,0.010335461254511027,-0.010160451747477053
1772732872934923800,3.251923828125,0.04402852681875229,0.004989022192638367,0.0021837737798690794
1772732872944951600,3.26195166015625,0.037893385064601895,-0.020397512395121158,-0.004933985803462565
1772732872954979600,3.2719794921875,0.04839081368148326,-0.02013951904606074,-0.0014952069938182829
1772732872965007600,3.282007568359375,0.04914367787539959,-0.019227701430767772,-0.0024453838581219313
1772732872975035400,3.292035400390625,0.04735971706807613,-0.011133881623204797,-0.00029255320578813553
1772732872985063700,3.302063720703125,0.04466214854717254,-0.014129866835102438,-0.0007621069462969899
1772732872995091500,3.312091552734375,0.05064765269756317,0.007804718934185802,0.0017162658659741281
1772732873005119500,3.322119384765625,0.04808803134262561,0.007083729449566453,-0.02185560224894434
1772732873015147500,3.3321474609375,0.04733633619248867,0.006659658818598836,0.0026925270196050404
1772732873025175600,3.342175537109375,0.04898702600896358,-0.0002831277903169393,0.009324037455953657
1772732873035203600,3.35220361328125,0.048995209315419196,-0.0036445487811230123,0.01254672582950443
1772732873045231600,3.362231689453125,0.04855214172303676,-0.01590705084176734,0.016834778412245212
1772732873055259400,3.37225927734375,0.06067512571513652,-0.03040478287488222,0.01451400731448084
1772732873065287700,3.38228759765625,0.052146951344609255,-0.010722670473810285,-0.010906082483008504
1772732873075315500,3.3923154296875,0.05543254888653755,-0.015352960622962564,-0.0037897476717829704
1772732873085342700,3.4023427734375,0.055852820125222205,-0.003378664386551827,0.0065201955489814275
1772732873095370500,3.41237060546875,0.054045478442311286,0.01820301629183814,0.008849953670799732
1772732873105398500,3.4223984375,0.04207856179475784,0.003809237823542207,-0.004440978122130036
1772732873115426600,3.432426513671875,0.04418868581652641,-0.008217628850322217,-0.009144260442256927
1772732873125454300,3.442454345703125,0.042864743736386296,-0.029517295983247458,-0.0010809271045029163
1772732873135482600,3.452482666015625,0.03599836509823799,-0.036567926880810404,-0.00882050838060677
1772732873145510400,3.462510498046875,0.047511108237504956,-0.014032817935105413,0.015162315155379474
1772732873155538400,3.472538330078125,0.041676995256543156,-0.014719759019650518,0.009307195919007062
1772732873165566500,3.48256640625,0.040188802525401114,-0.005181348160654306,0.013227986091934143
1772732873175594500,3.492594482421875,0.055149055770039555,0.014796495783980936,-0.005244439992122352
1772732873185622500,3.50262255859375,0.053203182399272915,0.015377291346620768,-0.0028571429967880245
1772732873195650600,3.512650634765625,0.04451894068419933,-0.0020503018596209586,0.006192424899339676
1772732873205678300,3.52267822265625,0.053358665221929544,-0.0013204897477291525,-0.009289952523261308
1772732873215706600,3.53270654296875,0.044539398950338364,-0.0062715362838469445,0.008444441609829663
1772732873225734400,3.542734375,0.05143266559541225,-0.019509842840395867,0.010779935352690517
1772732873235762700,3.5527626953125,0.05877250696420669,-0.01809034969760105,0.01585789620410651
1772732873245790500,3.56279052734375,0.05772913539111614,-0.01294023692542687,-0.005610314162448048
1772732873255818500,3.572818603515625,0.03660860595107078,0.009226477099303156,-0.017777539155073463
1772732873265846500,3.582846435546875,0.04796761983335018,0.012418478073645382,-0.005177183442190289
1772732873275874600,3.59287451171875,0.061736032944917675,0.020951474749762562,-0.002539016958326101
1772732873285902600,3.602902587890625,0.06323533159196376,-0.0054187188467942175,0.0009074702337384223
1772732873295930600,3.6129306640625,0.04424538443982601,-0.0035122824372723696,0.013435747091099619
1772732873305958400,3.62295849609375,0.051741877675056454,-0.02173354677185416,0.003292173413187265
1772732873315986700,3.632986572265625,0.05340367340743542,-0.015537760871648787,0.0030426556315273044
1772732873326014500,3.643014404296875,0.04876607673466205,-0.0031051446747966107,0.02350245614051819
1772732873336042800,3.653042724609375,0.060875616723299025,0.0033376199901103973,0.005124759135209023
1772732873346069500,3.663069580078125,0.061173138365149496,0.007275050770584494,0.010628982574678958
1772732873356097500,3.67309765625,0.048441667085886,0.0007150164015591144,0.01522628376968205
1772732873366125600,3.68312548828125,0.05607786105275154,0.002686700067017227,-0.0045021702574566
1772732873376153300,3.6931533203125,0.04935527479946613,-0.009258899797871709,0.0016232903528958559
1772732873386181600,3.703181640625,0.04098199872970581,-0.009936817325744777,0.009422054470330477
1772732873396209400,3.71320947265625,0.037544425496459005,-0.013529361924994735,0.008219291084446013
1772732873406237700,3.72323779296875,0.05805705217123031,0.0029178054091520606,0.0011246201157569884
1772732873416265500,3.733265380859375,0.046834231889247895,-0.01618363929344341,0.003280519508011639
1772732873426293500,3.74329345703125,0.04668517880737781,-0.018285616541374474,-0.005549633483774959
1772732873436321500,3.753321533203125,0.03531330544352531,0.0054253677832894025,-0.013405534615926444
1772732873446349600,3.763349609375,0.042642625418305394,0.0031122685353271663,-0.014728636445850133
1772732873456377600,3.773377685546875,0.041003626039624215,0.0072569305920042095,-0.0202472537368536
1772732873466405600,3.783405517578125,0.03906418240964413,-0.012801321645081043,0.0025900164932012555
1772732873476433400,3.793433349609375,0.05208791463375091,-0.018817494928371162,-0.002843589395470917
1772732873486461700,3.803461669921875,0.033384383207559584,-0.021477361787389963,0.0010408508224412799
1772732873496489500,3.813489501953125,0.05329319877028465,-0.010235106152575462,0.026871969106234607
1772732873506517800,3.823517822265625,0.05747545289099216,0.000004986702371388673,0.017114070277661084
1772732873516545500,3.833545654296875,0.04458908331096172,-0.015212894565146415,-0.011773622565157712
1772732873526573600,3.843573486328125,0.03350304115116596,-0.01834805078571662,-0.009570851823873818
1772732873536601600,3.8536015625,0.049801265001296995,-0.00038322716392576693,0.004860153382271528
1772732873546629400,3.86362939453125,0.06043254913091659,0.0059745808975771066,0.003490983920916915
1772732873556657700,3.87365771484375,0.06327975525557994,-0.012470573587063698,0.00030658173114061354
1772732873566685400,3.883685546875,0.04308861562013626,-0.021472064557764677,-0.007229805123060941
1772732873576713500,3.89371337890625,0.044449382579326624,-0.0173946590510197,-0.0019132132101804017
1772732873586741500,3.903741455078125,0.05538286452591419,0.0026868279311805963,0.00799351950455457
1772732873596769500,3.91376953125,0.04101648552119732,0.006244611744303256,-0.008628967863880097
1772732873606796500,3.923796630859375,0.05254559527337551,0.0012475523756816983,0.000930522315762937
1772732873616824600,3.933824462890625,0.059282210052013395,0.006831142927985638,0.009738317345269023
1772732873626852600,3.9438525390625,0.03548047870397567,-0.008070000540558248,-0.0020156141387298702
1772732873636880600,3.953880615234375,0.05029577051997185,0.00022708675414323805,-0.008422266310639678
1772732873646908400,3.963908447265625,0.05059563024938106,-0.005393365209829062,0.00536324406620115
1772732873656937000,3.97393701171875,0.05433540129959583,-0.029063085942342876,0.013721176436357198
1772732873666965000,3.983965087890625,0.047754269343614576,-0.0193473822876811,0.004648373795114458
1772732873676992800,3.99399267578125,0.053881227791309355,-0.0017627536225132644,0.0003479366548359394
1772732873687021000,4.00402099609375,0.06031330666542053,0.010583170671574771,0.008266710422746836
1772732873697048800,4.014048828125,0.03652034314572811,0.011271773990243672,0.002403444412536919
1772732873707077000,4.0240771484375,0.048638650962710375,0.011876754146069288,-0.002614529879949987
1772732873717105000,4.03410498046875,0.036358430582284926,-0.01007494715480134,0.010887560445629059
1772732873727133000,4.0441328125,0.05521569126546383,0.0046733073069714,0.01834668081253767
1772732873737161000,4.054160888671875,0.05059621477127075,-0.006854359406791627,-0.00008102934695780277
1772732873747189000,4.06418896484375,0.04970423436760902,-0.005570603206567466,0.0047369653940200806
1772732873757217000,4.074217041015625,0.048210780939459796,-0.011880443940497934,0.009539470304921268
1772732873767245000,4.0842451171875,0.05988485212028026,-0.009184537653718143,0.007555895272269845
1772732873777272800,4.09427294921875,0.05224398197829723,-0.010219817251898348,0.005044168179668486
1772732873787301000,4.104301025390625,0.051498716568946834,0.009295523747522383,-0.0048412660187110304
1772732873797329000,4.114328857421875,0.05599602798819542,0.013510986018087714,-0.0023598975317552684
1772732873807357200,4.124357177734375,0.06198971544504165,0.003695310853980481,0.003160948248952627
1772732873817385000,4.134385009765625,0.06484101322293281,-0.013198449470195918,-0.003818754570558667
1772732873827412700,4.144412841796875,0.032523966985940934,-0.002034885094780475,0.0023989509005099535
1772732873837441000,4.15444091796875,0.03267944980859756,0.016384678290877492,-0.0029898294657468793
1772732873847468800,4.16446875,0.05542436558008194,0.0015676146429032087,0.0032982378277927635
1772732873857496000,4.17449609375,0.042565468528866765,-0.004298007721174508,0.014183971642516552
1772732873867523800,4.18452392578125,0.04255553165674209,0.0019434804842807351,0.0017291618801653385
1772732873877552000,4.19455224609375,0.04255377809107303,-0.006354885452054441,0.005321706479415297
1772732873887580000,4.204579833984375,0.053175709870457645,-0.003362261241022497,0.000626826661452651
1772732873897608000,4.21460791015625,0.04898293435573577,-0.00706703404309228,-0.00823459825143218
1772732873907636000,4.224635986328125,0.05182487978339195,0.004037420556228607,0.004993278242647648
1772732873917664000,4.2346640625,0.07201660394072532,-0.0012221256734803317,0.009148315562866627
1772732873927692000,4.244692138671875,0.04597264662384987,-0.009567892681807279,-0.004815400925092399
1772732873937720000,4.254719970703125,0.037753099811077113,-0.01253457873398438,-0.009759798524715006
1772732873947747800,4.264747802734375,0.047772974044084544,-0.007946355894580483,-0.00394596114680171
1772732873957776100,4.274776123046875,0.048669630622863766,-0.0026678127034567294,-0.013291918173618614
1772732873967804000,4.284803955078125,0.05151859031319618,-0.007962594643328338,-0.004709602463059127
1772732873977832000,4.29483203125,0.03221300134062767,0.0009619038347154855,-0.005915215393155813
1772732873987860000,4.30485986328125,0.06947451824247837,0.002489551793411374,-0.007550524977408349
1772732873997887700,4.3148876953125,0.05646423002183437,-0.012535327652655541,-0.010116064616478978
1772732874007916000,4.324916015625,0.058407180783152574,0.007273297204915433,0.008400858196429908
1772732874017943800,4.33494384765625,0.06319207697212696,-0.009434731288813053,0.010633549151942133
1772732874027972000,4.34497216796875,0.06753098295927047,0.0008734400999732315,0.007910005939565598
1772732874037999900,4.354999755859375,0.048370939937233924,0.015510160478670149,0.012561886866018175
1772732874048028000,4.36502783203125,0.03550619766712188,0.0188022242940031,0.00015942834541201592
1772732874058056000,4.375055908203125,0.04657645773589611,0.006513199552614242,-0.0008196823524311184
1772732874068084000,4.385083984375,0.043428222838044164,0.001955043057911098,-0.0014908961448818444
1772732874078112000,4.395112060546875,0.050157238832116126,-0.014814542897325008,0.020322437864914535
1772732874088140000,4.40514013671875,0.061982116660475726,-0.004033767294418067,0.0021127543702721594
1772732874098167800,4.415167724609375,0.052859483528137206,0.002493460783548653,-0.014876703147031366
1772732874108196000,4.425196044921875,0.04268237290680408,-0.0019243191260844468,-0.00021247370690107345
1772732874118222800,4.435222900390625,0.03834580500721931,-0.007473221957497298,0.0028223274117335677
1772732874128251000,4.4452509765625,0.0506114123404026,0.0012405015803873538,-0.01119560348149389
1772732874138279000,4.45527880859375,0.05390402414500713,0.009451755488850177,-0.0003160436792299151
1772732874148307000,4.465306884765625,0.043128363108634944,0.0036038149119354784,0.01589172540847212
1772732874158335000,4.4753349609375,0.041942368194460865,-0.0042207047012634575,0.014911555264703929
1772732874168362800,4.48536279296875,0.050769233250617975,-0.014625267402920871,0.004127455193549395
1772732874178391000,4.49539111328125,0.05659399388134479,-0.019616043161228298,0.0006613134529441595
1772732874188418800,4.505418701171875,0.05598842920362949,-0.011002692991588264,0.015016915335319935
1772732874198447000,4.515447021484375,0.049557519373297686,-0.006232519447710365,0.006528963377326727
1772732874208475000,4.525474853515625,0.05448971507847309,0.006001176643557846,-0.004569353742152452
1772732874218503000,4.5355029296875,0.049998248878121376,0.006271189223974943,-0.008411854514479636
1772732874228531000,4.545531005859375,0.053445758983492846,0.00618502704417333,0.0071843220135197035
1772732874238559000,4.55555908203125,0.03535129936635494,0.003684990389365703,-0.0012125175949186085
1772732874248587000,4.5655869140625,0.05092237798571586,-0.008003876501787454,0.0016124036327004431
1772732874258615000,4.575614990234375,0.060952189090847965,-0.008301982665527612,0.007158383854664861
1772732874268642800,4.585642822265625,0.04420154529809951,-0.003461794359050691,0.003212714968807995
1772732874278671000,4.595671142578125,0.054230771881341934,-0.00461112879095599,-0.0016412644010037182
1772732874288699000,4.605698974609375,0.052286067554354665,0.017511490363720805,-0.002566708682850003
1772732874298727000,4.615726806640625,0.04808686229884624,-0.004483246361277997,-0.008264591530896722
1772732874308755000,4.6257548828125,0.045994858455657955,-0.010424125918652861,0.0018903072586283086
1772732874318783000,4.635782958984375,0.06290156959295272,-0.002569065036717802,0.004726005608588457
1772732874328811000,4.64581103515625,0.0426946478664875,-0.0045215690776705736,-0.004985496794991195
1772732874338839000,4.655839111328125,0.03222644534409046,0.0015697335347533226,-0.010764007131196558
1772732874348866800,4.66586669921875,0.043157004681229585,-0.01177139407545328,-0.002480418638885021
1772732874358895000,4.67589501953125,0.04285539138615131,-0.00313592340555042,0.014452157592028378
1772732874368922000,4.685922119140625,0.06170271519720554,-0.004771379120275378,-0.0077511986486613746
1772732874378950000,4.695949951171875,0.06693652419745921,0.007477222279179841,-0.0031722368279471992
1772732874388978000,4.70597802734375,0.050780339166522026,0.0035889644026756286,0.002801394221559167
1772732874399006000,4.716005859375,0.047484220230579376,-0.002812116544973105,0.0004247282180935144
1772732874409034000,4.726033935546875,0.04822948563992977,-0.0005931618538685142,0.014695245632901787
1772732874419062000,4.73606201171875,0.051230421021580694,-0.00833882581088692,0.011927388354763388
1772732874429090000,4.746090087890625,0.048986441487073894,-0.001478694250434637,0.01291789722945541
1772732874439117800,4.756117919921875,0.04690086738467216,-0.014884484594687818,0.007917896985076367
1772732874449146000,4.76614599609375,0.04076572563052177,-0.0034482224914245303,-0.005502725602127612
1772732874459174000,4.776173828125,0.03732406074404716,0.006649119158275425,0.0048926308797672385
1772732874469202000,4.786201904296875,0.05767594389915466,0.0025698322216980156,-0.017174750956334174
1772732874479230000,4.79622998046875,0.045105800661444664,0.006370722342003136,-0.001074168570153415
1772732874489258000,4.806258056640625,0.05588964500427246,-0.01568730714386329,0.0061973202701658
1772732874499286000,4.8162861328125,0.058441083052754396,-0.009787855575419961,0.0028888898419216274
1772732874509314000,4.82631396484375,0.04363105193376541,0.003663545742537826,-0.00008285597786307334
1772732874519341800,4.836341796875,0.06533084256649017,0.00010510434228926897,-0.002365961946360767
1772732874529370000,4.8463701171875,0.06278758782446384,0.00013407470844686032,0.0012208835644647478
1772732874539398000,4.85639794921875,0.05905132390558719,-0.010272131961025298,0.007128427107818424
1772732874549426000,4.866426025390625,0.0406423915117979,0.008314568152464926,-0.0011106281230226158
1772732874559454000,4.876453857421875,0.05515723907649517,-0.004202420125901699,-0.015888254809752107
1772732874569481700,4.886481689453125,0.05471358696222305,-0.002186531992536038,0.016648936983942986
1772732874579510000,4.896510009765625,0.05291910476088524,0.0021153116535395384,0.006991868181340396
1772732874589537800,4.906537841796875,0.04229600393772125,-0.018977653926145283,0.0015843831146135925
1772732874599566000,4.916566162109375,0.055010524082183834,-0.0029673071066848933,-0.0008307517357170581
1772732874609593900,4.92659375,0.046778117787837976,0.0019312055245973168,0.010573964451812207
1772732874619622000,4.936621826171875,0.05770809260308742,0.006539777032285928,0.009753039990365505
1772732874629650000,4.94664990234375,0.0572603488355875,-0.006099467652570456,-0.007733041937462985
1772732874639677000,4.956677001953125,0.04363865071833133,-0.00008753215298056601,-0.004731120175123215
1772732874649705000,4.966705078125,0.06325052916109561,0.005405128712859005,0.014404482525400816
1772732874659733000,4.97673291015625,0.06070844346284866,0.012708492262475191,0.004299012368172407
1772732874669761300,4.98676123046875,0.04589899686574936,0.012691705524455756,0.005614150087349117
1772732874679789000,4.9967890625,0.05786942064464092,0.0006301511297002434,0.013932371501624583
1772732874689817000,5.006817138671875,0.050989013481140134,-0.015988244585506618,-0.00022288550306111572
1772732874699845000,5.01684521484375,0.042457916501164435,-0.005399959347397089,0.0005426555093377828
1772732874709873200,5.026873046875,0.04918927058279514,0.009558668195735663,-0.008669263341650366
1772732874719901200,5.036901123046875,0.06175473764538764,-0.0008288520395755767,-0.012035123045556246
1772732874729929200,5.04692919921875,0.05083645326793194,-0.0026604696472175417,0.0037714813627302644
1772732874739957000,5.05695703125,0.044098669445514674,0.001077164244838059,0.005099259367771446
1772732874749985300,5.0669853515625,0.06444879903495311,-0.0015130714440718292,0.0008921995993703603
1772732874760013000,5.077012939453125,0.04289923052787781,0.0053010107512585815,0.010158734714426099
1772732874770041300,5.087041259765625,0.05756313117444515,0.008793492509517819,0.010094291176088155
1772732874780069000,5.097069091796875,0.04873568159639835,0.0018833843274973332,0.011672134952060877
1772732874790097200,5.10709716796875,0.05367606060802936,0.000330327932909131,0.0007685732197016478
1772732874800125200,5.117125244140625,0.03691431089937687,-0.007055508002080023,0.012585048545897006
1772732874810153200,5.1271533203125,0.046484687799215316,-0.0024790669320151207,0.012723251440189778
1772732874820181200,5.13718115234375,0.03705167354345321,0.006291391761787235,-0.005118512057512998
1772732874830209300,5.147209228515625,0.04722761512100696,-0.0030381255868822334,-0.018047661333344876
1772732874840237000,5.157237060546875,0.04468319133520126,-0.005192399277631193,0.011556874541938305
1772732874850265300,5.167265380859375,0.04303425508439541,-0.0039018297441303727,0.010099150014296173
1772732874860293000,5.177293212890625,0.05455985770523548,-0.005014850753638893,0.007819295448809861
1772732874870321200,5.187321044921875,0.06009469547867775,-0.008062146027665584,0.00618259762506932
1772732874880348200,5.19734814453125,0.051719081321358676,-0.000053228024579584596,-0.002226078551635146
1772732874890376200,5.207376220703125,0.04184884469211101,-0.0027756569921039043,-0.0019777298137545586
1772732874900404200,5.217404296875,0.053065819755196565,0.007371588213928044,0.0038518531225621697
1772732874910432000,5.227431884765625,0.048719314983487125,-0.006532415709737688,-0.004606543947383761
1772732874920460300,5.237460205078125,0.0452829107940197,-0.009969404421094804,0.006585552402772009
1772732874930488000,5.247488037109375,0.046188919723033905,-0.0015823738206177948,0.014439225045219063
1772732874940516400,5.257516357421875,0.0653507163107395,0.0030890885891392823,-0.012107494162023067
1772732874950544100,5.267544189453125,0.05024316354990005,-0.01211271832641214,0.001539521059580147
1772732874960572200,5.277572265625,0.04500526289641857,-0.01375776385338977,0.013987828015908598
1772732874970600200,5.28760009765625,0.03977262293994426,-0.008563994602579623,-0.002523125269450247
1772732874980628200,5.297628173828125,0.04530629166960716,-0.00373668404398486,0.009592223405465483
1772732874990656300,5.30765625,0.062064534246921536,-0.01568723407862708,0.006951572703570127
1772732875000683000,5.31768310546875,0.052041737404465674,0.0059337374305352564,0.009321845498867332
1772732875010710300,5.327710205078125,0.0626718524903059,0.008697740517463535,0.0012919395066797732
1772732875020738000,5.337738037109375,0.04575812709033489,-0.00976226447643712,-0.005953757305257022
1772732875030766300,5.347766357421875,0.0601227525293827,-0.0054834181134589014,-0.017669329540245235
1772732875040794000,5.357794189453125,0.045015784290432924,-0.010316720021422952,-0.011491554220765829
1772732875050822100,5.367822265625,0.05683014072477817,0.005934595947060734,0.006746515118144452
1772732875060850200,5.37785009765625,0.04292378044724464,-0.00849856468355283,-0.01172784719467163
1772732875070878200,5.387878173828125,0.05729191301763057,-0.0026312983516603708,0.00228369049038738
1772732875080906200,5.39790625,0.0520581040173769,0.006924136707372963,-0.007866970515437425
1772732875090934300,5.407934326171875,0.05429974546432495,0.008299735909514128,0.008586297765932976
1772732875100962000,5.417962158203125,0.04382394415736198,0.004509769042022526,-0.009998356520943342
1772732875110990000,5.427989990234375,0.0465115758061409,0.003425901061762124,0.00314746771287173
1772732875121018000,5.43801806640625,0.05803367129564285,-0.011465652594529092,0.0099514851719141
1772732875131046100,5.448046142578125,0.04621931486129761,-0.010213497108966112,0.0005057940976694226
1772732875141074200,5.45807421875,0.05953823063969612,0.0027861783861182626,0.008512026953324675
1772732875151102000,5.46810205078125,0.055795536980032916,-0.0039351292255334555,0.016362082866579294
1772732875161130200,5.478130126953125,0.05234510426521301,-0.006801423643156885,-0.00046535248942673204
1772732875171158000,5.488157958984375,0.039025019443035124,-0.013754603781923651,-0.002693842193856835
1772732875181186300,5.498186279296875,0.05667874955534934,0.007733589926734567,0.0037881767692044374
1772732875191214000,5.508214111328125,0.05428571693897247,0.01340193615304306,0.00685465166773647
1772732875201242000,5.5182421875,0.04680734388232231,-0.006600475977268069,0.0102390699416399
1772732875211270100,5.528270263671875,0.03813186999559402,-0.006206910082418471,-0.0010062179004773496
1772732875221298200,5.538298095703125,0.05997311492562293,0.00023125147260725498,0.004734408110752701
1772732875231326200,5.548326171875,0.059680269458889955,-0.005953684240020811,0.005524900901317596
1772732875241354200,5.558354248046875,0.05189385336637497,0.00022166166035458444,0.0013910524995997546
1772732875251382000,5.568382080078125,0.056983869981765745,-0.001586648136936128,0.0029373686261475085
1772732875261409300,5.5784091796875,0.03618132044970989,0.006304196444433182,-0.006282550868205726
1772732875271437000,5.58843701171875,0.05682780263721943,-0.0057392012391239405,0.0033292174879461524
1772732875281465000,5.598465087890625,0.04650397702157497,-0.005727638665493577,0.005405548837967217
1772732875291493000,5.6084931640625,0.05667173529267311,0.0010973667826503514,0.007961407333239913
1772732875301521200,5.618521240234375,0.053529930135607716,-0.015841913183685392,-0.0074926573103293774
1772732875311549200,5.628549072265625,0.045749943783879275,0.009925327817350626,-0.010949885092116892
1772732875321577000,5.638576904296875,0.04649754728078842,0.00003987535266205668,-0.0003115136345848441
1772732875331605200,5.648605224609375,0.053528761091828345,-0.002809942854195833,0.0009304857831448316
1772732875341633000,5.658633056640625,0.04171206656992435,0.006372804701235145,-0.01247745998557657
1772732875351661300,5.668661376953125,0.04874386490285396,-0.007614548390638083,0.012792042360082268
1772732875361689000,5.678689208984375,0.04336334090828895,0.0002243833404034376,0.00980586615614593
1772732875371717000,5.688717041015625,0.03633738779425621,0.013186046646349132,-0.006750131847336888
1772732875381746200,5.69874609375,0.03259118700325489,-0.011516414667386562,0.0031103140402585264
1772732875391773200,5.708773193359375,0.04559796809256077,-0.01488057560455054,0.0035404856184497475
1772732875401801200,5.71880126953125,0.0502367338091135,-0.004948379654996097,0.017952128536999224
1772732875411829200,5.728829345703125,0.05831541084647178,-0.0036811544644646346,0.019734372311271727
1772732875421857000,5.73885693359375,0.0539706596404314,0.0030774894828908142,-0.007185454524680971
1772732875431885300,5.74888525390625,0.04873977324962616,-0.006013524668477475,-0.009718553198873997
1772732875441913000,5.7589130859375,0.04484802650809288,-0.006987867859657854,-0.006008702362887561
1772732875451941400,5.76894140625,0.061007718670368194,-0.0007544168301858008,0.015820486803166566
1772732875461969200,5.77896923828125,0.05517185212373733,0.006276943111326545,0.006819434223882853
1772732875471997200,5.7889970703125,0.04305763595998287,0.0072149728801101445,-0.010085523347742854
1772732875482025200,5.799025146484375,0.048750294643640515,0.0005778729531913995,-0.0036056598091498016
1772732875492053200,5.80905322265625,0.047859483283758164,0.006529018176253885,0.0042089229319244624
1772732875502081300,5.819081298828125,0.03469020510911942,-0.005988627689238637,-0.005435578650049865
1772732875512109300,5.829109375,0.0472562566936016,0.00043559667197987437,0.004541260158829391
1772732875522137000,5.83913720703125,0.04111643876433372,0.006595982465241104,-0.008636091724410653
1772732875532165000,5.8491650390625,0.054584407624602316,0.0008112433176487684,0.00022986323311924932
1772732875542193200,5.859193115234375,0.047701662373542786,-0.0006734788147732615,-0.005020129716955125
1772732875552221200,5.86922119140625,0.04620061016082763,-0.001484466404095292,0.007779694090783595
1772732875562249200,5.879249267578125,0.057871758732199664,0.001951371529791504,0.004345445325784385
1772732875572277000,5.889277099609375,0.0649029725432396,0.00048160950448364017,0.00864559020511806
1772732875582305300,5.89930517578125,0.04305763595998287,0.0033312633145600556,-0.005172689930163323
1772732875592333000,5.9093330078125,0.046048049947619435,0.003078695059288293,-0.0029474150961264966
1772732875602361000,5.919361083984375,0.053068157842755315,-0.005558200382720679,0.007387078044004738
1772732875612389000,5.92938916015625,0.05935001459121704,-0.009457600707747042,-0.006448737747967243
1772732875622417200,5.939417236328125,0.05217033222019672,-0.019930643802043048,-0.012243833892792462
1772732875632444200,5.949444091796875,0.049480947005748746,0.01054185228049755,0.007465732770785689
1772732875642472200,5.95947216796875,0.05471884765923023,0.008340908170118927,0.008836473134718834
1772732875652500200,5.969500244140625,0.04619827207326889,-0.004016249904036521,0.004895151630416512
1772732875662528000,5.979528076171875,0.061008887714147565,-0.0025151611587032672,-0.0063758551748469465
1772732875672556000,5.98955615234375,0.0415530766159296,-0.006179053961113095,-0.0023094094535335897
1772732875682584000,5.999583984375,0.03676993399262428,-0.0006877813347615301,-0.0014724471727386116
1772732875692611800,6.00961181640625,0.050233811199665065,0.0017058723361231386,-0.0007721168836578727
1772732875702640000,6.01964013671875,0.061006549626588816,0.016266769265942276,-0.004891534901224077
1772732875712668000,6.02966796875,0.04813713118135929,0.009570541296619921,-0.009336604676581919
1772732875722696200,6.0396962890625,0.041858781564235684,0.005257957060821354,0.011893961009196936
1772732875732724000,6.049723876953125,0.049347676014900206,-0.008959332329407333,0.007625307246670127
1772732875742752000,6.059751953125,0.04978899004161358,0.0015170717657543718,0.0002459375850856304
1772732875752780000,6.069780029296875,0.05248538951873779,-0.00561356556545943,0.008890797137841583
1772732875762808000,6.07980810546875,0.04275836075246334,-0.0076958882648497816,-0.004250752779655158
1772732875772836000,6.089836181640625,0.04514963980317115,-0.008843633527867496,-0.0032328444413840768
1772732875782864100,6.099864013671875,0.048289691394567485,0.006090206633880734,0.0044321372285485265
1772732875792892000,6.109891845703125,0.04694061487317085,-0.00032022666400298476,0.002727269539423287
1772732875802920200,6.119920166015625,0.04290156861543655,0.00031478330390527845,0.0045235053064301605
1772732875812948000,6.129947998046875,0.050237902852892875,0.0019042627187445759,-0.006281381824426353
1772732875822976000,6.13997607421875,0.041407530665397645,-0.006522058712504804,0.0038959845252335068
1772732875833004000,6.150004150390625,0.05831541084647178,0.005232329429220408,0.017494959354028106
1772732875843032000,6.160031982421875,0.06714344494640827,-0.003300137523934245,0.00356291664596647
1772732875853060000,6.17006005859375,0.054875499525666234,-0.01425975855877623,0.004799034312181175
1772732875863088000,6.180088134765625,0.057712768778204915,-0.001191255611181259,0.010709536997601389
1772732875873116000,6.190115966796875,0.037060441371798515,0.006499335424043238,-0.004559088076464831
1772732875883143000,6.200142822265625,0.039161213043332095,-0.0018612638272345065,-0.003958893693611025
1772732875893171200,6.210171142578125,0.04768997193574905,0.007482939633913338,-0.004046608509682119
1772732875903199000,6.220198974609375,0.042754269099235534,0.0017139825773425398,0.0014794614354148507
1772732875913227000,6.23022705078125,0.0593693038135767,0.006922218744922429,-0.0010813654959201812
1772732875923255000,6.240255126953125,0.06505787084400654,0.001542754196282476,0.0042328517967835065
1772732875933283000,6.250282958984375,0.03647884209156036,0.004546557388454675,0.017072496158257126
1772732875943311000,6.26031103515625,0.05025193137824535,0.0026796127391047774,0.00991327205337584
1772732875953339100,6.270339111328125,0.05114566534757614,-0.0036172954480163753,-0.004476268631219864
1772732875963367000,6.280366943359375,0.03618307401537895,0.014515340755041687,0.007333850019425154
1772732875973395200,6.290395263671875,0.04381283824145794,-0.003945888081565499,-0.008819814260862768
1772732875983423000,6.300423095703125,0.04246668432950973,-0.001403637986537069,-0.010498743791133166
1772732875993451000,6.310450927734375,0.04935059862434864,-0.007831241614930332,0.009666640348546206
1772732876003479000,6.32047900390625,0.05847381627857685,-0.00722973205782473,0.0015653130879625678
1772732876013507000,6.330507080078125,0.05159750076830387,-0.009396171110402793,-0.016376659381203352
1772732876023535000,6.34053515625,0.04651274484992027,-0.006796601337566971,0.0016913506204262374
1772732876033563100,6.350563232421875,0.04665887532234192,-0.009863167567644267,0.013697430234588682
1772732876043591000,6.3605908203125,0.0629722967416048,-0.0005834441774524748,0.00931055691987276
1772732876053619200,6.370619140625,0.058330023893713945,-0.0033601971480995414,0.0038089272962883113
1772732876063647000,6.38064697265625,0.04515373145639896,0.0021026896339841187,-0.00784223793298006
1772732876073675300,6.39067529296875,0.052792263510823244,0.004405504949949682,-0.00144523037225008
1772732876083703000,6.400703125,0.05548983203172683,0.00700397874424234,0.0005883943472057581
1772732876093730800,6.410730712890625,0.049207975283265114,-0.002538213240727782,-0.0005496697720140219
1772732876103759000,6.420759033203125,0.0572907439738512,0.00696536376690492,-0.013868110626377165
1772732876113787000,6.430786865234375,0.052956514161825174,0.0038726036496460436,0.011017872294411063
1772732876123814100,6.440814208984375,0.05116320100426674,-0.003234324012417346,0.001730002130381763
1772732876133842000,6.450842041015625,0.05759820248782634,-0.0018567520488984883,-0.021750388308800755
1772732876143870200,6.4608701171875,0.05145721551477909,-0.003915036285575479,-0.008354279108345509
1772732876153898000,6.47089794921875,0.06029051031172275,-0.007866166797839105,0.00564111115951091
1772732876163926000,6.480926025390625,0.042188451910018916,0.001561513695679605,0.0035622590588405725
1772732876173954000,6.4909541015625,0.035605566388368606,0.0055544192567467685,-0.003423836968839168
1772732876183982000,6.500982177734375,0.060144964361190795,0.00022270283997058866,0.008175086616538464
1772732876194010000,6.511010009765625,0.05416472090780735,0.004253474459704011,-0.0005223799062892794
1772732876204038100,6.5210380859375,0.055664604076743125,0.002839059350825846,0.0003435162080451846
1772732876214066000,6.53106591796875,0.049369303324818606,0.008964045037142931,0.006009688743576407
1772732876224094200,6.54109423828125,0.05011866038739681,0.005985010960046201,-0.005543934395350516
1772732876234122000,6.5511220703125,0.04623217434287071,0.00523402819596231,0.003434394895471632
1772732876244150000,6.56114990234375,0.0519230794608593,-0.008881572651769965,-0.0006506459284573793
1772732876254178000,6.571177978515625,0.0585065495043993,0.0008575484110973775,0.00835226981434971
1772732876264205800,6.581205810546875,0.043401919353008266,0.0031750315732322633,0.003042436435818672
1772732876274234000,6.591234130859375,0.046097734308242794,-0.0063484009123407304,0.000633658261038363
1772732876284262000,6.601261962890625,0.041162031471729275,0.0025034159219823778,0.004030936016514897
1772732876294290200,6.611290283203125,0.054476271075010296,0.011779522582981735,0.0018748539611697197
1772732876304318000,6.62131787109375,0.06225508838295936,-0.0019700214313343165,0.009580606032907963
1772732876314346000,6.631345947265625,0.04983692083656788,0.003409497916232794,0.014763305900432169
1772732876324374000,6.6413740234375,0.03696984047889709,-0.0014021584155038,0.011550444801151753
1772732876334402000,6.651402099609375,0.048646249747276306,-0.006951061246916651,0.004836662908829749
1772732876344430000,6.66143017578125,0.04565525123775005,0.009491850037220865,0.005516133072972297
1772732876354458000,6.6714580078125,0.04191431114375591,-0.008596362502221018,-0.005244622655212879
1772732876364485000,6.681485107421875,0.053580783540010446,0.011825571948103606,0.0015778437759727238
1772732876374513200,6.69151318359375,0.059119712966680525,0.00229658650457859,-0.006385170992463827
1772732876384541000,6.701541015625,0.061359016326069826,0.004331124539487064,0.005078618438541889
1772732876394569200,6.7115693359375,0.03606733868122101,-0.0084200560872443,-0.003692242114059627
1772732876404597000,6.721596923828125,0.039060675278306006,-0.00976056570969522,-0.007884542704746127
1772732876414625000,6.731625,0.04639408690631389,-0.0025080190318636595,-0.0002253331884741783
1772732876424653000,6.741653076171875,0.050287587213516234,0.005405968963075429,0.0028077874297276137
1772732876434680800,6.751680908203125,0.06001695406734943,-0.007850238576345146,-0.008141878466680645
1772732876444709000,6.761709228515625,0.04595277287960052,-0.008364435176178813,0.0008932225126773119
1772732876454737000,6.77173681640625,0.059123220098018646,0.0027809907543472944,-0.0021188918501138685
1772732876464765200,6.78176513671875,0.05717851577103138,-0.006596439122967422,0.002884505927748978
1772732876474793000,6.79179296875,0.0621183102607727,0.0013369111595675348,-0.0134842258753255
1772732876484821000,6.801821044921875,0.05524024118483066,0.0051037163471803065,-0.0170527320118621
1772732876494849000,6.81184912109375,0.05928337909579277,-0.007222973523475229,0.0026877777792513368
1772732876504877000,6.821876953125,0.05988076046705246,-0.005613218505587428,-0.0010428966490551828
1772732876514905000,6.831905029296875,0.05434942982494831,-0.006514350330084562,0.0020642390534281727
1772732876524933000,6.84193310546875,0.03953530705273151,0.014093955271504819,-0.01337992525063455
1772732876534961000,6.8519609375,0.028910452663898467,0.002617671685107052,0.0016367343563586472
1772732876544989200,6.8619892578125,0.04791676642894745,-0.003741835143137723,-0.005084207929112017
1772732876555017000,6.872016845703125,0.048964229655265805,0.00552526622749865,0.002389488952420652
1772732876565045000,6.882044921875,0.04626841470003128,-0.003472461883537471,0.007089885195717215
1772732876575073000,6.892072998046875,0.05509878688752651,0.00013873261725530028,0.0051021089119836684
1772732876585101000,6.90210107421875,0.04058452384471893,0.0013034472813829778,0.01192315057106316
1772732876595129000,6.912129150390625,0.0625806670755148,-0.006286094532161951,-0.002989683335274458
1772732876605155800,6.92215576171875,0.04941372698843479,0.0022009441103786227,-0.0021794994635507465
1772732876615184100,6.93218408203125,0.04851180971264839,0.004677581623289734,0.009100238637439906
1772732876625212000,6.9422119140625,0.055545946133136744,-0.004534647754952311,0.00029587767403572795
1772732876635240200,6.952240234375,0.04656768990755081,0.007309227034822106,0.007799787030741572
1772732876645268000,6.96226806640625,0.04551496598422527,0.009567308159917593,0.013793511020205915
1772732876655296000,6.9722958984375,0.0447644398778677,-0.0023678799088113008,0.0016479133374989032
1772732876665324000,6.982323974609375,0.058981181278824804,-0.005109579832386225,0.002592866037413478
1772732876675352000,6.99235205078125,0.055091188102960584,0.00739080437105149,0.008632584593072532
1772732876685380000,7.002380126953125,0.04970481888949871,0.003740282506868243,0.017217384521663187
1772732876695408000,7.012408203125,0.05389934796988964,-0.01144018935970962,0.007894735305197537
1772732876705436000,7.022435791015625,0.03744096512198448,-0.009537607141397893,-0.013142865091748534
1772732876715464200,7.032464111328125,0.044774961271882054,-0.0024390454488806427,-0.001604476054571569
1772732876725492000,7.042491943359375,0.05345452681183815,-0.003406209980603307,-0.006179784613475203
1772732876735520000,7.05252001953125,0.049713586717844004,0.018282511268835514,-0.014109262438490986
1772732876745548000,7.062548095703125,0.07051146007478237,0.006077767277415842,0.011313494240120053
1772732876755576000,7.072576171875,0.05763678093254566,-0.0016987302092835307,0.0011945435468107462
1772732876765604000,7.08260400390625,0.05778174236118793,0.0044258718845434485,0.005848543365113437
1772732876775632100,7.092632080078125,0.06048281801342964,-0.0010099442275241016,0.0037386750716716047
1772732876785660000,7.102659912109375,0.04641337612867355,-0.0007870952570810914,0.0007580152930691837
1772732876795688200,7.112688232421875,0.06407119789421559,0.005961739682313055,0.007483524155803024
1772732876805716000,7.122716064453125,0.06437398023307322,-0.001054550554230809,0.006353351082094013
1772732876815744000,7.132743896484375,0.041622050198912616,-0.004383238319214433,0.0011629793647676705
1772732876825772000,7.14277197265625,0.05658756414055824,0.0014974172172136605,0.01150357345212251
1772732876835799800,7.1527998046875,0.055388709744811054,-0.0034843532507307824,-0.01213222674448043
1772732876845828000,7.162828125,0.0529991842597723,0.0017454188952222465,0.018097199563495814
1772732876855855000,7.172855224609375,0.052851884743571276,-0.0056081770042888815,0.0005148176543414593
1772732876865883100,7.182883056640625,0.046265492090582845,0.0003196604084223509,-0.010695179678685962
1772732876875911000,7.192910888671875,0.056740708875656125,0.018172475023102014,0.015665259708836674
1772732876885939200,7.202939208984375,0.04956453363597393,0.006393317766301334,-0.0005286635166034102
1772732876895967000,7.212967041015625,0.041186581391096114,0.003518036324623972,0.009881634806096553
1772732876905995000,7.2229951171875,0.042083237969875335,-0.006422470795549452,0.0029777737017720935
1772732876916023000,7.23302294921875,0.039836335825920104,0.009916322526987641,0.01207315350100398
1772732876926051000,7.243051025390625,0.05585165108144283,0.006443677980359643,-0.008435929509811103
1772732876936079000,7.2530791015625,0.05809972226917744,0.012241934196650981,-0.007970321292057632
1772732876946107100,7.263107177734375,0.047023616981506346,-0.00878695317087695,-0.015298910614475606
1772732876956135000,7.273135009765625,0.057502340897917746,-0.022097795240674168,0.002545994688384235
1772732876966163200,7.2831630859375,0.051964580515027045,-0.008082786956895143,-0.012886186916939914
1772732876976191000,7.29319091796875,0.05600128868520259,0.000037884324975311755,0.008079444222338496
1772732876986219000,7.303218994140625,0.03819733644723892,-0.002888597580976784,-0.00137954472489655
1772732876996247000,7.3132470703125,0.042239889836311335,0.0006904299495741724,0.017394640784710643
1772732877006274800,7.32327490234375,0.05959785187244415,-0.014940781359188257,0.01763104335647076
1772732877016303000,7.33330322265625,0.03775017720162868,0.006384915264137089,-0.02503141927346587
1772732877026331000,7.343330810546875,0.04986965406239032,0.003304338775016367,0.00005604103617370128
1772732877036359200,7.353359130859375,0.05840075104236602,-0.00008314823880791664,0.004530336906015873
1772732877046387000,7.363386962890625,0.04074818997383117,0.0066535578713752324,-0.00953683995641768
1772732877056415000,7.3734150390625,0.04449497528672218,0.0028161716655828056,-0.020149017526768148
1772732877066443000,7.383443115234375,0.0398579631358385,0.0029619733444415032,0.010780666005052626
1772732877076471000,7.393470947265625,0.04255903878808021,0.0044890185149386525,0.01522811040058732
1772732877086499000,7.4034990234375,0.053638066685199735,-0.006834887521341443,-0.0025660510957241055
1772732877096526000,7.413526123046875,0.05572890148460865,0.0024624628570862114,0.005049903800711035
1772732877106554000,7.42355419921875,0.051987961390614505,-0.0005115114524029195,0.004917984516732394
1772732877116582100,7.43358203125,0.04525193113386631,-0.0016863456517457961,-0.00412661494333297
1772732877126610000,7.44360986328125,0.04674480004012584,0.00895774316051975,-0.012801796569116413
1772732877136638000,7.453637939453125,0.0537789364606142,0.007304167267214506,0.01169894989375025
1772732877146666000,7.463666015625,0.0537789364606142,0.004414930365420878,-0.0061440191803500055
1772732877156694000,7.473694091796875,0.06096504857242107,0.0010665880518965422,0.004174216944724321
1772732877166722000,7.48372216796875,0.0513823967128992,-0.010428034908790141,-0.006857501211948692
1772732877176749800,7.493749755859375,0.05078676890730858,0.012210370014607905,0.005357581510394812
1772732877186778000,7.503778076171875,0.06306114406883716,0.001545366278477013,-0.004083104595169425
1772732877196806000,7.513805908203125,0.04749766423404216,-0.00591627483908087,0.0009021730041131377
1772732877206834200,7.523834228515625,0.05497311468124389,-0.0018718217538669704,-0.0156742102002725
1772732877216862000,7.533862060546875,0.06275076294541358,0.006999393900670111,0.0018498291177675126
1772732877226890000,7.543889892578125,0.05167758026719093,0.011834887765720486,0.004740253329649567
1772732877236918000,7.55391796875,0.05092822320461273,0.0048440607639960945,0.006003259002789855
1772732877246946000,7.563946044921875,0.05272562801539898,0.013349657976534217,-0.0009864902867004275
1772732877256974000,7.57397412109375,0.039406712237000464,0.0037458902637474236,-0.0000770107589662075
1772732877267002000,7.584002197265625,0.03866203134953976,0.003422613126132637,0.006671075261756777
1772732877277030000,7.59402978515625,0.047942485392093656,0.006372585505526512,0.014778832263126969
1772732877287058200,7.60405810546875,0.05272971966862678,0.004848773471731693,-0.011245032113790512
1772732877297086000,7.6140859375,0.05661912832260132,0.009224650468397886,-0.0035219635810703038
1772732877307114200,7.6241142578125,0.05497194563746452,0.01476756195044145,-0.00018047113344073294
1772732877317142000,7.63414208984375,0.05167641122341156,-0.00023727935459464788,-0.004003974944353103
1772732877327169000,7.6441689453125,0.06663783351182938,-0.0039362982693128285,0.00032243688739836215
1772732877337197000,7.654197021484375,0.05855214221179485,-0.0015064225075766442,-0.005903050031326711
1772732877347224800,7.664224853515625,0.05062193373441696,0.0005846497538499534,-0.013685557133704424
1772732877357253000,7.674253173828125,0.0498708231061697,-0.004424721107073128,-0.003479731874540448
1772732877367281000,7.684281005859375,0.04941781864166259,0.003077635613363236,-0.007372063137963414
1772732877377309200,7.69430908203125,0.05030863000154495,0.010786511223949491,0.0038414413264021277
1772732877387337000,7.7043369140625,0.05240180288851261,-0.010309303899947553,-0.0029573154356330633
1772732877397365000,7.714364990234375,0.046419221347570414,-0.0053739663896150884,-0.0154683123646304
1772732877407393000,7.72439306640625,0.04312894763052463,0.010687014638539404,-0.011139452847465873
1772732877417421000,7.734421142578125,0.056742462441325185,0.018641992230992763,0.004099763469025492
1772732877427449000,7.744448974609375,0.05748422071933746,-0.0028698746141977605,-0.009749240598082541
1772732877437477000,7.75447705078125,0.038030163186788556,0.002539035224635154,0.011251279191486536
1772732877447505000,7.7645048828125,0.03848024504184722,0.005221698437351733,0.0011573168089613318
1772732877457533200,7.774533203125,0.04625789330601692,-0.0008927293223328888,-0.017256657086126507
1772732877467561000,7.78456103515625,0.045806057885289186,-0.014810341646242887,-0.009980565135926007
1772732877477589200,7.79458935546875,0.053583121627569195,-0.0033681247262284156,-0.0008086129691451787
1772732877487617000,7.804616943359375,0.0595651186466217,-0.0014067432590760289,-0.008760229560732842
1772732877497645000,7.81464501953125,0.05732230815589428,0.005878116519469768,0.011220664857514202
1772732877507673000,7.824673095703125,0.05508125123083591,0.0023484628222882747,0.009224559136852621
1772732877517701000,7.834701171875,0.05449146864414215,0.0035328503012657165,-0.015767076115496454
1772732877527729200,7.844729248046875,0.05448971507847309,0.011394852380640804,-0.00005362988337874412
1772732877537757200,7.854757080078125,0.053583706149458885,-0.0060047568401321765,-0.005514306442067027
1772732877547785000,7.864784912109375,0.048346974539756775,0.005195175756607205,0.0022030264696106315
1772732877557813000,7.87481298828125,0.05358838232457638,0.008606756032072007,-0.0010894757371395826
1772732877567840000,7.884840087890625,0.05045066882073879,-0.004918002783041447,-0.0080240973059088
1772732877577868000,7.894867919921875,0.04461304870843887,-0.0008483056587167084,-0.017971965748630463
1772732877587896000,7.90489599609375,0.05508358931839466,-0.0030298874814994633,-0.005812376073189079
1772732877597924000,7.914924072265625,0.05403554157018661,0.00023128800522536039,0.01423566529713571
1772732877607952100,7.9249521484375,0.043110242930054665,-0.004223773441184312,0.005345123887620866
1772732877617980000,7.93497998046875,0.048344051930308336,0.011912793573830276,0.0058599780745804304
1772732877628008200,7.94500830078125,0.03712240069210529,0.0001949197839014232,0.006544343609549105
1772732877638036000,7.955035888671875,0.04280395345985889,-0.0016230528908781705,0.0020197423245757818
1772732877648064300,7.965064208984375,0.061357847282290455,0.009594214433152228,-0.0033407617952674624
1772732877658092000,7.975092041015625,0.0513303742647171,0.01059679733812809,-0.0019866803051903845
1772732877668119600,7.98511962890625,0.03920563670694828,-0.007226078796014189,-0.012181509246304631
1772732877678147600,7.995147705078125,0.04190028261840343,-0.00010188947189599275,0.01856178486794233
1772732877688175600,8.005175537109375,0.03666355100870132,0.009658895433507859,-0.0016308891374617815
1772732877698203600,8.01520361328125,0.05805705217123031,0.005038286428153515,0.012010317397862673
1772732877708231700,8.025231689453125,0.04997369895875454,-0.0038892990561202167,0.010520809492468834
1772732877718259500,8.035259521484376,0.05865443354249,0.018023951664194463,-0.009528985443525016
1772732877728287700,8.045287841796876,0.06823065566122531,-0.00047106984416022893,0.00418568818680942
1772732877738315500,8.0553154296875,0.05296703555583954,-0.002649473329167813,0.0027472163489088413
1772732877748343600,8.065343505859374,0.06942366483807563,0.002997044657822698,0.008051496769487857
1772732877758371600,8.07537158203125,0.0456353774935007,0.005922923775576055,-0.0006700082160532474
1772732877768399400,8.0853994140625,0.052071548020839686,-0.00963102104589343,0.001089950661174953
1772732877778427600,8.095427734375,0.05551438195109367,0.008890121284406631,-0.01843443216122687
1772732877788455400,8.105455322265625,0.051475920215249056,0.014604754337854683,-0.012173545135557651
1772732877798483700,8.115483642578125,0.03666238196492195,0.01246200668811798,0.018740283240005373
1772732877808511500,8.125511474609375,0.053123102900385855,0.006277016176562756,0.013441044320724904
1772732877818538800,8.135538818359375,0.05221943205893039,0.015306527665350586,0.006046988546662032
1772732877828566500,8.14556640625,0.0465332031160593,-0.010467618000507354,-0.0028123540069907903
1772732877838594600,8.155594482421876,0.061196519240736956,-0.004391458158288151,0.004067687830328941
1772732877848622600,8.16562255859375,0.05012158299684524,-0.003133822780009359,-0.008094020736962556
1772732877858650600,8.175650634765624,0.0520621956706047,0.0018569712446071206,-0.00040229719057679173
1772732877868678700,8.1856787109375,0.04726736260950565,-0.007924436323717235,0.013946948016248642
1772732877878706700,8.195706787109375,0.031254969963431356,-0.005291311341151595,-0.005341653288900852
1772732877888734500,8.205734375,0.05594809719324111,-0.0033297106782905757,0.0073106883395463226
1772732877898762500,8.215762451171875,0.038435821378231046,-0.0020895926903933284,-0.0023735607309266923
1772732877908790500,8.22579052734375,0.054446460458636284,0.0069027103268541395,-0.0007045315401628613
1772732877918818600,8.235818603515625,0.06072890172898769,0.00690771529553458,0.013578480030037463
1772732877928846600,8.2458466796875,0.04111936137378216,-0.007263378599099814,0.006961473043076693
1772732877938874400,8.255874267578125,0.04590893373787403,-0.0038806042930111286,-0.0009278919672593474
1772732877948902700,8.265902587890626,0.04679974509775638,0.006018036446813493,-0.0020243454344570635
1772732877958930400,8.275930419921876,0.04290682931244373,0.007548497417103499,0.0030033830670639873
1772732877968958700,8.285958740234374,0.04694646009206772,-0.0000881166748702526,0.018135230018943547
1772732877978986500,8.295986572265624,0.04514496362805366,0.008337108777835965,0.0035492899794131515
1772732877989014500,8.3060146484375,0.055017538344860076,-0.0037508586998097598,-0.005423303690366446
1772732877999042600,8.31604248046875,0.05187748675346374,-0.000034559856727719304,0.0037692894056439398
1772732878009070600,8.326070556640625,0.05876257009208202,-0.0065182410539127884,-0.01697875346019864
1772732878019098600,8.3360986328125,0.049483285093307496,0.0025594752244651317,0.013539609324373304
1772732878029126700,8.346126708984375,0.04095335715711117,-0.008052008226141332,0.005332337471283972
1772732878039154400,8.356154541015625,0.04949088387787342,-0.007035214132722466,-0.009162928610108792
1772732878049182700,8.3661826171875,0.04949439100921154,0.002652322873380035,0.007009732631593942
1772732878059209500,8.37620947265625,0.04874386490285396,0.0031164515201002356,-0.016709361934289336
1772732878069237500,8.386237548828126,0.04785188449919223,0.004521861338615417,0.002032565273530781
1772732878079265500,8.396265625,0.04994681095182895,0.0015012896747328341,-0.002921696132980287
1772732878089293600,8.40629345703125,0.061918988296389574,0.0033224772199057042,0.007091565696150064
1772732878099321600,8.416321533203124,0.0628197365283966,0.00867549215303734,0.00980992127675563
1772732878109349400,8.426349365234374,0.05743395183682441,0.006882361658569425,-0.007100662318058311
1772732878119377700,8.436377685546875,0.033491350713372225,0.003626921792887151,-0.013173150632157921
1772732878129405400,8.446405517578125,0.049051907938718796,0.0019534721553325653,-0.0038353038465604185
1772732878139433700,8.456433837890625,0.0518880081474781,0.0003956665203906595,0.01681417401563376
1772732878149461500,8.46646142578125,0.04365618637502193,-0.011169793186802416,0.007853489979356526
1772732878159489500,8.476489501953125,0.04709200604259967,0.0029697182594798505,-0.0035744244206696745
1772732878169517600,8.486517578125,0.03737140701711177,-0.0008803995637223123,0.0018337547658011316
1772732878179545600,8.496545654296876,0.043052375262975694,-0.004573299264907836,-0.0005051730431616306
1772732878189573600,8.50657373046875,0.043646834024786946,0.0063589771052822465,0.0133910676991567
1772732878199601700,8.5166015625,0.043351065948605536,-0.0030709684105589986,0.005188946945220232
1772732878209629400,8.52662939453125,0.04574351404309272,0.0015372195046395062,0.012538213729485869
1772732878219657700,8.53665771484375,0.03736322371065617,0.0014848134639672934,0.002633746037073433
1772732878229685500,8.546685546875,0.04948036248385906,-0.005158953665755689,-0.011518807553872466
1772732878239713800,8.5567138671875,0.04424363087415695,-0.009845138720609247,0.0012863865487277508
1772732878249741600,8.566741455078125,0.03556289629042148,-0.001440828191768378,0.000042925826273858545
1772732878259769600,8.57676953125,0.043942602100968356,-0.0005615428728982806,0.016173793752864003
1772732878269797600,8.586797607421875,0.056063248005509374,-0.003535425850842148,-0.003082731913588941
1772732878279825700,8.59682568359375,0.042889878177642816,0.0021515520107001063,0.0026204846967011687
1772732878289852700,8.606852783203125,0.03585749532282352,-0.0030240970615297556,-0.002858494703657925
1772732878299880400,8.61688037109375,0.05964578266739845,0.009497804853972046,0.009053769147209822
1772732878309908700,8.62690869140625,0.04857084642350673,-0.0010705701072700321,0.007354856274835765
1772732878319936500,8.6369365234375,0.04976268655657768,-0.02305034672515467,0.0004816460371017456
1772732878329964500,8.646964599609374,0.04212941519916057,-0.002416742285527289,-0.006209777892939746
1772732878339992600,8.65699267578125,0.04452244781553745,-0.007443484406359493,-0.00895092982724309
1772732878350020600,8.6670205078125,0.05230711034238338,-0.00995817064102739,0.00039791327640414237
1772732878360048600,8.677048583984375,0.0422808063685894,-0.0016204773413017392,-0.00605528145097196
1772732878370076700,8.68707666015625,0.04692833991348743,-0.00489095037933439,-0.024419680583290755
1772732878380104400,8.6971044921875,0.04902326636612415,-0.0031887495713308453,-0.014025347014702856
1772732878390132700,8.7071328125,0.04962649295628071,0.01018655430311337,-0.003774732765741646
1772732878400160500,8.717160400390625,0.06578501607477664,0.013152875029109418,0.009140826376155018
1772732878410188800,8.727188720703126,0.0512649078130722,0.004237308776192367,0.009059212507307528
1772732878420216600,8.737216552734376,0.0533563271343708,0.0002445493455976248,-0.0014181962348520755
1772732878430244600,8.74724462890625,0.062330491706728934,-0.0031165428516454993,0.0005859466617926955
1772732878440272600,8.757272705078124,0.045125674405694004,0.0013607852254994212,0.00779828919339925
1772732878450300700,8.76730078125,0.04976502464413642,0.013288502373825757,0.000688968644849956
1772732878460328700,8.77732861328125,0.050666357398033136,-0.006233670225180685,-0.008762494583055376
1772732878470356500,8.7873564453125,0.05410509967505932,-0.016287629390880465,-0.005410407676175236
1772732878480384500,8.797384521484375,0.04633212758600712,-0.003774860629905015,-0.014395495501346885
1772732878490412500,8.80741259765625,0.0427425786614418,0.0017576573222875594,-0.00310304404925555
1772732878500440600,8.817440673828125,0.03885141644179821,0.009390508554596453,-0.015371720122359692
1772732878510468600,8.827468505859375,0.06339432154595852,0.010380341575853526,0.0017189692797139285
1772732878520496600,8.83749658203125,0.06579846007823943,-0.005493482849746942,0.022492183119431138
1772732878530524400,8.8475244140625,0.05308043280243873,0.003392565047740936,0.0034973405964672565
1772732878540551700,8.8575517578125,0.04904372463226318,0.0014855623826384543,-0.010482815569639205
1772732878550579500,8.867579345703126,0.04949906718432903,0.008742931366059928,-0.012100078040547668
1772732878560607700,8.877607666015624,0.03977320746183395,0.0004952544373460114,0.0055013008300215
1772732878570635500,8.887635498046874,0.041571781316399575,-0.001987995479442179,0.009666859544254839
1772732878580663800,8.897663818359375,0.04456687147915363,0.0017976240064948796,0.017105119786225257
1772732878590691600,8.907691650390625,0.05399637860357761,0.0032909313041716813,0.001028356667049229
1772732878600719600,8.9177197265625,0.047858898761868475,-0.0064441163717769085,0.0018353622009977697
1772732878610747600,8.92774755859375,0.05489478874802589,-0.0021156404471024868,-0.004714790094830095
1772732878620775700,8.937775634765625,0.05011164612472057,-0.005076152486819773,0.0021980580335482953
1772732878630803700,8.9478037109375,0.041888007658720014,-0.0008899163107387721,-0.0170230309933424
1772732878640831500,8.95783154296875,0.049070612639188764,0.002926737634278834,-0.011279117046482861
1772732878650859500,8.967859619140626,0.04832008653283119,0.0006184606919065117,-0.0015246157513931393
1772732878660887600,8.977887451171876,0.03724047411382198,-0.010224767421651631,0.002964695024490356
1772732878670915600,8.98791552734375,0.05774491748213768,0.008279642969556153,0.0012856924289837478
1772732878680943600,8.997943603515624,0.0528074610799551,-0.0029087453198619185,0.00877082401998341
1772732878690971600,9.0079716796875,0.05116144743859768,0.0012173581668175756,-0.001158485852740705
1772732878700999700,9.017999755859375,0.04846797057092189,0.003730528297834098,-0.006575104073993861
1772732878711027700,9.02802783203125,0.04547112684249878,0.006482932278513908,0.003203545281663537
1772732878721055700,9.0380556640625,0.04172784866094589,0.008591978588048369,0.004650456154346466
1772732878731083500,9.04808349609375,0.03739069623947144,-0.0006166888599283993,0.0025348887724801895
1772732878741111800,9.05811181640625,0.05294949989914894,-0.012770067990291864,0.015479272150062024
1772732878751139600,9.0681396484375,0.047405309775471687,-0.016990078571811316,0.0032742358976975082
1772732878761168000,9.07816796875,0.055933484145998955,-0.009301295901183039,0.01580174557007849
1772732878771195600,9.088195556640626,0.038573184022307395,0.0036376258499920366,0.010547734032012522
1772732878781223700,9.0982236328125,0.03827449333667755,-0.006078223935142159,0.009168152774497866
1772732878791250700,9.108250732421874,0.04965455000698566,-0.0031049620117060838,-0.0120314332511276
1772732878801278500,9.118278564453124,0.06386953784227371,-0.007805961043201386,-0.004447736656479537
1772732878811306800,9.128306640625,0.04800619827806949,-0.0004430127934552729,0.012846256765350698
1772732878821334500,9.13833447265625,0.04471592456102371,-0.0006845847306773067,0.0032553850667551157
1772732878831362800,9.14836279296875,0.048456280133128166,0.013311371792759746,0.003366626888886094
1772732878841390600,9.158390625,0.050849897271394724,0.005640855431184172,0.001110007068514824
1772732878851418600,9.168418701171875,0.06401566831469535,-0.006942439549043774,-0.017532039961405097
1772732878861446700,9.17844677734375,0.05533142659962177,0.01053934979615733,-0.001552563204243779
1772732878871474700,9.188474609375,0.04500234028697014,-0.004415222626365721,0.0035216713201254605
1772732878881502700,9.198502685546876,0.04739420385956764,-0.0048263241779059165,0.0004770063946023583
1772732878891530800,9.20853076171875,0.057716275909543036,0.0008278839251957833,-0.006328581967018544
1772732878901558500,9.21855859375,0.05127542920708656,-0.0035019071737304327,-0.0022279782477766276
1772732878911586800,9.2285869140625,0.059953825703263276,-0.00534684092067182,-0.013923567140661178
1772732878921614600,9.238614501953125,0.05845569609999656,-0.006931242301594465,0.002524732704646885
1772732878931643000,9.248642822265625,0.05097264686822891,-0.0014918277266435325,-0.0004015665382146835
1772732878941670700,9.258670654296875,0.039299744731187816,0.013306987878587096,0.009495777293667197
1772732878951698700,9.26869873046875,0.05815875898003578,-0.004106266275048256,-0.017634404357336462
1772732878961726700,9.278726806640625,0.0539665679872036,0.0010305120915174483,-0.00972242565639317
1772732878971754800,9.288754638671875,0.05261515337824821,-0.0011694821707904338,0.00017002280466258524
1772732878981782800,9.29878271484375,0.060251931867003436,0.0053767428685910995,-0.008861571043357252
1772732878991810800,9.308810791015626,0.04229074324071407,-0.000584795884322375,-0.014516601130366324
1772732879001837800,9.318837890625,0.06369418127536773,-0.0037959399505518377,-0.012186916073784231
1772732879011865600,9.328865478515626,0.0586111789226532,-0.004283157211914659,0.0029017858561128378
1772732879021893600,9.3388935546875,0.04903963297903537,0.0018457922634668648,0.0017096899947151541
1772732879031921700,9.348921630859374,0.03676759590506554,-0.006788564161583781,-0.01017075394578278
1772732879041949700,9.35894970703125,0.049636429828405375,0.0056528563962318,-0.00313194135017693
1772732879051977700,9.368977783203125,0.06115852531790733,0.0028128289310261605,-0.001173756487108767
1772732879062005800,9.379005859375,0.051880409362912175,-0.008046930192224681,0.003827814659848809
1772732879072033500,9.389033447265625,0.03885784618258476,-0.007126454346440732,0.003970109207369387
1772732879082061800,9.399061767578125,0.04109890310764312,0.004199716712161898,-0.013332469379715621
1772732879092089600,9.409089599609375,0.05456161127090454,0.004893288466893136,-0.005901259933039546
1772732879102118000,9.419117919921876,0.04498422010838985,-0.0009103563105687498,0.005060425194725394
1772732879112145700,9.429145751953126,0.04722878416478633,0.0004900485392659902,-0.006568601267971098
1772732879122173700,9.439173583984376,0.05545008454322815,-0.00802099203336984,-0.012400631889700888
1772732879132201700,9.44920166015625,0.0572387215256691,0.0037784956254065033,-0.014901508794724941
1772732879142229800,9.459229736328124,0.058140638801455494,0.004498133403155953,-0.0057902007739990945
1772732879152256800,9.4692568359375,0.039433600243926045,-0.001976268509030342,-0.002005129277333617
1772732879162284500,9.479284423828124,0.050504444834589955,-0.01463173367632553,-0.002338818211108446
1772732879172312800,9.489312744140625,0.04436404238343238,0.006101166419312357,0.00015986673682928085
1772732879182340600,9.499340576171875,0.042567222094535825,-0.008045414088573306,0.010900712188147008
1772732879192368600,9.50936865234375,0.06306465120017528,0.007416687730979174,-0.005415303047001362
1772732879202396700,9.519396728515625,0.03507774312198162,-0.00023528832690790293,-0.009770210320875048
1772732879212424700,9.5294248046875,0.04824760581851005,0.000020001608412712813,-0.004016834425926208
1772732879222452700,9.53945263671875,0.041808512681722636,0.005524499042518436,-0.0014938187543302773
1772732879232480800,9.549480712890626,0.04360650201439857,-0.007304678723867982,0.00655369595978409
1772732879242508500,9.559508544921876,0.04031389020979404,0.0019301278123632073,-0.0018466873126104474
1772732879252536800,9.569536865234374,0.04898877957463264,-0.0018020992522127925,0.004280234602466225
1772732879262564600,9.579564697265624,0.04120937774479389,-0.006573770633433014,-0.0005436784226447343
1772732879272593000,9.589593017578125,0.04839315176904201,-0.0033844730728305873,0.00844933698065579
1772732879282620700,9.59962060546875,0.051232174587249754,-0.00836739431824535,0.0021002236822620034
1772732879292648700,9.609648681640625,0.03103402068912983,0.001332983903121203,0.0088706676652655
1772732879302676700,9.6196767578125,0.04584112919867039,0.002082414030935615,0.01492898132354021
1772732879312704800,9.629704833984375,0.04389817843735218,-0.008731953314319252,0.009868702259287238
1772732879322732800,9.63973291015625,0.04465162715315819,-0.009506554416008292,-0.013673830163292586
1772732879332760800,9.6497607421875,0.05677051949203014,-0.0058388439550064505,0.008156199252977966
1772732879342788600,9.65978857421875,0.059768532264232635,0.016801168403588234,0.001022840241715312
1772732879352817000,9.66981689453125,0.04869827219545841,0.0026026933116838334,0.012027487728372215
1772732879362844700,9.6798447265625,0.056179567861557006,-0.0029846053013578054,-0.005216346408799291
1772732879372872700,9.689872802734374,0.04675415239036083,-0.007171480798255652,0.0025237097913399335
1772732879382901800,9.69990185546875,0.04660509930849075,0.006720960551779717,-0.0021568127077072857
1772732879392929800,9.7099296875,0.04257131374776363,-0.0021624204645864665,0.00984933997169137
1772732879402957600,9.71995751953125,0.03599193535745144,-0.0026039902196265756,0.0005850698789581656
1772732879412985900,9.72998583984375,0.03823533037006855,-0.0008871215654537081,-0.015044059070572257
1772732879423013600,9.740013671875,0.043917467659711835,-0.001047919884044677,-0.0020571151928976176
1772732879433042000,9.7500419921875,0.04406827430725097,-0.0028563392791897055,0.0029806963112205265
1772732879443069700,9.760069580078126,0.05319149196147918,-0.004760620264243334,-0.003707987672463059
1772732879453097700,9.77009765625,0.03209317435324192,-0.004841814007982611,0.00650130818542093
1772732879463125800,9.780125732421874,0.030746435919404028,0.006710128630511463,0.008650558641180396
1772732879473153500,9.790153564453124,0.05753098247051239,0.007446662744134664,-0.007945552176982163
1772732879483181800,9.800181884765625,0.04571019629538059,0.00009049129504710435,-0.014268983044847845
1772732879493209600,9.810209716796875,0.0497574258595705,-0.007730247192177921,-0.011399674686230718
1772732879503237600,9.820237548828125,0.055446577411890026,-0.000019581483304500578,-0.0048271644281223415
1772732879513265700,9.830265625,0.03914543095231056,0.00011363470861688256,0.00534811956230551
1772732879523292700,9.840292724609375,0.05351064091324806,-0.016293145816214383,0.004482406111061573
1772732879533320700,9.85032080078125,0.049177580145001405,-0.008788670203927904,0.009265037277713417
1772732879543348700,9.8603486328125,0.03510755373835563,0.011721618383284657,0.0035668621687218543
1772732879553376800,9.870376708984375,0.050962709996104236,0.0215859549947083,0.002854256919957697
1772732879563404800,9.88040478515625,0.042431028494238854,-0.0026079722750000653,-0.006609810061194002
1772732879573432600,9.8904326171875,0.06069032328426838,-0.015078344932664184,0.006082973175495863
1772732879583460900,9.9004609375,0.05066226574480533,-0.005406663082819432,0.009102722855471075
1772732879593488600,9.910488525390624,0.04273965605199337,0.004244834495522082,0.004288344843685627
1772732879603517000,9.920516845703125,0.04917290396988391,-0.011850797720905392,-0.012687559072300791
1772732879613544700,9.930544677734375,0.061145665836334226,-0.0011595818312838673,-0.009235665052756666
1772732879623572500,9.940572509765625,0.05246434673070907,0.0033526896950788793,0.0034239100340753793
1772732879633600800,9.950600830078125,0.05440379036068916,0.006854688200354576,0.003217683404870331
1772732879643628500,9.960628662109375,0.04706862516701221,-0.023558497176691888,-0.005981777823343873
1772732879653656800,9.97065673828125,0.04811959552466869,-0.0050440585818141695,-0.004349536979012191
1772732879663685000,9.98068505859375,0.05605097304582596,0.00047457697549834843,0.002358801553212106
1772732879673713000,9.990712890625,0.05604571234881878,-0.0035235527499578893,0.0018219912627711892
1772732879683741200,10.0007412109375,0.06173135676980018,0.005131389805395156,0.015287074046209454
1772732879693769000,10.01076904296875,0.051259647116065024,-0.012949315281026065,-0.006049253568984568
1772732879703797000,10.020796875,0.0397363825827837,-0.011147690952848642,-0.007062851058319211
1772732879713825000,10.030824951171875,0.05275777671933174,-0.004851677814871072,0.009623385728709398
1772732879723853000,10.04085302734375,0.04333119220435619,-0.011751666461676358,-0.005825199022144079
1772732879733881000,10.050881103515625,0.05006897602677345,-0.013911164316814393,-0.001680390834994614
1772732879743909000,10.0609091796875,0.04917056588232517,-0.009513203352503477,0.0018242562850937247
1772732879753937000,10.07093701171875,0.04917407301366329,-0.00006314663039520382,0.00563577739726752
1772732879763964000,10.0809638671875,0.04767711245417595,-0.005447597881406545,0.018550057897530496
1772732879773992000,10.090991943359375,0.04603168333470821,-0.014699063291493803,0.0032902371844276785
1772732879784020000,10.10102001953125,0.06608136867284774,0.0008132708779536187,0.010318637983873486
1772732879794048000,10.111048095703126,0.04588263025283813,0.0003484298451803624,0.006015095571056008
1772732879804076000,10.121075927734376,0.05411211393773555,0.012668525578267871,-0.014724325596913694
1772732879814104000,10.13110400390625,0.03660451429784298,0.003479914537630975,0.0036102629190310834
1772732879824131800,10.1411318359375,0.04947101013362407,0.004312291974853724,0.007044073292613029
1772732879834160000,10.15116015625,0.06667641195654869,0.005556501615978777,-0.0018134426301345229
1772732879844188000,10.16118798828125,0.06264262639582156,0.006934877297095954,0.005784392087720334
1772732879854216200,10.17121630859375,0.05561433519423008,-0.0022329284175299107,0.004242752136290073
1772732879864244000,10.181243896484375,0.04708440725803375,0.0020940862024202943,0.01262658613268286
1772732879874272000,10.19127197265625,0.0604015694707632,0.00619677228089422,0.006123780109919607
1772732879884300000,10.201300048828125,0.049179333710670466,0.013946235630195586,0.001131488247960806
1772732879894328000,10.211328125,0.035713702937960626,0.002847991575952619,0.0039012817548587917
1772732879904356000,10.221356201171876,0.05067337166070938,-0.005222794415894895,0.007194697277061641
1772732879914384100,10.231384033203126,0.0421457818120718,-0.0063166358008980746,0.0062087549796327945
1772732879924412000,10.241411865234374,0.036463060000538824,-0.0048687202812172465,-0.010537614496797323
1772732879934440200,10.251440185546874,0.051423313245177266,0.0014583090495318173,-0.003490472464263439
1772732879944468000,10.261468017578125,0.053071080452203746,-0.00824384100381285,-0.0039770869374275205
1772732879954496300,10.271496337890625,0.05067804783582687,-0.013823431234434247,0.001797295212931931
1772732879964524000,10.28152392578125,0.04589022903740406,0.008174392496794462,0.0028266747932881114
1772732879974552000,10.291552001953125,0.052479544299840926,0.011263554151169955,-0.007410020528174937
1772732879984580000,10.301580078125,0.058015551117062567,-0.002050027864985168,-0.007376227856427431
1772732879994607900,10.31160791015625,0.04215338059663772,-0.013838610537257044,0.0007495397256687283
1772732880004635100,10.32163525390625,0.034815292793512344,-0.00023181772818788886,0.010211560880206525
1772732880014663000,10.331662841796875,0.042888709133863445,-0.014946845773793757,0.0015339315690100193
1772732880024691200,10.341691162109376,0.04587269338071346,0.008803137120697647,0.007433511001616716
1772732880034719000,10.351718994140626,0.04632511332333088,0.005973028261307627,0.012858422127179801
1772732880044747000,10.3617470703125,0.06607961510717869,-0.0044077882385812695,-0.004039301986061036
1772732880054775000,10.371775146484374,0.038244682720303534,-0.0025713848579674956,0.005073394274152815
1772732880064803000,10.381802978515625,0.05799100119769573,0.007915065707173197,-0.0014694149654358624
1772732880074831000,10.3918310546875,0.04871639237403869,-0.006804127056896686,0.01050458901003003
1772732880084859100,10.401859130859375,0.054105684196949,-0.009580679098144173,-0.011933708497695624
1772732880094887000,10.411886962890625,0.06608078415095806,0.0011043079800903796,-0.0016703078323975205
1772732880104915200,10.421915283203125,0.04632803593277931,-0.012128262955415994,-0.003648731765896082
1772732880114943000,10.43194287109375,0.05530746120214462,-0.0064523544771596785,-0.01596767672151327
1772732880124971300,10.44197119140625,0.047071547776460644,-0.0018104652217589318,-0.0020229206623509524
1772732880134999000,10.4519990234375,0.049614217996597286,0.006694328273180871,0.007267981708981097
1772732880145026800,10.46202685546875,0.054848026996850964,0.0006574592617340385,0.012862659910880028
1772732880155055000,10.47205517578125,0.05454699822366237,0.011588840582780539,-0.005346439061872661
1772732880165083000,10.482082763671874,0.05230711034238338,0.005736150765512139,0.010353307438455521
1772732880175111200,10.492111083984375,0.04527355844378471,-0.009145520817581564,-0.006598338819108903
1772732880185139000,10.502138916015625,0.049316696354746815,-0.007033058708254248,-0.004579948201403021
1772732880195167000,10.5121669921875,0.045430794832110405,-0.00257397867385298,-0.00940101168230176
1772732880205195000,10.522195068359375,0.057098436272144316,-0.008145970119908452,-0.011431969520635903
1772732880215223000,10.53222314453125,0.04946516491472721,-0.009975267906300723,-0.0000576850039884448
1772732880225251000,10.5422509765625,0.04796937339901924,-0.00589230944160372,-0.0021185995891690253
1772732880235279000,10.552279052734375,0.05829378353655338,0.003820416804682463,0.0043305034849792715
1772732880245307000,10.562306884765626,0.049016836625337595,0.004923701871465892,0.014678148367628454
1772732880255334100,10.572334228515626,0.04467500802874565,-0.008792451329901814,0.005662227012775838
1772732880265362000,10.58236181640625,0.06352817705869675,-0.009609576399065553,0.010724624968878924
1772732880275390200,10.59239013671875,0.06292319690287113,-0.0022459888285025955,0.006475406559184193
1772732880285418000,10.60241796875,0.06575871258974075,-0.008921210542414336,-0.004312456371635198
1772732880295446300,10.6124462890625,0.040327334213256835,-0.004413669990096241,-0.014691775034181773
1772732880305474000,10.62247412109375,0.048264556953310965,0.0015778620422817766,0.0053265287850052115
1772732880315501800,10.632501708984375,0.04736614680886268,-0.0021343451475724575,0.0047726212292909615
1772732880325530000,10.642530029296875,0.04332826959490776,0.001786682487372309,-0.000057611938752233976
1772732880335558000,10.652557861328125,0.042134091374278065,0.0017440671883523463,0.004303505880199373
1772732880345586200,10.662586181640625,0.0440846409201622,-0.012466098341345787,0.0040131811641156674
1772732880355614000,10.672614013671875,0.056957566496729846,0.007533646907843649,0.004718589487113059
1772732880365642000,10.68264208984375,0.03750233992040157,0.004984693077392876,-0.005991933891177177
1772732880375670000,10.692669921875,0.04379179545342922,-0.005237772789318114,0.004295286041125655
1772732880385698000,10.702697998046874,0.038702947881817815,-0.001029416112974286,0.012752550599910317
1772732880395726000,10.71272607421875,0.043346389773488044,-0.0038034656698815524,0.0030972718955948947
1772732880405754000,10.722754150390625,0.038410102415084836,0.002144610813260078,-0.007010244088247418
1772732880415782000,10.732781982421875,0.04709142152070999,0.006810045341029762,0.00865625772960484
1772732880425810200,10.74281005859375,0.05727262379527091,-0.008730674672685563,-0.009622837739437819
1772732880435838000,10.752837890625,0.04125613949596882,-0.008164218162652104,-0.005460968819633126
1772732880445866000,10.762865966796875,0.07163374210298061,0.0019564312973991034,-0.0004720014259219169
1772732880455894000,10.77289404296875,0.049643444091081616,-0.012565887187700717,0.007837086833827197
1772732880465922000,10.782922119140625,0.03572714694142341,-0.007105338493175804,-0.00512614737469703
1772732880475950000,10.7929501953125,0.046349078720808026,0.002918335132114589,-0.013285050041414797
1772732880485976800,10.802976806640626,0.04455284295380115,0.0008984466770663857,0.0029520182060077784
1772732880496005000,10.813005126953126,0.05038812497854232,-0.003911492621619254,0.00146609049718827
1772732880506033000,10.823032958984374,0.05113397490978241,-0.0014954627221450208,0.004233801644854247
1772732880516061200,10.833061279296874,0.03362462170422077,0.006228299930319189,-0.006242620716616511
1772732880526089000,10.8430888671875,0.0628068770468235,0.006851783857215196,-0.015575900924950837
1772732880536117000,10.853116943359375,0.05966740997731685,0.00048628567960113284,-0.003335756826587021
1772732880546145000,10.86314501953125,0.053831543430685996,-0.0013306458155624569,0.004886274204216897
1772732880556173000,10.873173095703125,0.06220715758800506,-0.008741981517989187,-0.005248641243204474
1772732880566201000,10.883201171875,0.08524842595756053,0.0072329834608361124,-0.0002499196404591203
1772732880576229000,10.89322900390625,0.052772389766573904,0.0025918065914884206,-0.015973631538264452
1772732880586257000,10.9032568359375,0.058907531520724296,0.003976447616610676,0.012027962652407586
1772732880596285200,10.91328515625,0.05560848997533321,-0.0007082761335186659,0.0059365504421293736
1772732880606313000,10.92331298828125,0.053362172353267665,-0.00592180953072384,0.014382672552391887
1772732880616341000,10.933341064453124,0.059198623421788214,-0.000850808143056929,0.0016174816666170953
1772732880626369000,10.943369140625,0.057252165529131885,-0.0031345899649895727,-0.017233239677920936
1772732880636397000,10.95339697265625,0.06742869162857532,-0.005347297578398138,0.007750723724626004
1772732880646425000,10.963425048828125,0.04916588970720768,-0.0056802010608837,0.003742145670391619
1772732880656453000,10.973453125,0.036300562915205954,-0.00006663549542427062,-0.010655103396624326
1772732880666481000,10.98348095703125,0.047670098191499706,-0.007378474612440913,-0.008727569400146603
1772732880676509000,10.993509033203125,0.03614566461443901,0.006669833152741193,0.00015584814883768557
1772732880686537000,11.003536865234375,0.05919160915911197,0.0027159261615015565,0.006899623320624232
1772732880696565000,11.01356494140625,0.04123685027360916,-0.001526497181225568,-0.00487677572350949
1772732880706592800,11.0235927734375,0.050509705531597136,0.0020004531022161246,-0.008685410758852959
1772732880716620800,11.033620849609376,0.055740591922402376,-0.0019884704034775495,-0.0042473917787894605
1772732880726647800,11.043647705078126,0.054694297739863396,-0.02163808704074472,-0.017971673487685618
1772732880736676000,11.053676025390626,0.059630585098266596,-0.0023284612138755618,-0.018653627869859336
1772732880746704000,11.063703857421874,0.05723112274110317,0.0025698504880070686,0.002416924948617816
1772732880756732000,11.07373193359375,0.04690203642845153,-0.005010923497192561,-0.0005537614252418279
1772732880766760000,11.083760009765625,0.05138941097557544,-0.014140863153152166,-0.00169602679554373
1772732880776788000,11.0937880859375,0.058571431434154504,-0.008749525503627955,0.009996529890038073
1772732880786816000,11.10381591796875,0.04660100765526294,-0.0037616358221508562,0.0037300899064168333
1772732880796844000,11.113843994140625,0.046751814302802085,-0.018447035914473234,-0.0030497429594397545
1772732880806871800,11.123871826171875,0.03836860136091709,-0.0003349310427904129,-0.012969810079783201
1772732880816900000,11.133900146484375,0.06320435193181037,-0.0009653013681992888,0.008672441679425538
1772732880826927900,11.143927978515626,0.053632221466302865,0.004796805822476744,0.0213213492417708
1772732880836956000,11.153955810546876,0.05872048451602459,-0.0035127390949986873,-0.005574694859795272
1772732880846984000,11.16398388671875,0.04989128137230873,-0.008432184916455298,0.004632080247439444
1772732880857012000,11.174011962890624,0.045849312505126,0.013798022798541932,-0.006887421426177025
1772732880867040000,11.1840400390625,0.05348375290632248,0.01781735970880836,-0.002650587574020028
1772732880877067800,11.19406787109375,0.05078735342919826,0.003943075069971383,-0.0007331365801393986
1772732880887095800,11.204095703125,0.04270809186995029,-0.010169694499857723,0.0037959947494789954
1772732880897123800,11.214123779296875,0.046751229780912396,0.001625701505690813,0.0026179639460518953
1772732880907152000,11.22415185546875,0.05064063843488693,0.0025872765468433496,0.005884199200384318
1772732880917180000,11.234179931640625,0.05033610253036022,-0.0013865955201908945,0.005365545621141791
1772732880927208000,11.2442080078125,0.049587329989671705,0.006000537322741002,0.012313647725991904
1772732880937235700,11.254235595703125,0.06618950522243976,-0.0012215776842087506,-0.0035234614184126256
1772732880947264000,11.264263916015626,0.06185001471340656,-0.00631639833888039,0.0009671645317226648
1772732880957291800,11.274291748046876,0.052421676632761954,-0.007843078183196484,-0.008150500164553523
1772732880967320000,11.284320068359374,0.056009471991658205,-0.005038706553261727,-0.007344042619876563
1772732880977346800,11.294346923828124,0.03879354877471924,-0.002100187149643898,-0.01465286779589951
1772732880987375000,11.304375,0.045526656422019,-0.00045466669863089917,-0.012393215768225491
1772732880997403000,11.31440283203125,0.05375847819447517,-0.0011860862457193434,0.004784055938757956
1772732881007431000,11.324430908203125,0.04687222581207752,-0.0006076105043292046,-0.006365918302722275
1772732881017459000,11.334458984375,0.052560208320617675,-0.009269110664632171,-0.001012720706500113
1772732881027486700,11.34448681640625,0.06827274123728275,0.0014574505330063401,-0.001082936398498714
1772732881037515000,11.354514892578125,0.05674480052888393,-0.004076218196656554,0.009594451895169913
1772732881047542800,11.364542724609375,0.0527028316617012,0.0012553703559562562,0.002565612704306841
1772732881057570800,11.37457080078125,0.05778817210197448,0.010031564670801163,-0.00624342443421483
1772732881067598800,11.384598876953126,0.04805471359491348,-0.0048650304867886,0.004662877244502306
1772732881077627000,11.394626953125,0.05283960978388786,0.008646503520570696,-0.005041976222582161
1772732881087655000,11.404655029296874,0.05044540812373161,0.005387063333205879,0.011135909183509648
1772732881097683000,11.414682861328124,0.057476621934771537,-0.006389500107709318,0.012120317110978066
1772732881107710700,11.424710693359375,0.046101825961470604,-0.0010489610636606813,0.001970386757515371
1772732881117739000,11.434739013671875,0.05477963793575764,-0.002014993084222078,-0.0019402838801965117
1772732881127766800,11.444766845703125,0.05538111096024513,0.0037147279405035077,0.020017901960387826
1772732881137795000,11.454795166015625,0.04580021266639232,-0.001887128920853138,0.016487280148826538
1772732881147822800,11.46482275390625,0.04759469486773014,0.008691676102858037,0.010037044563516975
1772732881157851000,11.474850830078125,0.04939034611284732,-0.004748053043615073,0.003336450946331024
1772732881167879000,11.48487890625,0.05088964475989342,-0.006686035368870943,-0.0013786314094439147
1772732881177907000,11.494906982421876,0.049393268722295755,-0.005107570538390427,0.01875504241771996
1772732881187935000,11.50493505859375,0.04969605106115341,-0.0018539573036134242,-0.003100048374570906
1772732881197963000,11.514962890625,0.049998248878121376,0.009491466444730758,0.002318286879733205
1772732881207990800,11.52499072265625,0.051046881148219106,0.0017576938549056648,-0.0024759251268580557
1772732881218017800,11.535017822265624,0.05913023436069488,-0.0033071152539923786,0.004497603680193424
1772732881228045800,11.5450458984375,0.0574824671536684,0.008439966364111751,0.007933131086826323
1772732881238073900,11.555073974609375,0.048202597633004184,-0.008417133477795869,0.009831037130020558
1772732881248102000,11.565101806640625,0.04445405875444412,-0.007041990933381021,0.020277064353227615
1772732881258130000,11.5751298828125,0.05313011716306209,-0.008467018767818808,0.014763707759231328
1772732881268158000,11.585157958984375,0.05821370403766632,-0.0020494798757135866,0.002300020570680499
1772732881278185700,11.595185791015625,0.050584524333477016,0.002787676223460585,-0.004771927109546959
1772732881288214000,11.605214111328126,0.049535892063379286,-0.023622063932195306,0.007021678797714412
1772732881298241800,11.61524169921875,0.04385083216428756,0.0004007080216892063,0.010519823111779987
1772732881308270000,11.62527001953125,0.05567512547075748,0.001582666081562638,-0.0018471987692639232
1772732881318297900,11.6352978515625,0.040865678873658176,0.0035186025802046057,-0.005418116058595478
1772732881328326000,11.645325927734374,0.03278524827063083,0.011953034252673387,-0.010742124092951416
1772732881338354000,11.65535400390625,0.03907119667232036,-0.01101968065900728,0.006517163341678679
1772732881348382000,11.6653818359375,0.05089724354445934,-0.0064468197855167084,-0.006268157016672194
1772732881358410000,11.675409912109375,0.07379296596348285,-0.003954838573001325,-0.003052738634124398
1772732881368438000,11.68543798828125,0.04506429960727691,0.002178951474279165,0.006468648024834692
1772732881378465800,11.6954658203125,0.04985679458081722,0.01378640542598441,0.0035750454751774666
1772732881388494000,11.705494140625,0.051496963003277774,-0.0041163492776453495,0.006496522412449121
1772732881398521900,11.71552197265625,0.04924713824987411,-0.002665602480061352,0.007934336663223802
1772732881408550100,11.725550048828126,0.05223755223751068,0.016412881472054868,-0.0037455066712573167
1772732881418578000,11.735577880859376,0.05732698433101177,-0.0035651999345980585,-0.0028370500568300483
1772732881428606000,11.74560595703125,0.05972177051305771,-0.017482958388980476,-0.002106470759958029
1772732881438634000,11.755634033203124,0.042217093482613564,-0.02813789738882333,0.0078072396848350755
1772732881448660700,11.76566064453125,0.04835340428054333,-0.011756324370484798,0.01116279719043523
1772732881458689000,11.77568896484375,0.06287117445468902,0.009221618261095136,0.006600128917396068
1772732881468716800,11.785716796875,0.048507133537530896,0.004872556206118315,0.00326817148309201
1772732881478745000,11.7957451171875,0.05689093100130558,-0.01806355302222073,0.009857157951965928
1772732881488772900,11.80577294921875,0.04581891736686229,-0.017147570688463745,-0.0009467793308198452
1772732881498801000,11.81580078125,0.04222644583284855,-0.010243453855812549,-0.001936411422677338
1772732881508829000,11.825828857421875,0.05913315697014331,0.003803849262371659,0.006650982321798801
1772732881518857000,11.83585693359375,0.05747954454421997,-0.008385898089315742,0.017301336478069425
1772732881528885000,11.845885009765626,0.04011632181107998,-0.0025052790855057535,0.004204685148224235
1772732881538913000,11.8559130859375,0.046397594037652014,0.009129282068833709,0.01414776781797409
1772732881548940800,11.86594091796875,0.0357715706050396,0.010407960235141216,0.010850662501342595
1772732881558969000,11.875968994140624,0.045645898887515066,-0.004022003791388124,0.002310505432076752
1772732881568996900,11.885996826171874,0.0493915151566267,-0.009111764678452164,0.0023022855930030345
1772732881579025200,11.896025146484375,0.05133388139605522,0.005405092180240899,0.005971329494565725
1772732881589053000,11.906052978515625,0.05612520732581615,-0.015640344463288783,0.011473982031457126
1772732881599080700,11.916080810546875,0.052687634092569345,0.0006130173318088055,0.004098229099065065
1772732881609109000,11.92610888671875,0.050149640047550195,0.009862948371935635,0.011676299670524894
1772732881619136800,11.93613671875,0.03503624206781387,0.005314856613520533,0.009379019046202301
1772732881629165000,11.9461650390625,0.03504033372104168,-0.00342378216991201,-0.002342727201245725
1772732881639192800,11.95619287109375,0.05254793336093425,-0.00041880993396043776,0.0020191578026860953
1772732881649220900,11.966220947265626,0.04282032007277012,-0.014050791983213275,-0.006051591656543314
1772732881659249000,11.976248779296874,0.057630935713648794,-0.004705382945667952,-0.0130542004276067
1772732881669277200,11.986277099609374,0.041324528557062146,0.0090688023195602,-0.000765577545017004
1772732881679304200,11.99630419921875,0.052097851505875585,-0.004947849932033568,0.025939510561712086
1772732881689332200,12.006332275390625,0.05314765281975269,-0.0032845746286213396,0.016180552287213504
1772732881699360300,12.0163603515625,0.05120353301465511,0.0026981713091023263,0.010006759023107588
1772732881709388300,12.02638818359375,0.05135492418408394,0.0034442587023600932,0.003373714216798544
