time,seconds_elapsed,z,y,x
1772732869756059000,0.073058837890625,-0.0005094666848890483,0.028025034815073013,0.01120301615446806
1772732869766087200,0.083087158203125,0.001922298688441515,0.014795538038015366,0.00798399094492197
1772732869776115000,0.093114990234375,0.000015209137927740812,-0.01682124473154545,-0.007165133953094482
1772732869786143000,0.10314306640625,-0.002542323898524046,-0.010612682439386845,-0.004108705557882786
1772732869796171000,0.1131708984375,0.0005349587299861014,0.012230315245687962,0.00498332642018795
1772732869806199000,0.123198974609375,0.00117897754535079,0.006109882146120071,0.0029344335198402405
1772732869816227000,0.13322705078125,0.003576088696718216,-0.007432824466377497,-0.004175141453742981
1772732869826255000,0.143255126953125,0.00009453826351091266,-0.002033265307545662,-0.0017213048413395882
1772732869836283000,0.153282958984375,0.001830919412896037,0.004877903498709202,0.004062015563249588
1772732869846311200,0.163311279296875,0.00013734877575188875,0.0038386944215744734,0.0022024535574018955
1772732869856339000,0.1733388671875,0.0029381951317191124,-0.005259728990495205,0.0005073515931144357
1772732869866367000,0.183366943359375,0.0013206906151026487,-0.0029741383623331785,-0.0015605116495862603
1772732869876395000,0.19339501953125,0.004789990838617086,0.0012565595097839832,-0.0004177492228336632
1772732869886423000,0.203423095703125,0.00133863789960742,0.00035488512367010117,-0.00009047891944646835
1772732869896451000,0.213451171875,0.0029083050321787596,-0.00022595026530325413,0.0005537397228181362
1772732869906479000,0.22347900390625,0.004451768938452005,-0.0019387012580409646,0.0004339297011028975
1772732869916507000,0.2335068359375,-0.000029531947802752256,-0.00012855068780481815,0.002195078181102872
1772732869926535200,0.24353515625,0.0014524520374834538,-0.0016952415462583303,0.00099807174410671
1772732869936562200,0.253562255859375,-0.0004562354297377169,0.0023112178314477205,0.0011405509430915117
1772732869946591200,0.26359130859375,0.000010715972166508436,0.0015996869187802076,0.0009169261902570724
1772732869956618000,0.273617919921875,0.0016869097016751766,0.00010725157335400581,0.001046622171998024
1772732869966646000,0.28364599609375,-0.0004051359137520194,0.0008280815090984106,-0.0007323883473873138
1772732869976674000,0.293674072265625,0.0005253725103102624,0.0002278052270412445,-0.0008255989523604512
1772732869986702000,0.3037021484375,0.0003421449800953269,-0.0005998201668262482,0.0006490721134468913
1772732869996730000,0.313730224609375,0.0012899639550596476,-0.0008110087364912033,0.00036251588608138263
1772732870006758000,0.3237578125,-0.0010179304517805576,0.0007169370073825121,-0.0014359570341184735
1772732870016786200,0.3337861328125,0.0017909053713083267,-0.00038188323378562927,-0.0012836242094635963
1772732870026814000,0.34381396484375,-0.0007748703355900943,0.0005781892687082291,-0.0006431910442188382
1772732870036842000,0.353842041015625,-0.0009109578677453101,-0.0005589805077761412,-0.001513778348453343
1772732870046870000,0.3638701171875,0.0012530910316854715,-0.001517122844234109,0.0007662922143936157
1772732870056898000,0.37389794921875,0.0018965108320116997,0.00029249489307403564,-0.000681668461766094
1772732870066926000,0.383926025390625,-0.0011543401051312685,0.0009005388710647821,0.0002646960492711514
1772732870076954000,0.3939541015625,0.0007290474604815245,-0.0007197284139692783,-0.0005417091306298971
1772732870086982000,0.40398193359375,0.0027212267741560936,-0.0037125861272215843,0.0011301646009087563
1772732870097010200,0.41401025390625,-0.0006921467720530927,-0.0013956360053271055,0.002114735310897231
1772732870107038000,0.424037841796875,0.0004694247036240995,-0.0009821129497140646,-0.002967722015455365
1772732870117066200,0.434066162109375,-0.0002586835471447557,-0.0002854301128536463,-0.00044624105794355273
1772732870127094000,0.444093994140625,-0.0001455005258321762,-0.0008296046871691942,-0.000024358363589271903
1772732870137122000,0.4541220703125,-0.002692281501367688,-0.00009563728235661983,0.00036552842357195914
1772732870147150000,0.464150146484375,-0.002196434885263443,-0.00033090682700276375,-0.0035460209473967552
1772732870157177900,0.474177734375,-0.006208487320691347,-0.00093304761685431,-0.0022051194682717323
1772732870167206100,0.4842060546875,-0.012980839237570763,-0.003770511131733656,-0.0014934197533875704
1772732870177234000,0.49423388671875,-0.020317580550909042,-0.002991270273923874,-0.0003669025900308043
1772732870187262000,0.504261962890625,-0.02146107517182827,0.0033630761317908764,0.004905766807496548
1772732870197290000,0.5142900390625,-0.020813660696148872,0.005207847338169813,0.006659724749624729
1772732870207318000,0.524318115234375,-0.015394327230751514,0.008956913836300373,0.0054608737118542194
1772732870217346000,0.534345947265625,-0.008499936200678349,0.004263625480234623,0.004665653686970472
1772732870227374000,0.5443740234375,0.0037834953982383013,-0.00007102359086275101,-0.0005136809195391834
1772732870237401900,0.55440185546875,0.005758229177445173,-0.004271361045539379,-0.005590997636318207
1772732870247430100,0.56443017578125,0.004413031507283449,-0.004309913609176874,-0.0060377358458936214
1772732870257457000,0.574456787109375,0.0015274964971467853,-0.007794127333909273,-0.002217964269220829
1772732870267485200,0.584485107421875,-0.0003420404973439872,-0.004139556549489498,-0.0049299392849206924
1772732870277513000,0.594512939453125,0.001217772951349616,-0.00565702561289072,-0.004407959524542093
1772732870287541200,0.604541259765625,-0.0029804008081555367,0.015213124454021454,0.006278178654611111
1772732870297569000,0.614569091796875,-0.005608141887933016,0.008247626945376396,0.002046415815129876
1772732870307596800,0.6245966796875,-0.00521499291062355,-0.0003785747103393078,-0.0015897218836471438
1772732870317625000,0.634625,-0.0026977735105901957,0.0010486131068319082,-0.0027122441679239273
1772732870327652900,0.64465283203125,0.0018414166988804936,0.003889648709446192,-0.001040191389620304
1772732870337681200,0.65468115234375,0.004543726332485676,-0.00594753585755825,-0.003672992344945669
1772732870347709000,0.664708984375,0.003682926297187805,-0.009748709388077259,-0.002350876107811928
1772732870357737000,0.674737060546875,0.00019498413894325495,-0.007006186060607433,-0.0007801437750458717
1772732870367765000,0.684764892578125,-0.005932849366217852,0.0022018495947122574,0.0037930787075310946
1772732870377793000,0.69479296875,-0.005133101716637611,0.007236289791762829,0.0019421814940869808
1772732870387821000,0.704821044921875,-0.0022926402743905783,0.004263359121978283,0.0023875858169049025
1772732870397849000,0.71484912109375,0.0003044743207283318,0.004226074554026127,0.0016701299464330077
1772732870407876900,0.724876953125,0.004477548412978649,-0.0004230714403092861,-0.001981943380087614
1772732870417905200,0.7349052734375,0.0009105104254558682,-0.00110084586776793,-0.004285577684640884
1772732870427933000,0.744932861328125,-0.0011164559982717037,-0.0030975304543972015,-0.0033949166536331177
1772732870437961200,0.754961181640625,0.0017424472607672215,-0.0027915332466363907,-0.0023307176306843758
1772732870447989000,0.764989013671875,0.0021951845847070217,-0.0006913645192980766,0.0017042377730831504
1772732870458017000,0.77501708984375,0.0028344772290438414,0.00034238677471876144,0.001239763223566115
1772732870468045000,0.785045166015625,0.0015949428780004382,0.003143433714285493,0.002221856266260147
1772732870478073000,0.795072998046875,0.0011581843718886375,0.006805280223488808,0.0026695337146520615
1772732870488101000,0.80510107421875,-0.0038776197470724583,0.0029460713267326355,0.0032112824264913797
1772732870498129200,0.815129150390625,-0.0013766454067081213,0.0012658829800784588,0.00013399982708506286
1772732870508157000,0.825156982421875,-0.0001694696838967502,-0.002030514180660248,0.0010321575682610273
1772732870518185200,0.835185302734375,0.0024694567546248436,-0.004314441233873367,-0.0029178429394960403
1772732870528213000,0.845212890625,0.0019520045025274158,-0.0011639215517789125,-0.0039543453603982925
1772732870538241000,0.855240966796875,0.001163974986411631,-0.0022017555311322212,-0.003996689338237047
1772732870548269000,0.86526904296875,0.0008169988286681473,0.003051708685234189,0.0006621428765356541
1772732870558297000,0.875297119140625,-0.0011540066916495562,0.003935079090297222,0.004450222942978144
1772732870568324000,0.885323974609375,-0.002797377295792103,0.003552336012944579,-0.00001757859718054533
1772732870578351900,0.895351806640625,-0.001572855981066823,0.00522267073392868,0.00023781854542903602
1772732870588380200,0.905380126953125,0.0005746512324549258,0.002718280768021941,0.00020754124852828681
1772732870598408000,0.915407958984375,0.0027451275382190943,-0.003500466700643301,-0.0009053937392309308
1772732870608436200,0.925436279296875,0.0006124351057223976,-0.004425404593348503,-0.0015181254129856825
1772732870618464000,0.935464111328125,0.00045237905578687787,-0.0012644988019019365,-0.0019855101127177477
1772732870628492000,0.945491943359375,0.0012754627969115973,-0.006031090393662453,-0.00311770080588758
1772732870638520000,0.95552001953125,-0.0006502688629552722,0.0025043413043022156,-0.0010415005963295698
1772732870648548000,0.965548095703125,0.00028013892006129026,0.0019193540792912245,0.0015124285127967596
1772732870658576100,0.975576171875,0.0023542088456451893,0.0014479749370366335,0.00156755605712533
1772732870668604200,0.985604248046875,-0.0006210748106241226,0.0021731534507125616,0.0008594214450567961
1772732870678632200,0.995632080078125,0.0009115744614973664,0.003587558167055249,0.001672218320891261
1772732870688660200,1.00566015625,-0.0007885212544351816,0.00012549292296171188,-0.0018358208471909165
1772732870698688300,1.015688232421875,-0.001493992516770959,-0.005275930278003216,-0.002009725198149681
1772732870708716000,1.025716064453125,-0.0002253290731459856,0.0003206587862223387,-0.0006987940869294107
1772732870718744300,1.035744384765625,0.0026396997272968292,0.0019284088630229235,0.0004152061592321843
1772732870728772000,1.045772216796875,0.00204295152798295,-0.00048437085933983326,0.002085151383653283
1772732870738800000,1.055800048828125,0.0004746160702779889,0.0003007291816174984,0.00035862394724972546
1772732870748828200,1.065828125,-0.0030824686400592327,0.003267822554334998,0.002467929385602474
1772732870758856000,1.07585595703125,-0.0013871003175154328,0.002839320106431842,0.0002814739418681711
1772732870768884200,1.08588427734375,-0.00013917527394369245,-0.0020267395302653313,-0.0014319818001240492
1772732870778912000,1.095912109375,0.00029039254877716303,0.0002707696985453367,0.0007677891990169883
1772732870788940300,1.105940185546875,-0.00008105207234621048,0.00007400591857731342,0.0017937816446647048
1772732870798968000,1.115968017578125,-0.0006171463755890727,0.0010689627379179,-0.0014267789665609598
1772732870808996000,1.12599609375,-0.003197117242962122,0.0008551771752536297,0.001871893648058176
1772732870819024100,1.136024169921875,-0.0016586093697696924,0.0003646230325102806,-0.00018140353495255113
1772732870829052200,1.14605224609375,0.0006233886233530939,0.003632368054240942,0.0015691773733124137
1772732870839080200,1.156080078125,-0.0007111213635653257,0.0011204746551811695,0.0024962236639112234
1772732870849108200,1.166108154296875,0.0004462868091650307,0.002146233571693301,0.0022493868600577116
1772732870859136000,1.176135986328125,0.0008827789570204914,-0.0008958950638771057,-0.000045991677325218916
1772732870869164300,1.186164306640625,0.002988973632454872,0.0001325514167547226,-0.000622114515863359
1772732870879191000,1.19619091796875,0.00011409132275730371,-0.0038475426845252514,-0.001044491888023913
1772732870889219000,1.206218994140625,0.0012937046121805906,-0.0035260331351310015,-0.005238889716565609
1772732870899247000,1.2162470703125,-0.0012597341556102037,-0.0033036591485142708,-0.0012204457307234406
1772732870909275100,1.226275146484375,-0.001957846572622657,0.004106611479073763,0.0021376817021518946
1772732870919303200,1.23630322265625,0.0004152963520027697,0.004567604511976242,0.0015813474310562015
1772732870929331000,1.2463310546875,-0.0030922219157218933,0.004857353866100311,0.001963301794603467
1772732870939359200,1.256359130859375,-0.0005907147424295545,0.005079461261630058,0.0054395259357988834
1772732870949387000,1.266386962890625,0.002488671336323023,0.0034361344296485186,-0.0003851383225992322
1772732870959415300,1.276415283203125,0.002245258539915085,-0.001180188963189721,0.0011160855647176504
1772732870969443000,1.286443115234375,0.002253016922622919,-0.0038559301756322384,-0.00450678588822484
1772732870979471000,1.29647119140625,0.0012476736446842551,-0.00625756848603487,-0.001087020616978407
1772732870989499100,1.3064990234375,-0.00015311571769416332,-0.002526191994547844,-0.00007321711746044457
1772732870999527200,1.316527099609375,-0.00021836318774148822,-0.0009314909111708403,0.0017670271918177605
1772732871009555200,1.32655517578125,-0.0023073148913681507,0.002559045562520623,0.004089013673365116
1772732871019583200,1.336583251953125,-0.002270297147333622,0.0022021818440407515,0.00226394971832633
1772732871029611000,1.346611083984375,-0.002840613480657339,0.0020360886119306087,0.0007568866130895913
1772732871039639300,1.356639404296875,-0.0012586957309395075,0.0021250382997095585,0.0005699326866306365
1772732871049667000,1.3666669921875,0.0006972625851631165,-0.0006632034201174974,-0.0013360712910071015
1772732871059695400,1.3766953125,0.0020964874420315027,-0.0020278070587664843,-0.0011192900128662586
1772732871069723100,1.38672314453125,-0.0006222967058420181,-0.00028980057686567307,-0.0028534517623484135
1772732871079751200,1.396751220703125,0.002481617499142885,-0.0031617535278201103,-0.0003495476266834885
1772732871089779200,1.406779296875,0.0005930010229349136,-0.0013425734359771013,-0.0021180352196097374
1772732871099807200,1.41680712890625,-0.0028358190320432186,-0.000353475334122777,0.0017803001683205366
1772732871109835300,1.426835205078125,-0.002286209724843502,0.002804366871714592,0.0037322931457310915
1772732871119863300,1.43686328125,-0.001375674968585372,0.002042436506599188,0.0018347909208387136
1772732871129891000,1.44689111328125,-0.00021163909696042538,-0.0009729922749102116,-0.000876550329849124
1772732871139919400,1.45691943359375,0.001690390519797802,-0.003223896026611328,-0.001992148580029607
1772732871149947100,1.466947021484375,-0.0009430772624909878,-0.0012770374305546284,-0.0025330171920359135
1772732871159974100,1.47697412109375,0.0009589523542672396,-0.001258661737665534,-0.0024928036145865917
1772732871170002200,1.487002197265625,-0.0020313789136707783,0.0008098131511360407,-0.00007246277527883649
1772732871180030200,1.4970302734375,-0.0008481364930048585,0.0018862627912312746,0.0006487212958745658
1772732871190058200,1.507058349609375,-0.0012959172017872334,0.0029592090286314487,0.0002385996631346643
1772732871200086000,1.5170859375,0.0005837418138980865,0.0017546610906720161,0.0031702073756605387
1772732871210114300,1.5271142578125,-0.0001571174361743033,0.0005303618963807821,0.00098646548576653
1772732871220142000,1.53714208984375,-0.001126508112065494,-0.0009423659648746252,0.0009670243598520756
1772732871230170400,1.54717041015625,-0.0029021038208156824,-0.0011069932952523232,0.0007817922160029411
1772732871240198100,1.5571982421875,-0.0000826150644570589,-0.002751761581748724,-0.0001513794413767755
1772732871250226200,1.56722607421875,0.0011593822855502367,-0.002613966353237629,-0.0005860502715222538
1772732871260254200,1.577254150390625,0.001583091332577169,-0.0016187431756407022,-0.002547468524426222
1772732871270282200,1.5872822265625,0.0011746949749067426,0.0008887110743671656,-0.0010712587973102927
1772732871280310300,1.597310302734375,-0.000449833256425336,0.0016596962232142687,0.0004504715034272522
1772732871290338300,1.60733837890625,-0.0010140726808458567,0.0032565961591899395,0.00016228313324972987
1772732871300366000,1.617365966796875,0.0002344171516597271,0.00285286083817482,0.0008821356459520757
1772732871310394000,1.62739404296875,0.0007723209564574063,-0.0015688319690525532,-0.000307669019093737
1772732871320422100,1.637422119140625,0.0017576904501765966,-0.0003693441394716501,0.0006185784004628658
1772732871330450200,1.6474501953125,0.00007444014772772789,-0.0013673186767846346,-0.002725039841607213
1772732871340478200,1.657478271484375,-0.0007977451314218342,-0.0026072864420711994,-0.0011774769518524408
1772732871350506000,1.667506103515625,-0.0022274639923125505,-0.0027103533502668142,0.0014407368144020438
1772732871360534300,1.6775341796875,0.00024075369583442807,0.0016367246862500906,-0.0002687463420443237
1772732871370562000,1.68756201171875,0.0003902631578966975,0.0016056462191045284,0.002976656425744295
1772732871380590000,1.697590087890625,0.0018139890162274241,-0.0004348678048700094,0.00186585180927068
1772732871390618000,1.7076181640625,-0.00005616573616862297,0.0017160603310912848,-0.0019768611527979374
1772732871400646100,1.717646240234375,0.002674906048923731,0.00004386133514344692,-0.0023987058084458113
1772732871410674200,1.727674072265625,-0.0006487523787654936,-0.0001700124703347683,0.0001806273648981005
1772732871420702200,1.7377021484375,-0.00007430854020640254,-0.0013338138815015554,-0.0011576110264286399
1772732871430730000,1.74772998046875,0.00038948177825659513,-0.001958945533260703,0.0034256698563694954
1772732871440757200,1.75775732421875,0.001611872692592442,-0.0019027527887374163,0.00010763746104203165
1772732871450785300,1.767785400390625,-0.0016246994491666555,0.0010223973076790571,-0.00036686891689896584
1772732871460813000,1.77781298828125,-0.0006278781802393496,0.0030477314721792936,-0.00084357475861907
1772732871470841000,1.787841064453125,-0.00158518529497087,0.0014879179652780294,0.001200011814944446
1772732871480869000,1.797869140625,-0.00036758804344572127,0.0011805894318968058,-0.0019606277346611023
1772732871490897200,1.807897216796875,-0.0012876971159130335,-0.0020104325376451015,-0.0008967636385932565
1772732871500925200,1.81792529296875,-0.000018700782675296068,-0.0018783396808430552,-0.0005177957937121391
1772732871510953200,1.827953125,0.0006691275630146265,-0.0005955386441200972,0.0011585216270759702
1772732871520981000,1.83798095703125,0.0017668826039880514,-0.0013649258762598038,-0.0014945194125175476
1772732871531009300,1.84800927734375,-0.002335130702704191,-0.0006739804521203041,0.0019636843353509903
1772732871541037000,1.858037109375,-0.0017641490558162332,0.0008133947849273682,-0.0009942885953933
1772732871551065000,1.868065185546875,0.0007419837056659162,-0.001041371375322342,-0.0005670038517564535
1772732871561093000,1.878093017578125,0.0007843279163353145,0.001109663862735033,0.00037149409763514996
1772732871571121200,1.88812109375,0.00037096982123330235,-0.0013365654740482569,0.00004608681774698198
1772732871581149200,1.898149169921875,0.002487117424607277,0.0004152620676904917,-0.0007472688448615372
1772732871591177200,1.90817724609375,0.001575601752847433,-0.00010541453957557678,-0.0005137736443430185
1772732871601205000,1.918205078125,-0.0012609311379492283,0.0001417268067598343,-0.002475990680977702
1772732871611233300,1.9282333984375,0.0007283837767317891,0.0007025448139756918,-0.0005344229866750538
1772732871621261000,1.938260986328125,-0.00016270997002720833,-0.0008498118259012699,0.001184114720672369
1772732871631289300,1.948289306640625,-0.0005726352101191878,0.0036312697920948267,-0.0023647283669561148
1772732871641317000,1.958317138671875,0.0013709398917853832,0.0023673332761973143,-0.0005921284900978208
1772732871651345200,1.96834521484375,0.0012694715987890959,0.0014583058655261993,-0.000018445425666868687
1772732871661373200,1.978373291015625,0.00048357289051637053,-0.0009300168603658676,-0.000629374582786113
1772732871671401200,1.988401123046875,-0.0008392854942940176,0.0009091182146221399,0.0010338929714635015
1772732871681429200,1.99842919921875,0.0019074988085776567,-0.002967112697660923,-0.0010271273786202073
1772732871691457300,2.008457275390625,-0.00035368851968087256,-0.0026888311840593815,0.0005995375686325133
1772732871701485000,2.018485107421875,0.0016316981054842472,0.0009181543719023466,0.0022576216142624617
1772732871711513300,2.028513427734375,0.00011822173837572336,0.00034788064658641815,-0.0010579772060737014
1772732871721541000,2.038541015625,-0.002509519224986434,0.0007500178180634975,0.00042513717198744416
1772732871731568000,2.048568115234375,-0.003305871970951557,-0.0008962168358266354,0.001943034352734685
1772732871741596200,2.05859619140625,0.00009791419142857194,0.0008806444238871336,-0.0006098718149587512
1772732871751624200,2.068624267578125,-0.0012330681784078479,0.0013594343326985836,0.000002039596438407898
1772732871761652200,2.07865234375,0.002592562697827816,-0.0006437955889850855,-0.00025575439212843776
1772732871771680000,2.088679931640625,0.0017423827666789293,-0.0029482042882591486,0.0012027373304590583
1772732871781708300,2.098708251953125,0.0011000283993780613,-0.0002573463134467602,-0.000972798909060657
1772732871791736000,2.108736083984375,0.0008066477021202445,0.0006878753192722797,0.0008659287123009562
1772732871801764400,2.118764404296875,0.0012050565565004945,-0.0018176266457885504,0.0013935009483247995
1772732871811792100,2.128792236328125,-0.0005735350423492491,-0.00018120207823812962,0.0010217041708528996
1772732871821820200,2.138820068359375,-0.0008009690209291875,0.00026993732899427414,-0.00016792985843494534
1772732871831848200,2.14884814453125,0.001598938019014895,-0.0013358606956899166,0.001240102807059884
1772732871841876200,2.158876220703125,0.001709192874841392,-0.0008636822458356619,-0.0011535463854670525
1772732871851904300,2.168904296875,-0.00203307974152267,-0.0007986105047166348,-0.0012190984562039375
1772732871861932300,2.178932373046875,-0.0007387834484688938,0.0009694620966911316,0.0009889283683151007
1772732871871960000,2.1889599609375,-0.00009875971591100097,-0.0019770152866840363,-0.0007342606550082564
1772732871881988000,2.198988037109375,-0.0013416570145636797,0.0004938656929880381,0.00019012257689610124
1772732871892016000,2.20901611328125,-0.0012641600333154202,0.0008612910751253366,0.0009337161318399012
1772732871902044200,2.219044189453125,-0.00291745038703084,0.0029950158204883337,0.002780085662379861
1772732871912072200,2.229072265625,-0.0009616254828870296,-0.001025649020448327,-0.0001565412530908361
1772732871922100000,2.239099853515625,0.0001928548444993794,-0.0012725240085273981,0.0006858165725134313
1772732871932128300,2.249128173828125,-0.001771725481376052,-0.001226871507242322,0.002676426898688078
1772732871942156000,2.259156005859375,0.0010770580265671015,0.001194740878418088,0.0009576228330843151
1772732871952184300,2.269184326171875,-0.002229721751064062,-0.00016946205869317055,0.00024746148847043514
1772732871962212000,2.279212158203125,-0.0021551535464823246,0.0020550761837512255,0.0004104469553567469
1772732871972240100,2.289240234375,0.00010240747360512614,-0.000024676555767655373,-0.0006936599384061992
1772732871982268200,2.29926806640625,-0.00017189810751006007,0.00005521811544895172,0.0016533839516341686
1772732871992296200,2.309296142578125,0.0005160979926586151,0.0021250080317258835,-0.0004827344382647425
1772732872002323200,2.3193232421875,-0.00103466073051095,-0.001480113249272108,0.0007668207981623709
1772732872012351200,2.329351318359375,-0.0029219435527920723,-0.00001690676435828209,-0.0023114464711397886
1772732872022379300,2.339379150390625,0.0008182000019587576,0.000939168268814683,0.0005341412033885717
1772732872032407300,2.3494072265625,0.0003579041804187,-0.000876822043210268,-0.0008648193324916065
1772732872042435000,2.35943505859375,-0.0000841805012896657,0.000964487437158823,0.0016382858157157898
1772732872052463000,2.369463134765625,-0.0012542399344965816,-0.0006715806666761637,0.0011599615681916475
1772732872062491100,2.3794912109375,-0.0006241360097192228,-0.0008082007989287376,0.003053469117730856
1772732872072519200,2.389519287109375,0.0006291484460234642,-0.0003111644182354212,0.002083506667986512
1772732872082547200,2.399547119140625,0.0015399495605379343,-0.0022068023681640625,-0.0017362653743475676
1772732872092575000,2.409574951171875,0.000512602913659066,0.00036117411218583584,-0.0005436589708551764
1772732872102603300,2.419603271484375,-0.0014823710080236197,0.0007401418406516314,0.001135730417445302
1772732872112631000,2.429631103515625,0.0003792447387240827,0.00032499898225069046,-0.0004481752694118768
1772732872122659300,2.439659423828125,0.0018016390968114138,-0.0007810117676854134,0.0002644866472110152
1772732872132687000,2.44968701171875,-0.0027938124258071184,0.0006465082988142967,-0.0013615586794912815
1772732872142715100,2.459715087890625,-0.0003610147978179157,0.0020646415650844574,-0.00004249496851116419
1772732872152743200,2.4697431640625,-0.00043967730016447604,-0.0010963298846036196,0.0014024553820490837
1772732872162771200,2.479771240234375,0.0014964407309889793,-0.00014930986799299717,-0.0018071862868964672
1772732872172799200,2.48979931640625,-0.003318720031529665,-0.0009129478130489588,-0.0005211025709286332
1772732872182827300,2.4998271484375,-0.0011487763840705156,0.0018490164075046778,-0.0014244468184188008
1772732872192855000,2.50985498046875,0.00021252944134175777,-0.0004516690969467163,0.0007779828156344593
1772732872202883300,2.51988330078125,-0.0018378382083028555,0.001720404950901866,0.001878134673461318
1772732872212911000,2.5299111328125,0.0002918930840678513,-0.003100092289969325,0.002084490843117237
1772732872222939100,2.539939208984375,-0.0009549989481456578,0.00041847629472613335,0.00010336539708077908
1772732872232967200,2.54996728515625,-0.0023621469736099243,0.00031305872835218906,-0.00036813775659538805
1772732872242995200,2.5599951171875,-0.0008377535850740969,0.0021229430567473173,-0.001401710556820035
1772732872253023200,2.570023193359375,-0.00027589290402829647,0.0007479093037545681,-0.0008567041950300336
1772732872263051300,2.58005126953125,-0.002014937112107873,-0.003299563191831112,-0.0003874551912304014
1772732872273078300,2.590078369140625,-0.0021870103664696217,0.0017889169976115227,0.000740189163479954
1772732872283106000,2.60010595703125,0.0002729514380916953,-0.002941922517493367,0.002088014967739582
1772732872293134300,2.61013427734375,-0.0010432836133986712,-0.00003630411811172962,0.0017785128438845277
1772732872303162000,2.620162109375,0.0010185356950387359,0.00019778776913881302,0.0014810377033427358
1772732872313190100,2.630190185546875,-0.0010123909451067448,-0.000599296297878027,-0.0003418960259296
1772732872323218200,2.64021826171875,-0.0010621921392157674,0.0003599741030484438,0.00170128105673939
1772732872333246200,2.65024609375,0.0007917352486401796,-0.0007357597351074219,0.0007753428653813899
1772732872343274200,2.660274169921875,-0.0006924445042386651,0.0014371131546795368,0.0011790781281888485
1772732872353302300,2.67030224609375,-0.00041001784848049283,-0.0023187457118183374,-0.0011194378603249788
1772732872363330000,2.680330078125,0.00002141424920409918,-0.0010721199214458466,0.0006393136573024094
1772732872373358300,2.6903583984375,0.00041216722456738353,-0.00039234687574207783,-0.001662353053689003
1772732872383386000,2.70038623046875,0.0007314802496694028,-0.0010192550253123045,0.0029409208800643682
1772732872393414100,2.7104140625,0.0006493899854831398,0.000996805028989911,0.0002749162376858294
1772732872403442200,2.720442138671875,-0.00003584130899980664,-0.0019893974531441927,-0.00006090835086070001
1772732872413470200,2.73047021484375,-0.002383650979027152,0.0005688569508492947,0.000499358749948442
1772732872423498200,2.740498291015625,-0.0008651164826005697,0.00007590604946017265,-0.00009346092701889575
1772732872433526300,2.7505263671875,-0.00006107724038884044,0.0015580619219690561,0.002281295834109187
1772732872443554000,2.760553955078125,0.002904619090259075,-0.0018617030000314116,0.000834933016449213
1772732872453582000,2.77058203125,0.0003051756648346782,-0.0017477610381320119,0.0035106756258755922
1772732872463610000,2.780610107421875,0.0007248898036777973,-0.00007955683395266533,-0.0012542521581053734
1772732872473638100,2.79063818359375,0.0005564099992625415,-0.00013071438297629356,0.0010809272062033415
1772732872483666200,2.800666259765625,-0.002854566788300872,0.0031058250460773706,-0.0016176539938896894
1772732872493694000,2.81069384765625,0.0010154395131394267,0.0016202479600906372,0.0004214471555314958
1772732872503722200,2.82072216796875,-0.0002024240675382316,0.0000439230352640152,0.0008414275944232941
1772732872513750000,2.83075,-0.0007560952217318118,-0.0008724706713110209,-0.0006446162005886436
1772732872523778300,2.8407783203125,-0.00022213143529370427,-0.00040987972170114517,0.000493352476041764
1772732872533806000,2.85080615234375,0.0006874387036077678,0.0013460989575833082,-0.002595073077827692
1772732872543833300,2.860833251953125,0.0008189988438971341,-0.0030505135655403137,0.0015996720176190138
1772732872553861000,2.870861083984375,-0.0012145588407292962,0.00009860564023256302,0.0009871225338429213
1772732872563889200,2.88088916015625,0.0010014575673267245,-0.0010518799535930157,-0.0019127936102449894
1772732872573917200,2.890917236328125,0.0005231868126429617,0.0008607341442257166,0.001266734441742301
1772732872583945200,2.9009453125,-0.0001002592034637928,0.0004420855548232794,0.0015610137488692999
1772732872593973200,2.91097314453125,0.00013276829849928617,0.0005847450811415911,0.0021058153361082077
1772732872604001300,2.921001220703125,0.0004584728740155697,-0.001292783534154296,0.0003590479609556496
1772732872614029000,2.931029052734375,0.00033887889003381133,0.003144776914268732,0.0005210470408201218
1772732872624057000,2.94105712890625,-0.0007815129938535392,0.00025924202054739,-0.0005527395405806601
1772732872634085000,2.951085205078125,0.0002584957401268184,-0.0010052525904029608,-0.0006121539627201855
1772732872644113200,2.961113037109375,-0.002027828013524413,-0.002672391477972269,0.0030885746236890554
1772732872654141200,2.97114111328125,-0.00043305486906319857,0.002149093197658658,-0.00019657939265016466
1772732872664168700,2.981168701171875,-0.0016240205150097609,-0.0005729235708713531,0.0011112990323454142
1772732872674196500,2.991196533203125,0.0011050279717892408,-0.0029285068158060312,0.0003770854091271758
1772732872684224500,3.001224609375,-0.0010079239727929235,0.0006073720287531614,0.000612775154877454
1772732872694252500,3.01125244140625,0.001644351053982973,0.001068673562258482,-0.000374371069483459
1772732872704280600,3.021280517578125,0.00020943983690813184,-0.00012282445095479488,0.000666658510453999
1772732872714308600,3.03130859375,0.0011646243510767817,0.0007568576838821173,0.0010512582957744598
1772732872724336600,3.041336669921875,-0.0016330264043062925,0.0018149318639189005,-0.0008901861147023737
1772732872734364400,3.051364501953125,-0.0021240636706352234,-0.00009158579632639885,-0.0017622009618207812
1772732872744392700,3.061392822265625,-0.00011896959040313959,-0.0007240865379571915,0.00021546246716752648
1772732872754420500,3.07142041015625,-0.0011726034572347999,0.0009054334368556738,-0.0006739976815879345
1772732872764448800,3.08144873046875,-0.0013089573476463556,-0.0002354648895561695,0.00006130110705271363
1772732872774476500,3.0914765625,0.002906780457124114,0.0031091496348381042,0.0011151048820465803
1772732872784504600,3.101504638671875,-0.002564684022217989,0.0009594457224011421,0.0031633421313017607
1772732872794532600,3.11153271484375,-0.0016734149539843202,0.0016052420251071453,0.00021907655172981322
1772732872804560400,3.121560302734375,-0.003382897935807705,0.0014800732024013996,-0.0014395401813089848
1772732872814587600,3.131587646484375,0.0013241301057860255,-0.0003413967788219452,0.0005481422413140535
1772732872824615400,3.141615478515625,0.0018272012239322066,0.0011073630303144455,-0.0007006140658631921
1772732872834643700,3.151643798828125,-0.0008104680455289781,0.0005317216273397207,-0.001708048628643155
1772732872844671500,3.16167138671875,0.001840442419052124,0.00128086912445724,0.0025865649804472923
1772732872854699500,3.171699462890625,-0.0008500751573592424,-0.00027676019817590714,0.0009629367850720882
1772732872864727600,3.1817275390625,-0.0005259684403426945,-0.0014333711005747318,0.0011754570296034217
1772732872874755600,3.191755615234375,0.00024230295093730092,-0.00021073711104691029,-0.0008562759030610323
1772732872884783600,3.20178369140625,-0.0023204567842185497,0.00004492630250751972,-0.0008911632467061281
1772732872894811600,3.211811767578125,0.0004900230560451746,0.000886125722900033,-0.0007507121190428734
1772732872904839400,3.22183935546875,0.000925449887290597,-0.0017128529725596309,0.000201101676793769
1772732872914867700,3.23186767578125,-0.0008179728174582124,0.0016820488963276148,0.00047229358460754156
1772732872924895500,3.2418955078125,-0.0015961485914885998,-0.0005004117265343666,-0.001147973584011197
1772732872934923800,3.251923828125,0.0000761854462325573,0.0011558106634765863,0.0007635854999534786
1772732872944951600,3.26195166015625,-0.0005371405277401209,-0.0007281091529875994,-0.00033922947477549314
1772732872954979600,3.2719794921875,-0.0018225477542728186,-0.0006184556987136602,-0.002031703246757388
1772732872965007600,3.282007568359375,0.00177911133505404,-0.001621135976165533,-0.0007885396480560303
1772732872975035400,3.292035400390625,-0.001267912331968546,0.00029226718470454216,0.0008214669651351869
1772732872985063700,3.302063720703125,-0.0008841508533805609,-0.0006089466623961926,0.0014470433816313744
1772732872995091500,3.312091552734375,0.0007664887234568596,0.0007143944967538118,0.0003790926421061158
1772732873005119500,3.322119384765625,-0.001064434414729476,0.00007736636325716972,0.0009261058876290917
1772732873015147500,3.3321474609375,0.0017726158257573843,-0.0006842867005616426,0.00008665630593895912
1772732873025175600,3.342175537109375,-0.0014484775019809604,0.0006685988046228886,0.0007846707594580948
1772732873035203600,3.35220361328125,-0.0025187574792653322,-0.0009892366360872984,-0.0016775208059698343
1772732873045231600,3.362231689453125,0.0011910258326679468,-0.0008009511511772871,0.0020764709915965796
1772732873055259400,3.37225927734375,0.0007844423525966704,-0.00044136843644082546,0.0007603178382851183
1772732873065287700,3.38228759765625,0.0015327904839068651,-0.0006453667301684618,-0.0015608933754265308
1772732873075315500,3.3923154296875,-0.000920215854421258,-0.0007222117856144905,-0.0029433390591293573
1772732873085342700,3.4023427734375,0.0008103061700239778,-0.003239697776734829,-0.0006378403631970286
1772732873095370500,3.41237060546875,-0.0007226980524137616,-0.00014910497702658176,-0.0036003272980451584
1772732873105398500,3.4223984375,0.00023790413979440928,0.0005595623515546322,0.001928395009599626
1772732873115426600,3.432426513671875,0.0016127005219459534,0.0001381593756377697,0.0006322746630758047
1772732873125454300,3.442454345703125,-0.0009921372402459383,-0.0015321753453463316,-0.0007504384848289192
1772732873135482600,3.452482666015625,0.0005401061498560011,-0.0012096890714019537,0.001107341842725873
1772732873145510400,3.462510498046875,0.00011293514398857951,-0.002525556832551956,0.0003723094123415649
1772732873155538400,3.472538330078125,-0.0026500422973185778,0.0018325801938772202,-0.0003301300457678735
1772732873165566500,3.48256640625,0.00009354634676128626,0.001870397012680769,0.00004803881165571511
1772732873175594500,3.492594482421875,-0.000328316556988284,0.0013054539449512959,0.0017286560032516718
1772732873185622500,3.50262255859375,-0.0002140669384971261,-0.0018352119950577617,-0.00043516233563423157
1772732873195650600,3.512650634765625,0.0010475536109879613,-0.001571061322465539,-0.0029347091913223267
1772732873205678300,3.52267822265625,0.000059787125792354345,0.002534467726945877,0.0005183455068618059
1772732873215706600,3.53270654296875,-0.0011529270559549332,-0.0014492941554635763,-0.0014007514109835029
1772732873225734400,3.542734375,-0.00023466916172765195,0.0010058737825602293,-0.0002563910384196788
1772732873235762700,3.5527626953125,-0.0014421036466956139,-0.0010733460076153278,-0.0013777982676401734
1772732873245790500,3.56279052734375,0.0010673929937183857,-0.001288795843720436,0.00037109959521330893
1772732873255818500,3.572818603515625,-0.00010460984776727855,-0.0014241538010537624,-0.0017045882996171713
1772732873265846500,3.582846435546875,0.0010123199317604303,-0.00042360415682196617,0.0011231561657041311
1772732873275874600,3.59287451171875,0.0014247503131628036,0.0006653405725955963,0.0024254508316516876
1772732873285902600,3.602902587890625,0.00045163120375946164,0.0009308578446507454,0.002334370743483305
1772732873295930600,3.6129306640625,-0.0005669242818839848,0.00027937511913478374,-0.0010415934957563877
1772732873305958400,3.62295849609375,0.000923380721360445,0.00017018569633364677,-0.0007055026362650096
1772732873315986700,3.632986572265625,-0.0010311916703358293,-0.0001391526311635971,-0.002053168136626482
1772732873326014500,3.643014404296875,-0.0007291891961358488,0.0006861609872430563,-0.0004829683748539537
1772732873336042800,3.653042724609375,-0.0009880008874461055,0.0014786447864025831,0.0017638389253988862
1772732873346069500,3.663069580078125,0.0009217518963851035,0.001556409290060401,0.0012477182317525148
1772732873356097500,3.67309765625,0.0017821250949054956,-0.0005033132620155811,0.00044324182090349495
1772732873366125600,3.68312548828125,-0.00003122125053778291,0.0021020572166889906,0.0000733287597540766
1772732873376153300,3.6931533203125,0.002165158512070775,-0.0018985372735187411,-0.0007805470377206802
1772732873386181600,3.703181640625,0.000439430121332407,-0.0007837379816919565,-0.0012540570460259914
1772732873396209400,3.71320947265625,0.0015102705219760537,-0.00018058251589536667,-0.0005855541676282883
1772732873406237700,3.72323779296875,-0.0010599461384117603,0.0015307648573070765,-0.000978104188106954
1772732873416265500,3.733265380859375,-0.0008122802246361971,0.0014271531254053116,-0.0003170511336065829
1772732873426293500,3.74329345703125,0.0006359468097798526,-0.0014192336238920689,-0.0008313074940815568
1772732873436321500,3.753321533203125,0.000592120923101902,-0.0005425531417131424,0.0018813752103596926
1772732873446349600,3.763349609375,-0.0013312139781191945,0.0018494981341063976,-0.00040920969331637025
1772732873456377600,3.773377685546875,-0.0020044962875545025,-0.00039657135494053364,0.0015020949067547917
1772732873466405600,3.783405517578125,-0.00036292383447289467,-0.00004556681960821152,0.0002578659332357347
1772732873476433400,3.793433349609375,-0.00015031007933430374,-0.0001623209100216627,-0.0009311343310400844
1772732873486461700,3.803461669921875,0.0013605011627078056,0.0016662054695189,0.0010941997170448303
1772732873496489500,3.813489501953125,-0.00015940808225423098,-0.0009500512387603521,-0.002433829940855503
1772732873506517800,3.823517822265625,0.0005319485208019614,-0.0011151672806590796,-0.0005661550676450133
1772732873516545500,3.833545654296875,-0.0017187412595376372,0.00083962082862854,0.0000651917071081698
1772732873526573600,3.843573486328125,0.00004347239155322313,-0.0010006236843764782,0.0009384421864524484
1772732873536601600,3.8536015625,-0.0017248899675905704,-0.0006617833860218525,0.0025817332789301872
1772732873546629400,3.86362939453125,0.0005627654609270394,-0.001864733174443245,0.0016094131860882044
1772732873556657700,3.87365771484375,-0.0013624915154650807,0.0007468424737453461,-0.0014264520723372698
1772732873566685400,3.883685546875,-0.0009070909582078457,0.0006344569846987724,-0.0007105943514034152
1772732873576713500,3.89371337890625,0.00018772901967167854,-0.0021530704107135534,0.0012440847931429744
1772732873586741500,3.903741455078125,-0.0006226708646863699,0.0009194186422973871,-0.00008509890176355839
1772732873596769500,3.91376953125,-0.0009471324738115072,0.00007378240115940571,0.002124073216691613
1772732873606796500,3.923796630859375,0.0015240146312862635,0.0007342463359236717,0.001016997266560793
1772732873616824600,3.933824462890625,-0.00003873166861012578,-0.0007642791606485844,-0.0022165137343108654
1772732873626852600,3.9438525390625,-0.00048374588368460536,-0.0006047557108104229,0.0007430571131408215
1772732873636880600,3.953880615234375,0.0001463856897316873,-0.0018132145050913095,-0.0009938322473317385
1772732873646908400,3.963908447265625,0.0006731589674018323,0.0005245080683380365,0.0006773013155907393
1772732873656937000,3.97393701171875,-0.002461929339915514,-0.0017737536691129208,0.00034197172499261796
1772732873666965000,3.983965087890625,0.000018538907170295715,0.00033813295885920525,0.00038032126030884683
1772732873676992800,3.99399267578125,0.0008176348055712879,-0.0008516816888004541,0.00011738436296582222
1772732873687021000,4.00402099609375,0.00014039297821000218,0.0009062711615115404,-0.0000922064355108887
1772732873697048800,4.014048828125,-0.0017605929169803858,-0.00164705328643322,0.0009368765167891979
1772732873707077000,4.0240771484375,0.00046927185030654073,-0.0019951285794377327,-0.0013851335970684886
1772732873717105000,4.03410498046875,0.0006349616451188922,-0.0015266085974872112,0.0006756475195288658
1772732873727133000,4.0441328125,-0.0010159319499507546,0.0003762200940400362,0.00010679633123800159
1772732873737161000,4.054160888671875,-0.0016039626207202673,-0.00004181079566478729,0.0005348891718313098
1772732873747189000,4.06418896484375,-0.000053470314014703035,-0.0003430144861340523,0.0007173157064244151
1772732873757217000,4.074217041015625,-0.0003319088718853891,0.000015269732102751732,0.001992998644709587
1772732873767245000,4.0842451171875,0.0022755921818315983,-0.0005170961376279593,-0.0006421993602998555
1772732873777272800,4.09427294921875,0.0005937365931458771,-0.00041453749872744083,0.000757158559281379
1772732873787301000,4.104301025390625,0.000825431605335325,0.001753009157255292,0.0021968635264784098
1772732873797329000,4.114328857421875,-0.001687833690084517,0.003101040842011571,-0.0024457559920847416
1772732873807357200,4.124357177734375,-0.0010295002721250057,0.0007920803036540747,0.0007702773436903954
1772732873817385000,4.134385009765625,0.0013688448816537857,0.0012950804084539413,0.0005463910638354719
1772732873827412700,4.144412841796875,0.002264732262119651,-0.0009102832991629839,-0.0031261080875992775
1772732873837441000,4.15444091796875,0.00046129123074933887,0.0003535135183483362,-0.0001978726650122553
1772732873847468800,4.16446875,-0.0005773415905423462,0.0011585874017328024,0.0005893576890230179
1772732873857496000,4.17449609375,-0.0011633163085207343,0.003616026835516095,-0.0019134668400511146
1772732873867523800,4.18452392578125,0.0012407191097736359,-0.0008013586048036814,0.002544132061302662
1772732873877552000,4.19455224609375,0.0004524828982539475,0.0016467170789837837,-0.0010196383809670806
1772732873887580000,4.204579833984375,0.0004910987918265164,-0.0002305449452251196,-0.00167823804076761
1772732873897608000,4.21460791015625,0.001778659992851317,-0.0009409789927303791,-0.0005414760671555996
1772732873907636000,4.224635986328125,-0.002252833219245076,-0.0010459073819220066,-0.000216836720937863
1772732873917664000,4.2346640625,-0.0033488881308585405,-0.00035791262052953243,-0.0003463699540589005
1772732873927692000,4.244692138671875,0.0011590446811169386,-0.0004740264266729355,0.0004624320426955819
1772732873937720000,4.254719970703125,-0.0029670773074030876,-0.001789888832718134,0.000904173357412219
1772732873947747800,4.264747802734375,0.00029156653909012675,-0.0008151717483997345,-0.0004290050419513136
1772732873957776100,4.274776123046875,-0.0007598438533023,-0.0016596296336501837,0.0005478191887959838
1772732873967804000,4.284803955078125,-0.0008458639495074749,0.002087970497086644,0.0002085324376821518
1772732873977832000,4.29483203125,-0.0012514719273895025,0.0004871012642979622,-0.0018956030253320932
1772732873987860000,4.30485986328125,-0.00005198409780859947,0.00033796392381191254,-0.0002899832325056195
1772732873997887700,4.3148876953125,-0.0019900654442608356,0.000872564036399126,-0.00021719693904742599
1772732874007916000,4.324916015625,0.00031117198523133993,-0.0019256193190813065,-0.0006686027627438307
1772732874017943800,4.33494384765625,-0.0011873275507241488,0.0002519520930945873,0.0019449086394160986
1772732874027972000,4.34497216796875,-0.0012941204477101564,0.0008322545327246189,0.00017656973795965314
1772732874037999900,4.354999755859375,0.0006641019135713577,0.00006566429510712624,-0.0006116151344031096
1772732874048028000,4.36502783203125,-0.000866949325427413,0.00024276436306536198,-0.00008430922753177583
1772732874058056000,4.375055908203125,-0.0005317256436683238,0.0007242269348353148,-0.000634435098618269
1772732874068084000,4.385083984375,-0.001963707385584712,0.0008826849516481161,0.0018124773632735014
1772732874078112000,4.395112060546875,0.002075853291898966,-0.0007436450105160475,0.0004430515691637993
1772732874088140000,4.40514013671875,-0.0010978359496220946,-0.0016416627913713455,0.001994875492528081
1772732874098167800,4.415167724609375,0.0004048929549753666,-0.002102337311953306,0.00012401235289871693
1772732874108196000,4.425196044921875,0.0019756252877414227,-0.0008759517222642899,0.002158667426556349
1772732874118222800,4.435222900390625,-0.0005889899912290275,-0.0010462671052664518,0.0010915955062955618
1772732874128251000,4.4452509765625,0.0017846855334937572,-0.0025994228199124336,0.002720118500292301
1772732874138279000,4.45527880859375,0.0026978319510817528,0.00188929564319551,-0.0007703265873715281
1772732874148307000,4.465306884765625,0.002798765664920211,-0.00015814253129065037,-0.0019341279985383153
1772732874158335000,4.4753349609375,0.00004613649798557162,-0.0008520260453224182,0.0002459061215631664
1772732874168362800,4.48536279296875,0.0018155405996367335,0.003113154321908951,-0.0009280152735300362
1772732874178391000,4.49539111328125,-0.0006822527502663434,-0.002094445051625371,-0.0015888852067291737
1772732874188418800,4.505418701171875,-0.0014481779653578997,0.0011452902108430862,-0.000810709607321769
1772732874198447000,4.515447021484375,-0.002241735113784671,-0.0005223203916102648,0.0006352910422720015
1772732874208475000,4.525474853515625,0.0013945449609309435,0.0009552016854286194,-0.0002451500331517309
1772732874218503000,4.5355029296875,0.001594437868334353,-0.00098951137624681,0.0026428354904055595
1772732874228531000,4.545531005859375,-0.0009928231593221426,-0.00032611796632409096,0.001671047881245613
1772732874238559000,4.55555908203125,0.0007563100080005825,-0.0008367435075342655,0.002135832328349352
1772732874248587000,4.5655869140625,0.0009200943750329316,-0.00024259230121970177,0.0008085127919912338
1772732874258615000,4.575614990234375,-0.00013307906920090318,-0.0010830566752701998,-0.0022966950200498104
1772732874268642800,4.585642822265625,-0.0018236536998301744,-0.0009440397843718529,0.0010503657395020127
1772732874278671000,4.595671142578125,0.000006593356374651194,0.000586547190323472,-0.0001296820119023323
1772732874288699000,4.605698974609375,-0.0008176550036296248,0.00048268423415720463,0.0007363780168816447
1772732874298727000,4.615726806640625,0.00024449272314086556,-0.0017510612960904837,-0.0007580972742289305
1772732874308755000,4.6257548828125,0.0004378382582217455,0.002388822613283992,0.00025203978293575346
1772732874318783000,4.635782958984375,0.00064154650317505,-0.0020644525066018105,0.0023509738966822624
1772732874328811000,4.64581103515625,-0.0008301162743009627,-0.0007784122135490179,-0.0008557384135201573
1772732874338839000,4.655839111328125,-0.001610725186765194,0.0009131103288382292,0.0019061933271586895
1772732874348866800,4.66586669921875,0.001221280312165618,0.0007378740701824427,-0.0005569643690250814
1772732874358895000,4.67589501953125,-0.0005347505211830139,0.0020314042922109365,-0.00205299467779696
1772732874368922000,4.685922119140625,-0.0019017511513084173,-0.0006778296083211899,0.0017481351969763637
1772732874378950000,4.695949951171875,-0.0003482130996417254,0.001876212190836668,-0.000982461147941649
1772732874388978000,4.70597802734375,-0.00039694891893304884,-0.0008226353675127029,-0.00016300647985190153
1772732874399006000,4.716005859375,-0.0004910883726552129,-0.00007616193033754826,-0.0038003737572580576
1772732874409034000,4.726033935546875,-0.0003515387652441859,0.0007219873368740082,0.0018290160223841667
1772732874419062000,4.73606201171875,0.0008915234357118607,0.0016899709589779377,0.0029048363212496042
1772732874429090000,4.746090087890625,-0.0020478074438869953,0.0005043316632509232,0.0002022604749072343
1772732874439117800,4.756117919921875,0.0006624446832574904,0.0005400769878178835,-0.001643872819840908
1772732874449146000,4.76614599609375,-0.0005937683745287359,0.0009195774327963591,-0.00010722887236624956
1772732874459174000,4.776173828125,-0.002358998404815793,0.00004355423152446747,0.0011807909468188882
1772732874469202000,4.786201904296875,-0.0008103702566586435,0.001082719536498189,-0.0013595984783023596
1772732874479230000,4.79622998046875,-0.0025018842425197363,0.002330849878489971,-0.000515909749083221
1772732874489258000,4.806258056640625,0.00011147576151415706,0.0004120427183806896,0.00024122692411765456
1772732874499286000,4.8162861328125,-0.0005219927988946438,0.0005111098289489746,0.001983189256861806
1772732874509314000,4.82631396484375,0.00009879004210233688,0.00035584764555096626,-0.0031865390483289957
1772732874519341800,4.836341796875,-0.00047888397239148617,-0.0006411622744053602,0.0011050949105992913
1772732874529370000,4.8463701171875,-0.001201133243739605,0.0014440929517149925,0.0006052196258679032
1772732874539398000,4.85639794921875,-0.00015797000378370285,0.0004288370255380869,0.001945032156072557
1772732874549426000,4.866426025390625,0.001204503234475851,0.0012429652269929647,0.00014313746942207217
1772732874559454000,4.876453857421875,0.0018347692675888538,-0.0001930899452418089,0.0005563516751863062
1772732874569481700,4.886481689453125,-0.0031812945380806923,0.0015009467024356127,-0.0030703411903232336
1772732874579510000,4.896510009765625,-0.0003722015826497227,0.0005523115396499634,0.0024306143168359995
1772732874589537800,4.906537841796875,0.0001204832224175334,0.00020077452063560486,-0.00042935425881296396
1772732874599566000,4.916566162109375,-0.0017789677949622273,-0.0019632959738373756,-0.002918193582445383
1772732874609593900,4.92659375,0.0007007014937698841,0.0007320893928408623,0.00031009019585326314
1772732874619622000,4.936621826171875,0.0005131626385264099,0.0016130018047988415,0.0004395568394102156
1772732874629650000,4.94664990234375,0.0008934620418585837,-0.0020440509542822838,0.00007683434523642063
1772732874639677000,4.956677001953125,-0.000017400539945811033,0.001804552972316742,0.0009133348939940333
1772732874649705000,4.966705078125,0.0012398778926581144,-0.000016249949112534523,0.0017849873984232545
1772732874659733000,4.97673291015625,0.0014043028932064772,0.001032732194289565,0.002189254853874445
1772732874669761300,4.98676123046875,-0.0011475380742922425,0.0006532317493110895,-0.000947150110732764
1772732874679789000,4.9967890625,0.0006199255585670471,0.0009441205766052008,0.00006668758578598499
1772732874689817000,5.006817138671875,-0.00017689220840111375,-0.0016756311524659395,0.0006270166486501694
1772732874699845000,5.01684521484375,-0.003198023419827223,-0.00028746994212269783,-0.0012941372115164995
1772732874709873200,5.026873046875,-0.002001997781917453,0.0005261260084807873,-0.0007391344988718629
1772732874719901200,5.036901123046875,-0.0001373814302496612,-0.0009151140693575144,0.0010428756941109896
1772732874729929200,5.04692919921875,0.0001491747098043561,-0.0012386881280690432,0.001151000033132732
1772732874739957000,5.05695703125,-0.00023503441479988396,0.0025011601392179728,0.0005148004274815321
1772732874749985300,5.0669853515625,0.0009836280951276422,-0.0023876046761870384,0.00012917473213747144
1772732874760013000,5.077012939453125,-0.0007205005385912955,0.0007318425923585892,-0.0003045349440071732
1772732874770041300,5.087041259765625,-0.00030930846696719527,0.00034168921411037445,-0.002033991739153862
1772732874780069000,5.097069091796875,0.0013556795893236995,0.00233934773132205,0.0020515124779194593
1772732874790097200,5.10709716796875,0.0006451481021940708,-0.0006428598426282406,0.0021646968089044094
1772732874800125200,5.117125244140625,0.00020560948178172112,-0.0007806862704455853,-0.0020343614742159843
1772732874810153200,5.1271533203125,0.0018487799679860473,-0.0015655199531465769,0.0008463799022138119
1772732874820181200,5.13718115234375,-0.00019177779904566705,-0.0008649134542793036,0.0009286338463425636
1772732874830209300,5.147209228515625,-0.0008495785878039896,0.002121289260685444,-0.0010152074974030256
1772732874840237000,5.157237060546875,-0.0009941176977008581,-0.001571580534800887,-0.0016976393526419997
1772732874850265300,5.167265380859375,-0.0007642869022674859,-0.0020762495696544647,0.0010906903771683574
1772732874860293000,5.177293212890625,0.0006406492902897298,-0.000919494079425931,-0.000823296548333019
1772732874870321200,5.187321044921875,0.003042021533474326,-0.00021375645883381367,0.0007769969524815679
1772732874880348200,5.19734814453125,0.0021586206275969744,0.0009299567900598049,0.00031631492311134934
1772732874890376200,5.207376220703125,0.0006952136172913015,0.0008556544780731201,-0.00010046976967714727
1772732874900404200,5.217404296875,-0.0009025937761180103,-0.0010627300944179296,-0.0008441583486273885
1772732874910432000,5.227431884765625,-0.0006362776621244848,-0.0012805766891688108,0.0010437564924359322
1772732874920460300,5.237460205078125,-0.0005197659484110773,0.000639310572296381,0.00292227603495121
1772732874930488000,5.247488037109375,-0.0017008779104799032,0.001973820384591818,-0.0022019122261554003
1772732874940516400,5.257516357421875,0.00020891655003651977,0.0029003715608268976,0.00025245710276067257
1772732874950544100,5.267544189453125,-0.002105104271322489,-0.0004402976483106613,0.0013137268833816051
1772732874960572200,5.277572265625,-0.0020268880762159824,0.001004052348434925,0.00007761031156405807
1772732874970600200,5.28760009765625,-0.0017986551392823458,-0.0009997098241001368,-0.0003325164725538343
1772732874980628200,5.297628173828125,0.001499058911576867,0.00015512295067310333,-0.0006889428477734327
1772732874990656300,5.30765625,-0.000017078593373298645,-0.0011303848586976528,0.0013100258074700832
1772732875000683000,5.31768310546875,0.001438566017895937,0.0003403422888368368,-0.0002443266857881099
1772732875010710300,5.327710205078125,0.000608725065831095,0.0010170515161007643,0.0007261291611939669
1772732875020738000,5.337738037109375,-0.0014076202642172575,-0.00004509114660322666,-0.0005331835709512234
1772732875030766300,5.347766357421875,-0.000485367578221485,-0.00014282925985753536,0.0012751028407365084
1772732875040794000,5.357794189453125,-0.0004249904886819422,-0.00043208454735577106,0.00007834529969841242
1772732875050822100,5.367822265625,0.0008690394461154938,-0.0020345086231827736,0.001150800264440477
1772732875060850200,5.37785009765625,0.0009638863848522305,0.0017646150663495064,0.0012013118248432875
1772732875070878200,5.387878173828125,-0.001983167603611946,0.0007323739118874073,-0.0015180420596152544
1772732875080906200,5.39790625,0.00037376536056399345,0.001355577725917101,0.0018196275923401117
1772732875090934300,5.407934326171875,-0.0018848615000024438,-0.0006162265781313181,-0.0025303796865046024
1772732875100962000,5.417962158203125,0.0021489583887159824,-0.0017849656287580729,0.00041423848597332835
1772732875110990000,5.427989990234375,-0.00022951068240217865,0.00135383615270257,-0.001413488993421197
1772732875121018000,5.43801806640625,0.001523800427094102,-0.00003382260911166668,0.002170631429180503
1772732875131046100,5.448046142578125,0.000988505082204938,0.0003840276040136814,0.0005905781290493906
1772732875141074200,5.45807421875,0.0006317386869341135,-0.001959066605195403,0.0028785783797502518
1772732875151102000,5.46810205078125,0.002290888223797083,-0.001179825747385621,-0.0019944736268371344
1772732875161130200,5.478130126953125,0.0007270821952261031,-0.0018834134098142385,-0.0008670642273500562
1772732875171158000,5.488157958984375,0.0016621178947389126,0.00007214583456516266,0.0006099249585531652
1772732875181186300,5.498186279296875,-0.00024333488545380533,-0.0004847089294344187,0.0021401357371360064
1772732875191214000,5.508214111328125,0.000681580975651741,-0.00289327185600996,-0.0006641728687100112
1772732875201242000,5.5182421875,-0.0007545466651208699,0.0010429078247398138,0.0016717803664505482
1772732875211270100,5.528270263671875,-0.0019194133346900344,-0.0009081237949430943,-0.0006749971653334796
1772732875221298200,5.538298095703125,0.0008999828714877367,-0.00032117636874318123,-0.0005103643634356558
1772732875231326200,5.548326171875,-0.0017903423868119717,-0.0010202559642493725,0.0003056282002944499
1772732875241354200,5.558354248046875,-0.0003844565071631223,-0.0004087677225470543,0.0017737132729962468
1772732875251382000,5.568382080078125,0.00047361396718770266,-0.0018775011412799358,-0.000926998327486217
1772732875261409300,5.5784091796875,-0.002000759355723858,0.00023595220409333706,0.000008941948181018233
1772732875271437000,5.58843701171875,-0.00034720252733677626,-0.0015654098242521286,-0.0016784368781372905
1772732875281465000,5.598465087890625,0.00030447891913354397,-0.0019270299235358834,0.0006489431252703071
1772732875291493000,5.6084931640625,0.0020523115526884794,0.000021605053916573524,-0.0005492131458595395
1772732875301521200,5.618521240234375,0.00012723903637379408,0.0006831425707787275,0.000575195299461484
1772732875311549200,5.628549072265625,-0.00178943807259202,0.00040244520641863346,0.00009236420737579465
1772732875321577000,5.638576904296875,-0.0008997843251563609,-0.001280429307371378,-0.0018270700238645077
1772732875331605200,5.648605224609375,0.0009100998868234456,0.00008630496449768543,0.0006475392729043961
1772732875341633000,5.658633056640625,-0.0012789182364940643,0.00031008082441985607,0.0002709676045924425
1772732875351661300,5.668661376953125,-0.00214018439874053,0.00017266185022890568,-0.0030774245969951153
1772732875361689000,5.678689208984375,-0.0010646269656717777,0.0020558920223265886,-0.0008988465997390449
1772732875371717000,5.688717041015625,0.001664580311626196,-0.000021906569600105286,-0.0009830024791881442
1772732875381746200,5.69874609375,0.0002093021757900715,-0.0021721587982028723,-0.0010004399809986353
1772732875391773200,5.708773193359375,-0.00048285338561981916,-0.0008043593261390924,-0.001014554756693542
1772732875401801200,5.71880126953125,-0.00006748709711246192,0.0006580294575542212,0.0010629952885210514
1772732875411829200,5.728829345703125,-0.0006304793641902506,0.0002857192885130644,0.0003005322359967977
1772732875421857000,5.73885693359375,-0.0015895452816039324,-0.0005920748226344585,-0.0001423425565008074
1772732875431885300,5.74888525390625,0.0002099527046084404,0.00014162599109113216,-0.0016877749003469944
1772732875441913000,5.7589130859375,0.0007798625156283379,0.0004355956334620714,-0.0005878119845874608
1772732875451941400,5.76894140625,-0.0007554498733952641,-0.0030060072895139456,-0.00026876525953412056
1772732875461969200,5.77896923828125,0.0006446106126531959,0.00037725456058979034,0.0006510056555271149
1772732875471997200,5.7889970703125,0.0017887047724798322,0.0014100279659032822,0.00067790353205055
1772732875482025200,5.799025146484375,0.0009406456956639886,0.001241839025169611,0.0010324082104489207
1772732875492053200,5.80905322265625,-0.0014900213573127985,-0.00225355988368392,-0.0001897163747344166
1772732875502081300,5.819081298828125,-0.00020531867630779743,0.0001372175756841898,0.0010037936735898256
1772732875512109300,5.829109375,0.0014208074426278472,-0.0010508187115192413,0.0017529409378767014
1772732875522137000,5.83913720703125,-0.00027003823197446764,-0.0011325727682560682,-0.0005517477402463555
1772732875532165000,5.8491650390625,0.0010586127173155546,-0.000659329118207097,0.0007526685949414968
1772732875542193200,5.859193115234375,0.0003243633545935154,-0.00011443695984780788,-0.0003919634618796408
1772732875552221200,5.86922119140625,-0.001059947768226266,0.00007944111712276936,0.0007963389507494867
1772732875562249200,5.879249267578125,-0.0010941594373434782,0.002080801408737898,-0.0004151972243562341
1772732875572277000,5.889277099609375,0.001435577403753996,0.0016568261198699474,-0.0006474248948507011
1772732875582305300,5.89930517578125,-0.0004830649704672396,-0.000862654997035861,-0.0003173202567268163
1772732875592333000,5.9093330078125,-0.0010114361066371202,-0.0016112695448100567,-0.0015309227164834738
1772732875602361000,5.919361083984375,0.0018993511330336332,-0.0007836257573217154,0.00019692094065248966
1772732875612389000,5.92938916015625,0.0008412772440351546,-0.00011410703882575035,0.00007707870099693537
1772732875622417200,5.939417236328125,-0.0006905035115778446,0.0018961678724735975,-0.0002654328418429941
1772732875632444200,5.949444091796875,-0.000881984771694988,-0.0005387600976973772,-0.0002193601685576141
1772732875642472200,5.95947216796875,0.00003590859705582261,-0.0005005993880331516,0.0009070571977645159
1772732875652500200,5.969500244140625,0.0016830737004056573,0.0030376764480024576,0.0014599293936043978
1772732875662528000,5.979528076171875,-0.000040503451600670815,-0.0007400845643132925,-0.0011866525746881962
1772732875672556000,5.98955615234375,0.000473752967081964,-0.0005134495440870523,0.00018647336401045322
1772732875682584000,5.999583984375,-0.0020337579771876335,-0.00012834230437874794,-0.0005610273801721632
1772732875692611800,6.00961181640625,-0.0030670645646750927,-0.0021587363444268703,-0.0003972429840359837
1772732875702640000,6.01964013671875,0.0007580211386084557,0.0019158595241606236,-0.00015444052405655384
1772732875712668000,6.02966796875,-0.00043321080738678575,0.001764325425028801,-0.0007030516862869263
1772732875722696200,6.0396962890625,0.0003795646480284631,0.002004296751692891,0.00011967826867476106
1772732875732724000,6.049723876953125,-0.0017770631238818169,-0.00019227853044867516,-0.000555699341930449
1772732875742752000,6.059751953125,-0.0008060765685513616,-0.000655722338706255,-0.0008396843913942575
1772732875752780000,6.069780029296875,0.00047543650725856423,0.003048734739422798,0.0007667343597859144
1772732875762808000,6.07980810546875,0.0021239090710878372,-0.002022825414314866,0.001369168283417821
1772732875772836000,6.089836181640625,0.0017950085457414389,-0.00027738953940570354,-0.000041241757571697235
1772732875782864100,6.099864013671875,0.0012215229216963053,-0.0007899315096437931,0.0015764967538416386
1772732875792892000,6.109891845703125,-0.00004267960321158171,-0.001465309178456664,0.0013200344983488321
1772732875802920200,6.119920166015625,0.000008613395038992167,-0.000003469642251729965,-0.0003167655668221414
1772732875812948000,6.129947998046875,-0.001074494211934507,-0.0024802093394100666,0.0005130754434503615
1772732875822976000,6.13997607421875,-0.0000783041468821466,0.0007180748507380486,-0.0027796276845037937
1772732875833004000,6.150004150390625,0.0010748445056378841,-0.0019192537292838097,0.0032942439429461956
1772732875843032000,6.160031982421875,0.000015759665984660387,0.000812852755188942,0.001254377537406981
1772732875853060000,6.17006005859375,0.0016048679826781154,-0.001134716672822833,-0.000018613471183925867
1772732875863088000,6.180088134765625,0.0007957529160194099,-0.0008925125002861023,-0.0013276392128318548
1772732875873116000,6.190115966796875,0.0018639469053596258,0.0005804821848869324,-0.0004261592694092542
1772732875883143000,6.200142822265625,-0.000978932366706431,0.0019771107472479343,0.0003777072415687144
1772732875893171200,6.210171142578125,0.000591533724218607,-0.0008546283934265375,-0.00002096800017170608
1772732875903199000,6.220198974609375,-0.0020032802131026983,0.00035141967236995697,0.0018612782005220652
1772732875913227000,6.23022705078125,0.00001912435982376337,0.0010060248896479607,-0.0011568821500986814
1772732875923255000,6.240255126953125,0.0015017975820228457,0.002162030665203929,0.0002443338744342327
1772732875933283000,6.250282958984375,-0.0004894478479400277,0.0009923705365508795,-0.00026486252318136394
1772732875943311000,6.26031103515625,0.00024417403619736433,0.0007872057612985373,-0.0005007256986573339
1772732875953339100,6.270339111328125,0.001540068187750876,0.001137145096436143,-0.0020714581478387117
1772732875963367000,6.280366943359375,0.0010175856295973063,-0.0006458284333348274,0.0009858817793428898
1772732875973395200,6.290395263671875,-0.00006445666076615453,-0.00029269326478242874,-0.0009289310546591878
1772732875983423000,6.300423095703125,-0.003208804875612259,-0.00010147038847208023,0.001716134138405323
1772732875993451000,6.310450927734375,0.000456770125310868,-0.0011584789026528597,-0.0002647251822054386
1772732876003479000,6.32047900390625,-0.0040900204330682755,-0.0003243356477469206,0.002157478593289852
1772732876013507000,6.330507080078125,-0.0012966305948793888,-0.0023677791468799114,0.0002743573277257383
1772732876023535000,6.34053515625,0.0017143971053883433,-0.0004468248225748539,-0.0016826363280415535
1772732876033563100,6.350563232421875,-0.0007184005808085203,0.0013281721621751785,-0.000039199599996209145
1772732876043591000,6.3605908203125,-0.0008610963704995811,0.0017104281578212976,-0.002029729774221778
1772732876053619200,6.370619140625,-0.0023679127916693687,-0.000830227741971612,-0.0002763045486062765
1772732876063647000,6.38064697265625,0.0006878058193251491,-0.0007697828114032745,0.0004386451910249889
1772732876073675300,6.39067529296875,0.0003767486196011305,-0.00048402557149529457,0.0029745071660727262
1772732876083703000,6.400703125,0.00044899911154061556,0.0013118491042405367,0.001850888947956264
1772732876093730800,6.410730712890625,0.0016945595853030682,-0.0008285334333777428,0.002261281944811344
1772732876103759000,6.420759033203125,-0.0041549596935510635,0.0027995677664875984,0.000981947872787714
1772732876113787000,6.430786865234375,0.00008878757944330573,-0.001358159352093935,0.0008147014304995537
1772732876123814100,6.440814208984375,-0.002084203530102968,0.0002023046836256981,0.002002055523917079
1772732876133842000,6.450842041015625,0.0013744437601417303,-0.0017857450293377042,0.0004182737902738154
1772732876143870200,6.4608701171875,0.0007358351140283048,-0.0007443642243742943,-0.0019445759244263172
1772732876153898000,6.47089794921875,0.000010656367521733046,0.0009672495070844889,0.0031117016915231943
1772732876163926000,6.480926025390625,0.001138702966272831,-0.002179025672376156,0.0008705569198355079
1772732876173954000,6.4909541015625,-0.0017577509861439466,0.0009954620618373156,0.0009405979653820395
1772732876183982000,6.500982177734375,-0.0009990769904106855,-0.001367577351629734,0.0016712882788851857
1772732876194010000,6.511010009765625,-0.00008321594214066863,-0.0019942191429436207,0.0007836567237973213
1772732876204038100,6.5210380859375,-0.0016344350297003984,0.0009071540553122759,-0.0015302448300644755
1772732876214066000,6.53106591796875,-0.0005651757819578052,-0.000455319182947278,-0.0003994666039943695
1772732876224094200,6.54109423828125,-0.0005013776826672256,-0.0018507090862840414,0.0009182582725770772
1772732876234122000,6.5511220703125,-0.0015226999530568719,0.0005035253707319498,0.0010775153059512377
1772732876244150000,6.56114990234375,0.001995661063119769,-0.0007569487206637859,-0.0006449961801990867
1772732876254178000,6.571177978515625,0.00023158336989581585,-0.0008956994861364365,0.0019774185493588448
1772732876264205800,6.581205810546875,-0.002291914774104953,-0.00010424107313156128,0.0020984469447284937
1772732876274234000,6.591234130859375,-0.0005693822167813778,0.0014632956590503454,0.000017452723113819957
1772732876284262000,6.601261962890625,0.0000879325089044869,-0.0008479775860905647,-0.0019257296808063984
1772732876294290200,6.611290283203125,0.0015063321916386485,-0.0010857977904379368,0.003213105723261833
1772732876304318000,6.62131787109375,-0.0005832153256051242,0.0012437575496733189,-0.000015739438822492957
1772732876314346000,6.631345947265625,-0.0010487358085811138,0.0012602689675986767,-0.001001907978206873
1772732876324374000,6.6413740234375,-0.0022685988806188107,0.0004221091512590647,0.0004603068809956312
1772732876334402000,6.651402099609375,-0.0005567189073190093,-0.000012784963473677635,-0.0012294688494876027
1772732876344430000,6.66143017578125,-0.0015996781876310706,-0.0014294569846242666,-0.0005446226568892598
1772732876354458000,6.6714580078125,-0.0018462869338691235,-0.0009868396446108818,-0.0020333295688033104
1772732876364485000,6.681485107421875,0.0006703152321279049,-0.0009591158013790846,0.00043914502020925283
1772732876374513200,6.69151318359375,-0.00014620990259572864,-0.0010328853968530893,0.0003248954308219254
1772732876384541000,6.701541015625,0.00043445650953799486,-0.0019039649050682783,-0.0009562608320266008
1772732876394569200,6.7115693359375,-0.0007298775017261505,-0.0011787861585617065,-0.0009205744136124849
1772732876404597000,6.721596923828125,0.0006615798338316381,-0.0006457220297306776,0.002102858852595091
1772732876414625000,6.731625,0.0030046289321035147,0.002677636919543147,0.00045036745723336935
1772732876424653000,6.741653076171875,0.0004690621863119304,0.0008644983172416687,0.0013138416688889265
1772732876434680800,6.751680908203125,0.0012158125173300505,0.0032411031424999237,-0.0020816887263208628
1772732876444709000,6.761709228515625,0.0003737003426067531,-0.0016324231401085854,0.000997050665318966
1772732876454737000,6.77173681640625,-0.0004257806285750121,0.000008616829290986061,0.0005807985435239971
1772732876464765200,6.78176513671875,-0.0011590418871492147,-0.00011193775571882725,0.00013235886581242085
1772732876474793000,6.79179296875,-0.002006725873798132,0.0009381463751196861,-0.0018889803905040026
1772732876484821000,6.801821044921875,-0.002026923466473818,0.0019911814015358686,0.0029362693894654512
1772732876494849000,6.81184912109375,0.001500966027379036,0.00048622931353747845,-0.0005309000262059271
1772732876504877000,6.821876953125,-0.000058691250160336494,0.0006496647838503122,-0.0009951416868716478
1772732876514905000,6.831905029296875,-0.00014870613813400269,0.001855278154835105,0.0001825081999413669
1772732876524933000,6.84193310546875,-0.0000802737195044756,0.0014552902430295944,0.00006901222513988614
1772732876534961000,6.8519609375,0.00023797404719516635,0.0015258640050888062,-0.0008167551131919026
1772732876544989200,6.8619892578125,-0.0007479804917238653,0.0009712916798889637,-0.0017895293422043324
1772732876555017000,6.872016845703125,-0.0008909922325983644,0.000922023318707943,0.00007947697304189205
1772732876565045000,6.882044921875,-0.00163918430916965,-0.0004659690894186497,0.0012541047763079405
1772732876575073000,6.892072998046875,0.0038727603387087584,-0.00041137426160275936,0.00097260857000947
1772732876585101000,6.90210107421875,-0.00018968796939589083,-0.00007586553692817688,-0.0005504306172952056
1772732876595129000,6.912129150390625,0.0010204524733126163,0.0013505234383046627,0.00038726843195036054
1772732876605155800,6.92215576171875,-0.0012605211231857538,-0.0002363240346312523,0.002543302020058036
1772732876615184100,6.93218408203125,0.0001986249117180705,0.0007615622598677874,-0.00012198952026665211
1772732876625212000,6.9422119140625,-0.000004476925823837519,0.0006885463371872902,0.0007637974340468645
1772732876635240200,6.952240234375,0.0009337547235190868,-0.002192461397498846,0.000019443919882178307
1772732876645268000,6.96226806640625,0.0015373334754258394,-0.0005860044620931149,0.0005181879387237132
1772732876655296000,6.9722958984375,-0.0018864263547584414,0.0008638205472379923,-0.001008602324873209
1772732876665324000,6.982323974609375,0.0018988982774317265,-0.00240014074370265,0.00285248807631433
1772732876675352000,6.99235205078125,0.0013604070991277695,-0.0002658835146576166,0.0010271575301885605
1772732876685380000,7.002380126953125,-0.00011808855924755335,0.0027056667022407055,0.0003985766670666635
1772732876695408000,7.012408203125,-0.0014166459441184998,0.0023362860083580017,-0.0007202173001132905
1772732876705436000,7.022435791015625,-0.0025777227710932493,-0.0006396274548023939,0.00010572333121672273
1772732876715464200,7.032464111328125,0.0010020984336733818,-0.0005898263771086931,0.0008122600265778601
1772732876725492000,7.042491943359375,0.0008832337334752083,0.001499914564192295,0.00057192612439394
1772732876735520000,7.05252001953125,0.0018635432934388518,0.0008466416038572788,-0.0011074632639065385
1772732876745548000,7.062548095703125,-0.0015017323894426227,0.0006596243474632502,-0.002713693305850029
1772732876755576000,7.072576171875,0.00017685804050415754,0.00044657173566520214,-0.0037094491999596357
1772732876765604000,7.08260400390625,0.0002530170604586601,-0.00039480626583099365,0.0019239350222051144
1772732876775632100,7.092632080078125,0.0019696904346346855,-0.0016920319758355618,0.00381477945484221
1772732876785660000,7.102659912109375,0.0010875556617975235,-0.0015809081960469484,0.0004068940179422498
1772732876795688200,7.112688232421875,-0.0030821554828435183,0.0017389885615557432,0.00046548352111130953
1772732876805716000,7.122716064453125,-0.0011678766459226608,0.001135913422331214,-0.0002110937493853271
1772732876815744000,7.132743896484375,0.001000735443085432,0.0010773239191621542,-0.0004134940099902451
1772732876825772000,7.14277197265625,-0.00007621606346219778,-0.001304810168221593,-0.0010170172899961472
1772732876835799800,7.1527998046875,-0.002250686986371875,-0.0002291593700647354,0.0010493292938917875
1772732876845828000,7.162828125,-0.0006513870321214199,0.0016451256815344095,0.0015082082245498896
1772732876855855000,7.172855224609375,0.0014591680373996496,0.0010744102764874697,0.0014192585367709398
1772732876865883100,7.182883056640625,-0.0004692612565122545,-0.0003951957914978266,0.00044379779137670994
1772732876875911000,7.192910888671875,0.0017217212589457631,0.00015820912085473537,0.001740757143124938
1772732876885939200,7.202939208984375,-0.00007083488162606955,0.0014886443968862295,0.0013635859359055758
1772732876895967000,7.212967041015625,-0.0006141196936368942,0.0006018115673214197,-0.00186017039231956
1772732876905995000,7.2229951171875,-0.002173521788790822,-0.0010254473891109228,-0.0020499597303569317
1772732876916023000,7.23302294921875,-0.00011116982204839587,0.0010092074517160654,-0.00004060479113832116
1772732876926051000,7.243051025390625,-0.00004739174619317055,0.0022000742610543966,-0.0025870306417346
1772732876936079000,7.2530791015625,0.002046385547146201,0.00018699048087000847,0.0004859909531660378
1772732876946107100,7.263107177734375,0.00037702301051467657,0.00007179798558354378,0.001500285929068923
1772732876956135000,7.273135009765625,0.0006502633914351463,-0.00018173502758145332,0.0014741867780685425
1772732876966163200,7.2831630859375,-0.000922802893910557,-0.000861479202285409,-0.0032989983446896076
1772732876976191000,7.29319091796875,0.00045192090328782797,0.00047329720109701157,-0.001482722582295537
1772732876986219000,7.303218994140625,-0.00077172921737656,0.0002676986623555422,-0.0010808570077642798
1772732876996247000,7.3132470703125,-0.0030825540889054537,0.0014938181266188622,0.000688813510350883
1772732877006274800,7.32327490234375,0.0007170948083512485,0.0010252476204186678,-0.0022204129491001368
1772732877016303000,7.33330322265625,0.00028805964393541217,0.00002363254316151142,0.0010997499339282513
1772732877026331000,7.343330810546875,-0.0006102864863350987,-0.0009129901882261038,0.0006439419812522829
1772732877036359200,7.353359130859375,-0.0023655761033296585,-0.0006839584093540907,0.0005480682593770325
1772732877046387000,7.363386962890625,-0.0008629235089756548,0.0013460991904139519,0.0007296287221834064
1772732877056415000,7.3734150390625,-0.0010533395688980818,0.0013239947147667408,-0.0023218211717903614
1772732877066443000,7.383443115234375,-0.00017015397315844893,0.0022535764146596193,0.0007271746871992946
1772732877076471000,7.393470947265625,-0.0015557967126369476,0.0018447812180966139,0.0018299897201359272
1772732877086499000,7.4034990234375,-0.002167265396565199,-0.0005299504846334457,-0.00014344690134748816
1772732877096526000,7.413526123046875,0.0009433067752979696,0.0007177405059337616,0.001728222705423832
1772732877106554000,7.42355419921875,-0.00013298902194947004,0.000028093811124563217,0.0015450282953679562
1772732877116582100,7.43358203125,0.0005218822625465691,0.00019028037786483765,-0.0007793785771355033
1772732877126610000,7.44360986328125,-0.001562554738484323,0.0007320663426071405,-0.000460716022644192
1772732877136638000,7.453637939453125,0.0018215239979326725,0.0010646951850503683,0.0001773773692548275
1772732877146666000,7.463666015625,0.0007237131940200925,-0.0004370007663965225,0.0010310966754332185
1772732877156694000,7.473694091796875,0.00035593064967542887,0.0015718215145170689,-0.0024829444009810686
1772732877166722000,7.48372216796875,-0.0006863536546006799,-0.0018849542830139399,-0.00010567862773314118
1772732877176749800,7.493749755859375,0.0019174190238118172,0.0008810048457235098,0.0019787775818258524
1772732877186778000,7.503778076171875,-0.0014967757742851973,-0.0007225857116281986,0.0014851411106064916
1772732877196806000,7.513805908203125,-0.00014468893641605973,-0.00017637130804359913,0.0007623592391610146
1772732877206834200,7.523834228515625,0.0008781360229477286,-0.0014992353972047567,-0.0021787025034427643
1772732877216862000,7.533862060546875,-0.000030001916456967592,0.001011859392747283,0.00017153704538941383
1772732877226890000,7.543889892578125,0.0031890764366835356,-0.0012118157465010881,-0.0008360232459381223
1772732877236918000,7.55391796875,0.00008249928941950202,0.0006806263700127602,0.002511836588382721
1772732877246946000,7.563946044921875,0.0006947957444936037,-0.0005070653278380632,0.0012025584001094103
1772732877256974000,7.57397412109375,0.003709494136273861,-0.000994157511740923,0.0012486311607062817
1772732877267002000,7.584002197265625,-0.002027146751061082,0.0006755082868039608,0.0006156996241770685
1772732877277030000,7.59402978515625,0.0022216602228581905,0.0014837775379419327,-0.00044450475252233446
1772732877287058200,7.60405810546875,-0.00043613588786683977,0.000963783822953701,-0.00098143657669425
1772732877297086000,7.6140859375,0.0001369763631373644,0.00012329011224210262,-0.00018381979316473007
1772732877307114200,7.6241142578125,0.0004549071309156716,0.001444466644898057,-0.0005112608196213841
1772732877317142000,7.63414208984375,-0.0018228944391012192,-0.0016442674677819014,-0.001352819730527699
1772732877327169000,7.6441689453125,-0.0021292073652148247,0.0011257538571953773,-0.0010539233917370439
1772732877337197000,7.654197021484375,0.000038073048926889896,0.002775848377496004,-0.0007633725181221962
1772732877347224800,7.664224853515625,0.0017568119801580906,-0.0009018313139677048,-0.0004220687842462212
1772732877357253000,7.674253173828125,-0.0000048691872507333755,-0.0013114255852997303,-0.0012135602300986648
1772732877367281000,7.684281005859375,-0.0009097220026887953,-0.0005335365422070026,0.00008382915984839201
1772732877377309200,7.69430908203125,-0.0008276966400444508,-0.00011115917004644871,0.0008590753423050046
1772732877387337000,7.7043369140625,-0.0009210713324137032,0.0009980688337236643,-0.0008613252430222929
1772732877397365000,7.714364990234375,-0.001881407224573195,0.0010119171347469091,-0.0009113926789723337
1772732877407393000,7.72439306640625,-0.0005608476349152625,-0.0018272035522386432,-0.0012571392580866814
1772732877417421000,7.734421142578125,0.0002463565324433148,-0.00003116787411272526,0.0007663305732421577
1772732877427449000,7.744448974609375,0.0003284425474703312,-0.000586935319006443,-0.0002874481142498553
1772732877437477000,7.75447705078125,-0.0006683786050416529,-0.001145932823419571,0.0016899489564821124
1772732877447505000,7.7645048828125,-0.0011947952443733811,-0.000365247018635273,-0.000629930873401463
1772732877457533200,7.774533203125,0.0017069850582629442,0.001619074260815978,0.00038499984657391906
1772732877467561000,7.78456103515625,-0.00044648893526755273,-0.0006189411506056786,-0.00025121046928688884
1772732877477589200,7.79458935546875,-0.00008376641198992729,0.0007595110218971968,0.0006678464123979211
1772732877487617000,7.804616943359375,0.0003614253946579993,0.0007474622689187527,0.000376629875972867
1772732877497645000,7.81464501953125,0.0014498592354357243,0.0005996567197144032,0.0008948810864239931
1772732877507673000,7.824673095703125,-0.0006434601382352412,0.0018559463787823915,0.0014197251293808222
1772732877517701000,7.834701171875,0.001805849140509963,-0.0005081414710730314,0.0016202612314373255
1772732877527729200,7.844729248046875,-0.00029204567545093596,-0.00020679528824985027,-0.001600830932147801
1772732877537757200,7.854757080078125,-0.001219092053361237,-0.0012917672283947468,0.0005715095321647823
1772732877547785000,7.864784912109375,0.00048611947568133473,-0.0003062903415411711,0.00010771298548206687
1772732877557813000,7.87481298828125,-0.0014460039092227817,0.003089506644755602,-0.00033863281714729965
1772732877567840000,7.884840087890625,0.001960878260433674,0.0010695499368011951,0.00262710964307189
1772732877577868000,7.894867919921875,-0.0003081350296270102,-0.00186072604265064,-0.0014150363858789206
1772732877587896000,7.90489599609375,-0.00033663740032352507,0.0018188210669904947,-0.0013031295966356993
1772732877597924000,7.914924072265625,-0.0021063080057501793,-0.0010494035668671131,0.0018785488791763783
1772732877607952100,7.9249521484375,0.0003154618898406625,-0.00035196426324546337,-0.000935898395255208
1772732877617980000,7.93497998046875,0.0015703433891758323,0.0003601652570068836,-0.0007076655165292323
1772732877628008200,7.94500830078125,0.000623861444182694,-0.0008443193510174751,-0.0004671596398111433
1772732877638036000,7.955035888671875,0.000537841347977519,-0.00008105742745101452,-0.0014727693051099777
1772732877648064300,7.965064208984375,-0.003341146744787693,-0.000734556932002306,-0.0010567960562184453
1772732877658092000,7.975092041015625,-0.0014716077130287886,0.0014801279176026583,-0.0006019281572662294
1772732877668119600,7.98511962890625,-0.0023050287272781134,0.0005830673035234213,-0.00034013576805591583
1772732877678147600,7.995147705078125,-0.00013455247972160578,0.00020649656653404236,0.00018717010971158743
1772732877688175600,8.005175537109375,-0.000041433318983763456,-0.0008679854217916727,-0.001996363513171673
1772732877698203600,8.01520361328125,-0.0012827327009290457,0.00039914646185934544,-0.001315126777626574
1772732877708231700,8.025231689453125,-0.001902648713439703,-0.0013078635092824697,0.0007851626141928136
1772732877718259500,8.035259521484376,-0.000043762323912233114,0.0023135030642151833,-0.0018116857390850782
1772732877728287700,8.045287841796876,0.0007532247109338641,-0.0006425806786864996,0.0008295206353068352
1772732877738315500,8.0553154296875,-0.0022976924665272236,-0.0006399175617843866,0.00010407553054392338
1772732877748343600,8.065343505859374,-0.0002622691390570253,-0.000432667788118124,-0.00003109779208898544
1772732877758371600,8.07537158203125,0.00019632716430351138,0.0027980131562799215,0.0027335297781974077
1772732877768399400,8.0853994140625,-0.001552350353449583,-0.00044227251783013344,0.0012389288749545813
1772732877778427600,8.095427734375,0.00013849063543602824,-0.00010857847519218922,-0.00011555495439097285
1772732877788455400,8.105455322265625,-0.0019750352948904037,0.0003050894010812044,-0.002103308215737343
1772732877798483700,8.115483642578125,0.0009544419590383768,0.0008888544980436563,-0.0011376459151506424
1772732877808511500,8.125511474609375,-0.0014687355142086744,-0.0005012939218431711,-0.0017449087463319302
1772732877818538800,8.135538818359375,0.0006199817871674895,-0.0009178123436868191,0.00013475032756105065
1772732877828566500,8.14556640625,0.000047800655011087656,0.00034621148370206356,0.0012999017490074039
1772732877838594600,8.155594482421876,-0.0017208046047016978,0.0000900153536349535,-0.002603493630886078
1772732877848622600,8.16562255859375,0.0003887865459546447,0.0005138812121003866,-0.0003144628135487437
1772732877858650600,8.175650634765624,-0.00035503439721651375,-0.0005479210522025824,-0.0002694553986657411
1772732877868678700,8.1856787109375,0.0011472173500806093,-0.0009283702820539474,0.00007292826194316149
1772732877878706700,8.195706787109375,0.0002284267102368176,0.000429841922596097,-0.002645360305905342
1772732877888734500,8.205734375,0.002792579587548971,-0.0009752835612744093,-0.0019335070392116904
1772732877898762500,8.215762451171875,-0.00047831470146775246,-0.0008703549392521381,0.0019006459042429924
1772732877908790500,8.22579052734375,-0.0007371158571913838,0.0019512276630848646,-0.0005021257093176246
1772732877918818600,8.235818603515625,-0.0021821469999849796,-0.002347380854189396,-0.00008054729551076889
1772732877928846600,8.2458466796875,-0.0002406036655884236,0.00014131097123026848,0.0015122375916689634
1772732877938874400,8.255874267578125,-0.001462994609028101,-0.000049105146899819374,-0.0022297699470072985
1772732877948902700,8.265902587890626,0.0007289858185686171,-0.0019361197482794523,0.0005667692748829722
1772732877958930400,8.275930419921876,0.00068983732489869,0.0009731175377964973,0.000014962279237806797
1772732877968958700,8.285958740234374,0.0006287966971285641,-0.0012916657142341137,-0.001001901226118207
1772732877978986500,8.295986572265624,0.0008005705312825739,-0.0013262869324535131,-0.0015023092273622751
1772732877989014500,8.3060146484375,-0.002291063778102398,0.0009624450467526913,0.0006423238664865494
1772732877999042600,8.31604248046875,-0.002810913138091564,0.00027508335188031197,-0.0009720843518152833
1772732878009070600,8.326070556640625,-0.0016717681428417563,-0.0006723189726471901,0.0009296545758843422
1772732878019098600,8.3360986328125,0.0003828605404123664,-0.0007122664246708155,-0.000252256344538182
1772732878029126700,8.346126708984375,-0.0005645260098390281,-0.0015489289071410894,0.002583169611170888
1772732878039154400,8.356154541015625,-0.001987186726182699,0.003080976428464055,0.0019248363096266985
1772732878049182700,8.3661826171875,-0.0010691677452996373,-0.0007902197539806366,-0.0015965814236551523
1772732878059209500,8.37620947265625,-0.0016856895526871085,0.00200077285990119,0.002840244909748435
1772732878069237500,8.386237548828126,-0.0021708570420742035,0.0003285116981714964,-0.0004149003070779145
1772732878079265500,8.396265625,0.001765561057254672,0.0017354597803205252,-0.00010863679926842451
1772732878089293600,8.40629345703125,-0.001790395239368081,0.0024683086667209864,0.00003994419239461422
1772732878099321600,8.416321533203124,-0.001742991036735475,-0.00014105672016739845,-0.0009579422185197473
1772732878109349400,8.426349365234374,0.0006702536484226584,0.001762287924066186,-0.0017653685063123703
1772732878119377700,8.436377685546875,-0.0007361617754213512,0.0019545683171600103,-0.002205322729423642
1772732878129405400,8.446405517578125,-0.0006080040475353599,0.0005165715701878071,0.001102794543839991
1772732878139433700,8.456433837890625,0.0001496652839705348,0.00029206741601228714,-0.0003526229120325297
1772732878149461500,8.46646142578125,-0.001994600286707282,-0.0006290397141128778,-0.0009303081897087395
1772732878159489500,8.476489501953125,-0.0011189528740942478,0.00048069958575069904,-0.0008341680513694882
1772732878169517600,8.486517578125,-0.0019173992332071066,0.000279030529782176,0.0005158798303455114
1772732878179545600,8.496545654296876,-0.002707559149712324,-0.0015969004016369581,-0.002182967495173216
1772732878189573600,8.50657373046875,0.0013383629266172647,0.000019171740859746933,0.002970624715089798
1772732878199601700,8.5166015625,-0.001252093818038702,0.0006319652311503887,-0.0007000101031735539
1772732878209629400,8.52662939453125,-0.0014929173048585653,-0.00007417495362460613,-0.00015939580043777823
1772732878219657700,8.53665771484375,0.0000029802904464304447,-0.0005588701460510492,-0.001458485727198422
1772732878229685500,8.546685546875,0.00010546424891799688,-0.0012858379632234573,-0.00014470686437562108
1772732878239713800,8.5567138671875,-0.0002322245854884386,0.0008100699633359909,-0.0008994467207230628
1772732878249741600,8.566741455078125,0.000856138183735311,0.0022308132611215115,-0.0019192890031263232
1772732878259769600,8.57676953125,0.0008305717492476106,-0.00003553670831024647,0.0006442698650062084
1772732878269797600,8.586797607421875,-0.00010172941256314516,0.00007224944420158863,-0.0009266884298995137
1772732878279825700,8.59682568359375,0.0017001653322950006,0.000614202581346035,-0.00211206148378551
1772732878289852700,8.606852783203125,-0.00022394716506823897,-0.0005256100557744503,0.0004618801176548004
1772732878299880400,8.61688037109375,0.0010959154460579157,-0.0015322850085794926,-0.00141325150616467
1772732878309908700,8.62690869140625,0.001756437704898417,-0.00179888098500669,-0.0009818123653531075
1772732878319936500,8.6369365234375,0.0022834772244095802,-0.00128728779964149,-0.0005101665738038719
1772732878329964500,8.646964599609374,-0.0002528538752812892,-0.001298739342018962,0.0000451820669695735
1772732878339992600,8.65699267578125,-0.002259013010188937,0.0008072885684669018,-0.001452579628676176
1772732878350020600,8.6670205078125,0.00005656830035150051,-0.0005004943814128637,0.00073595205321908
1772732878360048600,8.677048583984375,0.0018701809458434582,0.0015890218783169985,0.0004075843608006835
1772732878370076700,8.68707666015625,-0.0011868200963363051,0.00040796492248773575,-0.000805337040219456
1772732878380104400,8.6971044921875,0.0017154928063973784,0.0017446051351726055,0.0006524772616103292
1772732878390132700,8.7071328125,-0.0007096764165908098,0.001577404560521245,0.00038170290645211935
1772732878400160500,8.717160400390625,0.00008873926708474755,-0.00029612937942147255,-0.00043748540338128805
1772732878410188800,8.727188720703126,-0.0005004713893868029,-0.0020221988670527935,-0.0003371911298017949
1772732878420216600,8.737216552734376,0.0004683865699917078,-0.003099980065599084,0.0019501978531479836
1772732878430244600,8.74724462890625,0.0011123655131086707,-0.00007988791912794113,0.0007620401447638869
1772732878440272600,8.757272705078124,-0.00013905391097068787,-0.002006418537348509,0.0010049204574897885
1772732878450300700,8.76730078125,-0.0001956768101081252,0.0011311962734907866,0.0005599792348220944
1772732878460328700,8.77732861328125,0.0000224360846914351,0.0004313176032155752,-0.000893574149813503
1772732878470356500,8.7873564453125,0.0016599869122728705,0.001534897368401289,0.0009561814949847758
1772732878480384500,8.797384521484375,-0.002010115422308445,-0.0006587484385818243,0.0010975953191518784
1772732878490412500,8.80741259765625,0.0024994900450110435,-0.0007798376027494669,0.0017360461642965674
1772732878500440600,8.817440673828125,-0.00006779714021831751,0.0007384307682514191,0.0007027396932244301
1772732878510468600,8.827468505859375,0.0017138884868472815,0.0007464576046913862,0.000752918072976172
1772732878520496600,8.83749658203125,-0.00007602194091305137,-0.000783262075856328,0.0018464119639247656
1772732878530524400,8.8475244140625,-0.0011433057952672243,-0.0004008410032838583,0.0008877747459337115
1772732878540551700,8.8575517578125,0.0020189315546303988,0.0019528607372194529,0.0003016130067408085
1772732878550579500,8.867579345703126,-0.0020505934953689575,0.0007746894843876362,0.0023717903532087803
1772732878560607700,8.877607666015624,-0.0002558893756940961,0.000846328679472208,0.002212000545114279
1772732878570635500,8.887635498046874,-0.0016190046444535255,0.0020443641114979982,0.0017798291519284248
1772732878580663800,8.897663818359375,-0.00048183483886532485,0.000019562896341085434,0.0013931381981819868
1772732878590691600,8.907691650390625,0.0006370097398757935,0.0011400487273931503,0.0007231389754451811
1772732878600719600,8.9177197265625,-0.0012319966917857528,-0.00025917612947523594,0.0012549723032861948
1772732878610747600,8.92774755859375,0.0015255250036716461,-0.000012301374226808548,0.0018472427036613226
1772732878620775700,8.937775634765625,0.001706087263301015,0.002030343050137162,0.0014789276756346226
1772732878630803700,8.9478037109375,0.0027111636009067297,0.00011131609790027142,0.002444534795358777
1772732878640831500,8.95783154296875,0.0005276378942653537,-0.0015582197811454535,0.0017486508004367352
1772732878650859500,8.967859619140626,-0.0001587874721735716,-0.0008129279594868422,-0.0013039343757554889
1772732878660887600,8.977887451171876,0.0005442870315164328,0.0030316112097352743,-0.0012024679454043508
1772732878670915600,8.98791552734375,0.00009609595872461796,-0.001681633642874658,-0.00008738681208342314
1772732878680943600,8.997943603515624,-0.00007035158341750503,0.0006845849566161633,0.000522743328474462
1772732878690971600,9.0079716796875,-0.00032693572575226426,0.0003547430969774723,0.00042136048432439566
1772732878700999700,9.017999755859375,-0.0005916539230383933,0.0019451831467449665,-0.0007672083447687328
1772732878711027700,9.02802783203125,-0.0017104088328778744,0.0011146841570734978,-0.0014893149491399527
1772732878721055700,9.0380556640625,-0.0003609851701185107,0.0014505088329315186,-0.00025227662990801036
1772732878731083500,9.04808349609375,-0.0006435379618778825,-0.0003219074569642544,0.00018899684073403478
1772732878741111800,9.05811181640625,-0.0017093350179493427,-0.0009062050376087427,-0.0019298142287880182
1772732878751139600,9.0681396484375,-0.003428654745221138,-0.0005758791230618954,-0.002039391780272126
1772732878761168000,9.07816796875,0.0017882115207612514,0.000019603874534368515,0.00008527806494385004
1772732878771195600,9.088195556640626,-0.0006150344852358103,-0.0019686101004481316,0.001533416798338294
1772732878781223700,9.0982236328125,-0.0019633928313851357,-0.000779508613049984,0.003515074960887432
1772732878791250700,9.108250732421874,0.0002228183439001441,0.0014208669308573008,-0.0013576577184721828
1772732878801278500,9.118278564453124,-0.0009114218992181122,-0.0009434875100851059,-0.0008122423314489424
1772732878811306800,9.128306640625,-0.000731524545699358,0.0015301210805773735,-0.000649709312710911
1772732878821334500,9.13833447265625,0.0006439981516450644,-0.002037715632468462,0.00016495166346430779
1772732878831362800,9.14836279296875,0.0018020236166194081,0.0012273292522877455,-0.0011654590489342809
1772732878841390600,9.158390625,0.0021239998750388622,-0.001996160950511694,-0.0004437424067873508
1772732878851418600,9.168418701171875,-0.0021835314109921455,-0.0010311896912753582,-0.0011337788309901953
1772732878861446700,9.17844677734375,0.0007898880867287517,-0.0015529028605669737,-0.0006663940730504692
1772732878871474700,9.188474609375,-0.00107928819488734,-0.001716375583782792,-0.0010676824022084475
1772732878881502700,9.198502685546876,-0.000003371096681803465,0.0000695402268320322,0.00017201912123709917
1772732878891530800,9.20853076171875,0.0002770738210529089,0.0015158229507505894,-0.0017777376342564821
1772732878901558500,9.21855859375,-0.0034641348756849766,-0.00040058791637420654,0.0017333738505840302
1772732878911586800,9.2285869140625,0.0016037258319556713,-0.00045627146027982235,-0.0010065664537250996
1772732878921614600,9.238614501953125,-0.00025489425752311945,-0.0008706592489033937,-0.0002132107620127499
1772732878931643000,9.248642822265625,0.0003182068467140198,-0.002358004916459322,0.00047489418648183346
1772732878941670700,9.258670654296875,0.0014865355333313346,0.0015938598662614822,-0.00024016451789066195
1772732878951698700,9.26869873046875,0.0003674709005281329,0.0009894159156829119,0.00000246736453846097
1772732878961726700,9.278726806640625,0.00013577588833868504,0.0003289522137492895,-0.000353064649971202
1772732878971754800,9.288754638671875,-0.0005504972068592906,-0.00013259449042379856,0.001195680582895875
1772732878981782800,9.29878271484375,0.0005768188275396824,0.0010154943447560072,0.0023690692614763975
1772732878991810800,9.308810791015626,-0.0015734790358692408,0.00040367874316871166,-0.0010008872486650944
1772732879001837800,9.318837890625,-0.00022458797320723534,0.0028521891217678785,-0.002596386941149831
1772732879011865600,9.328865478515626,-0.0010716017568483949,0.0016875257715582848,0.0016378158470615745
1772732879021893600,9.3388935546875,0.0007683762814849615,-0.00007868255488574505,0.00039358704816550016
1772732879031921700,9.348921630859374,-0.001076652784831822,0.00036670523695647717,0.0007322424789890647
1772732879041949700,9.35894970703125,0.00022643187548965216,-0.0012618175242096186,0.0009996237931773067
1772732879051977700,9.368977783203125,-0.002221509348601103,-0.0018399370601400733,0.001875771558843553
1772732879062005800,9.379005859375,0.0021948106586933136,-0.0013576385099440813,0.00024272105656564236
1772732879072033500,9.389033447265625,-0.000711041793692857,0.0010596364736557007,-0.00021065643522888422
1772732879082061800,9.399061767578125,0.00208554370328784,-0.0030735896434634924,-0.0006996128358878195
1772732879092089600,9.409089599609375,-0.00348166492767632,-0.0008013800252228975,-0.0024297575000673532
1772732879102118000,9.419117919921876,0.0018941920716315508,0.0005400539375841618,0.0036430484615266323
1772732879112145700,9.429145751953126,0.0001915146131068468,0.0000862011220306158,-0.00012413662625476718
1772732879122173700,9.439173583984376,-0.001295594498515129,-0.002999071031808853,-0.0029103357810527086
1772732879132201700,9.44920166015625,-0.001458883285522461,-0.0005488935858011246,-0.00004548911238089204
1772732879142229800,9.459229736328124,-0.0002844292321242392,-0.00044609559699893,0.0021095408592373133
1772732879152256800,9.4692568359375,-0.0005030969623476267,-0.0029090470634400845,0.0017508200835436583
1772732879162284500,9.479284423828124,-0.0006623539957217872,-0.00045361253432929516,-0.0004446900566108525
1772732879172312800,9.489312744140625,-0.0014613710809499025,-0.0018190247938036919,-0.0019392664544284344
1772732879182340600,9.499340576171875,0.00010057294275611639,-0.0011822630185633898,0.00013746647164225578
1772732879192368600,9.50936865234375,-0.0010922233341261744,0.0009891374502331018,-0.0032953652553260326
1772732879202396700,9.519396728515625,-0.0004240362031850964,0.0011289531830698252,-0.0011235575657337904
1772732879212424700,9.5294248046875,-0.0002909465110860765,0.00207412033341825,-0.003961858339607716
1772732879222452700,9.53945263671875,0.0028089729603379965,-0.0005818502977490425,-0.0004763128235936165
1772732879232480800,9.549480712890626,-0.0024456940591335297,0.0005353863816708326,0.0006716072675772011
1772732879242508500,9.559508544921876,-0.0002464556018821895,0.0016312773805111647,0.0005778639460913837
1772732879252536800,9.569536865234374,0.002020093146711588,0.0005860545206815004,-0.002153637120500207
1772732879262564600,9.579564697265624,-0.0009392115171067417,-0.0001913222949951887,0.00157398940064013
1772732879272593000,9.589593017578125,0.0002072383649647236,0.00023557688109576702,0.0017551148775964975
1772732879282620700,9.59962060546875,0.0003393312217667699,-0.00043900194577872753,0.0007353906403295696
1772732879292648700,9.609648681640625,-0.0012338889064267278,0.0019418809097260237,-0.0010615997016429901
1772732879302676700,9.6196767578125,-0.0015191135462373495,-0.00018625124357640743,-0.00027942933957092464
1772732879312704800,9.629704833984375,0.001215995056554675,-0.0011608907952904701,0.0022293326910585165
1772732879322732800,9.63973291015625,-0.0010436971206218004,0.002361139515414834,-0.0006751107284799218
1772732879332760800,9.6497607421875,-0.0003466169582679868,-0.0012879918795078993,-0.0011797572951763868
1772732879342788600,9.65978857421875,-0.00249765207991004,0.0035784023348242044,0.0007108207792043686
1772732879352817000,9.66981689453125,0.0006699103978462517,-0.0003284353297203779,-0.000017610553186386824
1772732879362844700,9.6798447265625,0.0017490233294665813,0.00012456858530640602,-0.0003118898603133857
1772732879372872700,9.689872802734374,-0.002112011192366481,0.0009349735919386148,0.0006737152580171824
1772732879382901800,9.69990185546875,0.00022704311413690448,0.00005080411210656166,0.0004723801976069808
1772732879392929800,9.7099296875,0.0003055616398341954,0.003093875013291836,0.0004818126908503473
1772732879402957600,9.71995751953125,0.00136842904612422,0.0010640136897563934,0.001843220554292202
1772732879412985900,9.72998583984375,0.00012762495316565037,-0.0016368867363780737,-0.00023151939967647195
1772732879423013600,9.740013671875,0.0003380146808922291,-0.0008195627015084028,0.0007288164924830198
1772732879433042000,9.7500419921875,0.00038287288043648005,0.0008254228159785271,-0.0010032067075371742
1772732879443069700,9.760069580078126,0.001031352672725916,0.0004517813213169575,0.0007667301106266677
1772732879453097700,9.77009765625,0.0007896927418187261,0.0009007854387164116,0.0007247772882692516
1772732879463125800,9.780125732421874,0.00012709834845736623,0.00022860337048768997,-0.0008281120099127293
1772732879473153500,9.790153564453124,-0.0006374945514835417,-0.0005606980994343758,-0.001120029017329216
1772732879483181800,9.800181884765625,0.0011899665696546435,-0.0007199551910161972,-0.0004877945175394416
1772732879493209600,9.810209716796875,-0.001566662103869021,0.0009306289721280336,0.0012931490782648325
1772732879503237600,9.820237548828125,-0.000674503156915307,0.0019159989897161722,0.0029805279336869717
1772732879513265700,9.830265625,-0.0006672641029581428,-0.0013673948124051094,-0.0015575210563838482
1772732879523292700,9.840292724609375,-0.0023120325058698654,0.0011389059945940971,-0.00002513814251869917
1772732879533320700,9.85032080078125,0.0004553298931568861,0.0025479276664555073,0.0007630162290297449
1772732879543348700,9.8603486328125,-0.0017529632896184921,-0.0006268266588449478,-0.0014980074483901262
1772732879553376800,9.870376708984375,0.0017003716202452779,-0.0021115937270224094,0.001585732214152813
1772732879563404800,9.88040478515625,-0.0005766311660408974,0.002007251139730215,-0.00013919721823185682
1772732879573432600,9.8904326171875,0.0013554978650063276,-0.00010065222159028053,0.0003909484948962927
1772732879583460900,9.9004609375,-0.0004517232009675354,-0.0007661762647330761,-0.0008610035292804241
1772732879593488600,9.910488525390624,-0.00011857011122629046,-0.00021714204922318459,0.0016956262988969684
1772732879603517000,9.920516845703125,0.0008428310393355787,-0.0021370151080191135,-0.0004785784985870123
1772732879613544700,9.930544677734375,-0.0023737610317766666,-0.0020034543704241514,-0.0011586399050429463
1772732879623572500,9.940572509765625,-0.0005412399768829346,-0.0021259598433971405,0.0008054413483478129
1772732879633600800,9.950600830078125,-0.0015492229722440243,-0.000722463009878993,-0.0031531676650047302
1772732879643628500,9.960628662109375,-0.002214746782556176,0.0003446657210588455,-0.0003179663617629558
1772732879653656800,9.97065673828125,-0.001180658582597971,0.00002552778460085392,0.002732795663177967
1772732879663685000,9.98068505859375,0.00115999358240515,-0.0003369282931089401,-0.0001948171411640942
1772732879673713000,9.990712890625,-0.0014998915139585733,0.0013263227883726358,-0.001327403588220477
1772732879683741200,10.0007412109375,0.0011419643415138125,-0.00016211788170039654,0.0008262948249466717
1772732879693769000,10.01076904296875,0.0007361816242337227,0.0008164518512785435,0.0006699763471260667
1772732879703797000,10.020796875,0.0007649437757208943,-0.00029142294079065323,0.0008587944321334362
1772732879713825000,10.030824951171875,-0.0023101221304386854,0.0017751881387084723,-0.0011008074507117271
1772732879723853000,10.04085302734375,-0.002609461545944214,-0.0005263157654553652,-0.000793478568084538
1772732879733881000,10.050881103515625,0.0006553902640007436,-0.001099524088203907,0.0005692583508789539
1772732879743909000,10.0609091796875,-0.0007214639917947352,0.001608111895620823,-0.0005260997568257153
1772732879753937000,10.07093701171875,-0.0030569895170629025,0.000834404956549406,-0.0007920655189082026
1772732879763964000,10.0809638671875,0.0003238935023546219,-0.00041674799285829067,-0.0000035035191103816032
1772732879773992000,10.090991943359375,-0.0007108161807991564,-0.0009604378137737513,-0.0006765345460735261
1772732879784020000,10.10102001953125,-0.000007741677109152079,-0.003196694189682603,0.0006105711217969656
1772732879794048000,10.111048095703126,-0.0001766715431585908,-0.00037421961314976215,0.0008527150494046509
1772732879804076000,10.121075927734376,0.00015862041618674994,0.0007102193776518106,0.00002846668940037489
1772732879814104000,10.13110400390625,0.0004935029428452253,-0.00012917490676045418,0.001794786425307393
1772732879824131800,10.1411318359375,0.0026360161136835814,-0.00258647371083498,0.0009452381054870784
1772732879834160000,10.15116015625,0.0018616344314068556,-0.0017194554675370455,0.0036779590882360935
1772732879844188000,10.16118798828125,-0.0013165819691494107,0.000950097106397152,0.00028748868498951197
1772732879854216200,10.17121630859375,-0.0007730111246928573,-0.0009620091877877712,0.0020314163994044065
1772732879864244000,10.181243896484375,0.0014432715252041817,-0.0007481575012207031,0.001198912039399147
1772732879874272000,10.19127197265625,-0.00043657547212205827,0.0003812073264271021,-0.0008774730376899242
1772732879884300000,10.201300048828125,-0.001927945646457374,0.0007473921868950129,-0.0015296811470761895
1772732879894328000,10.211328125,-0.0010297856060788035,-0.002149930689483881,-0.001219593221321702
1772732879904356000,10.221356201171876,-0.000763469550292939,0.0009595758747309446,-0.0010374330449849367
1772732879914384100,10.231384033203126,-0.0013592049945145845,0.0010466102976351976,-0.0012551529798656702
1772732879924412000,10.241411865234374,-0.00039860280230641365,0.0012924203183501959,0.0006173155270516872
1772732879934440200,10.251440185546874,0.000048636109568178654,-0.0004268740303814411,-0.0009832759387791157
1772732879944468000,10.261468017578125,-0.0006895921542309225,0.002736162394285202,-0.0025753136724233627
1772732879954496300,10.271496337890625,0.00019172276370227337,0.000014164019376039505,0.00022075895685702562
1772732879964524000,10.28152392578125,0.00012647529365494847,0.001851478824391961,0.00176219642162323
1772732879974552000,10.291552001953125,0.0001843359787017107,0.0007607056759297848,-0.0005293745780363679
1772732879984580000,10.301580078125,0.0018466809997335076,-0.004260418005287647,-0.0011035521747544408
1772732879994607900,10.31160791015625,-0.001207328517921269,-0.0006861616857349873,-0.0009153151186183095
1772732880004635100,10.32163525390625,0.00008616881677880883,-0.0014720605686306953,-0.0017542107962071896
1772732880014663000,10.331662841796875,-0.0003747489536181092,-0.002296112012118101,-0.0018299457151442766
1772732880024691200,10.341691162109376,0.00012459373101592064,-0.001689177704975009,0.0016521373763680458
1772732880034719000,10.351718994140626,0.0013665055157616735,0.0006846252363175154,0.002650043461471796
1772732880044747000,10.3617470703125,-0.0012215543538331985,0.0008590624202042818,-0.0009795788209885359
1772732880054775000,10.371775146484374,0.0004379524034447968,0.0018381043337285519,-0.0003125143994111568
1772732880064803000,10.381802978515625,-0.0008012165199033916,-0.001959829591214657,0.00188406091183424
1772732880074831000,10.3918310546875,-0.0012993754353374243,0.0013406332582235336,0.00029499351512640715
1772732880084859100,10.401859130859375,0.0014431478921324015,0.0018122787587344646,0.00019086396787315607
1772732880094887000,10.411886962890625,-0.0002138793934136629,0.00037906249053776264,0.000460811541415751
1772732880104915200,10.421915283203125,-0.0025297643151134253,-0.0009131031110882759,-0.0009770290926098824
1772732880114943000,10.43194287109375,-0.0012747194850817323,-0.004139900207519531,0.002433892572298646
1772732880124971300,10.44197119140625,0.0007138628861866891,-0.003160922322422266,-0.0013552529271692038
1772732880134999000,10.4519990234375,0.0007233354263007641,-0.0002566536422818899,-0.00031032870174385607
1772732880145026800,10.46202685546875,0.0009856568649411201,0.0001252435613423586,-0.0008983546867966652
1772732880155055000,10.47205517578125,-0.0008971410570666194,-0.0020894226618111134,0.0015601236373186111
1772732880165083000,10.482082763671874,0.0002693234710022807,0.0013742849696427584,-0.0008063612040132284
1772732880175111200,10.492111083984375,-0.0007045664824545383,0.0009264757391065359,-0.0015117016155272722
1772732880185139000,10.502138916015625,-0.0016579781658947468,0.003047683509066701,0.0003056395798921585
1772732880195167000,10.5121669921875,0.0013245277805253863,-0.0019354630494490266,0.002258647931739688
1772732880205195000,10.522195068359375,-0.00023555185180157423,-0.0008062827400863171,0.000693241658154875
1772732880215223000,10.53222314453125,-0.0008990751812234521,-0.0004065919201821089,0.0012592860730364919
1772732880225251000,10.5422509765625,-0.0006615212187170982,0.00045280996710062027,-0.00042809286969713867
1772732880235279000,10.552279052734375,-0.0012676517944782972,0.0001709244679659605,-0.0008651561802253127
1772732880245307000,10.562306884765626,-0.00018108211224898696,-0.002184108830988407,0.002049673581495881
1772732880255334100,10.572334228515626,0.0007873036665841937,0.00014476384967565536,0.0013310544891282916
1772732880265362000,10.58236181640625,-0.0021144766360521317,0.002808190882205963,-0.003092456143349409
1772732880275390200,10.59239013671875,0.0006571321282535791,-0.0015561389736831188,-0.002222406445071101
1772732880285418000,10.60241796875,0.0021602201741188765,-0.0007867517415434122,0.0003765724250115454
1772732880295446300,10.6124462890625,0.0010528427083045244,0.0015740662347525358,-0.0014352864818647504
1772732880305474000,10.62247412109375,0.0015820127446204424,0.0009298475924879313,0.000943182734772563
1772732880315501800,10.632501708984375,0.00166704086586833,-0.00196452415548265,-0.00017284881323575974
1772732880325530000,10.642530029296875,-0.001393197337165475,0.002470704261213541,-0.0012197374599054456
1772732880335558000,10.652557861328125,0.0009334437781944871,0.0004838285967707634,-0.00009860243881121278
1772732880345586200,10.662586181640625,0.003504193155094981,-0.00034627877175807953,0.001753892400301993
1772732880355614000,10.672614013671875,0.0019850628450512886,-0.0006899754516780376,-0.0004659850092139095
1772732880365642000,10.68264208984375,0.001795712043531239,-0.0014495088253170252,0.0004224454751238227
1772732880375670000,10.692669921875,0.00037921476177871227,-0.000228984747081995,-0.0002388626744505018
1772732880385698000,10.702697998046874,-0.001165418652817607,0.00018194084987044334,0.00022479367908090353
1772732880395726000,10.71272607421875,0.0026152266655117273,0.0012375609949231148,-0.00014680245658382773
1772732880405754000,10.722754150390625,0.0016825876664370298,0.0005829562433063984,0.0013328498462215066
1772732880415782000,10.732781982421875,-0.00020968812168575823,0.000018854625523090363,0.001610673381946981
1772732880425810200,10.74281005859375,0.0004917884944006801,-0.0018094053957611322,0.0018527548527345061
1772732880435838000,10.752837890625,0.0009195595048367977,0.0001325155608355999,-0.0010973754106089473
1772732880445866000,10.762865966796875,0.002953149378299713,-0.00009065726771950722,0.0005431318422779441
1772732880455894000,10.77289404296875,-0.0008351457072421908,0.000015757745131850243,0.0005727317766286433
1772732880465922000,10.782922119140625,-0.0008825499680824578,0.001245605293661356,-0.00021849339827895164
1772732880475950000,10.7929501953125,0.00032257213024422526,-0.002027085516601801,-0.0014081463450565934
1772732880485976800,10.802976806640626,0.0028579013887792826,0.0008944019209593534,0.002540522487834096
1772732880496005000,10.813005126953126,0.00009315251372754574,-0.0006764072459191084,-0.00033752070157788694
1772732880506033000,10.823032958984374,-0.0021276576444506645,-0.0002473718486726284,-0.0005348609411157668
1772732880516061200,10.833061279296874,0.00005270459223538637,-0.00014830310828983784,-0.0005101687274873257
1772732880526089000,10.8430888671875,-0.00004370184615254402,0.0005795387551188469,0.0011646932689473033
1772732880536117000,10.853116943359375,0.0006198856863193214,-0.001996242441236973,-0.00029731064569205046
1772732880546145000,10.86314501953125,0.0009040450095199049,0.0008179198484867811,0.0004787344951182604
1772732880556173000,10.873173095703125,-0.0004547451972030103,-0.0006136361043900251,-0.001851901994086802
1772732880566201000,10.883201171875,0.0016723216976970434,-0.002648291178047657,0.0014831745065748692
1772732880576229000,10.89322900390625,-0.0026337807066738605,0.0003330819308757782,0.0015992842381820083
1772732880586257000,10.9032568359375,0.0009923791512846947,0.0009530656971037388,0.00008341297507286072
1772732880596285200,10.91328515625,-0.0014328744728118181,-0.0006292143370956182,-0.0009015644318424165
1772732880606313000,10.92331298828125,-0.0010927887633442879,-0.0007684975862503052,0.00032961496617645025
1772732880616341000,10.933341064453124,0.0007610071916133165,-0.0023306761868298054,0.0018252343870699406
1772732880626369000,10.943369140625,-0.0004078541533090174,0.0007756352424621582,0.0010846091900020838
1772732880636397000,10.95339697265625,-0.00023957705707289279,0.00039967033080756664,-0.0011713814456015825
1772732880646425000,10.963425048828125,-0.0008529030601494014,-0.00023922184482216835,-0.0003671068116091192
1772732880656453000,10.973453125,0.0005157875129953027,0.002240542322397232,-0.0020775876473635435
1772732880666481000,10.98348095703125,0.0009144627256318927,-0.000021813204512000084,-0.00041870458517223597
1772732880676509000,10.993509033203125,0.0008367825066670775,-0.0004345166962593794,0.0008641249150969088
1772732880686537000,11.003536865234375,0.0003440976142883301,-0.0006638148333877325,-0.00003842043224722147
1772732880696565000,11.01356494140625,-0.000880455831065774,-0.0003997266758233309,-0.0012398047838360071
1772732880706592800,11.0235927734375,0.0000010504736565053463,0.00046500167809426785,-0.0010358066065236926
1772732880716620800,11.033620849609376,0.000405425438657403,-0.0005862598773092031,-0.0010649748146533966
1772732880726647800,11.043647705078126,-0.0006840737769380212,-0.001151116332039237,0.0011361278593540192
1772732880736676000,11.053676025390626,0.0003909391234628856,-0.0022058479953557253,0.00019988056737929583
1772732880746704000,11.063703857421874,0.0006428742199204862,-0.0009847886394709349,-0.0012195842573419213
1772732880756732000,11.07373193359375,0.00020809861598536372,0.0004976263735443354,-0.002764006843790412
1772732880766760000,11.083760009765625,0.0002760092029348016,0.0007887098472565413,0.0016043763607740402
1772732880776788000,11.0937880859375,0.001974615268409252,0.00004613748751580715,0.0005780896171927452
1772732880786816000,11.10381591796875,0.00015301309758797288,0.0009409596677869558,0.0007650435436517
1772732880796844000,11.113843994140625,0.0019385882187634706,-0.00025930022820830345,0.0019026696681976318
1772732880806871800,11.123871826171875,0.0013079517520964146,-0.0006784817669540644,0.0005907964077778161
1772732880816900000,11.133900146484375,-0.0022683581337332726,-0.0006568059325218201,0.0008031897596083581
1772732880826927900,11.143927978515626,-0.0008124079904519022,0.0016295178793370724,0.0018729816656559706
1772732880836956000,11.153955810546876,-0.00008089758921414614,-0.0005798323545604944,-0.0007078148773871362
1772732880846984000,11.16398388671875,-0.0019086250104010105,-0.00011750753037631512,0.00041923485696315765
1772732880857012000,11.174011962890624,0.002747961087152362,-0.00015881727449595928,-0.0020165492314845324
1772732880867040000,11.1840400390625,-0.002086741616949439,0.0018201775383204222,0.0014996223617345095
1772732880877067800,11.19406787109375,0.0017071173060685396,-0.0011133363004773855,0.00030576466815546155
1772732880887095800,11.204095703125,0.0027111289091408253,0.0003577936440706253,0.0008850021404214203
1772732880897123800,11.214123779296875,0.00009938149014487863,-0.00013668532483279705,-0.000420901837060228
1772732880907152000,11.22415185546875,-0.002258314983919263,-0.0011883676052093506,-0.0005588536150753498
1772732880917180000,11.234179931640625,-0.0003406536125112325,-0.000060170888900756836,-0.00007251993520185351
1772732880927208000,11.2442080078125,-0.0011595756513997912,-0.00217072619125247,-0.002025948604568839
1772732880937235700,11.254235595703125,0.0029325177893042564,-0.0015818332321941853,0.0019003789639100432
1772732880947264000,11.264263916015626,0.0007862763595767319,-0.00009525683708488941,-0.0021087436471134424
1772732880957291800,11.274291748046876,-0.00006888492498546839,0.0004509999416768551,-0.0011769693810492754
1772732880967320000,11.284320068359374,-0.0011812872253358364,-0.001575932139530778,-0.0022805833723396063
1772732880977346800,11.294346923828124,0.00003237539203837514,-0.001395342405885458,0.0007396760629490018
1772732880987375000,11.304375,-0.0020973545033484697,0.000731191597878933,0.0002837429055944085
1772732880997403000,11.31440283203125,0.0002855418133549392,-0.0019539548084139824,-0.0003102814662270248
1772732881007431000,11.324430908203125,-0.000979193369857967,0.0004484828095883131,-0.0008248041849583387
1772732881017459000,11.334458984375,0.000007093127351254225,0.0002928297035396099,0.000038621132262051105
1772732881027486700,11.34448681640625,0.000300839776173234,0.0012236041948199272,-0.0019038885366171598
1772732881037515000,11.354514892578125,-0.000011021154932677746,-0.0006520999595522881,-0.0004859059117734432
1772732881047542800,11.364542724609375,-0.00028452780679799616,0.0007111721206456423,-0.00027977724676020443
1772732881057570800,11.37457080078125,0.0006917744176462293,-0.002266152761876583,0.000506119686178863
1772732881067598800,11.384598876953126,-0.00044379744213074446,0.00011977297253906727,-0.00029336128500290215
1772732881077627000,11.394626953125,0.00005051016341894865,-0.0021212012507021427,0.0004023879300802946
1772732881087655000,11.404655029296874,-0.0005489673931151628,-0.0003965382929891348,0.0015890924260020256
1772732881097683000,11.414682861328124,-0.00043171015568077564,-0.0018722242675721645,0.0017927070148289204
1772732881107710700,11.424710693359375,-0.001188580528832972,-0.0006026953924447298,-0.0009311741450801492
1772732881117739000,11.434739013671875,-0.000939304125495255,-0.00035786908119916916,0.0003618191694840789
1772732881127766800,11.444766845703125,0.00048601964954286814,0.001374517334625125,0.0005040320102125406
1772732881137795000,11.454795166015625,-0.0003472378884907812,0.00039046118035912514,-0.000039458973333239555
1772732881147822800,11.46482275390625,0.0003134923754259944,0.0019361595623195171,-0.000330808776197955
1772732881157851000,11.474850830078125,-0.00007173354970291257,-0.001008485909551382,-0.00008679606253281236
1772732881167879000,11.48487890625,0.0009373382199555635,0.0008173773530870676,0.0011747432872653008
1772732881177907000,11.494906982421876,0.0005381745868362486,0.0005479974206537008,-0.002296909922733903
1772732881187935000,11.50493505859375,0.0011421795934438705,-0.0004323120228946209,0.002591056050732732
1772732881197963000,11.514962890625,0.0006462763994932175,-0.0015447568148374557,0.00018846889724954963
1772732881207990800,11.52499072265625,-0.0004709196509793401,-0.0009604592341929674,0.0005602461169473827
1772732881218017800,11.535017822265624,0.0019904172513633966,0.0019671842455863953,0.00002094474621117115
1772732881228045800,11.5450458984375,-0.000019204162526875734,-0.0012275436893105507,-0.00009623431833460927
1772732881238073900,11.555073974609375,0.000843085115775466,-0.0007930216379463673,0.0003238547360524535
1772732881248102000,11.565101806640625,-0.0011122077703475952,0.0006112630944699049,-0.002304685302078724
