time,seconds_elapsed,z,y,x
1772639544224350700,0.057350830078125,0.2806342199355364,-0.14515790106244383,0.09730345927998423
1772639544234395600,0.067395751953125,0.22357611567378044,-0.12113836224526166,0.08881320576705037
1772639544244440800,0.07744091796875,0.14389818332493304,-0.09315174642801284,0.06255187937244773
1772639544254485000,0.087485107421875,0.09470657465457916,-0.053706601876765486,0.023919585574045776
1772639544264529700,0.09752978515625,0.06480886451900005,-0.03631283787488937,0.018619068013131616
1772639544274574800,0.107574951171875,0.02168108593225479,-0.028093802518770097,0.022407244782336053
1772639544284619800,0.117619873046875,0.020039163944125173,-0.021844752061367035,0.03316467604227364
1772639544294665000,0.1276650390625,0.041433249628543854,-0.004309826023131609,-0.0003165551358833909
1772639544304709600,0.137709716796875,0.05527998867332935,-0.026191914420202373,-0.07161635257676244
1772639544314754800,0.1477548828125,0.11483984662294387,-0.03380677333809435,-0.09150799780897796
1772639544324799700,0.1577998046875,0.1994873840779066,-0.037611499383300544,-0.0871464781312272
1772639544334845000,0.167844970703125,0.25082360356152056,-0.059798050619661806,-0.040702414603345095
1772639544344889900,0.177889892578125,0.2463637015432119,-0.0734212831068784,-0.010447196266986428
1772639544354933800,0.187933837890625,0.22220190471112727,-0.055161403794959186,0.00043652825374156237
1772639544364978700,0.197978759765625,0.21895663917958735,-0.0609193097345531,0.020647285905107855
1772639544375023900,0.20802392578125,0.18445640368461608,-0.06472805436775088,0.014264854859001934
1772639544385068800,0.21806884765625,0.20704116045832632,-0.07058145657107233,0.00888666895199567
1772639544395113700,0.22811376953125,0.17272504935860633,-0.07974339880049228,0.008296338376030325
1772639544405158700,0.23815869140625,0.11841770510971546,-0.07694090860038995,-0.010978526664711535
1772639544415203800,0.248203857421875,0.058471478191018104,-0.08650229847617447,-0.036909086734987794
1772639544425248800,0.258248779296875,0.07256079382002353,-0.0917789967700839,-0.01548288887925446
1772639544435293700,0.268293701171875,0.06288461845815181,-0.11117036432996391,0.019212321198545396
1772639544445338600,0.278338623046875,0.038131285473704334,-0.11239333025366068,0.024085187931917607
1772639544455383800,0.2883837890625,0.032304186755418775,-0.09918372006863355,0.008875270775146781
1772639544465428000,0.298427978515625,0.03267068198025226,-0.12202917360514402,0.0003442103277891874
1772639544475472600,0.30847265625,-0.0013233575582504273,-0.12367109559327363,0.010736096210964023
1772639544485517800,0.318517822265625,-0.000879120922088623,-0.10279343499839305,0.009758191089518368
1772639544495562800,0.328562744140625,0.006616787791252136,-0.09598390111401676,0.006216426829434931
1772639544505608000,0.33860791015625,0.016937106275558472,-0.08128449076265096,-0.01127824026364833
1772639544515652600,0.348652587890625,0.06002046119868755,-0.06473053858578205,0.00528243391495198
1772639544525697800,0.35869775390625,0.10008008438646793,-0.08060374195687472,0.02601312378719449
1772639544535742700,0.36874267578125,0.09115092799961566,-0.07493168766982852,0.03727357266582548
1772639544545788000,0.378787841796875,0.12318506564199924,-0.089485771266371,0.05196837990731001
1772639544555832800,0.388832763671875,0.09264321238398551,-0.1055008673261851,0.02159022931102663
1772639544565877800,0.398877685546875,0.05071721080243587,-0.0923022169265896,-0.0027955124700441954
1772639544575921700,0.408921630859375,0.079285133638978,-0.059917804541811344,0.016168898382037878
1772639544585966800,0.418966796875,0.0707803401440382,-0.03410429497994482,0.009603183190897107
1772639544596011800,0.42901171875,0.07233926002383231,-0.036739319658651945,-0.006639620677568018
1772639544606056700,0.439056640625,0.08336275834143161,-0.03802146842367947,0.0025875688077881933
1772639544616101600,0.4491015625,0.11115618967413901,-0.04004179527014494,-0.0048471477702260015
1772639544626146800,0.459146728515625,0.11634148335754871,-0.046928778304904696,-0.02411119915600866
1772639544636191700,0.469191650390625,0.12701076140999792,-0.05738083341009915,-0.04541271118614822
1772639544646236700,0.479236572265625,0.12936755366921424,-0.05283339923880994,-0.051823637674376366
1772639544656281600,0.489281494140625,0.10082768788337707,-0.05890592408552765,-0.059995765148848294
1772639544666326800,0.499326904296875,0.06839958248734473,-0.071211059711501,-0.048843379754573105
1772639544676371700,0.509371826171875,0.07762450695037841,-0.06730185037851333,-0.024838161723688242
1772639544686415600,0.51941552734375,0.058765492701530454,-0.06803652132861315,-0.010966653563827276
1772639544696460800,0.529460693359375,0.061955228653550146,-0.07618066481761634,-0.013390848503448068
1772639544706505700,0.539505615234375,0.07102759290337562,-0.09065218469724058,-0.035951968673244114
1772639544716551000,0.549551025390625,0.07919102561473845,-0.08605462777391075,-0.02865260544531047
1772639544726595800,0.559595947265625,0.09648352119922637,-0.0690805504888296,-0.027704255211912093
1772639544736640800,0.569640869140625,0.09532441429197788,-0.06835260154046117,-0.03647854983061552
1772639544746685700,0.579685791015625,0.06510054094195365,-0.05274338286779821,-0.012187062204256653
1772639544756731000,0.58973095703125,0.08325169918239116,-0.03483129408024251,-0.008627762287482618
1772639544766775800,0.59977587890625,0.10726970362961291,-0.023767829078435897,0.024569427784904837
1772639544776820700,0.60982080078125,0.10735212121605872,-0.023490911833196876,0.006367562270537018
1772639544786865700,0.61986572265625,0.10803250469565391,-0.02455386488959193,-0.030117490366101264
1772639544796910800,0.629910888671875,0.1109299797028303,-0.009267375365272165,-0.03296297945771366
1772639544806954800,0.639954833984375,0.10781564707458019,-0.013907163995131849,-0.00646755204629153
1772639544816999700,0.649999755859375,0.10125438886284828,-0.003919219270348549,0.0024526538491249084
1772639544827044600,0.660044677734375,0.09170914640426635,-0.0006111907009035348,0.002388539104349911
1772639544837089800,0.67008984375,0.09759177470207214,-0.0033113895703107115,-0.001728869619220495
1772639544847134700,0.680134765625,0.11203472607433795,-0.0032171354155987497,-0.017379735476523637
1772639544857180000,0.690179931640625,0.053256373891234395,-0.03211355955414474,-0.015912366337701676
1772639544867224600,0.700224609375,0.025264205116033552,-0.03949395212903618,-0.03811513805650174
1772639544877269800,0.710269775390625,0.02676876446008682,-0.025885259623825548,-0.08644746301639825
1772639544887314700,0.720314697265625,0.04061258089542389,-0.031785935034975406,-0.05475687811467796
1772639544897360000,0.73035986328125,0.024003975921869276,-0.049389323199540376,-0.020427688337676227
1772639544907404500,0.740404541015625,0.021192425632476804,-0.05052241888269782,-0.025510434962064028
1772639544917448700,0.75044873046875,0.027518121522665022,-0.05646664117462933,-0.05245057393368333
1772639544927494000,0.760493896484375,0.054776130804419516,-0.05518770727999508,-0.03879256239403039
1772639544937538800,0.770538818359375,0.08486088794469833,-0.07126461652964353,-0.01971212394684553
1772639544947583700,0.780583740234375,0.07944996881186962,-0.07955635179579257,-0.03035732700396329
1772639544957628700,0.790628662109375,0.05213292281925678,-0.08046236072480678,-0.022141396920382975
1772639544967673900,0.800673828125,0.04470949482023716,-0.06711816437467932,-0.004527304698713123
1772639544977718800,0.81071875,0.033411855736374854,-0.054588280082121486,0.009675590839982031
1772639544987764000,0.820763916015625,-0.0058066404521465295,-0.05391629910469055,0.008871982839517295
1772639544997808600,0.83080859375,-0.011736030501127242,-0.04540113034620881,0.0003901683613657951
1772639545007853800,0.840853759765625,0.026394670450687406,-0.026786811573430894,-0.012832849294506012
1772639545017898800,0.850898681640625,0.06666413699686527,-0.02813135805018246,-0.012030666066147387
1772639545027942700,0.860942626953125,0.09152326844334602,-0.0291894888009876,-0.022384046569839118
1772639545037987600,0.870987548828125,0.16350363202691076,-0.012689751029387115,0.017631335617415606
1772639545048032800,0.88103271484375,0.17513269502222537,-0.02544504157565534,0.010811791795678436
1772639545058077700,0.89107763671875,0.15447510691881178,-0.039068420193344354,0.015722250593081116
1772639545068123000,0.901122802734375,0.10287234545350074,-0.02504033323228359,0.020572284440137444
1772639545078167600,0.91116748046875,0.057683542683720584,-0.03873714241236448,0.005849858539365232
1772639545088212700,0.921212646484375,0.02289747598469257,-0.0470044008243829,0.03960877414774149
1772639545098257700,0.931257568359375,0.028357494956254958,-0.0286116158477962,0.05843947561755776
1772639545108303400,0.941303466796875,0.04814122283458709,-0.027167481454089284,0.06327043943796307
1772639545118348000,0.95134814453125,0.0276847102612257,-0.03434014956243336,0.012035671034827828
1772639545128393200,0.961393310546875,-0.016715572479367256,-0.03311871800869703,-0.008813859444111585
1772639545138437400,0.971437255859375,0.016385902133584023,-0.02963781709037721,0.0036083997555077076
1772639545148482000,0.98148193359375,0.055337856340408324,-0.0412432069491595,0.015735731129162014
1772639545158527200,0.99152734375,0.09368190778195858,-0.04520853038355708,0.018725925921089945
1772639545168572200,1.001572265625,0.13068331244289874,-0.05098536021932959,0.01753583935368806
1772639545178617300,1.011617431640625,0.1648264050632715,-0.0737676123265177,0.021182306097261606
1772639545188662300,1.021662353515625,0.19431845700740813,-0.06073810794875025,0.0006283610314130782
1772639545198707200,1.031707275390625,0.1884112787902355,-0.05743935866430402,-0.00817424636632204
1772639545208752000,1.041752197265625,0.15789339092969892,-0.05618183288387954,-0.008165734266303478
1772639545218797300,1.05179736328125,0.14707330622971057,-0.04207242431491613,-0.02429495822507888
1772639545228842200,1.06184228515625,0.1366851832062006,-0.0381283628642559,-0.018468663224391637
1772639545238887400,1.071887451171875,0.11716799730956554,-0.019935995830595493,-0.0017221841501072047
1772639545248932000,1.08193212890625,0.08329436928033829,-0.017100772404670714,-0.028003274691104887
1772639545258976300,1.091976318359375,0.06049801558256149,0.000363791811093688,-0.0311769728237763
1772639545269021200,1.102021240234375,0.07108662961423397,-0.004440831991657615,-0.03357672744188458
1772639545279066000,1.112066162109375,0.057301849889755244,0.005040843711420893,-0.0295621580382809
1772639545289111000,1.122111083984375,0.039357027876377106,0.009418766534700989,-0.0323164982477203
1772639545299156200,1.13215625,0.04433773889839649,-0.01098221645914018,-0.028705906535126266
1772639545309201200,1.142201171875,0.04636193820238113,-0.011150193437188862,-0.02071165637820959
1772639545319246300,1.152246337890625,0.05604337426126003,-0.031543431515991684,-0.04448200620729476
1772639545329291000,1.162291015625,0.016664719074964522,-0.04953318864963949,-0.06308353856373577
1772639545339336200,1.172336181640625,0.007236380994319915,-0.049383185719698665,-0.06524835191480816
1772639545349381000,1.182381103515625,0.03283493263125419,-0.04717975739128887,-0.0332879736283794
1772639545359426300,1.19242626953125,0.054229018315672874,-0.04676430845819413,-0.015055712975747882
1772639545369470200,1.20247021484375,0.04626140043735504,-0.062113561020419,-0.013742438420094549
1772639545379515100,1.21251513671875,0.036762919729948045,-0.06506532349810004,-0.017964549627155064
1772639545389560300,1.222560302734375,0.037131753042340274,-0.05228182977065444,0.03850457576550543
1772639545399605200,1.232605224609375,0.05607435392141342,-0.05696297332420945,0.03780570678114891
1772639545409650200,1.242650146484375,0.07414426361918448,-0.05188705829940736,0.01281582509446889
1772639545419695000,1.252695068359375,0.0886351457864046,-0.056462622586637735,-0.003235072931088507
1772639545429740300,1.262740234375,0.12094459323883056,-0.047383536335080856,-0.023674853565357624
1772639545439785200,1.27278515625,0.16807167059481143,-0.058579980066791174,0.013499934901110826
1772639545449830400,1.282830322265625,0.17806991751790047,-0.059793666705489155,0.02139580271746963
1772639545459875000,1.292875,0.18502338991761205,-0.05003974993228912,0.029760858948156235
1772639545469920300,1.302920166015625,0.18101181618869303,-0.03811579564362764,0.029857816516607998
1772639545479964200,1.312964111328125,0.1608230146408081,-0.04225486820973456,0.022258447428792714
1772639545490009300,1.32300927734375,0.1491419291973114,-0.029701456911116836,0.020589637433737516
1772639545500054000,1.333053955078125,0.16543430782854557,-0.024994375198706984,0.023242343899607658
1772639545510099200,1.34309912109375,0.15774784497916697,-0.025989596781134605,0.021516579552926123
1772639545520144100,1.35314404296875,0.12833528801202773,-0.009715192198008298,0.00929758784044534
1772639545530189300,1.363189208984375,0.09801789115965366,-0.0004319616764783859,0.005899542899988591
1772639545540234000,1.37323388671875,0.11068389598727225,0.012145926476269959,-0.018683000094816087
1772639545550279200,1.383279052734375,0.10976561209857463,0.02332330018132925,-0.02598963331375271
1772639545560324000,1.393323974609375,0.11499649848937987,-0.00518346705250442,-0.02169986369796097
1772639545570369300,1.403369384765625,0.11302665972113608,-0.0038406741414219138,-0.0062334875620901585
1772639545580414200,1.413414306640625,0.12449147206544875,-0.0012839023306965827,-0.00769040837213397
1772639545590458000,1.4234580078125,0.1365536657810211,-0.014685527956485747,0.003471365904994309
1772639545600503300,1.43350341796875,0.1569967343509197,-0.03815203600078821,0.015527276010252535
1772639545610548200,1.44354833984375,0.14866788194477557,-0.04841339083947241,0.006041727849654853
1772639545620593400,1.453593505859375,0.1260802025616169,-0.045675198047235605,-0.004565883143432438
1772639545630638000,1.46363818359375,0.07053893260359764,-0.049150692138075824,-0.01400357357431203
1772639545640683300,1.473683349609375,0.02295125199854374,-0.041305677726119754,-0.02159366337712854
1772639545650728200,1.483728271484375,0.014344751694798468,-0.031815161129459736,0.005339497864432633
1772639545660773400,1.4937734375,-0.007024199548363685,-0.03521963581070304,0.02058934517279267
1772639545670818000,1.503818115234375,0.0023719898283481597,-0.040264132783934474,0.03440473923124373
1772639545680863200,1.51386328125,0.012394202148914336,-0.04551810778938233,0.03509655742030591
1772639545690908200,1.523908203125,-0.004390343913435936,-0.06582132949717343,0.012899375192075967
1772639545700952300,1.533952392578125,0.003619359540939331,-0.08621127964034676,-0.01442037421427667
1772639545710997000,1.5439970703125,0.019089315873384475,-0.08374233224354684,-0.01781187981609255
1772639545721042200,1.554042236328125,0.023771920731663704,-0.07727562044747173,-0.02650890794750303
1772639545731087000,1.564087158203125,-0.007751344779133796,-0.0769075177874416,-0.027618111298419533
1772639545741132300,1.57413232421875,-0.004075286614894867,-0.05931377423405647,-0.023696517407894132
1772639545751177000,1.584177001953125,0.004447627058625221,-0.06387319110408425,-0.018390008497610688
1772639545761222100,1.59422216796875,0.013929156631231307,-0.06012538287788629,0.004469254368543624
1772639545771267000,1.60426708984375,0.034227848294377326,-0.05334156795665621,-0.029549481219798324
1772639545781312300,1.614312255859375,0.06308160233497619,-0.03569412145465612,-0.047681752096675335
1772639545791357200,1.624357177734375,0.1254524260520935,-0.034886458333581685,-0.038018618879467246
1772639545801402000,1.634402099609375,0.18270225349366664,-0.02956255989708006,-0.0236105561574921
1772639545811446300,1.6444462890625,0.22058920881748198,-0.03079999273754656,-0.007577486049570143
1772639545821491200,1.6544912109375,0.24192542683482168,-0.026940175504237412,-0.015552373918890952
1772639545831536400,1.664536376953125,0.23112229326963424,-0.0101432083517313,-0.020530966049060226
1772639545841581000,1.6745810546875,0.21975743416845797,-0.0046883039467036725,-0.025163046296499667
1772639545851626200,1.684626220703125,0.18277531872987746,-0.01205634849667549,-0.004605265305750072
1772639545861671200,1.694671142578125,0.12083704121112823,0.003551189675554633,-0.00024915245547890664
1772639545871716400,1.70471630859375,0.06437339571118354,0.012169526547566055,0.014991707828827201
1772639545881761000,1.714760986328125,0.03512859652638435,0.005666720524802804,0.0307043868759647
1772639545891806200,1.72480615234375,0.0339718277066946,-0.007407572842761874,0.05036737445145845
1772639545901851100,1.73485107421875,0.0575567014336586,-0.00913834215812385,0.03793210963979363
1772639545911896300,1.744896240234375,0.04822890111804008,-0.03652648062556982,0.002777976813353598
1772639545921941200,1.754941162109375,0.06316577348709106,-0.0344930020365864,-0.01598035353999585
1772639545931985200,1.764985107421875,0.09565466915965079,-0.027572555123642085,0.02479640494119376
1772639545942030000,1.775030029296875,0.12348960154652595,-0.046420463456586,0.045333618067950006
1772639545952075300,1.7850751953125,0.07806348288953303,-0.07098726089298725,0.030221023805812
1772639545962120200,1.7951201171875,0.015148469293117523,-0.05773987598083913,-0.006861519799940288
1772639545972165000,1.8051650390625,0.0006242693781852722,-0.06185227973572909,-0.046226036863029
1772639545982210000,1.8152099609375,0.016326865422725677,-0.05351517095789313,-0.06255567876473069
1772639545992255200,1.825255126953125,0.04376958362162113,-0.05575410899110138,-0.04072312859781086
1772639546002300200,1.835300048828125,0.055576341271400445,-0.03230966664813459,-0.00046009179241955276
1772639546012345000,1.845344970703125,0.09046879095435142,-0.018804726778343318,0.030443142123892902
1772639546022390000,1.85539013671875,0.13787643881738185,-0.031337387549877166,0.010540646704100072
1772639546032435200,1.865435302734375,0.19827917733192443,-0.0613419921260327,-0.032664800228737294
1772639546042479400,1.875479248046875,0.1681511655718088,-0.045284518229216336,-0.004779854687675833
1772639546052524000,1.88552392578125,0.14742811101675032,-0.028884003048390148,0.00013769143763929604
1772639546062569200,1.8955693359375,0.12739654585719107,-0.0362616922095418,0.01684098895732313
1772639546072614100,1.9056142578125,0.10582067386507987,-0.03507299388162791,0.04628602342195809
1772639546082659300,1.915659423828125,0.07084639111757278,-0.02003083450719714,0.04309486269783228
1772639546092704300,1.925704345703125,0.050907180416584014,-0.02595021461881697,0.04761500700339675
1772639546102749200,1.935749267578125,0.06690729810297488,-0.017055910349637268,0.0329328765803948
1772639546112793000,1.94579296875,0.08918459636270999,-0.01654832615368068,0.00976462083030492
1772639546122838000,1.955838134765625,0.09928922626972198,-0.03867525615729391,-0.005022467804513871
1772639546132883000,1.965883056640625,0.11394728169739246,-0.03282251154109835,-0.007893858522363007
1772639546142928100,1.97592822265625,0.13722060525715352,-0.04183430471010506,-0.011830101992748678
1772639546152972000,1.985971923828125,0.14175941773056983,-0.04478161020837724,-0.005522708944231272
1772639546163017000,1.996016845703125,0.1343318980783224,-0.038853900659829375,0.015872436186112462
1772639546173062100,2.006062255859375,0.141725515460968,-0.02452186231613159,0.026184388700872658
1772639546183107000,2.016107177734375,0.14208148929178713,-0.02238243913464248,0.030369090506993233
1772639546193152000,2.026152099609375,0.11401391719281673,-0.012198533446341753,-0.0020790347637608645
1772639546203197000,2.036197021484375,0.13052899866402148,-0.014995616818964481,-0.013280227735824882
1772639546213242000,2.0462421875,0.11904197448790073,-0.004970481888949871,-0.022610841063037512
1772639546223287000,2.056287109375,0.08395078736245631,0.012107348031550644,-0.026015644537843764
1772639546233332000,2.06633203125,0.11362930178940296,-0.02121573344282806,-0.030224092545732856
1772639546243377000,2.076376953125,0.07698387095928191,-0.04799757658019661,0.024959157754853366
1772639546253422000,2.086422119140625,0.04714402849078178,-0.012469459342211484,-0.048006928930431604
1772639546263466200,2.09646630859375,0.05025310042202472,-0.023440935211628672,-0.06890599763952195
1772639546273511000,2.106510986328125,0.04905249246060848,-0.023273177429288625,0.028771299921534953
1772639546283556000,2.11655615234375,0.09682488198280334,-0.0341324981611222,-0.0025001827852800486
1772639546293601000,2.12660107421875,0.12288812852203845,-0.05597235485166311,-0.01932988316360861
1772639546303646200,2.136646240234375,0.11867606378495693,-0.06122260353006422,-0.002337137710675597
1772639546313691100,2.146691162109375,0.10661854624450207,-0.08785824312977493,-0.023512502610497175
1772639546323736000,2.156736083984375,0.08657119899392128,-0.0837090144958347,-0.037145087447948755
1772639546333781000,2.166781005859375,0.07011515423357487,-0.08702244989275931,-0.04749949086494744
1772639546343826200,2.176826171875,0.03543079434335231,-0.0958666314098984,-0.03820025905668735
1772639546353871000,2.18687109375,-0.01537117213308811,-0.0687085023060441,-0.02130085444301367
1772639546363916000,2.196916015625,-0.05504559539556503,-0.05515818892456591,-0.004251191171072423
1772639546373961000,2.2069609375,-0.06530103195011615,-0.04328866823688149,0.019355602126754818
1772639546384005000,2.217005126953125,-0.06753156748116015,-0.03705167354345321,0.02596775027550757
1772639546394050000,2.227050048828125,-0.029274025279283522,-0.021915844536200164,0.019596571275778112
1772639546404095000,2.237094970703125,0.056738370788097375,-0.032612010595574975,-0.0018471622366458176
1772639546414140000,2.247139892578125,0.15332184523046016,-0.04685074463263154,-0.00960259866900742
1772639546424185000,2.25718505859375,0.20009528684318065,-0.06068024028167128,-0.0113408206384629
1772639546434230000,2.26722998046875,0.16978139712214468,-0.055112742347642775,-0.020854900773800908
1772639546444275200,2.277275146484375,0.13831658380031586,-0.06053966276720166,-0.01107847990784794
1772639546454319900,2.28731982421875,0.05672726487219333,-0.060965413898602126,0.004693089719675481
1772639546464365000,2.297364990234375,0.0002495908468961716,-0.04945858904346823,0.023336378858610986
1772639546474410000,2.307409912109375,0.0054506666213274,-0.0322355054333806,0.05249265950974077
1772639546484455200,2.317455078125,0.013943185156583784,-0.031649156912788745,0.05115406784974038
1772639546494499000,2.3274990234375,0.03416179732084274,-0.030364304734021425,0.03222593388743698
1772639546504544000,2.3375439453125,0.10386018744707107,-0.034346140911802645,0.0219221646791324
1772639546514589200,2.347589111328125,0.10280804804563522,-0.06458871896229684,0.002507197047956288
1772639546524634000,2.357634033203125,0.09576748188436031,-0.05602474262602627,-0.005356193270906806
1772639546534679000,2.367678955078125,0.05872399164736271,-0.05975311549939215,-0.017277298015356064
1772639546544724000,2.377723876953125,0.03487608307003975,-0.048959845741093154,-0.01232840690370649
1772639546554769200,2.38776904296875,0.008442834174633025,-0.01936776748858392,0.0018299553735181687
1772639546564814000,2.39781396484375,0.02029284644424915,-0.023585969705507158,-0.01276687138620764
1772639546574859300,2.407859375,0.033599487262964245,-0.014806743183359504,-0.026975758274272083
1772639546584904000,2.417904052734375,0.07582885570526122,-0.009933145797625184,-0.058924811449088156
1772639546594949000,2.42794921875,0.13809738809168337,-0.021194544524326918,-0.08710815541483462
1772639546604994000,2.437994140625,0.19068974511623382,-0.041944998542964455,-0.10521324602384119
1772639546615038000,2.448037841796875,0.20944880612194536,-0.05502002256289124,-0.09941548299789428
1772639546625083000,2.458082763671875,0.1933434744954109,-0.06871522430777549,-0.09587320728115736
1772639546635128000,2.468128173828125,0.13215104690790175,-0.0813400203421712,-0.07068086182493716
1772639546645173000,2.478173095703125,0.07714052282571793,-0.0683115388777107,-0.024180282336845993
1772639546655218200,2.48821826171875,0.050802550998330115,-0.07607216294184327,-0.010430902719311415
1772639546665262800,2.498262939453125,0.006884498816728591,-0.0808452225625515,-0.006837517869845032
1772639546675308000,2.50830810546875,-0.012569558715820313,-0.07038659158609807,-0.013027166290208697
1772639546685353000,2.51835302734375,-0.008483750706911087,-0.0643947307601571,-0.01998304984271526
1772639546695398100,2.528398193359375,0.03753858027756214,-0.06207505564093589,-0.023936975100263953
1772639546705443000,2.538443115234375,0.09761690914332866,-0.07045994908325373,-0.0035269320171326395
1772639546715488000,2.548488037109375,0.15854980901181698,-0.0706830903146416,-0.0020309943709522485
1772639546725532200,2.5585322265625,0.17211831563711166,-0.06756371618509292,0.007896342740394175
1772639546735577000,2.5685771484375,0.16389409264922142,-0.05941087793298065,0.015354842052794993
1772639546745622000,2.5786220703125,0.13495616745650768,-0.05033683318272233,0.016986644505709407
1772639546755667000,2.5886669921875,0.09145780199170112,-0.034456323288008565,0.019373612707480788
1772639546765712100,2.598712158203125,0.065198740619421,-0.01975749745853245,0.03950604442562908
1772639546775757000,2.608757080078125,0.027971125987172125,-0.018831907046213747,0.07444174872841686
1772639546785802200,2.61880224609375,0.05955342820882797,-0.009187295866385102,0.087839903755486
1772639546795847000,2.628846923828125,0.08584054663181305,-0.02353818504102528,0.07155578149594366
1772639546805892000,2.63889208984375,0.10853110186755656,-0.025955329185351726,0.04101732577141374
1772639546815937000,2.64893701171875,0.15971826826930044,-0.03077032825164497,0.012997465271688997
1772639546825982200,2.658982177734375,0.18834405877292154,-0.057534270406141876,-0.016297018273733557
1772639546836027000,2.66902685546875,0.18768588712513445,-0.055698871672526,-0.0314253946268931
1772639546846071000,2.679071044921875,0.12829378695785998,-0.04839658583514392,-0.025914412653073666
1772639546856116000,2.689115966796875,0.08072364200949668,-0.04304090402089059,0.0020658099560067057
1772639546866161200,2.6991611328125,0.07151683772504329,-0.02798741953484714,0.007057553828693926
1772639546876205800,2.709205810546875,0.03798398595750332,-0.006453194727376103,0.014068090177886187
1772639546886251000,2.7192509765625,0.015453005197644233,-0.020839666672050953,0.006908537279441952
1772639546896296000,2.7292958984375,0.054337154865264886,-0.03330539968721569,-0.02019358732085675
1772639546906341000,2.739341064453125,0.12812486013174057,-0.05405336948782205,-0.021255955855362114
1772639546916386000,2.749385986328125,0.19362930569946765,-0.07304375503137707,0.018365020186826585
1772639546926431000,2.759430908203125,0.1701338638216257,-0.0799851716671139,0.030715163998305796
1772639546936476000,2.769475830078125,0.15939093601107596,-0.08867635457962751,0.027699871297739445
1772639546946521000,2.77952099609375,0.12389175260663032,-0.06947846376523376,0.02243259841930121
1772639546956565200,2.789565185546875,0.08464695293307303,-0.08689034794569014,0.036687406808324156
1772639546966610000,2.79960986328125,0.024483283871412277,-0.05706533772014081,0.04322035224102437
1772639546976655000,2.809655029296875,-0.014211480703949928,-0.03502805876135826,0.07043773725144564
1772639546986700000,2.819699951171875,-0.032015432941913606,-0.03136887866668403,0.08648355724308639
1772639546996745200,2.8297451171875,-0.01339139649271965,-0.038531536837667225,0.07703450516797601
1772639547006790000,2.839789794921875,-0.0010264204382896423,-0.06410597694665193,0.06172430597450584
1772639547016835000,2.8498349609375,0.03272679608166218,-0.07637472608499228,0.0763714746819809
1772639547026880000,2.8598798828125,0.06374737276732921,-0.07400755856223404,0.05799560430757701
1772639547036925200,2.86992529296875,0.05910860705077648,-0.08211575395502149,0.070485339252837
1772639547046970000,2.87997021484375,0.07511690804362296,-0.07151968726925552,0.09248685277849435
1772639547057015000,2.89001513671875,0.08816694375276565,-0.05242978687398135,0.10332195238452405
1772639547067059000,2.900058837890625,0.12372457934617996,-0.05094890066646039,0.0933418256400153
1772639547077104000,2.910104248046875,0.16815291913747787,-0.05473441055454313,0.08604827109836041
1772639547087149000,2.920149169921875,0.2294686808437109,-0.0303675196044147,0.0663551441129297
1772639547097194000,2.930194091796875,0.23919454056620595,-0.036572073332965374,0.022614384726993737
1772639547107239200,2.9402392578125,0.25104689092338084,-0.030625659083947536,-0.025407011120207608
1772639547117284400,2.950284423828125,0.24860709655582902,-0.014380261399596929,-0.02655968828666955
1772639547127329300,2.960329345703125,0.24627543873786925,-0.008454963003844022,-0.01160268644504249
1772639547137374200,2.970374267578125,0.20518530345857142,-0.011646452521532773,-0.00558824846111238
1772639547147419100,2.980419189453125,0.15721242292821405,-0.010349544578790663,-0.0008647636031731962
1772639547157464300,2.99046435546875,0.09952420406937598,-0.016139818418025968,-0.015257701821252703
1772639547167509200,3.00050927734375,0.023429975426197052,-0.02326835512369871,-0.029464141023904083
1772639547177554400,3.010554443359375,-0.0013303718209266662,-0.030315862482413646,0.010788410920090972
1772639547187599000,3.02059912109375,0.06502221500873566,-0.07914031834080815,0.02426533027179539
1772639547197643300,3.030643310546875,0.04212240093648433,-0.11724310837239027,0.05277246283181011
1772639547207688400,3.0406884765625,0.0442851319283247,-0.12909092868492006,0.04243891953974962
1772639547217733400,3.0507333984375,0.06700374421477318,-0.14061185513064264,0.015148359695263207
1772639547227778300,3.0607783203125,0.05451192691028118,-0.147222140115872,0.01027457964643836
1772639547237823200,3.0708232421875,0.05572188722193241,-0.14642076060511172,0.00030300153456628323
1772639547247868400,3.080868408203125,0.01602817473709583,-0.11156279771365224,-0.011758753789588808
1772639547257913300,3.090913330078125,-0.0006494038194417953,-0.10086422050148248,-0.03279686564318836
1772639547267958300,3.100958251953125,-0.050077159333229065,-0.10540990110710263,-0.049007520807720716
1772639547278003200,3.111003173828125,-0.0786181941628456,-0.09192534643821418,-0.058732394149526954
1772639547288048400,3.12104833984375,-0.054257659888267515,-0.05719568610154092,-0.06696710199881345
1772639547298093300,3.13109326171875,-0.05615910959541797,-0.05168992829211056,-0.08753737714495509
1772639547308137200,3.14113720703125,-0.033623452660441394,-0.054300110790506,-0.1122611552413553
1772639547318182100,3.15118212890625,0.04461830940544605,-0.04507131386995315,-0.11783975909128784
1772639547328227300,3.161227294921875,0.1264285776078701,-0.027961262180283664,-0.10912735072765499
1772639547338272300,3.171272216796875,0.17449731972813606,-0.03153320238292217,-0.09707936820052564
1772639547348317400,3.1813173828125,0.18101415427625178,-0.02360408988408744,-0.0737879609948024
1772639547358362000,3.191362060546875,0.18670973556935785,-0.021684300802648066,-0.0696812563283369
1772639547368407300,3.2014072265625,0.1803857932448387,-0.010424144184961914,-0.06788118463642895
1772639547378452200,3.2114521484375,0.1580512118399143,-0.019281331314146517,-0.06697678314261138
1772639547388497400,3.221497314453125,0.15253741685450076,-0.02434241409599781,-0.041124366342462595
1772639547398542000,3.2315419921875,0.1584387498527765,-0.03609181553535163,-0.009319763139635324
1772639547408587300,3.241587158203125,0.15478607256412505,-0.051999432632699606,-0.006133753514662384
1772639547418632200,3.251632080078125,0.14092179786264897,-0.05932816808559,-0.0036981603981927035
1772639547428676400,3.26167626953125,0.11863748534023762,-0.06382562563531101,-0.00205821117144078
1772639547438721300,3.27172119140625,0.12192951262295246,-0.06395429351627827,0.0006944850701838731
1772639547448766200,3.28176611328125,0.10516191769540309,-0.056236339550092815,-0.010563296927325426
1772639547458811400,3.291811279296875,0.06459609855115413,-0.04715133501440286,0.0010534545756876468
1772639547468856300,3.301856201171875,0.06055763681530952,-0.035967823829501866,0.012586034926585853
1772639547478901500,3.311901611328125,0.0668546911329031,-0.022537848892062902,0.029691520038992166
1772639547488946200,3.3219462890625,0.06326923386156559,-0.05125672450661659,0.04039345825202763
1772639547498991400,3.331991455078125,0.07418518015146255,-0.05777231694571674,0.03231711930222809
1772639547509036300,3.342036376953125,0.07448503988087177,-0.04220810645855963,0.05486227471791207
1772639547519081500,3.35208154296875,0.07494681217372418,-0.05434679947644472,0.0578753754613921
1772639547529126100,3.362126220703125,0.07035539273023605,-0.0483093459431082,0.04893040045090019
1772639547539171300,3.37217138671875,0.07147650571465491,-0.04461604438312351,0.035372378687001764
1772639547549215200,3.38221533203125,0.029074703314900398,-0.036203093890100714,0.004922989485412836
1772639547559260400,3.392260498046875,0.0175239662528038,-0.03859809926785528,-0.018868074338138103
1772639547569305000,3.40230517578125,0.02457154667675495,-0.045309360409528016,-0.0405613621648401
1772639547579350300,3.412350341796875,0.058576692131161685,-0.049765243839845055,-0.06100892424676567
1772639547589395200,3.422395263671875,0.04799859949350357,-0.06612447716221213,-0.04878993253428489
1772639547599440400,3.4324404296875,0.05252046083211898,-0.06838197376541794,-0.04865351973827928
1772639547609485300,3.4424853515625,0.08159107249379158,-0.08093962284773587,-0.06082596889529377
1772639547619530200,3.4525302734375,0.10855857439637183,-0.10646532844416796,-0.06131137779206037
1772639547629575200,3.4625751953125,0.11871464222967625,-0.10476802300699055,-0.06585198036376387
1772639547639620400,3.472620361328125,0.1128080485343933,-0.1008191392507404,-0.047981100369431075
1772639547649665300,3.482665283203125,0.10178162760734558,-0.10591076330132781,-0.055536849511228496
1772639547659709200,3.492709228515625,0.08817512705922126,-0.08797069052830338,-0.0350714960442856
1772639547669754400,3.50275439453125,0.07140694760978221,-0.07285144732967018,-0.01032488506156951
1772639547679799300,3.51279931640625,0.060492170363664624,-0.07039528634920716,0.006091923666931689
1772639547689844500,3.522844482421875,0.05429097763597965,-0.05289484710246324,0.026101678853482007
1772639547699889200,3.53288916015625,0.08483049280643462,-0.04403086490631103,0.0455522657873109
1772639547709934300,3.542934326171875,0.12196867558956145,-0.04123407379463315,0.03843655203059315
1772639547719979300,3.552979248046875,0.1463438229113817,-0.03396291374787688,0.009451938151940703
1772639547730024400,3.5630244140625,0.15539982054829596,-0.024102613990753887,0.01773519785068929
1772639547740069400,3.5730693359375,0.17218027495741844,-0.030804449716955423,0.0062652344072237605
1772639547750114300,3.5831142578125,0.17426584905982018,-0.02732106458060443,0.002869162228144705
1772639547760159200,3.5931591796875,0.1564391004681587,-0.0203309864975512,0.02547229490876198
1772639547770204400,3.603204345703125,0.16660393612980842,-0.04437741332165897,0.030479419013671575
1772639547780248000,3.613248046875,0.1233785423874855,-0.024788769624009728,0.03855484464801848
1772639547790293200,3.623293212890625,0.12373276265263557,-0.025492533979192374,0.0304903787991032
1772639547800338200,3.633338134765625,0.1252905134886503,-0.04824307577386498,0.014961531886272132
1772639547810383400,3.64338330078125,0.12008183892965316,-0.06292312383763492,0.0007854512892663478
1772639547820428300,3.65342822265625,0.08430208501815796,-0.06123180974982678,-0.0006535685379058122
1772639547830473200,3.66347314453125,0.026330373042821882,-0.07658603074811399,-0.0075111062824726104
1772639547840518100,3.67351806640625,-0.017881109127402303,-0.059022170876339076,0.0060352981088683
1772639547850563300,3.683563232421875,-0.06488485236465931,-0.06120265672057867,0.001973601627908647
1772639547860608300,3.693608154296875,-0.036062077984213826,-0.06054821139983833,0.005565086781233549
1772639547870653400,3.7036533203125,0.010355974319577216,-0.08169833226054907,0.0066876976029947395
1772639547880698000,3.713697998046875,0.07549626275002956,-0.07219912090077996,0.010913863930664956
1772639547890743300,3.723743408203125,0.10214987639784813,-0.08826777377873658,-0.013104871168918907
1772639547900787500,3.733787353515625,0.10834990008175373,-0.10071589807197451,-0.03634129678439349
1772639547910832000,3.74383203125,0.15156535695195197,-0.10133161881752312,-0.014086027693375944
1772639547920877300,3.753877197265625,0.15282850875556467,-0.09426029219180344,-0.0080166811844334
1772639547930922200,3.763922119140625,0.11456629037857055,-0.08745126976408064,-0.022581614968553185
1772639547940967400,3.773967529296875,0.0897901610404253,-0.06895246712975203,-0.00957019423674792
1772639547951012400,3.784012451171875,0.08917232140302657,-0.05753273603618145,0.023799466325715182
1772639547961057300,3.794057373046875,0.08713350905179977,-0.037220381173864,0.03475362573415041
1772639547971102200,3.804102294921875,0.07631108626425266,-0.05292305028364062,0.032461423143744464
1772639547981147400,3.8141474609375,0.060572249862551684,-0.054719212985411284,0.02633483002223074
1772639547991192300,3.8241923828125,0.0639525399506092,-0.04073671873174608,0.016063574844039974
1772639548001237500,3.834237548828125,0.04964110600352287,-0.03386844039745629,0.02006006060168147
1772639548011281200,3.84428125,0.03487549854815006,-0.0327600407641381,0.03560936578065157
1772639548021326300,3.854326416015625,0.02731996860206127,-0.041009325128048654,0.032658991542458535
1772639548031371300,3.864371337890625,0.036115269476175306,-0.047511181302741165,0.03498272178228944
1772639548041416200,3.874416259765625,0.06829495306909084,-0.04879040745832026,-0.0012594985418021678
1772639548051461000,3.884461181640625,0.08388824352025985,-0.046163273825123904,-0.026978753948956727
1772639548061506300,3.89450634765625,0.13000877418220042,-0.04458382261395454,-0.036517493601515884
1772639548071551200,3.90455126953125,0.15141338126063347,-0.0609402794573456,-0.041725437508150935
1772639548081596400,3.914596435546875,0.17728081296682358,-0.0646533086311072,-0.05290851030163467
1772639548091641000,3.92464111328125,0.20613398248553275,-0.07176102174445986,-0.03658131608534604
1772639548101686300,3.934686279296875,0.20727672277987003,-0.07226919046230613,-0.023694252385571598
1772639548111731200,3.944731201171875,0.1731874061733484,-0.06900938494876027,-0.03757580701541156
1772639548121776400,3.9547763671875,0.1281149232596159,-0.06855331174433231,-0.05176679292060434
1772639548131820500,3.964820556640625,0.11488076315522193,-0.05030541513115167,-0.04597699400540441
1772639548141865500,3.974865478515625,0.064083472853899,-0.037765374770760536,-0.06752163060903549
1772639548151910400,3.984910400390625,0.0004424830704927444,-0.03236863029375672,-0.07508581878561527
1772639548161955300,3.994955322265625,-0.03158347126543522,-0.02821479854993522,-0.06967891824077814
1772639548172000500,4.00500048828125,-0.03975216467380523,-0.001407674840837717,-0.06745119572132825
1772639548182045400,4.01504541015625,-0.04154606235325336,-0.007811842794716358,-0.05250161000117659
1772639548192090600,4.025090576171875,-0.03130406980216503,-0.00903181304372847,-0.030529103374294934
1772639548202135300,4.03513525390625,0.013823358169198035,-0.03567841242887079,0.00026153701301664115
1772639548212180500,4.045180419921875,0.04667582645714283,-0.04255063628591597,0.0001417100256308913
1772639548222225400,4.055225341796875,0.10283318248689174,-0.054918388819321984,-0.011386376813240348
1772639548232270600,4.0652705078125,0.1376823775500059,-0.08127272725962102,0.003783683257177472
1772639548242315300,4.075315185546875,0.15796236451268195,-0.10021795848719775,0.009677052144706249
1772639548252359400,4.085359375,0.1563479150533676,-0.1019404714308679,0.01184774724729359
1772639548262404400,4.095404296875,0.14111001391112804,-0.09201214793883264,0.011870068676955997
1772639548272449500,4.105449462890625,0.10535539444088936,-0.08190671431422233,0.020062910145893693
1772639548282494200,4.115494140625,0.06514613364934921,-0.06671557492315769,0.010268478699214757
1772639548292539400,4.125539306640625,0.05777589714229107,-0.05271868681795895,0.0051362669099122285
1772639548302584300,4.135584228515625,0.08832476466298103,-0.06820164876244962,0.017020144916512072
1772639548312629500,4.14562939453125,0.1161982754945755,-0.06769282245747744,0.03180200938694179
1772639548322674400,4.15567431640625,0.16768179449439047,-0.05302358804866671,0.05413659079186618
1772639548332719400,4.16571923828125,0.17913374735713003,-0.04328121558278799,0.058144840052537616
1772639548342764300,4.175764404296875,0.13542320044636724,-0.04670191074647009,0.00865896114334464
1772639548352809500,4.1858095703125,0.13416940099298955,-0.033863837287575006,-0.004105024166032672
1772639548362853400,4.195853271484375,0.15390578259825705,-0.03423552014417946,0.011822174414619803
1772639548372898300,4.205898193359375,0.18370587757825851,-0.027571386079862713,0.037674883475713426
1772639548382943500,4.215943603515625,0.16577040791511535,-0.027625089028477667,0.05090860518869012
1772639548392988400,4.225988525390625,0.159763860976696,-0.01484912102036178,0.029012926657684145
1772639548403033600,4.23603369140625,0.1519078867793083,-0.02163490870296955,0.04317421154435724
1772639548413078300,4.246078369140625,0.1068693061351776,-0.026585151521489023,0.0006992343105375766
1772639548423123500,4.25612353515625,0.06075520521402358,-0.028760084407776592,-0.02224303066395223
1772639548433168400,4.26616845703125,0.0218505972802639,-0.015104118694737552,-0.04056033925153315
1772639548443213600,4.276213623046875,-0.00036415713727474213,-0.009837138077244161,-0.02493548461832106
1772639548453258500,4.286258544921875,0.03422960186004639,-0.017429639032855628,-0.00843213011752814
1772639548463303400,4.296303466796875,0.04149813155829906,-0.035210575721412896,0.010757979249209165
1772639548473348400,4.306348388671875,0.046076691520214076,-0.051802083429694175,0.008438925184495747
1772639548483392500,4.316392578125,0.057223523956537244,-0.05432670653648674,0.006023790334165096
1772639548493437200,4.326437255859375,0.07808861733078956,-0.07314758073203265,0.01567548884190619
1772639548503482400,4.336482421875,0.09249474382400512,-0.09552833936624229,0.02827500430457294
1772639548513527300,4.34652734375,0.09953940163850784,-0.08901976118981837,0.026076909738406536
1772639548523572500,4.356572509765625,0.05448620794713497,-0.0750644472040236,0.016892865275032816
1772639548533617400,4.366617431640625,0.02006897456049919,-0.07795030483864247,0.006723901427537203
1772639548543662300,4.376662353515625,0.020566402688622473,-0.07126249763779342,-0.0031443989729508758
1772639548553707300,4.386707275390625,0.03906476693153381,-0.06009009236879646,0.0018868731925264
1772639548563752400,4.39675244140625,0.061033437633514404,-0.047144466882199046,0.01932392834685743
1772639548573797400,4.40679736328125,0.08748422218561172,-0.028732831074669955,0.025810915745981038
1772639548583842600,4.416842529296875,0.11389993542432784,-0.041825317686051126,0.02569273272641003
1772639548593887200,4.42688720703125,0.1401437992274761,-0.05350859508663416,-0.003793291335739195
1772639548603931400,4.436931396484375,0.16455518690645693,-0.05513882663697004,0.008529708740487694
1772639548613976600,4.4469765625,0.18279869960546494,-0.04973236448355019,0.012305391354300081
1772639548624021200,4.457021240234375,0.16133973199129104,-0.047386458944529294,-0.002707834186591208
1772639548634066400,4.46706640625,0.12983867831230164,-0.03913848975487053,-0.03417283017151058
1772639548644111400,4.477111328125,0.11872048744857311,-0.04726882391422987,-0.028996596577391027
1772639548654156500,4.487156494140625,0.1122720419615507,-0.02874021066352725,-0.024444997687637804
1772639548664201500,4.497201416015625,0.06647650547027588,-0.039679099437594414,-0.02771733388919383
1772639548674246400,4.507246337890625,0.007379004335403442,-0.028714418635144828,-0.055559755462780594
1772639548684291300,4.517291259765625,-0.028009119910001753,-0.04072305553257465,-0.07741141218896955
1772639548694336500,4.52733642578125,-0.02413549334704876,-0.049761955904215574,-0.0906326397465542
1772639548704381400,4.53738134765625,-0.015129764592647551,-0.04818104338832199,-0.08440733549091964
1772639548714426600,4.547426513671875,0.001222235271334648,-0.052561961886286736,-0.09403101348057388
1772639548724470300,4.55747021484375,0.05931435875594616,-0.07501264395155012,-0.08840199461765587
1772639548734515500,4.567515380859375,0.0723445207208395,-0.0909377967055887,-0.08480893856175244
1772639548744560400,4.577560302734375,0.08937339693307876,-0.08725107101686298,-0.06406451242510229
1772639548754605300,4.587605224609375,0.08813362600505352,-0.0714230219617486,-0.05451119625791907
1772639548764650200,4.597650146484375,0.1111310552328825,-0.0601652764968574,-0.05323438125513494
1772639548774695400,4.6076953125,0.13652911586165428,-0.061215150875970716,-0.04095028841719031
1772639548784740400,4.617740234375,0.1420230371028185,-0.05693287044689059,-0.04774926437493413
1772639548794785500,4.62778564453125,0.16394786866307257,-0.051020358467474575,-0.019191022682189942
1772639548804830200,4.637830322265625,0.15454641858935356,-0.03535283373631537,0.0021810338335111735
1772639548814875400,4.64787548828125,0.12773732211887837,-0.04533127998039126,0.002678133168071508
1772639548824920300,4.65792041015625,0.10270341862738132,-0.020891689120233058,0.014610855285078286
1772639548834965500,4.667965576171875,0.09431085333526133,-0.0007247340779751539,0.008618081143684685
1772639548845009400,4.678009521484375,0.08686755159199237,-0.011762772377580404,0.0088720193721354
1772639548855054300,4.688054443359375,0.09281447729766368,-0.009400792486593127,0.021028722970746455
1772639548865099500,4.698099609375,0.109248310226202,-0.017739289503917097,0.01589826474711299
1772639548875144400,4.70814453125,0.10422200649678706,-0.030320830918475983,0.008439180912822485
1772639548885189400,4.718189453125,0.10823942544460297,-0.05877214163802564,0.0007878259094431996
1772639548895234300,4.728234375,0.10966390528976917,-0.054186786609143014,0.01911276981420815
1772639548905279500,4.738279541015625,0.09431962116360663,-0.05554872261211276,0.014925181931257248
1772639548915324400,4.748324462890625,0.10848843176960944,-0.04264408672302961,0.011834997363574802
1772639548925369600,4.75836962890625,0.09066694387495518,-0.05519347943365573,0.027377726671285924
1772639548935414300,4.768414306640625,0.09591419687867164,-0.04433364724516868,0.030329269953258332
1772639548945459500,4.77845947265625,0.0963736310839653,-0.04256218059323728,0.01859857321437448
1772639548955503400,4.78850341796875,0.08397124562859534,-0.04905344230867922,0.02868837087843567
1772639548965548500,4.798548583984375,0.07218494624495506,-0.036446181930974125,0.050961431354470545
1772639548975593200,4.80859326171875,0.04571253438293934,-0.03370630863830447,0.056246532150544225
1772639548985638400,4.818638427734375,0.024475100564956664,-0.036852205448597665,0.0709809042174369
1772639548995683300,4.828683349609375,0.005668693286180496,-0.02596336636133492,0.08210183502752333
1772639549005728500,4.838728515625,0.009673252752423285,-0.01274966452307999,0.07306256932970136
1772639549015773200,4.848773193359375,0.012090250766277313,-0.022539310196787118,0.07062328641880303
1772639549025818400,4.858818359375,0.03669979136586189,-0.0397411318231374,0.05917710570972413
1772639549035863300,4.86886328125,0.06953940017223358,-0.0534744736213237,-0.0014374489245936274
1772639549045908500,4.878908447265625,0.11190496221482753,-0.06712817431204021,-0.019221089026890695
1772639549055953400,4.888953369140625,0.1309820031285286,-0.07127784133739769,-0.03269680280219763
1772639549065998300,4.898998291015625,0.13757657908797263,-0.09575769114270806,-0.04427530465405434
1772639549076042500,4.90904248046875,0.1282932024359703,-0.091078958741948,-0.012981975441612302
1772639549086087400,4.91908740234375,0.14161036464869975,-0.08965535567961633,-0.011849683476053178
1772639549096132600,4.929132568359375,0.12592939591407776,-0.08690276903584598,0.013923311412334442
1772639549106177300,4.93917724609375,0.10667115321457385,-0.08344364155791699,0.042072533912770445
1772639549116222500,4.949222412109375,0.10760054301917553,-0.06886646934673189,0.03377261534016579
1772639549126267400,4.959267333984375,0.0766354959130287,-0.053894525664299725,0.03863594706021249
1772639549136312600,4.9693125,0.08006547036170959,-0.06154862061403692,0.02714512349180877
1772639549146357200,4.979357177734375,0.05014145674109459,-0.047536900265887375,0.01771371667124331
1772639549156402400,4.98940234375,0.029213819524645804,-0.03439977079518139,0.02301730297207832
1772639549166447400,4.999447265625,0.028819851770997044,-0.025514161289110777,0.014379713410325347
1772639549176492500,5.009492431640625,0.0342898076146841,-0.01313486444838345,0.013019202179461717
1772639549186537500,5.019537353515625,0.050554129195213314,-0.012027633858844637,0.017425803107954562
1772639549196581400,5.029581298828125,0.07802841157615184,-0.017082871421799064,-0.0007986760970205068
1772639549206626300,5.039626220703125,0.11221358977258204,-0.02062551246471703,0.007440817525237798
1772639549216671500,5.04967138671875,0.16416940245926379,-0.031786519556865095,0.01845240620933473
1772639549226716400,5.05971630859375,0.151125211969018,-0.03787957573495805,0.0025019363509491085
1772639549236761300,5.06976123046875,0.1145464166343212,-0.04711823646239936,-0.001502038593403995
1772639549246806300,5.07980615234375,0.11420330228507518,-0.061588879559189076,-0.013313472418300807
1772639549256851500,5.0898515625,0.12393325366079806,-0.056681891360506415,0.003593165653757751
1772639549266896400,5.099896484375,0.13667758442163466,-0.0578402676153928,0.01110460072979331
1772639549276941300,5.10994140625,0.110050274258852,-0.08371222936622798,-0.013511150414869189
1772639549286986200,5.119986328125,0.08772270711660385,-0.07693835131712258,-0.029074739847518502
1772639549297031400,5.130031494140625,0.09936346054971218,-0.06600669600144028,-0.023945085341483353
1772639549307075600,5.14007568359375,0.093048870575428,-0.07908698071837425,-0.00931804610658437
1772639549317120300,5.150120361328125,0.07131400862932205,-0.07400434369184077,-0.012009002223610878
1772639549327165400,5.16016552734375,0.03056289604604244,-0.06185549460612237,-0.029571437323279676
1772639549337210400,5.17021044921875,0.02694996624588966,-0.04184921001829207,-0.05456884472928941
1772639549347255600,5.180255615234375,0.0571948823839426,-0.03284201995916664,-0.07164528641030192
1772639549357300200,5.19030029296875,0.07923077310323715,-0.043201063018664713,-0.030145949275605377
1772639549367345400,5.200345458984375,0.10814064124524593,-0.05626783066689968,0.006650982321798801
1772639549377390300,5.210390380859375,0.09586158990859985,-0.05604257054366171,0.005206263406202197
1772639549387435500,5.220435546875,0.08909984068870544,-0.04758600010462105,0.010972462250106035
1772639549397480400,5.23048046875,0.08471475747227668,-0.04413447141125798,0.015691124802455304
1772639549407525400,5.240525390625,0.06778817259073257,-0.045830534739419816,0.005603519095480442
1772639549417570300,5.2505703125,0.06613631373047828,-0.05351232141368091,0.01900138186160475
1772639549427615500,5.260615478515625,0.0573386747688055,-0.06216835994757711,0.023657500571757552
1772639549437659400,5.270659423828125,0.056629065194725985,-0.05428747050464153,0.0069732730787247415
1772639549447704300,5.280704345703125,0.06714812112152577,-0.060742637993395326,0.002379296351969242
1772639549457749200,5.290749267578125,0.057608723881840705,-0.062183338321000335,-0.003267915754765272
1772639549467794400,5.30079443359375,0.051038113319873804,-0.06315890535488725,-0.014109773895144461
1772639549477839400,5.31083935546875,0.04235854777991772,-0.06841675281785428,-0.03511997482851147
1772639549487884300,5.32088427734375,0.05735562590360641,-0.062465224002301686,-0.025465719037503002
1772639549497929200,5.33092919921875,0.08497019353806971,-0.04724785419143736,-0.004363602036982775
1772639549507974400,5.340974365234375,0.0882388399451971,-0.056009106665477155,-0.003145202690549195
1772639549518019300,5.351019287109375,0.08869067536592483,-0.05986746259406209,-0.020414317399449645
1772639549528064500,5.361064453125,0.09077975659966468,-0.06027312078550458,-0.03332253348510712
1772639549538109200,5.371109130859375,0.10448854847848414,-0.07508797421008348,-0.03461794359050691
1772639549548153300,5.3811533203125,0.11635200475156307,-0.06568374765738845,-0.040176198772154746
1772639549558198500,5.391198486328125,0.11710019277036189,-0.06639474547095596,-0.029890732405520974
1772639549568243500,5.401243408203125,0.10540683236718178,-0.06438040997385978,0.000012128829210996626
1772639549578288400,5.411288330078125,0.0786275465130806,-0.07312975281439721,0.012858129866234958
1772639549588333300,5.421333251953125,0.062063365203142165,-0.06118745915144681,0.007342617847770452
1772639549598378500,5.43137841796875,0.04928279408514499,-0.05536160254217684,0.0164282799705863
1772639549608423400,5.44142333984375,0.021707973939180374,-0.0621047931920737,0.013563611254468559
1772639549618468400,5.45146826171875,0.026458383336663244,-0.047943435240164395,-0.017526085144653914
1772639549628513300,5.46151318359375,0.04585106607079505,-0.05075798120424151,-0.03224639215357601
1772639549638558500,5.471558349609375,0.07494622765183448,-0.0605122633036226,-0.03744103818722069
1772639549648603400,5.481603271484375,0.12003157004714012,-0.06275785027332603,-0.04102426696885377
1772639549658648600,5.491648681640625,0.1430932966828346,-0.05386844137497246,-0.01886803780552
1772639549668692200,5.501692138671875,0.11735621335804462,-0.05783836791925132,0.007093794185854494
1772639549678737400,5.5117373046875,0.09836626620590687,-0.05150974941961467,0.00472447123862803
1772639549688782300,5.5217822265625,0.07985562700331211,-0.05753543944992125,-0.02023910696301609
1772639549698827500,5.53182763671875,0.07887363022863865,-0.040129985010251404,-0.027177272195741533
1772639549708872200,5.5418720703125,0.070109309014678,-0.0363056044165045,-0.026151692007668315
1772639549718917400,5.55191748046875,0.04365677089691162,-0.037760114073753355,-0.028570881978608666
1772639549728962300,5.56196240234375,0.04742167638838291,-0.020599208979681132,-0.016115962618403135
1772639549739007500,5.572007568359375,0.07577040351629256,-0.02301438036262989,-0.0019913199476897714
1772639549749052200,5.58205224609375,0.10610241341590881,-0.03480294476859271,0.021197138340212404
1772639549759097300,5.592097412109375,0.11711948199272156,-0.036833208487182856,0.0071914458740502596
1772639549769142300,5.602142333984375,0.08097732450962067,-0.03814991710893809,0.0009030863195657729
1772639549779187500,5.6121875,0.08808569521009922,-0.0413593441421166,0.009223426625691354
1772639549789231400,5.6222314453125,0.0938596024364233,-0.04261551821567118,0.00526555584538728
1772639549799276300,5.6322763671875,0.08319149342775345,-0.03974036463815719,0.005148907195776701
1772639549809321500,5.642321533203125,0.08360358135998248,-0.04105531969424337,0.023544432118721304
1772639549819366400,5.652366455078125,0.08282266011536121,-0.045117052707821126,0.019426219677552578
1772639549829411600,5.66241162109375,0.08520166420638561,-0.028739297348074615,0.00007569558471441268
1772639549839456300,5.672456298828125,0.11109715296328067,-0.035453736827522515,-0.019949037975259123
1772639549849501400,5.68250146484375,0.15973288131654262,-0.05044175486192107,-0.024918350820429622
1772639549859546400,5.69254638671875,0.1593979502737522,-0.04543316945228725,0.01266925623062998
1772639549869591600,5.702591552734375,0.1531716231048107,-0.048746787512302395,0.040878282626904544
1772639549879636200,5.71263623046875,0.11307283695042132,-0.03999138025715947,0.026985622081160544
1772639549889681400,5.722681396484375,0.08312310436666011,-0.01725534191187471,0.03237462164312601
1772639549899726300,5.732726318359375,0.047667175582051274,-0.016294716718792915,0.032277116085402666
1772639549909770500,5.7427705078125,0.030081250008940696,-0.022186806964688003,0.04678630109429359
1772639549919815400,5.7528154296875,0.031714404168725015,-0.007698774341680109,0.03108049017935991
1772639549929860400,5.7628603515625,0.02841536262333393,0.003887107099033892,0.028649792433716355
1772639549939905300,5.7729052734375,0.053534021788835526,-0.002290558622591197,0.010197313159145413
1772639549949950500,5.782950439453125,0.09660627079606056,-0.020579042974486945,0.004055157142318785
1772639549959995400,5.792995361328125,0.15477496664822102,-0.015525303248874842,0.013114369649626314
1772639549970040300,5.803040283203125,0.18012801909148693,-0.02781966175250709,0.007088131630048155
1772639549980085200,5.813085205078125,0.1937660838216543,-0.05256013525538146,-0.022145050182193517
1772639549990130400,5.82313037109375,0.20014789381325243,-0.05064871214348823,-0.011868497774377465
1772639550000175400,5.83317529296875,0.17043547711670398,-0.054869179382733994,-0.008599924432486295
1772639550010220300,5.84322021484375,0.1532856048732996,-0.06990472635328769,-0.05074435453768819
1772639550020265200,5.85326513671875,0.11698270387053489,-0.060660695330984886,-0.05195815077424049
1772639550030309400,5.863309326171875,0.09342997884750366,-0.05645955384671688,-0.014618088743463157
1772639550040354600,5.8733544921875,0.08696458222568035,-0.050114714864641426,0.008673902984149754
1772639550050399200,5.883399169921875,0.060467620444297786,-0.04418397310879081,0.004417414583452046
1772639550060444400,5.8934443359375,0.06975391970574855,-0.050470359901897605,0.018008425301499664
1772639550070489300,5.9034892578125,0.10834113225340843,-0.06408657812643796,0.00866389304678887
1772639550080534500,5.913534423828125,0.08613222305476664,-0.06467807774618267,0.011977364976331591
1772639550090579500,5.923579345703125,0.0764572167366743,-0.0529141363248229,0.009908486280404031
1772639550100624400,5.933624267578125,0.07185176876783371,-0.06273841492049395,0.03103624917883426
1772639550110669300,5.94366943359375,0.06500409483015537,-0.058841115221008655,0.019340733351185916
1772639550120714500,5.953714599609375,0.05925999822020531,-0.05741035176552832,0.016043299240991474
1772639550130759400,5.963759521484375,0.06418167253136635,-0.026969839990139004,0.010958104931190609
1772639550140803300,5.97380322265625,0.057602878662943835,-0.015057904932834208,0.027297683705016968
1772639550150848500,5.9838486328125,0.03426291960775852,-0.02687554930280894,0.0051782428881153465
1772639550160893400,5.9938935546875,0.060301616227626795,-0.043248263161256906,-0.03128372113388032
1772639550170938400,6.0039384765625,0.08381342471837996,-0.03247092162445187,-0.0038994916565716266
1772639550180983300,6.0139833984375,0.10538695862293243,-0.049351731135509905,0.01123334167599678
1772639550191028500,6.024028564453125,0.10824819327294825,-0.048545858112722634,0.002613287770934403
1772639550201073400,6.034073486328125,0.10914484985172748,-0.0530579287096858,-0.002847936777025461
1772639550211118300,6.044118408203125,0.09055062401890754,-0.05433605888672173,-0.026618871128000317
1772639550221163500,6.05416357421875,0.07088087790906429,-0.05629099234677851,-0.030641221979260443
1772639550231208400,6.06420849609375,0.06332885509431362,-0.05366711011659354,-0.02687584156375378
1772639550241253400,6.07425341796875,0.06987257764935494,-0.0750287183035165,-0.03161616795863956
1772639550251298300,6.08429833984375,0.05669686973392963,-0.08531608436629176,-0.03515544800069183
1772639550261342200,6.09434228515625,0.07182312719523906,-0.06349876830112189,-0.019710626109503207
1772639550271387400,6.104387451171875,0.06826806506216526,-0.06168280492033809,-0.017675065161287782
1772639550281432300,6.114432373046875,0.08461305066347122,-0.0730736021803692,-0.027328846028260884
1772639550291477500,6.1244775390625,0.1012573114722967,-0.07567885277532041,-0.03210344001892954
1772639550301522400,6.1345224609375,0.11788988184332846,-0.05961202652826905,-0.006316416605189442
1772639550311567400,6.1445673828125,0.08539514095187187,-0.033277050375565886,0.002611607270501554
1772639550321612300,6.1546123046875,0.07609364412128924,-0.027076222974061964,0.019475721375085412
1772639550331657500,6.164657470703125,0.08999357465803623,-0.0131473586037755,0.006603599516116082
1772639550341702400,6.174702392578125,0.07336918759346008,-0.00816898566931486,-0.012080313894152641
1772639550351747600,6.18474755859375,0.0696563045501709,-0.02364471415542066,-0.019477474940754472
1772639550361792300,6.194792236328125,0.08439502399861812,-0.014064144655130803,0.022583587729930875
1772639550371837400,6.20483740234375,0.09003799832165241,-0.021092107063159345,0.016789770226739345
1772639550381881600,6.214881591796875,0.08669336406886577,-0.028956958686746654,0.007440452199056744
1772639550391926300,6.22492626953125,0.08526011639535426,-0.028670542960800228,-0.012696290368027984
1772639550401971500,6.234971435546875,0.0905482859313488,-0.04610642907135188,-0.044313517772592605
1772639550412016400,6.245016357421875,0.11901157934963702,-0.030444786091707646,-0.03888590323328971
1772639550422061600,6.2550615234375,0.13323241240382194,-0.0208933330880478,-0.026175840068235992
1772639550432106500,6.2651064453125,0.11645604964792727,-0.020924824204854666,-0.009494425586797297
1772639550442151400,6.2751513671875,0.10832710372805594,-0.023378500967286525,-0.02494764998015016
1772639550452196400,6.2851962890625,0.09540157118141651,-0.025793160893581805,-0.026061748701892793
1772639550462241500,6.295241455078125,0.11017010124623774,-0.024676614486426114,-0.011161810809746384
1772639550472286500,6.305286376953125,0.09367138638794421,-0.024562815381027756,0.016350794287584722
1772639550482331400,6.315331298828125,0.06627893707156181,-0.016384367763623595,0.012685659376159309
1772639550492376300,6.325376220703125,0.09292904358804226,-0.02032170721255243,0.028605624498426914
1772639550502420500,6.33542041015625,0.10060206243395804,-0.005370185263641178,0.05549790574032813
1772639550512465400,6.34546533203125,0.11454875472187995,-0.017686755599081515,0.040510691423527895
1772639550522510300,6.35551025390625,0.14253390923440457,-0.03607822540141642,0.02740063262283802
1772639550532555300,6.36555517578125,0.1294692604780197,-0.047335313279181716,0.016762334230542183
1772639550542600400,6.375600341796875,0.11695347777605056,-0.04925670979581773,0.01968775669056922
1772639550552645400,6.385645263671875,0.11727379577159881,-0.04057392938546836,0.02984521276336163
1772639550562690600,6.395690673828125,0.11339081685841083,-0.04904591658934951,0.053330754301697016
1772639550572735200,6.4057353515625,0.11176584600508212,-0.051930897441133855,0.07607457409463822
1772639550582780400,6.415780517578125,0.11525602620840072,-0.055047714287415145,0.07652461941707879
1772639550592825300,6.425825439453125,0.11935410917699336,-0.06580291705764829,0.06360292279534041
1772639550602870500,6.43587060546875,0.11115268254280089,-0.059611661202087995,0.055552485471777616
1772639550612914400,6.44591455078125,0.08556348325610161,-0.06217201320938766,0.061432702616788445
1772639550622959400,6.45595947265625,0.04768120410740375,-0.0762000271052122,0.06336527811456472
1772639550633004500,6.466004638671875,0.02999474076926708,-0.08095043650269508,0.0463205467460677
1772639550643049500,6.476049560546875,-0.0021849428236484524,-0.060928808215260505,0.035754838665947315
1772639550653094400,6.486094482421875,-0.022173837885260582,-0.06592186726219952,0.03714117845781147
1772639550663139300,6.496139404296875,-0.01352817461490631,-0.06215374690033495,0.03982950422633439
1772639550673184500,6.5061845703125,-0.0175327340811491,-0.06741071758046746,0.03289649009276181
1772639550683229400,6.5162294921875,0.0042430443972349165,-0.03834083657115698,-0.005201075774431229
1772639550693274600,6.526274658203125,0.025737083324789998,-0.038507059983536596,-0.014215426226705312
1772639550703319300,6.5363193359375,0.06547405042946339,-0.04493628931343555,-0.002232471759803593
1772639550713364500,6.546364501953125,0.08153028221726417,-0.06642930532768368,0.015005224897526204
1772639550723409400,6.556409423828125,0.11267594658732413,-0.06618950522243976,-0.000018010580725967882
1772639550733454600,6.56645458984375,0.12913491395711899,-0.05659867005646228,-0.00797448601052165
1772639550743498200,6.576498291015625,0.10338555567264557,-0.061265712019428605,-0.024974866780638694
1772639550753543400,6.58654345703125,0.10622691657841205,-0.06202873228117823,-0.027931707292236384
1772639550763588400,6.59658837890625,0.06614917321205138,-0.05769537925198674,-0.020892675500921904
1772639550773633500,6.606633544921875,0.07202420272529125,-0.04775456160455942,-0.03153243519794196
1772639550783678200,6.61667822265625,0.08433306467831134,-0.03749313370063901,-0.05442775575816631
1772639550793723400,6.626723388671875,0.09079261608123779,-0.04355659845806658,-0.05711283012367785
1772639550803768300,6.636768310546875,0.08572773390710353,-0.04504749460294843,-0.037060331773944195
1772639550813813500,6.6468134765625,0.0810936443656683,-0.05004340319409966,-0.028504063820093867
1772639550823858400,6.6568583984375,0.05872925234436988,-0.05482990681827068,-0.04743406094592064
1772639550833903400,6.6669033203125,0.049505496925115584,-0.035617768282815813,-0.02577131438795477
1772639550843948300,6.6769482421875,0.050315644264221186,-0.02379135608449578,-0.016212700991146266
1772639550853992400,6.686992431640625,0.02243395012617111,-0.046784036071971055,-0.015969795613363383
1772639550864037600,6.69703759765625,0.04731529340445995,-0.027820319339632988,-0.043548597814701495
1772639550874082300,6.707082275390625,0.13693945022821424,-0.043418505161628124,-0.009329700011759996
1772639550884127500,6.71712744140625,0.16581950775384902,-0.04967055129371583,-0.0018483312804251908
1772639550894172400,6.72717236328125,0.13715280071794986,-0.06121807348541915,0.022368556739762423
1772639550904217600,6.737217529296875,0.16122516570091247,-0.06574132306352257,0.06201525174509734
1772639550914262300,6.74726220703125,0.16069792695641516,-0.07067322650775312,0.06006514059063047
1772639550924307500,6.757307373046875,0.1468202082514763,-0.08455204119123517,0.026694310984387994
1772639550934352400,6.767352294921875,0.11169745694398879,-0.0906245660379529,-0.005326236524060368
1772639550944397600,6.7773974609375,0.09066869744062424,-0.07340688925534486,-0.01662588490191847
1772639550954442500,6.7874423828125,0.0880775119036436,-0.07070150275416671,-0.06556370147429406
1772639550964487400,6.7974873046875,0.06262041456401347,-0.06350910703204572,-0.056446584767289455
1772639550974531300,6.80753125,0.05964402910172939,-0.04674845330193639,-0.08010280669741332
1772639550984576500,6.817576416015625,0.05969488250613212,-0.04845942193828523,-0.050300775488652284
1772639550994621400,6.827621337890625,0.052130584731698036,-0.04887180213145911,-0.030456001605466007
1772639551004666400,6.837666259765625,0.04009001832604408,-0.03197868112809956,-0.00768912973050028
1772639551014711300,6.847711181640625,0.04720540328919887,-0.015477920443192123,-0.0042783714389428495
1772639551024756500,6.857756591796875,0.062390112939476966,-0.015622370415180921,-0.022363149912282825
1772639551034801400,6.867801513671875,0.06977437797188758,-0.01658529716320336,-0.022631445459648965
1772639551044846300,6.877846435546875,0.10199088644385337,-0.022920637664571402,-0.020293686694465577
1772639551054891300,6.887891357421875,0.15021511138677596,-0.01536934550218284,-0.008493687579035758
1772639551064936400,6.8979365234375,0.1396042855232954,-0.021070698948949574,0.01333550158701837
1772639551074981400,6.9079814453125,0.17897241931557653,-0.03488163602799177,0.02333214107491076
1772639551085026600,6.918026611328125,0.18369068000912664,-0.052456528750434515,0.031035335863381624
1772639551095070500,6.928070556640625,0.10353343971073627,-0.03643441842794418,0.05538801562506705
1772639551105115400,6.938115478515625,0.13084814761579036,-0.037974049085378644,0.02587839149162173
1772639551115160000,6.94816015625,0.12498714662790297,-0.04326075731664896,0.07747768235821277
1772639551125204700,6.958204833984375,0.1128647471576929,-0.05339454025290906,0.05311035301666706
1772639551135250000,6.96825,0.10642156236767768,-0.05020670399703085,0.02160385597757995
1772639551145294800,6.978294921875,0.10055997685790061,-0.06950958955585956,0.024024762981571256
1772639551155340000,6.988340087890625,0.10710253036916255,-0.08833543218746781,0.016443769800662995
1772639551165385000,6.998385009765625,0.0834159498333931,-0.08067008519135416,0.008359137946553527
1772639551175430000,7.008429931640625,0.035333179187774656,-0.07044065986089408,-0.023788287344574926
1772639551185474800,7.018474853515625,0.0005839373677968978,-0.08146876128837466,-0.02037504483498633
1772639551195520000,7.02852001953125,-0.01227905133664608,-0.06239588509313762,-0.009336312415637074
1772639551205564000,7.03856396484375,-0.005489245066046714,-0.06511383881494402,-0.020021153363399206
1772639551215608800,7.04860888671875,0.023923896422982215,-0.06088818394392728,-0.01673168336395174
1772639551225653800,7.05865380859375,0.059627662488818164,-0.050691784100234505,-0.011852606085501611
1772639551235699000,7.068698974609375,0.07854922057986259,-0.05850596498250961,0.0018225392520427703
1772639551245743900,7.078743896484375,0.10522855319082737,-0.0526103310726583,0.001820749153755605
1772639551255788800,7.088788818359375,0.09776596222519875,-0.037686537380889056,-0.005241152056492865
1772639551265833700,7.098833740234375,0.1265069035410881,-0.03960165028721094,-0.00544668456595391
1772639551275879000,7.10887890625,0.15556465572118758,-0.035428967712447045,-0.011185630076751113
1772639551285923800,7.118923828125,0.15259820713102817,-0.04852715341225266,0.011666034004837273
1772639551295969000,7.128968994140625,0.1687695897310972,-0.06170819508992135,0.011533055274933576
1772639551306013700,7.139013671875,0.1413520059734583,-0.07219086452908814,-0.012070011695846915
1772639551316059000,7.149058837890625,0.09577157353758811,-0.08765833664350212,-0.027075200060755013
1772639551326103800,7.159103759765625,0.04314063806831837,-0.07927709646299481,-0.029084055665135382
1772639551336147700,7.169147705078125,0.0058306058496236796,-0.07408274269029498,-0.016098865353129804
1772639551346193000,7.17919287109375,-0.0179249482691288,-0.06458996107131243,0.0015517960192635654
1772639551356237800,7.18923779296875,-0.015244330883026121,-0.043187692080438135,-0.00906253697555512
1772639551366283000,7.199282958984375,0.025206921970844266,-0.050857861382141704,-0.022466464156284928
1772639551376328000,7.209327880859375,0.08169687095582484,-0.0652628918968141,-0.041956542850285765
1772639551386372900,7.219372802734375,0.13157529284656047,-0.07812149668708443,-0.05154127706903964
1772639551396417800,7.229417724609375,0.16071254000365734,-0.08939517037346958,-0.03597776070162654
1772639551406463000,7.239462890625,0.1111871693342924,-0.086971742618829,-0.026638306480832395
1772639551416508000,7.2495078125,0.0696954675167799,-0.06079597561582922,-0.019712014348991214
1772639551426553000,7.259552978515625,0.05561024354100227,-0.039785774682462215,-0.020351992752961814
1772639551436597800,7.26959765625,0.06764905638098716,-0.039902532929927105,0.0054681292127817865
1772639551446642000,7.279641845703125,0.07452537189126014,-0.0308920549351722,-0.03033964521680027
1772639551456686800,7.289686767578125,0.09339432301223277,-0.013122954814881085,-0.035206009144149716
1772639551466731800,7.299731689453125,0.11701952874958514,-0.011117241015657782,-0.042218664385192096
1772639551476777000,7.30977685546875,0.13878361679017542,-0.022464893253706396,-0.039982247102633116
1772639551486822000,7.31982177734375,0.1515162571132183,-0.01198700958751142,-0.0414025256967172
1772639551496866800,7.32986669921875,0.16254501612782477,-0.017921879529207943,-0.033297216380760074
1772639551506912000,7.339912109375,0.1403057117909193,-0.020599939632043242,-0.03450531352888792
1772639551516957000,7.34995703125,0.08797405152916908,-0.012097557289898395,-0.038792050937376914
1772639551527001900,7.360001953125,0.053334699824452395,-0.0005776537574827671,-0.05738240431267768
1772639551537046800,7.370046875,0.042241643401980396,-0.012055690909549593,-0.06258720641415566
1772639551547092000,7.380092041015625,0.06951777286231517,-0.02141995077803731,-0.065235821226798
1772639551557137000,7.390136962890625,0.10039572620689868,-0.02134973508603871,-0.05259575455803424
1772639551567180800,7.400180908203125,0.10849135437905788,-0.029371640434861183,-0.012942337550967931
1772639551577226000,7.41022607421875,0.12298399011194705,-0.05393098521716892,-0.016664463346637785
1772639551587271000,7.42027099609375,0.13641688765883445,-0.08121712461486458,0.0008418211190029979
1772639551597315800,7.43031591796875,0.17081307825744152,-0.056859805210679765,0.03138177468087524
1772639551607360800,7.44036083984375,0.17316870147287844,-0.06948313994035124,0.06279653831589967
1772639551617406000,7.450406005859375,0.1789209813892841,-0.08636844296343624,0.0929968481272459
1772639551627451000,7.460450927734375,0.1680260778874159,-0.07878792470656334,0.060230194959230716
1772639551637496000,7.47049609375,0.1458697756588459,-0.06267857449203729,0.052517574755288655
1772639551647540700,7.480540771484375,0.1302887601673603,-0.04047799473032355,0.07735109683647752
1772639551657586000,7.4905859375,0.101392920550704,-0.03381108418703079,0.08831899250932038
1772639551667630800,7.500630859375,0.07267828271985054,-0.03268785231076181,0.08474270492512732
1772639551677676000,7.510676025390625,0.05718143838047981,-0.019534063966199753,0.06624722675904632
1772639551687720000,7.520719970703125,0.024099837511777876,-0.0006344254460185765,0.03537555702477693
1772639551697764900,7.530764892578125,-0.03409223921597004,0.011260229682922363,0.059706792139634486
1772639551707810000,7.54081005859375,-0.0349608387440443,-0.005541705905646085,0.08579944743644445
1772639551717855000,7.55085498046875,-0.012090250766277313,-0.01665558592043817,0.09046696432344616
1772639551727900000,7.56089990234375,0.00135024556517601,-0.014094722456485033,0.051008521899208424
1772639551737944800,7.57094482421875,0.0576741903334856,-0.01368175774142146,0.021432883324846625
1772639551747990000,7.580989990234375,0.12954232571423052,-0.03881437236703932,-0.02083937441110611
1772639551758035000,7.591034912109375,0.14305296467244624,-0.05384447597749531,-0.044748767384700475
1772639551768080000,7.601079833984375,0.1387462073892355,-0.05081212254427373,-0.09128785225227475
1772639551778124800,7.611124755859375,0.14754150826334952,-0.09332593395113944,-0.13133278932757675
1772639551788170000,7.621169921875,0.12438684264719485,-0.09182736595645546,-0.1296088881444186
1772639551798214000,7.6312138671875,0.07605389663279057,-0.07882825671695172,-0.09815138134621083
