time,seconds_elapsed,z,y,x
1772639544218072800,0.05107275390625,0.027534954249858856,-0.04241297021508217,-0.008920524269342422
1772639544228117800,0.06111767578125,0.031065773218870163,-0.04152320697903633,-0.022324213758111
1772639544238162700,0.07116259765625,0.02883271314203739,-0.03555586189031601,-0.024770593270659447
1772639544248208000,0.081207763671875,0.0222640261054039,-0.041313618421554565,-0.014140053652226925
1772639544258252800,0.091252685546875,0.021805696189403534,-0.042927492409944534,0.0042144525796175
1772639544268297700,0.101297607421875,0.026343990117311478,-0.042279813438653946,0.016593623906373978
1772639544278342700,0.1113427734375,0.03200533613562584,-0.03575959429144859,0.026309369131922722
1772639544288387800,0.121387939453125,0.03605866804718971,-0.024657409638166428,0.03677825257182121
1772639544298432000,0.131431884765625,0.03015151061117649,-0.01007713470607996,0.04117034003138542
1772639544308476700,0.1414765625,0.020484767854213715,-0.000862864195369184,0.03810424357652664
1772639544318521900,0.15152197265625,0.009504023008048534,-0.00860094465315342,0.023873373866081238
1772639544328566800,0.16156689453125,0.003734018187969923,-0.011721637099981308,0.010067547671496868
1772639544338612000,0.171612060546875,0.008799617178738117,-0.01113520935177803,-0.004473045468330383
1772639544348657000,0.181656982421875,0.015630092471837997,-0.004707403481006622,-0.015564578585326672
1772639544358701800,0.191701904296875,0.02123125270009041,-0.0025363946333527565,-0.0184655599296093
1772639544368746800,0.201746826171875,0.023484021425247192,-0.005696501582860947,-0.020079435780644417
1772639544378792000,0.2117919921875,0.016160594299435616,-0.02082432247698307,-0.020294353365898132
1772639544388836900,0.2218369140625,0.006910902913659811,-0.02231729030609131,-0.02467365376651287
1772639544398881800,0.2318818359375,0.0036605149507522583,-0.013109942898154259,-0.03068680688738823
1772639544408926700,0.2419267578125,0.00239231763407588,-0.0032000544015318155,-0.03732366859912872
1772639544418971000,0.251970947265625,0.004895955324172974,-0.0016343819443136454,-0.04115302860736847
1772639544429015800,0.262015869140625,0.003846403444185853,-0.010205233469605446,-0.04373602941632271
1772639544439060700,0.272060791015625,0.005087969359010458,-0.014244449324905872,-0.04367583990097046
1772639544449105700,0.282105712890625,0.0052080778405070305,-0.022890934720635414,-0.04116448014974594
1772639544459150800,0.29215087890625,0.0049556102603673935,-0.027398601174354553,-0.0336783342063427
1772639544469195800,0.30219580078125,0.004796086810529232,-0.030283870175480843,-0.029385851696133614
1772639544479240700,0.31224072265625,0.004670652095228434,-0.02726091630756855,-0.024759141728281975
1772639544489285600,0.32228564453125,0.006160424090921879,-0.022289859130978584,-0.017908692359924316
1772639544499330800,0.332330810546875,0.007395864464342594,-0.015448465012013912,-0.015174957923591137
1772639544509375700,0.342375732421875,0.009018261916935444,-0.012938701547682285,-0.014786935411393642
1772639544519419600,0.352419677734375,0.011409248225390911,-0.013790646567940712,-0.015719307586550713
1772639544529464800,0.36246484375,0.015185610391199589,-0.009794839657843113,-0.020563332363963127
1772639544539509800,0.372509765625,0.01751028373837471,-0.008531169965863228,-0.026992734521627426
1772639544549555000,0.382554931640625,0.015686018392443657,-0.00461712246760726,-0.027334684506058693
1772639544559599900,0.392599853515625,0.01167663000524044,0.0020852552261203527,-0.025844646617770195
1772639544569644800,0.402644775390625,0.005097290500998497,0.003995274193584919,-0.023030217736959457
1772639544579689700,0.412689697265625,0.0062728095799684525,0.007987619377672672,-0.01423246506601572
1772639544589735000,0.42273486328125,0.008778311312198639,0.007480286993086338,-0.009069927968084812
1772639544599779800,0.43277978515625,0.0075756278820335865,0.0011076086666435003,-0.008860336616635323
1772639544609824800,0.44282470703125,0.008431301452219486,-0.0049284459091722965,-0.011854262091219425
1772639544619869700,0.45286962890625,0.00697907991707325,-0.007792941760271788,-0.0156567245721817
1772639544629915000,0.462914794921875,0.004750014282763004,-0.007374825421720743,-0.021378524601459503
1772639544639958800,0.472958740234375,0.003739610780030489,0.00034914040588773787,-0.027360517531633377
1772639544650003700,0.483003662109375,0.002175003755837679,0.007179083302617073,-0.03135818988084793
1772639544660048600,0.493048583984375,0.003090332029387355,0.006088785361498594,-0.031080154702067375
1772639544670093800,0.50309375,0.002261822810396552,0.0033393376506865025,-0.028850024566054344
1772639544680138800,0.513138671875,0.001888980157673359,0.000322775129461661,-0.02460707537829876
1772639544690184000,0.523183837890625,0.007428621407598257,-0.0006636597099713981,-0.01950152963399887
1772639544700228600,0.533228515625,0.005487177055329084,-0.004851746838539839,-0.014554441906511784
1772639544710273800,0.543273681640625,-0.0007632619817741215,-0.0027893949300050735,-0.01576671190559864
1772639544720318700,0.553318603515625,-0.00439048744738102,-0.002944657113403082,-0.01564766839146614
1772639544730364000,0.563364013671875,-0.011048655956983566,0.0014937670202925801,-0.01775822415947914
1772639544740408600,0.57340869140625,-0.008623049594461918,0.008202536031603813,-0.01835104450583458
1772639544750452700,0.58345263671875,-0.007997206412255764,-0.0013819142477586865,-0.018692994490265846
1772639544760498000,0.593497802734375,-0.006358829792588949,-0.008230498991906643,-0.02033350057899952
1772639544770542800,0.60354296875,-0.008317052386701107,-0.007558583747595549,-0.01720588468015194
1772639544780587800,0.613587890625,-0.010495517402887344,-0.004730040207505226,-0.01889379695057869
1772639544790632700,0.6236328125,-0.011539210565388203,-0.006329801399260759,-0.02123764343559742
1772639544800678000,0.633677978515625,-0.011840946972370148,-0.006808104924857616,-0.02370932325720787
1772639544810722800,0.643722900390625,-0.008197742514312267,-0.011636681854724884,-0.027635090053081512
1772639544820768000,0.65376806640625,-0.004775846842676401,-0.014432468451559544,-0.029396237805485725
1772639544830812700,0.663812744140625,-0.0023848607670515776,-0.015219433233141899,-0.02949211187660694
1772639544840857900,0.67385791015625,-0.002370745874941349,-0.02424701675772667,-0.03014112450182438
1772639544850902800,0.68390283203125,-0.00030839405371807516,-0.018270883709192276,-0.031127559021115303
1772639544860947000,0.693947021484375,-0.0030152308754622936,-0.004222708288580179,-0.02623533271253109
1772639544870991600,0.70399169921875,-0.008480836637318134,0.0007225155713967979,-0.020648552104830742
1772639544881036800,0.714036865234375,-0.01007820013910532,0.0012639362830668688,-0.01173495315015316
1772639544891081700,0.724081787109375,-0.007722900714725256,0.004728176165372133,-0.0011209244839847088
1772639544901127000,0.734126953125,-0.004254399798810482,0.005671733990311623,0.004969458561390638
1772639544911171600,0.744171630859375,-0.0013840447645634413,0.006960703991353512,0.007222492713481188
1772639544921216800,0.754216796875,-0.0043923514895141125,0.002645584288984537,0.002366218715906143
1772639544931261700,0.76426171875,-0.010663829743862152,-0.004722849931567907,-0.005308745428919792
1772639544941307000,0.774306884765625,-0.020142551511526108,-0.009605489671230316,-0.013089170679450035
1772639544951351800,0.784351806640625,-0.026668095961213112,-0.008296811953186989,-0.020800620317459106
1772639544961396700,0.794396728515625,-0.027283553034067154,-0.007165501359850168,-0.020428309217095375
1772639544971441000,0.80444091796875,-0.024929584935307503,-0.005061604082584381,-0.016812268644571304
1772639544981485800,0.81448583984375,-0.018324945122003555,-0.0022860574536025524,-0.00869309064000845
1772639544991530800,0.82453076171875,-0.014784006401896477,-0.00014700648898724467,-0.00006684534309897572
1772639545001575700,0.83457568359375,-0.012425243854522705,0.0011667308863252401,0.009355152025818825
1772639545011620900,0.844620849609375,-0.010046242736279964,0.0023813985753804445,0.015120362862944603
1772639545021665800,0.854665771484375,-0.01082814671099186,0.0015385081060230732,0.016579508781433105
1772639545031711000,0.8647109375,-0.011423629708588123,-0.004370513837784529,0.01347293145954609
1772639545041755600,0.874755615234375,-0.014003699645400047,-0.006478938274085522,0.005281048361212015
1772639545051800800,0.88480078125,-0.015126488171517849,-0.000013315805517777335,-0.0031473238486796618
1772639545061845800,0.894845703125,-0.017160611227154732,0.011890481226146221,-0.008791361004114151
1772639545071891000,0.904890869140625,-0.012386628426611423,0.01552596315741539,-0.011804727837443352
1772639545081934600,0.9149345703125,-0.008139952085912228,0.009735185652971268,-0.00723474333062768
1772639545091979800,0.924979736328125,-0.002868224401026964,-0.002225070958957076,0.0026431872975081205
1772639545102025200,0.935025146484375,0.0021760689560323954,-0.012381035834550858,0.010094712488353252
1772639545112070100,0.945070068359375,-0.0011486213188618422,-0.011916047893464565,0.013527792878448963
1772639545122115000,0.955114990234375,0.00025246766745112836,-0.006637662649154663,0.014599182642996311
1772639545132160300,0.96516015625,-0.0016855146968737245,-0.002049036091193557,0.015861254185438156
1772639545142205200,0.975205078125,-0.0034589136485010386,-0.0008500810363329947,0.02076386846601963
1772639545152250400,0.98525048828125,-0.0021076255943626165,-0.0002854908525478095,0.020675983279943466
1772639545162295000,0.995294921875,-0.0016468988033011556,-0.0035923379473388195,0.019358251243829727
1772639545172340200,1.00534033203125,-0.00002157160452043172,-0.008258729241788387,0.012890231795608997
1772639545182385200,1.01538525390625,-0.001847434788942337,-0.012822055257856846,0.008961536921560764
1772639545192430300,1.025430419921875,-0.002528937766328454,-0.00868936162441969,0.0014287859667092562
1772639545202474200,1.03547412109375,-0.003314303932711482,-0.0024564997293055058,-0.0033342777751386166
1772639545212519200,1.045519287109375,-0.0020655477419495583,0.0007273092633113265,-0.007820372469723225
1772639545222564000,1.055564208984375,-0.0012058793799951673,-0.0007227819296531379,-0.010597516782581806
1772639545232609300,1.065609375,-0.00430073868483305,-0.0026285399217158556,-0.011965050362050533
1772639545242654200,1.075654296875,-0.005349758081138134,-0.001954760169610381,-0.012645487673580647
1772639545252699100,1.08569921875,-0.009066198952496052,-0.0009496832499280572,-0.010327472351491451
1772639545262744000,1.095744140625,-0.008018244989216328,-0.0015246596885845065,-0.009138104505836964
1772639545272789200,1.105789306640625,-0.005240302067250013,-0.001648496720008552,-0.005792907904833555
1772639545282834200,1.115834228515625,-0.0006157228490337729,-0.0020849888678640127,-0.005094626918435097
1772639545292879000,1.125879150390625,-0.000966727442573756,-0.004057325888425112,-0.0019068233668804169
1772639545302924000,1.135924072265625,-0.0006628608098253608,-0.00902944803237915,0.00044022052315995097
1772639545312968200,1.14596826171875,-0.0027443873696029186,-0.01127928588539362,0.0013041499769315124
1772639545323013400,1.156013427734375,-0.008043278940021992,-0.009520268067717552,0.0039020637050271034
1772639545333058000,1.16605810546875,-0.012510465458035469,-0.011582087725400925,0.0067817396484315395
1772639545343103200,1.176103271484375,-0.0174998976290226,-0.008857407607138157,0.009801231324672699
1772639545353148200,1.186148193359375,-0.021163608878850937,-0.006422745529562235,0.01025450136512518
1772639545363193300,1.196193359375,-0.02334660105407238,-0.003230414353311062,0.008648615330457687
1772639545373238000,1.206238037109375,-0.02262541837990284,0.006066680885851383,0.010617757216095924
1772639545383283200,1.216283203125,-0.015300126746296883,0.009706157259643078,0.012091017328202724
1772639545393328000,1.226328125,-0.006420881487429142,0.010525611229240894,0.013833523727953434
1772639545403373300,1.236373291015625,-0.002065015025436878,0.013860688544809818,0.019093533977866173
1772639545413418200,1.246418212890625,-0.003985154442489147,0.011323494836688042,0.02095002308487892
1772639545423462100,1.256462158203125,-0.009247294627130032,0.006119145080447197,0.01888873614370823
1772639545433507300,1.26650732421875,-0.012663597241044044,-0.000969656917732209,0.014113156124949455
1772639545443552300,1.27655224609375,-0.012261459603905678,-0.006050968077033758,0.008588162250816822
1772639545453597200,1.28659716796875,-0.01193975005298853,-0.003858654061332345,0.002170742489397526
1772639545463642000,1.29664208984375,-0.009575129486620426,-0.0033337450586259365,-0.0017531589837744832
1772639545473687300,1.306687255859375,-0.007438741624355316,-0.0012157330056652427,-0.0023518374655395746
1772639545483732200,1.316732177734375,-0.006080262828618288,0.00077631144085899,-0.0033627734519541264
1772639545493777200,1.326777099609375,-0.0020727382507175207,-0.0027798074297606945,-0.006478139199316502
1772639545503822000,1.336822021484375,0.001014398061670363,-0.0005664543714374304,-0.009673932567238808
1772639545513867300,1.3468671875,0.005817675497382879,0.0011590076610445976,-0.013796505518257618
1772639545523912200,1.356912109375,0.008096808567643166,0.003364371368661523,-0.014247911982238293
1772639545533956400,1.366956298828125,0.008156729862093925,0.0015664712991565466,-0.010186058469116688
1772639545544001000,1.3770009765625,0.0030242856591939926,-0.0007025419035926461,-0.007179616019129753
1772639545554046200,1.387046142578125,0.00045566685730591416,-0.0022602248936891556,-0.005106078926473856
1772639545564091100,1.397091064453125,-0.000360059377271682,-0.00037683729897253215,-0.0052237906493246555
1772639545574136300,1.40713623046875,0.003698864486068487,0.0008689894457347691,-0.00926487147808075
1772639545584181200,1.41718115234375,0.005859220866113901,-0.002073803450912237,-0.01155625469982624
1772639545594226200,1.42722607421875,0.007990814745426178,-0.013174924068152905,-0.02052125334739685
1772639545604271000,1.43727099609375,0.008480836637318134,-0.019949739798903465,-0.028726452961564064
1772639545614316300,1.44731640625,0.004550010897219181,-0.019841082394123077,-0.03439871966838837
1772639545624361200,1.457361328125,0.001987783471122384,-0.010510964319109917,-0.03435105085372925
1772639545634406100,1.46740625,-0.000017843178284238093,-0.00440992834046483,-0.027418041601777077
1772639545644450300,1.4774501953125,-0.0003174488083459437,-0.006829143967479467,-0.01914386637508869
1772639545654495200,1.4874951171875,-0.0008913599886000156,-0.012861736118793488,-0.011652661487460136
1772639545664540400,1.49754052734375,0.0022426480427384377,-0.020832844078540802,-0.005110872443765402
1772639545674585000,1.507585205078125,0.002620816696435213,-0.026555178686976433,-0.0034498588647693396
1772639545684630300,1.51763037109375,0.003319896524772048,-0.02154657058417797,-0.002112952060997486
1772639545694675200,1.52767529296875,0.004252802114933729,-0.014548582956194878,-0.0025449167005717754
1772639545704720400,1.537720458984375,0.0035292210523039103,-0.01125345379114151,-0.004761199466884136
1772639545714765300,1.547765380859375,0.0008234494016505778,-0.0070579093880951405,-0.004234692547470331
1772639545724810200,1.557810302734375,-0.0002508697798475623,-0.003516171593219042,0.0007723167072981596
1772639545734855200,1.567855224609375,0.0003475425182841718,-0.0026993800420314074,0.005971073638647795
1772639545744900400,1.577900390625,0.00236195744946599,-0.005788114387542009,0.009800964966416359
1772639545754944000,1.587944091796875,0.001252484624274075,-0.004013916477560997,0.01901816576719284
1772639545764989200,1.5979892578125,0.0015278555219992995,-0.0012719257501885295,0.026195917278528214
1772639545775034000,1.6080341796875,0.00044528054422698915,0.003317766124382615,0.03328045830130577
1772639545785079300,1.618079345703125,-0.0009432916413061321,0.002260757377371192,0.033014941960573196
1772639545795124200,1.628124267578125,-0.0013843111228197813,-0.0027257453184574842,0.02707183174788952
1772639545805169200,1.638169189453125,-0.0038373488932847977,-0.0065255435183644295,0.014400777406990528
1772639545815214000,1.648214111328125,-0.006502906791865826,-0.011325358413159847,0.0004316983977332711
1772639545825259300,1.65825927734375,-0.008171110413968563,-0.005224322900176048,-0.010872621089220047
1772639545835304200,1.66830419921875,-0.0071066454984247684,-0.0009867012267932296,-0.02171674743294716
1772639545845349000,1.67834912109375,-0.006814230233430862,0.00017363809456583112,-0.02696130983531475
1772639545855394000,1.68839404296875,-0.0089980224147439,-0.002548911375924945,-0.024523451924324036
1772639545865439200,1.698439208984375,-0.0075852153822779655,-0.007157245185226202,-0.017552362754940987
1772639545875483400,1.7084833984375,-0.002822684356942773,-0.01227637380361557,-0.002603239845484495
1772639545885528000,1.718528076171875,0.006332730874419212,-0.016646355390548706,0.0063092950731515884
1772639545895573200,1.7285732421875,0.011748002842068672,-0.01691613346338272,0.013575197197496891
1772639545905618200,1.7386181640625,0.014592258259654045,-0.015540610067546368,0.01678031124174595
1772639545915663400,1.748663330078125,0.01025769766420126,-0.021685054525732994,0.015412245877087116
1772639545925708300,1.758708251953125,0.0059713395312428474,-0.03725416213274002,0.009425193071365356
1772639545935753200,1.768753173828125,0.002847185591235757,-0.05030231922864914,-0.00023915186466183513
1772639545945798100,1.778798095703125,-0.004230963997542858,-0.04561595618724823,-0.007398793939501047
1772639545955843300,1.78884326171875,-0.007951666601002216,-0.02907452918589115,-0.010835071094334126
1772639545965888300,1.79888818359375,-0.01040576957166195,-0.0062456452287733555,-0.008680840022861958
1772639545975933200,1.80893310546875,-0.010759969241917133,0.005486644338816404,-0.00046631949953734875
1772639545985977000,1.81897705078125,-0.00660437298938632,0.009906427003443241,0.010699782520532608
1772639545996022300,1.829022216796875,0.0011624698527157307,0.006906109396368265,0.0190218947827816
1772639546006067200,1.839067138671875,0.008988435380160809,0.004280498716980219,0.022274678573012352
1772639546016112000,1.849112060546875,0.01317865215241909,0.0013379721203818917,0.0176375824958086
1772639546026157000,1.859156982421875,0.0065772091038525105,0.011937352828681469,0.0037529265973716974
1772639546036202200,1.8692021484375,0.0007946872501634061,0.023151924833655357,-0.012300342321395874
1772639546046247200,1.8792470703125,-0.006503705866634846,0.0206283126026392,-0.017767811194062233
1772639546056292400,1.889292236328125,-0.008905078284442425,0.006750048138201237,-0.015578427352011204
1772639546066337000,1.8993369140625,-0.005766542628407478,-0.0036195022985339165,-0.011267567984759808
1772639546076382200,1.90938232421875,-0.0004846953088417649,-0.007288805674761534,-0.0057039582170546055
1772639546086427100,1.91942724609375,0.0038743666373193264,-0.009267800487577915,0.004462658893316984
1772639546096471300,1.92947119140625,0.005339637864381075,-0.01344763208180666,0.003747866488993168
1772639546106515000,1.939514892578125,0.003948402591049671,-0.012035091407597065,0.006044044159352779
1772639546116560000,1.949559814453125,0.003422162029892206,-0.007529821712523699,0.0015209312550723553
1772639546126605000,1.95960498046875,-0.0006359628750942647,-0.0015129417879506946,-0.004552940372377634
1772639546136650000,1.96964990234375,-0.00022370553051587194,0.0055028898641467094,-0.00714552728459239
1772639546146695200,1.979695068359375,-0.0016788567882031202,0.009408681653439999,-0.01028406247496605
1772639546156739800,1.98973974609375,0.0019920445047318935,0.004008323885500431,-0.01239195466041565
1772639546166785000,1.999784912109375,0.005499161314219236,-0.00016192019393201917,-0.013395700603723526
1772639546176830000,2.009829833984375,0.007552458439022303,0.00044075315236113966,-0.014695323072373867
1772639546186875100,2.019875244140625,0.00897032581269741,-0.0014474280178546906,-0.015686018392443657
1772639546196919800,2.029919921875,0.0054634748958051205,-0.0022485069930553436,-0.01678856648504734
1772639546206964000,2.0399638671875,0.004160390235483646,0.003805124433711171,-0.014502509497106075
1772639546217009200,2.050009033203125,0.005377987399697304,0.005323392804712057,-0.009019060991704464
1772639546227054000,2.06005419921875,0.012168249115347862,-0.004456533584743738,-0.01774464175105095
1772639546237099000,2.07009912109375,0.0078571243211627,0.0013720606220886111,-0.021452561020851135
1772639546247144000,2.08014404296875,-0.0002801645314320922,-0.005101817660033703,-0.016413593664765358
1772639546257189000,2.090189208984375,0.0023614249657839537,-0.0033161682076752186,-0.011210043914616108
1772639546267234000,2.100234130859375,0.0038986015133559704,-0.003340669209137559,-0.006542321294546127
1772639546277279200,2.110279296875,0.004729773849248886,-0.011856126599013805,-0.007212905213236809
1772639546287324000,2.120323974609375,0.005694371182471514,-0.01245427317917347,-0.008232896216213703
1772639546297369000,2.130369140625,0.0073202308267354965,-0.012882242910563946,-0.015626629814505577
1772639546307414000,2.1404140625,0.004820588044822216,-0.009857690893113613,-0.020070647820830345
1772639546317459200,2.150459228515625,0.0018277274211868644,-0.00410552928224206,-0.024999093264341354
1772639546327502800,2.1605029296875,-0.0032354744616895914,-0.0017443705582991242,-0.024447020143270493
1772639546337548000,2.170548095703125,-0.008383630774915218,-0.002703374717384577,-0.022462964057922363
1772639546347593000,2.180593017578125,-0.013540043495595455,-0.0021760689560323954,-0.015843411907553673
1772639546357638100,2.19063818359375,-0.01257997378706932,0.0016508935950696468,-0.0060206083580851555
1772639546367682800,2.200682861328125,-0.009270464070141315,0.002388589084148407,0.005100485868752003
1772639546377728000,2.21072802734375,-0.0008282430935651064,0.003035204717889428,0.017789116129279137
1772639546387773000,2.22077294921875,0.00729333283379674,0.0004767058417201042,0.02930329367518425
1772639546397818000,2.230818115234375,0.00890827365219593,-0.004231496714055538,0.027940021827816963
1772639546407863000,2.240863037109375,0.0015012238873168826,-0.013481720350682735,0.017293503507971764
1772639546417908000,2.250907958984375,-0.005307946354150772,-0.01366308145225048,-0.0006173207075335085
1772639546427953000,2.260952880859375,-0.012704077176749706,-0.005082643125206232,-0.016707073897123337
1772639546437997000,2.2709970703125,-0.017369668930768967,0.0054759918712079525,-0.023519441485404968
1772639546448042000,2.2810419921875,-0.01636565662920475,0.015361113473773003,-0.019419504329562187
1772639546458087000,2.2910869140625,-0.010176205076277256,0.010982077568769455,-0.008010256104171276
1772639546468132000,2.301132080078125,-0.005061337724328041,0.001537709147669375,0.0102553004398942
1772639546478177000,2.311177001953125,0.002032258315011859,-0.007728226948529482,0.024027038365602493
1772639546488222200,2.32122216796875,0.00891093723475933,-0.008723184466362,0.031185882166028023
1772639546498267000,2.331266845703125,0.009236374869942665,-0.008611598052084446,0.026789803057909012
1772639546508312000,2.34131201171875,0.00836925022304058,-0.0018258632626384497,0.01588069647550583
1772639546518357000,2.35135693359375,0.0028013791888952255,0.0062248725444078445,0.0035923379473388195
1772639546528402200,2.361402099609375,0.00006631271389778703,0.0135067543014884,-0.0027172232512384653
1772639546538447000,2.371447021484375,-0.003721501212567091,0.011009507812559605,-0.003784085623919964
1772639546548491000,2.381490966796875,-0.0013627394801005721,0.005357214715331793,0.005270395893603563
1772639546558536000,2.391535888671875,0.0016913736471906304,-0.0019622170366346836,0.018455972895026207
1772639546568581000,2.4015810546875,0.004773982334882021,-0.006839530076831579,0.029955768957734108
1772639546578625800,2.411625732421875,0.002862099092453718,-0.010431068949401379,0.03289589658379555
1772639546588671000,2.4216708984375,-0.0010641991393640637,-0.011516573838889599,0.031623706221580505
1772639546598716000,2.4317158203125,-0.008468586020171642,-0.00999084860086441,0.02117159776389599
1772639546608761000,2.441760986328125,-0.016929183155298233,0.00026764770154841244,0.006886135786771774
1772639546618806000,2.451805908203125,-0.02130395732820034,0.008952216245234013,-0.008100270293653011
1772639546628851000,2.461850830078125,-0.017642643302679062,0.009636647999286652,-0.016436496749520302
1772639546638895900,2.471895751953125,-0.014849785715341568,0.004232295788824558,-0.01489452738314867
1772639546648941000,2.481941162109375,-0.011769840493798256,-0.004641357343643904,-0.00632048025727272
1772639546658986000,2.491986083984375,-0.008254467509686947,-0.006286125164479017,0.0013353090034797788
1772639546669030000,2.50202978515625,-0.006683468818664551,-0.005138036794960499,0.011847604997456074
1772639546679075000,2.512074951171875,-0.009893377311527729,-0.0029981867410242558,0.01865570992231369
1772639546689120000,2.5221201171875,-0.011847604997456074,-0.0032357405871152878,0.02503983862698078
1772639546699165200,2.532165283203125,-0.010730142705142498,-0.005106877535581589,0.02328694611787796
1772639546709209900,2.5422099609375,-0.01263882964849472,-0.005056543741375208,0.0203915573656559
1772639546719255000,2.552255126953125,-0.013195164501667023,-0.003353186184540391,0.008941829204559326
1772639546729300000,2.562300048828125,-0.014670289121568203,-0.0014090784825384617,0.0007166566210798919
1772639546739345200,2.57234521484375,-0.02142699435353279,-0.0012506204657256603,-0.010625213384628296
1772639546749390000,2.58239013671875,-0.020050406455993652,0.0015092133544385433,-0.01501330453902483
1772639546759435000,2.59243505859375,-0.01799178309738636,0.003296194365248084,-0.012340289540588856
1772639546769480000,2.60247998046875,-0.011815380305051804,0.0018130800453945994,-0.0016010924009606242
1772639546779525000,2.612525146484375,-0.005280782002955675,-0.006644853390753269,0.010282731615006924
1772639546789569000,2.622569091796875,-0.001392300589941442,-0.01549640204757452,0.01834864728152752
1772639546799614000,2.632614013671875,0.0010455570882186294,-0.016451943665742874,0.01804371550679207
1772639546809659000,2.642658935546875,0.0013635384384542704,-0.011522432789206505,0.012079565785825253
1772639546819704000,2.6527041015625,-0.0038780951872467995,-0.006127400789409876,0.0009022789890877903
1772639546829749000,2.6627490234375,-0.01107448898255825,-0.000319845654303208,-0.011756790801882744
1772639546839794000,2.6727939453125,-0.01330089196562767,0.0043931505642831326,-0.018063955008983612
1772639546849838800,2.6828388671875,-0.011754926294088364,0.003835750976577401,-0.019116170704364777
1772639546859884000,2.692884033203125,-0.0057223341427743435,0.003985154442489147,-0.013109942898154259
1772639546869929000,2.702928955078125,0.0011717908782884479,0.004595550708472729,-0.0027057717088609934
1772639546879974100,2.71297412109375,0.0036477316170930862,0.004569185432046652,0.008410795591771603
1772639546890018800,2.723018798828125,0.001981125446036458,-0.00013129384024068713,0.012884372845292091
1772639546900063000,2.73306298828125,-0.0034906051587313414,-0.011442005634307861,0.01131097786128521
1772639546910108200,2.743108154296875,-0.009525061585009098,-0.01715714856982231,0.0010950918076559901
1772639546920153000,2.753153076171875,-0.014614095911383629,-0.015177355147898197,-0.013019927777349949
1772639546930198000,2.763197998046875,-0.01691560074687004,-0.009663546457886696,-0.02509097196161747
1772639546940243000,2.773242919921875,-0.01438160240650177,-0.003049319377169013,-0.03122023679316044
1772639546950288100,2.7832880859375,-0.009876865893602371,0.00259418529458344,-0.027903802692890167
1772639546960333000,2.7933330078125,-0.002942526713013649,0.009040899574756622,-0.020229637622833252
1772639546970378000,2.8033779296875,0.004874383565038443,0.010603109374642372,-0.007647533435374498
1772639546980423000,2.8134228515625,0.011531487107276917,0.00839534867554903,0.003549993736669421
1772639546990468000,2.823468017578125,0.013741911388933659,0.00577799417078495,0.010455570183694363
1772639547000513000,2.833512939453125,0.010321613401174545,0.002758768619969487,0.012531770393252373
1772639547010558200,2.84355810546875,0.005102616734802723,0.0038189729675650597,0.011473430320620537
1772639547020602000,2.85360205078125,0.0013670006301254034,0.006424077320843935,0.00848749466240406
1772639547030647000,2.86364697265625,-0.0019411781104281545,0.01176318246871233,0.007017163094133139
1772639547040692000,2.87369189453125,-0.000657534459605813,0.014662299305200577,0.0097450390458107
1772639547050737200,2.883737060546875,0.008567389100790024,0.014812768436968327,0.013293168507516384
1772639547060782000,2.893781982421875,0.018907643854618073,0.011343734338879585,0.018069015815854073
1772639547070827000,2.903826904296875,0.022767895832657814,0.001353418454527855,0.019099125638604164
1772639547080872000,2.913871826171875,0.02251303195953369,-0.0020501012913882732,0.014267618767917156
1772639547090917000,2.923917236328125,0.01884479448199272,0.0022951122373342514,0.0009502158500254154
1772639547100962000,2.933962158203125,0.013560550287365913,0.00788348913192749,-0.011683288030326366
1772639547111007200,2.94400732421875,0.012507801875472069,0.00569969741627574,-0.024060329422354698
1772639547121052200,2.95405224609375,0.009790312498807907,0.00034168356796726584,-0.03561392053961754
1772639547131096300,2.964096435546875,0.011305651627480984,-0.0055151404812932014,-0.04110056534409523
1772639547141141200,2.974141357421875,0.015528359450399876,-0.007617173250764608,-0.042454514652490616
1772639547151186200,2.984186279296875,0.01678111031651497,-0.0049026133492589,-0.040273651480674744
1772639547161231400,2.9942314453125,0.01618482917547226,0.0001270327775273472,-0.03238537162542343
1772639547171276300,3.0042763671875,0.020781977102160454,0.010419617407023907,-0.028503546491265297
1772639547181321500,3.014321533203125,0.024506408721208572,-0.011824967339634895,-0.02664998732507229
1772639547191366100,3.0243662109375,0.02419774793088436,-0.016866065561771393,-0.02028103731572628
1772639547201411300,3.034411376953125,0.01858380436897278,-0.028252409771084785,-0.01733584702014923
1772639547211456300,3.044456298828125,0.011411379091441631,-0.0366528183221817,-0.014473214745521545
1772639547221501400,3.05450146484375,0.006626743823289871,-0.03308418393135071,-0.01876649633049965
1772639547231546000,3.064546142578125,0.0038951393216848373,-0.02750912308692932,-0.022894397377967834
1772639547241591300,3.07459130859375,0.0049132658168673515,-0.0199233740568161,-0.026498984545469284
1772639547251635200,3.08463525390625,0.005824067164212465,-0.01347825862467289,-0.023926371708512306
1772639547261680400,3.094680419921875,0.008299475535750389,-0.00740252248942852,-0.017778463661670685
1772639547271725000,3.10472509765625,0.006624612957239151,-0.009939716197550297,-0.006108226254582405
1772639547281770200,3.114770263671875,0.010804178193211555,-0.008577242493629456,0.005936718545854092
1772639547291815200,3.124815185546875,0.009831591509282589,-0.004135889001190662,0.019944678992033005
1772639547301860400,3.1348603515625,0.004601143300533295,-0.001978195970878005,0.026926156133413315
1772639547311905300,3.1449052734375,-0.0012322446564212441,-0.0028503811918199062,0.033243708312511444
1772639547321950200,3.1549501953125,-0.00430233683437109,-0.0038812910206615925,0.03086230903863907
1772639547331995100,3.1649951171875,-0.0062823970802128315,-0.0011022823164239526,0.02304593101143837
1772639547342040300,3.175040283203125,-0.005633384454995394,0.0033936661202460527,0.013696637004613876
1772639547352085200,3.185085205078125,-0.0034764904994517565,0.010243582539260387,0.007187605369836092
1772639547362130200,3.195130126953125,0.0019294602097943425,0.01756115071475506,0.004613127559423447
1772639547372174300,3.20517431640625,0.00044528054422698915,0.013491573743522167,0.0005747101386077702
1772639547382219300,3.21521923828125,-0.0007281082216650248,0.0011789813870564103,-0.0015036207623779774
1772639547392264400,3.225264404296875,-0.006846188101917505,-0.011838549748063087,-0.004093545023351908
1772639547402309000,3.23530908203125,-0.01076875813305378,-0.021615546196699142,-0.005643238313496113
1772639547412354300,3.245354248046875,-0.012120578438043594,-0.0181070975959301,-0.010101103223860264
1772639547422399200,3.255399169921875,-0.007245662156492472,-0.011024155654013157,-0.00998925045132637
1772639547432444400,3.2654443359375,-0.002388589084148407,-0.008494950830936432,-0.010610300116240978
1772639547442489300,3.2754892578125,-0.0012785836588591337,-0.005709284916520119,-0.00851359311491251
1772639547452534300,3.2855341796875,-0.0004572647449094802,0.0014170679496601224,-0.004534298088401556
1772639547462579200,3.2955791015625,0.0025302693247795105,0.00038482676609419286,-0.0030836742371320724
1772639547472624400,3.305624267578125,0.00433136522769928,-0.0034373418893665075,-0.001871403306722641
1772639547482668300,3.315668212890625,0.00344533147290349,-0.005103149451315403,-0.006595850922167301
1772639547492713200,3.325713134765625,0.002665824256837368,-0.004318848252296448,-0.0085439532995224
1772639547502758100,3.335758056640625,0.002104163635522127,-0.008962335996329784,-0.011113370768725872
1772639547512803300,3.34580322265625,0.0031310785561800003,-0.010733071714639664,-0.012491556815803051
1772639547522848300,3.35584814453125,0.005016862880438566,-0.015114237554371357,-0.009014267474412918
1772639547532893200,3.36589306640625,0.007308512926101685,-0.01564633846282959,-0.0062110242433846
1772639547542938000,3.375938232421875,0.01158501673489809,-0.013588779605925083,-0.0011470235185697675
1772639547552983300,3.3859833984375,0.01116157416254282,-0.011575696058571339,0.002986735198646784
1772639547563028200,3.3960283203125,0.012946957722306252,-0.013715279288589954,0.010098440572619438
1772639547573073400,3.406073486328125,0.008533034473657608,-0.015338742174208164,0.009396164678037167
1772639547583118000,3.4161181640625,0.008642756380140781,-0.015683354809880257,0.01203935220837593
1772639547593163300,3.426163330078125,0.008807606063783169,-0.012265987694263458,0.0120689133182168
1772639547603207400,3.43620751953125,0.008371113799512386,-0.012229768559336662,0.012594355270266533
1772639547613252000,3.446252197265625,0.009363674558699131,-0.015205584466457367,0.011681423522531986
1772639547623297300,3.45629736328125,0.004618720151484013,-0.011799135245382786,0.005801429972052574
1772639547633342200,3.46634228515625,0.0022511701099574566,-0.00729413190856576,0.0027446537278592587
1772639547643387400,3.476387451171875,-0.0036011263728141785,-0.005874933209270239,0.0001984054979402572
1772639547653432300,3.486432373046875,-0.005585980135947466,-0.00019094864546786994,-0.001443166984245181
1772639547663477200,3.496477294921875,-0.0036490634083747864,0.003293797606602311,-0.001208009896799922
1772639547673522200,3.506522216796875,-0.0023819312918931246,0.003346261801198125,-0.000182959163794294
1772639547683567400,3.5165673828125,0.0007219829712994397,0.00025539714260958135,0.006836866959929466
1772639547693612300,3.5266123046875,0.0006095975404605269,-0.009367669001221657,0.01104679238051176
1772639547703657500,3.536657470703125,0.0003225088003091514,-0.017372865229845047,0.008732505142688751
1772639547713702100,3.5467021484375,-0.002868490759283304,-0.014117150567471981,0.0036157737486064434
1772639547723746300,3.556746337890625,-0.004273840691894293,-0.011683819815516472,-0.0024626250378787518
1772639547733791200,3.566791259765625,-0.003718305379152298,-0.008480836637318134,-0.0073529877699911594
1772639547743836200,3.576836181640625,-0.00466559175401926,-0.00854501873254776,-0.01128035131841898
1772639547753881300,3.58688134765625,-0.0044014062732458115,-0.009464874863624573,-0.01594727486371994
1772639547763926300,3.59692626953125,-0.0011028150329366326,-0.011616175994277,-0.014167217537760735
1772639547773971200,3.60697119140625,0.005811550188809633,-0.01218635868281126,-0.012538694776594639
1772639547784016400,3.617016357421875,0.010209227912127972,-0.01501330453902483,-0.007819839753210545
1772639547794061000,3.62706103515625,0.008190551772713661,-0.016635701060295105,-0.006189718842506409
1772639547804106200,3.637106201171875,0.003576092654839158,-0.015387211926281452,-0.010927748866379261
1772639547814151200,3.647151123046875,-0.0006420881254598498,-0.015806393697857857,-0.016498282551765442
1772639547824196400,3.6571962890625,-0.003919640555977821,-0.00805952399969101,-0.017956096678972244
1772639547834240300,3.667240234375,-0.0002490055630914867,0.000013315805517777335,-0.012230833992362022
1772639547844285200,3.67728515625,0.004421379882842302,0.00566827179864049,-0.003108441596850753
1772639547854330400,3.687330322265625,0.006134857889264822,0.00003968110104324296,0.00851439218968153
1772639547864375300,3.697375244140625,0.0035742283798754215,-0.012405803427100182,0.011848137713968754
1772639547874420200,3.707420166015625,-0.00013369068619795144,-0.02202301099896431,0.008532501757144928
1772639547884465200,3.717465087890625,-0.006031793542206287,-0.023322898894548416,0.004240018781274557
1772639547894510300,3.72751025390625,-0.008656338788568974,-0.016521718353033066,-0.00440939562395215
1772639547904555300,3.73755517578125,-0.010013218969106674,-0.008068312890827656,-0.012492089532315731
1772639547914600400,3.747600341796875,-0.008184160105884075,-0.0032147017773240805,-0.017343835905194283
1772639547924645000,3.75764501953125,-0.0018738001817837358,0.004720719531178474,-0.014507836662232876
1772639547934690300,3.767690185546875,0.001788312685675919,0.006567621603608131,-0.010362626053392887
1772639547944735200,3.7777353515625,0.00746084563434124,0.004267981741577387,-0.003917776048183441
1772639547954779400,3.787779296875,0.011803662404417992,-0.0014759238110855222,0.00313560594804585
1772639547964824300,3.79782421875,0.015813317149877548,-0.005302620120346546,0.007049920037388802
1772639547974869200,3.807869140625,0.011328554712235928,-0.007647000718861818,0.008649947121739388
1772639547984914200,3.8179140625,0.00833729188889265,-0.008590824902057648,0.003320961957797408
1772639547994959400,3.82795947265625,0.00267807487398386,-0.007252852898091078,-0.0006354302167892456
1772639548005004300,3.83800439453125,0.0006737797521054745,-0.010116816498339176,-0.004450940992683172
1772639548015049200,3.84804931640625,0.006189452484250069,-0.013717143796384335,-0.0026381274219602346
1772639548025094100,3.85809423828125,0.011304053477942944,-0.013529391027987003,0.0027768779546022415
1772639548035139300,3.868139404296875,0.013873737305402756,-0.014968829229474068,0.007793474476784468
1772639548045184300,3.878184326171875,0.014341388829052448,-0.01781734637916088,0.010055030696094036
1772639548055229200,3.888229248046875,0.010223343037068844,-0.01576058752834797,0.011320032179355621
1772639548065274000,3.898274169921875,0.011377290822565556,-0.013054815120995045,0.009865946136415005
1772639548075318300,3.908318359375,0.009844907559454441,-0.010370349511504173,0.0067907944321632385
1772639548085363500,3.918363525390625,0.007677094545215368,-0.01859712041914463,-0.0002324939559912309
1772639548095408000,3.928408203125,0.0014117417158558965,-0.025351429358124733,-0.009408948011696339
1772639548105453600,3.93845361328125,-0.0026080335956066847,-0.022910907864570618,-0.018190454691648483
1772639548115498200,3.948498291015625,-0.0042706448584795,-0.022278940305113792,-0.025848908349871635
1772639548125543400,3.95854345703125,-0.004916994366794825,-0.021409951150417328,-0.028483573347330093
1772639548135588400,3.96858837890625,-0.003629089565947652,-0.015971243381500244,-0.02641403116285801
1772639548145633500,3.978633544921875,-0.004878112114965916,-0.01164333987981081,-0.020867731422185898
1772639548155678500,3.988678466796875,-0.005312739871442318,-0.004641090985387564,-0.00980282947421074
1772639548165723400,3.998723388671875,-0.006458698306232691,-0.004335892386734486,0.0013664679136127234
1772639548175768300,4.008768310546875,-0.010982876643538475,-0.007330084685236216,0.012378904968500137
1772639548185812500,4.0188125,-0.010815629735589027,-0.011187939904630184,0.018451977521181107
1772639548195857400,4.028857421875,-0.008553008548915386,-0.01101749762892723,0.022240590304136276
1772639548205902300,4.03890234375,-0.006177202332764864,-0.009091765619814396,0.023012109100818634
1772639548215947300,4.048947265625,-0.007956193760037422,-0.008301871828734875,0.02124030701816082
1772639548225992400,4.058992431640625,-0.00851545762270689,-0.005783320404589176,0.013906494714319706
1772639548236037400,4.069037353515625,-0.008778844028711319,-0.004822984803467989,0.005994775798171759
1772639548246082300,4.079082275390625,-0.009019593708217144,-0.0014026869321241975,-0.00010519486386328936
1772639548256127200,4.089127197265625,-0.009521599858999252,-0.0025214808993041515,-0.0016727314796298742
1772639548266172400,4.09917236328125,-0.007879494689404964,0.00013262542779557407,-0.0008633967954665422
1772639548276217300,4.10921728515625,-0.0073175677098333836,0.007750597782433033,0.007660849019885063
1772639548286262500,4.119262451171875,-0.01028379611670971,0.00509862182661891,0.015684153884649277
1772639548296307200,4.12930712890625,-0.013737383298575878,-0.0009717874927446246,0.02197054587304592
1772639548306351400,4.139351318359375,-0.012382633984088898,-0.004995557479560375,0.021284515038132668
1772639548316396500,4.149396484375,-0.010902448557317257,-0.009164470247924328,0.015445002354681492
1772639548326441200,4.159441162109375,-0.00848296657204628,-0.003995007835328579,0.006431533955037594
1772639548336486400,4.169486328125,-0.009414540603756905,0.0038314899429678917,-0.0005813680472783744
1772639548346531300,4.17953125,-0.012973855249583721,0.007075752597302198,-0.006025135517120361
1772639548356576500,4.189576416015625,-0.015996810048818588,-0.006137521006166935,-0.010041449218988419
1772639548366621400,4.199621337890625,-0.021281586959958076,-0.021624868735671043,-0.017657024785876274
1772639548376666400,4.209666259765625,-0.020772123709321022,-0.028775721788406372,-0.02346990630030632
1772639548386711300,4.219711181640625,-0.016112124547362328,-0.029993318021297455,-0.03129826858639717
1772639548396756500,4.229756591796875,-0.011540009640157223,-0.026448385789990425,-0.033475134521722794
1772639548406801400,4.239801513671875,-0.007632886059582233,-0.017546502873301506,-0.03760623186826706
1772639548416846600,4.2498466796875,-0.0015611450653523207,-0.00723607512190938,-0.03537397086620331
1772639548426890500,4.259890380859375,0.000054861116950633004,0.002174471039324999,-0.02575862593948841
1772639548436935400,4.269935302734375,0.003355582943186164,0.0022980417124927044,-0.012471050955355167
1772639548446980400,4.27998046875,0.004254932515323162,-0.0022506373934447765,-0.002694852650165558
1772639548457025300,4.290025390625,0.002910302486270666,-0.005105013493448496,0.006198507267981768
1772639548467070500,4.300070556640625,0.0043992758728563786,-0.00401737866923213,0.008043811656534672
1772639548477115400,4.310115478515625,0.0037883466575294733,-0.002703374717384577,0.006193447392433882
1772639548487160300,4.320160400390625,0.001023186487145722,-0.005003546830266714,0.0020940436515957117
1772639548497205500,4.33020556640625,0.0031944618094712496,-0.008865662850439548,-0.0020181434229016304
1772639548507250400,4.34025048828125,0.002888997085392475,-0.010326140560209751,-0.009290703572332859
1772639548517295400,4.35029541015625,0.005847768858075142,-0.005480785388499498,-0.010203901678323746
1772639548527340300,4.36034033203125,0.004156928043812513,-0.0015627428656443954,-0.006047239992767572
1772639548537385500,4.370385498046875,0.0036610474344342947,-0.004021905828267336,0.00035952674807049334
1772639548547429400,4.380429443359375,0.0024343954864889383,-0.006095709279179573,0.004513525404036045
1772639548557474300,4.390474365234375,0.006630471907556057,-0.005065598525106907,0.010819890536367893
1772639548567519500,4.40051953125,0.008533833548426628,-0.00503976596519351,0.010481935925781727
1772639548577564400,4.410564453125,0.009846505708992481,-0.002847185591235757,0.006835535634309053
1772639548587609300,4.420609375,0.009063003584742546,-0.0048861014656722546,0.0016793893883004785
1772639548597654300,4.430654296875,0.01050483901053667,-0.007555654272437096,-0.005850166082382202
1772639548607699500,4.440699462890625,0.009472597390413284,-0.008867793716490269,-0.012081163935363293
1772639548617744400,4.450744384765625,0.009182313457131386,-0.007871238514780998,-0.018642926588654518
1772639548627789600,4.46078955078125,0.008154598996043205,-0.005717806983739138,-0.022295452654361725
1772639548637834200,4.470834228515625,0.008638761937618256,-0.017402159050107002,-0.0241926871240139
1772639548647879400,4.48087939453125,0.006205698009580374,-0.02503291517496109,-0.024535169824957848
1772639548657924400,4.49092431640625,0.006572681479156017,-0.023729298263788223,-0.02448457106947899
1772639548667968500,4.500968505859375,0.0073567163199186325,-0.02046293020248413,-0.019170232117176056
1772639548678013400,4.511013427734375,0.004189951345324516,-0.019633622840046883,-0.009329053573310375
1772639548688058400,4.521058349609375,0.00042450788896530867,-0.020498083904385567,-0.0010133327450603247
1772639548698103600,4.531103515625,0.0007653924985788763,-0.017238907516002655,0.008274441584944725
1772639548708148500,4.5411484375,-0.0017470336752012372,-0.01401728205382824,0.012379171326756477
1772639548718193400,4.551193359375,-0.0027744811959564686,-0.01696540042757988,0.013249225914478302
1772639548728238300,4.56123828125,-0.006710633169859648,-0.015602927654981613,0.010133860632777214
1772639548738283500,4.571283447265625,-0.011294999159872532,-0.01477468479424715,0.005456550512462854
1772639548748328400,4.581328369140625,-0.012161857448518276,-0.010174873284995556,0.003841343568637967
1772639548758373400,4.591373291015625,-0.01082734763622284,-0.006944192573428154,0.006766825914382935
1772639548768418300,4.601418212890625,-0.014688665047287941,-0.002645317930728197,0.010093380697071552
1772639548778462500,4.61146240234375,-0.014212491922080517,-0.005122590344399214,0.008323975838720798
1772639548788507400,4.62150732421875,-0.017601629719138145,-0.007000118959695101,0.003765443339943886
1772639548798552600,4.631552490234375,-0.018867697566747665,-0.003087402554228902,-0.0016237293602898717
1772639548808597200,4.64159716796875,-0.017354488372802734,0.004769721534103155,-0.004308462142944336
1772639548818642400,4.651642333984375,-0.012261193245649338,0.007692806888371706,-0.003537743119522929
1772639548828687400,4.661687255859375,-0.008627576753497124,0.005791310220956802,-0.0019771307706832886
1772639548838732500,4.671732666015625,-0.009444101713597775,-0.002799248555675149,0.00025726135936565697
1772639548848777200,4.681777099609375,-0.015248461626470089,-0.01582982949912548,-0.000600809114985168
1772639548858822400,4.691822509765625,-0.018991000950336456,-0.021438179537653923,-0.001984054921194911
1772639548868867300,4.701867431640625,-0.021633390337228775,-0.01781335100531578,-0.006272010505199432
1772639548878912500,4.71191259765625,-0.02429894730448723,-0.010231864638626575,-0.013139504007995129
1772639548888957400,4.72195751953125,-0.02328534796833992,-0.005041630007326603,-0.01569960080087185
1772639548899001300,4.73200146484375,-0.01786528341472149,-0.0029348034877330065,-0.01750229485332966
1772639548909046500,4.742046630859375,-0.009936786256730556,-0.0055004931055009365,-0.015303588472306728
1772639548919091500,4.752091552734375,-0.004876514431089163,-0.005681854207068682,-0.009518669918179512
1772639548929136600,4.76213671875,-0.005727660376578569,-0.006971356924623251,-0.006395581178367138
1772639548939181300,4.772181396484375,-0.005540706682950258,-0.0067785438150167465,-0.0057066213339567184
1772639548949226500,4.7822265625,-0.00854475237429142,-0.006882407236844301,-0.005885852500796318
1772639548959271400,4.792271484375,-0.011720305308699608,-0.008315454237163067,-0.008108792826533318
1772639548969316600,4.802316650390625,-0.01239461824297905,-0.007647000718861818,-0.01002200786024332
1772639548979361300,4.812361328125,-0.011905395425856113,-0.006237655878067017,-0.007266168482601643
1772639548989406500,4.822406494140625,-0.007200122345238924,-0.00504136411473155,-0.0020658141002058983
1772639548999451400,4.832451416015625,0.003942809998989105,-0.007559915538877249,0.0065045044757425785
1772639549009496600,4.84249658203125,0.01438080333173275,-0.012139220722019672,0.01384124718606472
1772639549019540200,4.852540283203125,0.020144682377576828,-0.0163629949092865,0.016923589631915092
1772639549029585400,4.86258544921875,0.016928650438785553,-0.02051566168665886,0.01525964681059122
1772639549039630300,4.87263037109375,0.011771705001592636,-0.019275693222880363,0.009732788428664207
1772639549049675500,4.882675537109375,0.005107676610350609,-0.011001251637935638,0.0009755159262567759
1772639549059720400,4.892720458984375,-0.0014327806420624256,-0.0026706180069595575,-0.005336974747478962
1772639549069765400,4.902765380859375,-0.0028639633674174547,-0.004838963504880667,-0.007250722497701645
1772639549079810300,4.912810302734375,-0.001547030289657414,-0.004522846546024084,-0.007183078210800886
1772639549089855500,4.92285546875,0.0016000272007659078,-0.008464325219392776,-0.004536694847047329
1772639549099900400,4.932900390625,0.005617938470095396,-0.00857484620064497,-0.003739078063517809
1772639549109945300,4.9429453125,0.008641424588859081,-0.010788199491798878,-0.006551908794790506
1772639549119990300,4.952990234375,0.011648932471871376,-0.008638495579361916,-0.008428905159235
1772639549130034400,4.963034423828125,0.012897955253720284,-0.006716758478432894,-0.010427873581647873
1772639549140079600,4.97307958984375,0.009072324261069298,-0.006505303550511599,-0.007731156423687935
1772639549150124300,4.983124267578125,0.010755974799394608,-0.005025651305913925,-0.005605155136436224
1772639549160169500,4.99316943359375,0.009659551084041595,-0.004908472299575806,0.0004721784498542547
1772639549170214400,5.00321435546875,0.009740778245031834,-0.005372661165893078,0.0049521480686962605
1772639549180259600,5.013259521484375,0.010450776666402817,-0.006470149848610163,0.007864048704504967
1772639549190304500,5.023304443359375,0.012558136135339737,-0.005091697443276644,0.005970540922135115
1772639549200349400,5.033349365234375,0.013737649656832218,-0.007830225862562656,0.002579005202278495
1772639549210394400,5.043394287109375,0.014594921842217445,-0.010291785933077335,-0.005657885689288378
1772639549220439600,5.053439453125,0.011126953177154064,-0.008341286331415176,-0.012444685213267803
1772639549230484500,5.063484375,0.008192682638764381,-0.000294545607175678,-0.01534699834883213
1772639549240529400,5.073529296875,0.008406267501413822,-0.002419215627014637,-0.014027934521436691
1772639549250574300,5.08357421875,0.011456652544438839,-0.007643272168934345,-0.00806298665702343
1772639549260618500,5.093618408203125,0.012938967905938625,-0.011175156570971012,-0.0070557789877057076
1772639549270663400,5.103663330078125,0.011184477247297764,-0.010062487795948982,-0.008889631368219852
1772639549280708400,5.113708251953125,0.00845393817871809,-0.00740198977291584,-0.01344709936529398
1772639549290753300,5.123753173828125,0.006800381932407618,-0.006728476379066706,-0.014095312915742397
1772639549300798500,5.133798583984375,0.010100305080413818,-0.007570301648229361,-0.013696903362870216
1772639549310843400,5.143843505859375,0.01369530614465475,-0.004394748248159885,-0.011977567337453365
1772639549320888300,5.153888427734375,0.016642626374959946,0.003944407682865858,-0.009591907262802124
1772639549330933200,5.163933349609375,0.011971973814070225,0.005369998048990965,-0.004203266929835081
1772639549340978400,5.173978515625,0.004465588368475437,-0.004352936986833811,-0.00472551304847002
1772639549351023400,5.1840234375,-0.0030221552588045597,-0.011143198236823082,-0.005378253757953644
1772639549361068500,5.194068603515625,-0.006555104628205299,-0.014669490046799183,-0.009296296164393425
1772639549371112400,5.204112548828125,-0.004809935111552477,-0.008795888163149357,-0.012589295394718647
1772639549381157400,5.214157470703125,-0.0026011094450950623,-0.0031161648221313953,-0.011005513370037079
1772639549391202600,5.22420263671875,0.0029617014806717634,0.0023361248895525932,-0.011084875091910362
1772639549401247500,5.23424755859375,0.009245163761079311,0.0025893915444612503,-0.005309544038027525
1772639549411292400,5.24429248046875,0.010211358778178692,0.005645368713885546,-0.0018434401135891676
1772639549421337300,5.25433740234375,0.013292635791003704,0.002570483135059476,0.001525991247035563
1772639549431382500,5.264382568359375,0.014366689138114452,0.0009896307019516826,0.0024205471854656935
1772639549441427500,5.274427490234375,0.013580523431301117,-0.002442385070025921,0.0012860405258834362
1772639549451472400,5.284472412109375,0.009970875456929207,-0.002948119305074215,0.00015819176041986793
1772639549461517300,5.294517333984375,0.007224889472126961,-0.0025393241085112095,-0.0032445292454212904
1772639549471562500,5.3045625,0.004053330980241299,-0.0007129282457754016,-0.004003263544291258
1772639549481607400,5.314607421875,0.002386192325502634,-0.0020764668006449938,-0.00048363005043938756
1772639549491651300,5.3246513671875,0.0034386736806482077,-0.007516239304095507,0.0010418286547064781
1772639549501696300,5.3346962890625,0.006132461130619049,-0.009965282864868641,0.007485613226890564
1772639549511741400,5.344741455078125,0.006731405854225159,-0.01320794690400362,0.008344216272234917
1772639549521786400,5.354786376953125,0.006085056811571121,-0.01432541012763977,0.0065228804014623165
1772639549531831600,5.36483154296875,0.0020900487434118986,-0.011107511818408966,0.0016319850692525506
1772639549541876200,5.374876220703125,-0.0036157737486064434,-0.008648348972201347,-0.0026498453225940466
1772639549551921400,5.38492138671875,-0.005161472596228123,-0.003929493948817253,-0.007107976824045181
1772639549561966300,5.39496630859375,-0.0032059133518487215,-0.0006689860601909459,-0.007833155803382397
1772639549572011500,5.405011474609375,0.00012010856153210625,-0.0015960324089974165,-0.006442985497415066
1772639549582056200,5.41505615234375,0.004203266929835081,-0.006604905705899,-0.0033249566331505775
1772639549592101400,5.425101318359375,0.00427091121673584,-0.008040616288781166,0.0005765743553638458
1772639549602146300,5.435146240234375,0.003879693103954196,-0.00817803479731083,0.005271460860967636
1772639549612190500,5.4451904296875,-0.00037470675306394696,-0.005404885392636061,0.008764995262026787
1772639549622235400,5.4552353515625,-0.004061320796608925,0.0005150553770363331,0.012347480282187462
1772639549632280300,5.4652802734375,-0.008346080780029297,0.002752643311396241,0.010379137471318245
1772639549642325500,5.475325439453125,-0.008896289393305779,0.0008306399104185402,0.007333280518651009
1772639549652370400,5.485370361328125,-0.008686432614922523,-0.00126739835832268,0.0005763080553151667
1772639549662415600,5.49541552734375,-0.0060387179255485535,-0.0023995081428438425,-0.005336708389222622
1772639549672460300,5.505460205078125,-0.0029289445374161005,-0.003168096300214529,-0.00487145408987999
1772639549682505500,5.51550537109375,-0.0017121462151408195,-0.004381699021905661,-0.0015270565636456013
1772639549692550400,5.52555029296875,-0.002510828198865056,-0.004882107023149729,0.0011606055777519941
1772639549702595600,5.535595703125,-0.005085039883852005,-0.0010468886466696858,0.006336725316941738
1772639549712640300,5.54564013671875,-0.006520483642816544,0.00757935643196106,0.00875034835189581
1772639549722685400,5.555685546875,-0.008902148343622684,0.010668889619410038,0.00860334187746048
1772639549732729300,5.565729248046875,-0.008176437579095364,0.005780657287687063,0.00968325324356556
1772639549742774500,5.5757744140625,-0.009320797398686409,-0.002522546099498868,0.011769840493798256
1772639549752819200,5.585819091796875,-0.00923131499439478,-0.002692722249776125,0.010356234386563301
1772639549762864400,5.595864501953125,-0.006207828409969807,0.0015345134306699038,0.00920335203409195
1772639549772909300,5.605909423828125,-0.006366819143295288,-0.0028759476263076067,0.005438175052404404
1772639549782954500,5.61595458984375,-0.006564159411936998,-0.009236374869942665,0.0031041805632412434
1772639549792999400,5.62599951171875,-0.007002249360084534,-0.011864382773637772,0.0022024342324584723
1772639549803044400,5.63604443359375,0.00008548746700398624,-0.011863317340612411,0.004118045791983604
1772639549813089300,5.64608935546875,0.004484763368964195,-0.010982876643538475,0.007768973242491484
1772639549823134500,5.656134521484375,0.004803809802979231,-0.01010696217417717,0.010261425748467445
1772639549833179400,5.666179443359375,0.0007366303470917046,-0.014762434177100658,0.011602859944105148
1772639549843224300,5.676224365234375,-0.0037055222783237696,-0.020797690376639366,0.006041913293302059
1772639549853268500,5.6862685546875,-0.008918393403291702,-0.02365925721824169,-0.001288171042688191
1772639549863313400,5.6963134765625,-0.010639062151312828,-0.02183525823056698,-0.01016661711037159
1772639549873358600,5.706358642578125,-0.008620386011898518,-0.014610367827117443,-0.01594514399766922
1772639549883403300,5.7164033203125,-0.00746111199259758,-0.007169762160629034,-0.013289973139762878
1772639549893448400,5.726448486328125,-0.002377670258283615,-0.0036216326989233494,-0.005146292503923178
1772639549903493400,5.736493408203125,0.004995024763047695,-0.0026703516487032175,0.004582501482218504
1772639549913538600,5.74653857421875,0.00920095480978489,-0.003853061469271779,0.013845507986843586
1772639549923583500,5.75658349609375,0.011591674759984016,-0.0030655646696686745,0.019932162016630173
1772639549933628400,5.76662841796875,0.011957060545682907,0.0024144218768924475,0.019876236096024513
1772639549943673300,5.77667333984375,0.010410829447209835,-0.0014660701854154468,0.017437312752008438
1772639549953718500,5.786718505859375,0.006853911560028791,-0.006746053230017424,0.009141300804913044
1772639549963762200,5.79676220703125,0.0034815503749996424,-0.007237672805786133,0.002386725042015314
1772639549973807400,5.806807373046875,-0.001526523963548243,-0.012178901582956314,-0.008138353936374187
1772639549983852300,5.816852294921875,-0.0005826996639370918,-0.006876548286527395,-0.016234897077083588
1772639549993897500,5.8268974609375,-0.0001840244367485866,-0.0024658208712935448,-0.019601929932832718
1772639550003942400,5.8369423828125,-0.0021028320770710707,-0.002846386516466737,-0.020788902416825294
1772639550013987300,5.8469873046875,-0.0033960631117224693,-0.00119575927965343,-0.01853799819946289
1772639550024032300,5.8570322265625,-0.00021385183208622038,-0.004059189930558205,-0.015965383499860764
1772639550034077400,5.867077392578125,0.0037084517534822226,-0.009199623949825764,-0.01528787612915039
1772639550044122400,5.877122314453125,0.0036791570018976927,-0.007097324356436729,-0.010600180365145206
1772639550054167600,5.88716748046875,0.0009590042755007744,-0.011493404395878315,-0.009877131320536137
1772639550064212200,5.897212158203125,-0.005126052536070347,-0.00999404489994049,-0.01284708920866251
1772639550074257400,5.90725732421875,-0.0034794199746102095,-0.002834934974089265,-0.016581906005740166
1772639550084301600,5.917301513671875,-0.00008655273268232122,-0.00010253170330543071,-0.019343603402376175
1772639550094346200,5.92734619140625,0.0007291734800674021,0.0028839372098445892,-0.019773172214627266
1772639550104391400,5.937391357421875,0.0010713896481320262,0.003510312642902136,-0.019210180267691612
1772639550114436400,5.947436279296875,-0.00020053602929692715,-0.0017073525814339519,-0.015500929206609726
1772639550124481500,5.9574814453125,0.0032533176708966494,-0.004294613376259804,-0.010202836245298386
1772639550134526500,5.9675263671875,0.0051654670387506485,-0.0062882560305297375,-0.00632048025727272
1772639550144571400,5.9775712890625,0.0034796863328665495,-0.0022208099253475666,-0.00609357887879014
1772639550154616300,5.9876162109375,-0.002569684060290456,-0.0005938849062658846,-0.004459463059902191
1772639550164661500,5.99766162109375,-0.0027808728627860546,-0.0021116205025464296,-0.004192081745713949
1772639550174706400,6.00770654296875,0.0009843043517321348,-0.009852897375822067,-0.0068387314677238464
1772639550184751600,6.017751708984375,0.005287706386297941,-0.011926966719329357,-0.009606022387742996
1772639550194796300,6.02779638671875,0.007453122641891241,-0.008549013175070286,-0.010390589013695717
1772639550204840400,6.03784033203125,0.008865662850439548,-0.003613909473642707,-0.012919261120259762
1772639550214885400,6.047885498046875,0.005212871357798576,0.0003123887872789055,-0.012922190129756927
1772639550224930300,6.057930419921875,0.0028301412239670753,0.0020548950415104628,-0.013764015398919582
1772639550234975200,6.067975341796875,-0.0016325177857652307,-0.0020871192682534456,-0.013770939782261848
1772639550245020400,6.0780205078125,-0.003183010034263134,-0.006456301547586918,-0.011010573245584965
1772639550255065300,6.0880654296875,-0.0043769050389528275,-0.008708003908395767,-0.010871023871004581
1772639550265110500,6.098110595703125,-0.007540474180132151,-0.011415373533964157,-0.0073505910113453865
1772639550275155200,6.1081552734375,-0.008168980479240417,-0.008406800217926502,-0.006168946158140898
1772639550285200400,6.118200439453125,-0.008951949886977673,-0.009406285360455513,-0.006417952012270689
1772639550295245300,6.128245361328125,-0.00971254799515009,-0.014222345314919949,-0.011364773847162724
1772639550305290500,6.13829052734375,-0.004823783412575722,-0.0054696002043783665,-0.012191951274871826
1772639550315335400,6.14833544921875,0.0014450311427935958,-0.00011052118497900665,-0.012732572853565216
1772639550325379300,6.15837939453125,0.003041330026462674,-0.00020825919636990875,-0.011803928762674332
1772639550335424500,6.168424560546875,0.0035625104792416096,-0.001264735241420567,-0.009977532550692558
1772639550345469400,6.178469482421875,-0.00173771264962852,-0.01070883683860302,-0.009105348028242588
1772639550355514400,6.188514404296875,-0.004919923841953278,-0.018635470420122147,-0.009119462221860886
1772639550365559300,6.198559326171875,-0.006343383342027664,-0.02478737197816372,-0.006441654171794653
1772639550375604500,6.2086044921875,-0.008974053896963596,-0.021816615015268326,-0.006687463726848364
1772639550385649400,6.2186494140625,-0.011946408078074455,-0.015607722103595734,-0.004752411041408777
1772639550395694600,6.228694580078125,-0.012614861130714417,-0.010103500448167324,-0.0007994809420779347
1772639550405739300,6.2387392578125,-0.012174640782177448,-0.007595601491630077,-0.0014306501252576709
1772639550415784400,6.248784423828125,-0.008106395602226257,-0.005243764258921146,-0.00621182331815362
1772639550425829400,6.258829345703125,-0.005405151750892401,-0.0043563987128436565,-0.008989233523607254
1772639550435874600,6.26887451171875,-0.004534298088401556,0.000565122754778713,-0.011991148814558983
1772639550445918200,6.278918212890625,-0.009526393376290798,0.0016879114555194974,-0.010188722051680088
1772639550455963400,6.28896337890625,-0.013080115430057049,-0.002320678671821952,-0.013769075274467468
1772639550466008300,6.29900830078125,-0.013883591629564762,0.0001459412305848673,-0.011995144188404083
1772639550476053500,6.309053466796875,-0.014338725246489048,-0.003823500359430909,-0.009185242466628551
1772639550486098200,6.31909814453125,-0.011255850084125996,-0.005612611770629883,-0.005486910697072744
1772639550496143400,6.329143310546875,-0.005760683678090572,-0.011022557504475117,-0.00631994754076004
1772639550506188300,6.339188232421875,-0.004670917987823486,-0.012047075666487217,-0.006738330237567425
1772639550516233500,6.3492333984375,-0.004656270612031221,-0.011038269847631454,-0.009759952314198017
1772639550526278400,6.3592783203125,-0.008596417494118214,-0.007576959673315287,-0.015781093388795853
1772639550536323300,6.3693232421875,-0.011833756230771542,-0.0035358788445591927,-0.02135801874101162
1772639550546368300,6.3793681640625,-0.011520568281412125,-0.00019228023302275687,-0.023071497678756714
1772639550556412400,6.389412353515625,-0.005623531062155962,0.0017355820164084435,-0.02580549754202366
1772639550566457600,6.39945751953125,-0.00017896443023346364,0.0006601976347155869,-0.023921310901641846
1772639550576502300,6.409502197265625,0.0021193434949964285,-0.001344630029052496,-0.021145232021808624
1772639550586547500,6.41954736328125,0.0038575888611376286,-0.006608367897570133,-0.022286929190158844
1772639550596592400,6.42959228515625,0.0046789078041911125,-0.005130046978592873,-0.02743615210056305
1772639550606637600,6.439637451171875,0.005682386923581362,-0.004291950259357691,-0.031071899458765984
1772639550616682200,6.44968212890625,0.004623247776180506,-0.0008428904693573713,-0.03242025896906853
1772639550626727400,6.4597275390625,0.005144162103533745,0.0011233213590458035,-0.02947773039340973
1772639550636772400,6.4697724609375,0.0067849354818463326,0.006332997232675552,-0.025776470080018044
1772639550646817500,6.479817626953125,0.012467854656279087,0.002931075170636177,-0.015732357278466225
1772639550656862500,6.489862548828125,0.012723784893751144,-0.001734783174470067,-0.008945291861891747
1772639550666907400,6.499907470703125,0.010779943317174911,-0.004809136036783457,-0.002514290390536189
1772639550676951300,6.509951416015625,0.00538384635001421,-0.0005121259018778801,0.006734601687639952
1772639550686996500,6.51999658203125,0.002513757674023509,-0.001207477180287242,0.009589510038495064
1772639550697041400,6.53004150390625,0.004865861497819424,-0.0009534116834402084,0.008134093135595322
1772639550707086300,6.54008642578125,0.009754093363881111,0.0034413367975503206,0.006189452484250069
1772639550717131300,6.55013134765625,0.015266837552189827,0.0015744607662782073,0.002323341788724065
1772639550727176400,6.560176513671875,0.01734117418527603,0.0002836266648955643,-0.0013334447285160422
1772639550737221400,6.570221435546875,0.012752014212310314,0.0018221348291262984,-0.004942027851939201
1772639550747266300,6.580266357421875,0.009793242439627647,-0.006422745529562235,-0.008104265667498112
1772639550757311200,6.590311279296875,0.006599046755582094,-0.0075726984068751335,-0.004427771549671888
1772639550767356400,6.6003564453125,0.005028580781072378,-0.005803294479846954,-0.0016982977977022529
1772639550777401300,6.6104013671875,0.005923136603087187,-0.0013574132462963462,0.001356347929686308
1772639550787446500,6.620446533203125,0.003985154442489147,0.004221376497298479,0.002567553659901023
1772639550797490400,6.630490478515625,0.0011515507940202951,0.005304217804223299,0.0049766493029892445
1772639550807535400,6.640535400390625,-0.0017331852577626705,0.006281598005443811,0.0029350698459893465
1772639550817580500,6.65058056640625,-0.002216282533481717,0.019763318821787834,0.0014524880098178983
1772639550827625500,6.66062548828125,0.0021289309952408075,0.024322383105754852,-0.00012916330888401717
1772639550837670400,6.67067041015625,0.007487743627279997,0.025049693882465363,0.0006412891671061516
1772639550847715300,6.68071533203125,0.004889563657343388,0.028309402987360954,0.00788695178925991
1772639550857760500,6.690760498046875,-0.002651176881045103,0.015986956655979156,0.01221884973347187
1772639550867805400,6.700805419921875,-0.01672198809683323,-0.005255482159554958,0.01296453457325697
1772639550877850400,6.710850341796875,-0.02755306474864483,-0.01242124941200018,0.012831642292439938
1772639550887895300,6.720895263671875,-0.027365311980247498,-0.008823319338262081,-0.0003709783486556262
1772639550897940500,6.7309404296875,-0.018190721049904823,-0.008862467482686043,-0.011669971980154514
1772639550907985400,6.7409853515625,-0.007017962168902159,-0.007811051327735186,-0.020737769082188606
1772639550918029300,6.751029296875,0.0033957967534661293,-0.0038578552193939686,-0.02419721521437168
1772639550928074200,6.76107421875,0.008312790654599667,-0.0018045579781755805,-0.02305418625473976
1772639550938119400,6.771119384765625,0.009918410331010818,-0.004373443312942982,-0.019088473170995712
1772639550948164400,6.781164306640625,0.006835002917796373,-0.0037848844658583403,-0.01423246506601572
1772639550958209500,6.79120947265625,0.0005944175645709038,-0.002916161436587572,-0.01065024733543396
1772639550968254200,6.801254150390625,-0.00833542738109827,-0.004588626325130463,-0.004296211525797844
1772639550978299400,6.81129931640625,-0.014881744049489498,-0.007232080213725567,0.00017230652156285942
1772639550988344300,6.82134423828125,-0.01534673199057579,-0.008346080780029297,0.002017344580963254
1772639550998389500,6.831389404296875,-0.014432468451559544,-0.008876049891114235,0.0022501046769320965
1772639551008434200,6.84143408203125,-0.010951184667646885,-0.006371879018843174,0.00532525684684515
1772639551018479400,6.851479248046875,-0.008403338491916656,-0.0011598066193982959,0.008833971805870533
1772639551028523500,6.8615234375,-0.007392934989184141,0.003922037314623594,0.007035006303340197
1772639551038568400,6.871568359375,-0.008353536948561668,0.0007315703551284969,0.004822452086955309
1772639551048613400,6.88161328125,-0.007935953326523304,-0.003847202518954873,0.0007371630053967237
1772639551058658300,6.891658203125,-0.008056861348450184,-0.0038927425630390644,-0.0038687740452587605
1772639551068703500,6.901703369140625,-0.011313640512526035,-0.0220339298248291,-0.01565432734787464
1772639551078748400,6.91174853515625,-0.017232516780495644,-0.0068312743678689,-0.01894466206431389
1772639551088793600,6.921793701171875,-0.012612997554242611,0.0011502192355692387,-0.019389675930142403
1772639551098838300,6.93183837890625,-0.0064927865751087666,-0.0014530207263305783,-0.014941398985683918
1772639551108883000,6.941883056640625,-0.00011638013529591262,-0.0033425334841012955,-0.011437477543950081
1772639551118928000,6.951927978515625,0.0021670141723006964,-0.008529306389391422,-0.01056209672242403
1772639551128973000,6.96197314453125,0.005568137392401695,-0.01122415903955698,-0.012043613009154797
1772639551139017700,6.972017822265625,0.009032110683619976,-0.010466222651302814,-0.015230085700750351
1772639551149062000,6.982061767578125,0.007316235918551683,-0.010933341458439827,-0.01890365034341812
1772639551159107000,6.992107177734375,0.0038189729675650597,-0.010280600748956203,-0.018388595432043076
1772639551169151700,7.00215185546875,-0.0003741741238627583,-0.008329303003847599,-0.01931537501513958
1772639551179197000,7.012197021484375,-0.003985154442489147,-0.007792941760271788,-0.015210377983748913
1772639551189241900,7.022241943359375,-0.003838414093479514,-0.008137288503348827,-0.0086041409522295
1772639551199287000,7.032287109375,-0.0049707903526723385,-0.0073173013515770435,-0.0015864450251683593
1772639551209332000,7.04233203125,-0.0055092815309762955,-0.006325007416307926,0.004234426189213991
1772639551219377000,7.052376953125,-0.007053115870803595,-0.005161206237971783,0.006415554787963629
1772639551229421800,7.062421875,-0.0054664043709635735,-0.0035446672700345516,0.0049287122674286366
1772639551239467000,7.072467041015625,-0.00205249828286469,-0.002569684060290456,0.002813895931467414
1772639551249512000,7.082511962890625,-0.003728159237653017,-0.0003174488083459437,0.0010434264549985528
1772639551259557000,7.09255712890625,-0.006458964664489031,-0.0007584682898595929,-0.001961151836439967
1772639551269600800,7.102600830078125,-0.005903429351747036,-0.006846454460173845,-0.004857073072344065
1772639551279646000,7.11264599609375,-0.002519882982596755,-0.013814348727464676,-0.009308280423283577
1772639551289691000,7.12269091796875,-0.00205223192460835,-0.016511598601937294,-0.014258298091590405
1772639551299735800,7.13273583984375,-0.002079928759485483,-0.016577644273638725,-0.020969197154045105
1772639551309780700,7.14278076171875,-0.004536162130534649,-0.011245996691286564,-0.02534184232354164
1772639551319826000,7.152825927734375,-0.004433364141732454,-0.0035177695099264383,-0.022603046149015427
1772639551329870800,7.162870849609375,-0.0031153657473623753,-0.001487109111621976,-0.014789066277444363
1772639551339916000,7.172916015625,0.003751062322407961,-0.00015925703337416053,-0.0007560714147984982
1772639551349960700,7.182960693359375,0.008874984458088875,-0.001874066423624754,0.01495151873677969
1772639551360006000,7.193005859375,0.006687197368592024,-0.004861600697040558,0.023384151980280876
1772639551370050800,7.20305078125,0.001933987601660192,-0.01389877125620842,0.023358318954706192
1772639551380096000,7.213095947265625,-0.00890774093568325,-0.02448856458067894,0.011423096992075443
1772639551390140000,7.223139892578125,-0.02046905644237995,-0.026758642867207527,-0.0046301716938614845
1772639551400184800,7.233184814453125,-0.02480175346136093,-0.01786261983215809,-0.014357101172208786
1772639551410230000,7.24322998046875,-0.01895611360669136,-0.008105597458779812,-0.01715821400284767
1772639551420275000,7.25327490234375,-0.012300342321395874,-0.0031734227668493986,-0.010568754747509956
1772639551430319900,7.26331982421875,-0.008491755463182926,-0.006607568822801113,0.00170788518153131
1772639551440364800,7.27336474609375,-0.0030426615849137306,-0.008656605146825314,0.012956544756889343
1772639551450410000,7.283409912109375,0.0004500742070376873,-0.00926167517900467,0.015606656670570374
1772639551460455000,7.293454833984375,-0.0003938815207220614,-0.007190534844994545,0.014278803952038288
1772639551470500000,7.3035,-0.00138031633105129,-0.0034815503749996424,0.00628958735615015
1772639551480544800,7.313544677734375,-0.0024226775858551264,-0.0038722362369298935,-0.0032293491531163454
1772639551490590000,7.32358984375,-0.0030362699180841446,-0.00464721629396081,-0.013470002450048923
1772639551500635000,7.333634765625,-0.001961684552952647,-0.004266916774213314,-0.02154257707297802
1772639551510679000,7.343678955078125,-0.008725847117602825,-0.0009827064350247383,-0.022938871756196022
1772639551520723700,7.3537236328125,-0.01239062286913395,0.0011241203173995018,-0.015262842178344727
1772639551530769000,7.363768798828125,-0.015874037519097328,0.0020881847012788057,-0.007773767225444317
1772639551540813800,7.373813720703125,-0.014337394386529922,-0.0037984666414558887,-0.0003432814555708319
1772639551550859000,7.38385888671875,-0.0095684714615345,-0.005085306242108345,0.0017957695527002215
1772639551560903700,7.393903564453125,-0.0030807447619736195,-0.0021377194207161665,-0.002237587934359908
1772639551570948900,7.403948974609375,-0.00544430036097765,0.0010247844038531184,-0.005917277652770281
1772639551580993800,7.413993896484375,-0.00833569373935461,0.0014152037911117077,-0.00815193634480238
1772639551591039000,7.4240390625,-0.010804444551467896,-0.0034258903469890356,-0.008527974598109722
1772639551601084000,7.434083984375,-0.009982859715819359,-0.007641408126801252,-0.01413712464272976
1772639551611128800,7.44412890625,-0.009408148936927319,-0.009486446157097816,-0.023796143010258675
1772639551621173000,7.454173095703125,-0.009362875483930111,-0.007234210614115,-0.02677062712609768
1772639551631218000,7.464218017578125,-0.006947921123355627,-0.0025483788922429085,-0.03026575967669487
1772639551641263000,7.47426318359375,-0.004219512455165386,-0.0034530546981841326,-0.03225301206111908
1772639551651307800,7.484307861328125,0.001511610229499638,-0.0034738273825496435,-0.03283624351024628
1772639551661353000,7.49435302734375,0.004655472002923489,-0.007139668334275484,-0.0319661870598793
1772639551671398000,7.50439794921875,0.004128965083509684,-0.011298460885882378,-0.024571921676397324
1772639551681443000,7.514443115234375,0.003177683800458908,-0.011272361502051353,-0.0159510038793087
1772639551691487700,7.52448779296875,0.0067905280739068985,-0.01979820616543293,0.0039854203350842
1772639551701533000,7.534532958984375,0.013087039813399315,-0.04054396227002144,0.015535283833742142
1772639551711577900,7.544577880859375,0.017007479444146156,-0.050700727850198746,0.026565564796328545
1772639551721623000,7.554623046875,0.021217137575149536,-0.04994252696633339,0.02851339988410473
1772639551731668000,7.56466796875,0.019764117896556854,-0.041137583553791046,0.02375832572579384
1772639551741712000,7.5747119140625,0.02273806929588318,-0.03341042250394821,0.007169495802372694
1772639551751756800,7.5847568359375,0.02299639582633972,-0.004095409065485001,-0.01660001650452614
1772639551761802000,7.594802001953125,0.02034761570394039,0.02732216753065586,-0.04399675130844116
1772639551771847000,7.604846923828125,0.00749173853546381,0.04669879749417305,-0.06740540266036987
1772639551781891800,7.614891845703125,-0.005047755315899849,0.0518522784113884,-0.07892490923404694
1772639551791936800,7.624936767578125,-0.013492106460034847,0.04462845250964165,-0.06975218653678894
1772639551801982000,7.63498193359375,-0.016405072063207626,0.031390946358442307,-0.03930825740098953
