time,seconds_elapsed,z,y,x
1772744441506795800,0.089795654296875,0.03559562951624393,0.020734379666671156,0.04286563878552988
1772744441516823800,0.09982373046875,0.03799158474206924,0.005370112198404968,0.05300853661000728
1772744441526851800,0.109851806640625,0.04907879594564438,0.00398059406876564,0.051824167397338895
1772744441536878800,0.11987890625,0.039811785906553265,0.009918861543945967,0.032476054457295685
1772744441546906600,0.12990673828125,0.03561258065104484,0.022193017509765923,0.03972297511193901
1772744441556934000,0.139933837890625,0.05296937364339828,0.022396796453557907,0.03149577471567318
1772744441566961700,0.149961669921875,0.06060615213215351,0.02684909968730062,0.021814594385121018
1772744441576990000,0.159989990234375,0.04160451454222202,0.030543899084627627,0.026880974396597593
1772744441587016700,0.1700166015625,0.05103694427609443,0.01533646614588797,0.027406423042807725
1772744441597044700,0.180044677734375,0.05224398197829723,0.010649586971290408,0.036233068903256206
1772744441607072000,0.190072021484375,0.04416881207227707,0.005310965889692306,0.05312582458043471
1772744441617099800,0.200099853515625,0.050455344995856286,0.013997582224942743,0.05122305969903245
1772744441627126800,0.210126708984375,0.04671557394564151,0.020170681369304656,0.06672030589720233
1772744441637154800,0.22015478515625,0.04342062405347824,0.02385178103484213,0.07105185056179761
1772744441647182600,0.2301826171875,0.05329202972650528,0.020719291695393622,0.06612562793968245
1772744441657209900,0.2402099609375,0.036681671187281606,0.030082455585338175,0.06487599320476874
1772744441667237600,0.250237548828125,0.05688450126051903,0.03617182196900248,0.05036715525574982
1772744441677264600,0.2602646484375,0.0303992299169302,0.015601619888097046,0.043526385982893406
1772744441687293000,0.27029296875,0.03414309262037277,0.010020714483223855,0.021953327002376316
1772744441697320700,0.28032080078125,0.058687751290202136,0.008039769799076021,0.012478501165192574
1772744441707348000,0.290347900390625,0.047613399568200106,0.0155540544193238,-0.00153089936170727
1772744441717375700,0.300375732421875,0.033391397470235826,0.03078837536498904,0.014356789192464203
1772744441727402800,0.31040283203125,0.041024668827652926,0.027380576215498147,0.022355843388661742
1772744441737430800,0.3204306640625,0.0447644398778677,0.015378040265291928,0.03623690482815727
1772744441747458800,0.330458740234375,0.0420674558788538,0.03494469132684171,0.03145529657481238
1772744441757485800,0.34048583984375,0.056437342014908784,0.0214401533158496,0.051593774441257116
1772744441767513300,0.350513427734375,0.046860535374283786,0.024327654918283224,0.052806492965575304
1772744441777540000,0.3605400390625,0.05748305167555809,0.008793474243208765,0.05483841891828924
1772744441787568400,0.370568359375,0.047159226059913635,0.00807615628670901,0.0567803832989186
1772744441797596200,0.38059619140625,0.044314358022809024,0.011329495526850223,0.05965924493717029
1772744441807623400,0.39062353515625,0.03338496772944927,0.021269290260970592,0.05169853172367438
1772744441817651200,0.400651123046875,0.03787643392980099,0.03225600023213774,0.04942075951742008
1772744441827678200,0.41067822265625,0.053283261898159975,0.02584233379755169,0.042872305988334115
1772744441837706200,0.420706298828125,0.057175008639693256,0.023068631300516427,0.029117008086666462
1772744441847734300,0.430734375,0.051042789494991296,0.02046999310944229,0.023380418929737058
1772744441857761300,0.44076123046875,0.04221767800450325,0.024068492525443432,0.013390026519540696
1772744441867789300,0.450789306640625,0.03728489777743816,0.007085282085835933,0.02594888117825612
1772744441877816300,0.46081640625,0.041480595901608464,0.01936776748858392,0.03422509008171037
1772744441887844400,0.47084423828125,0.04252513651847839,0.005248714308440685,0.03477682394664734
1772744441897872100,0.4808720703125,0.05060147546827793,0.016707827564328908,0.03491025933427736
1772744441907899400,0.4908994140625,0.052692894789576526,0.03989003877453506,0.04034879712639376
1772744441917927200,0.50092724609375,0.053742696103453634,0.023397936320118606,0.037517957614641634
1772744441927954200,0.5109541015625,0.04895429278314113,0.01434354611840099,0.04773890737770125
1772744441937982200,0.520982177734375,0.05808394017815589,0.010870974637009203,0.03625778321940452
1772744441948010200,0.53101025390625,0.045371758121252055,0.012406148315034806,0.03737734356755391
1772744441958037500,0.54103759765625,0.04103577474355698,0.01428765121269971,0.03861992750717327
1772744441968065300,0.551065185546875,0.0507639725536108,-0.004820369361154735,0.05532064947728067
1772744441978092300,0.56109228515625,0.05315992777943611,0.009378251861222087,0.041568566446006296
1772744441988120300,0.571120361328125,0.057495326635241505,0.021028101916238665,0.0393593476976268
1772744441998148000,0.581148193359375,0.05330372016429901,0.027677257607132195,0.04106483644125983
1772744442008175400,0.59117529296875,0.06183715523183345,0.00977178122345358,0.03135006436835974
1772744442018203100,0.601203125,0.04568447733223438,0.017688911023549733,0.01963233670890331
1772744442028230100,0.611230224609375,0.02982347585558891,0.013596198349818586,0.016234748426172882
1772744442038258400,0.621258544921875,0.041644262030720705,0.01048223104774952,0.024329883407987654
1772744442048286200,0.6312861328125,0.04839081368148326,0.007933861739188433,0.01530055458229035
1772744442058313500,0.6413134765625,0.05857201595604419,0.014390490532666445,0.018818079450260847
1772744442068341200,0.65134130859375,0.05108779768049717,0.029398382311314343,0.020832999469246716
1772744442078368300,0.6613681640625,0.0557224717438221,0.027926044736430046,0.023776651705708352
1772744442088396300,0.671396240234375,0.04240764761865139,0.02617076203431934,0.025008915180712937
1772744442098424300,0.68142431640625,0.05990823299586773,0.019632007915340362,0.0274818628991954
1772744442108451300,0.691451416015625,0.05257306780219078,0.011981712357886134,0.03636661388874054
1772744442118479400,0.701479248046875,0.05033551800847053,0.01658599128294736,0.07185629881247878
1772744442128506400,0.71150634765625,0.03836334066390991,0.017680873847566544,0.0460771847105585
1772744442138534400,0.721534423828125,0.04344751206040382,0.014430639879964291,0.03648664180552587
1772744442148562200,0.731562255859375,0.05197568643093109,0.011199037547595799,0.05662409675866365
1772744442158589400,0.74158935546875,0.05856266360580921,0.008834792634285986,0.0336012042960152
1772744442168617200,0.7516171875,0.0660439592719078,0.014858071511797607,0.028398904678877443
1772744442178644500,0.76164453125,0.05108487507104873,0.017116919821873307,0.02791499361945316
1772744442188672300,0.77167236328125,0.05258884989321232,0.003586626315116882,0.01365063195079565
1772744442198700300,0.7817001953125,0.04092413106262684,0.02099032718911767,0.031951245131902395
1772744442208727300,0.791727294921875,0.04122574435770512,0.014784092960134148,0.0069065827843733125
1772744442218755300,0.80175537109375,0.0306038125783205,0.009852335646376014,0.009322411754447967
1772744442228782300,0.8117822265625,0.05275719219744205,0.017696144481934607,0.03075611706320196
1772744442238810400,0.821810302734375,0.044675592550635336,0.0073906947731971736,0.016262933341041206
1772744442248838100,0.831838134765625,0.05080956526100635,0.019647059353999793,0.028381789147295056
1772744442258865400,0.841865478515625,0.05604395878314972,0.011247187538258731,0.03889041501162573
1772744442268893200,0.85189306640625,0.055896659266948694,0.029190182920731604,0.0378660769325681
1772744442278920400,0.86192041015625,0.020285247659683227,0.015359810488857328,0.030667963855713604
1772744442288948200,0.8719482421875,0.04662088139951229,0.019970226893760264,0.03633357013566419
1772744442298976500,0.8819765625,0.038834465306997294,0.013382701729610562,0.020478980133496225
1772744442309003300,0.892003173828125,0.05320025978982448,0.0018788360165432093,0.03614330826057121
1772744442319031300,0.90203125,0.046015316721796984,0.01822181232385337,0.03502913647359237
1772744442329058300,0.912058349609375,0.03748188165426254,0.019346249776519834,0.038784488685429094
1772744442339086300,0.92208642578125,0.046909050691127774,0.01528623379599303,0.04185346606830135
1772744442349114400,0.9321142578125,0.03882452843487263,0.014146708372049033,0.029263175091706214
1772744442359141400,0.942141357421875,0.05334288313090801,0.006178323308750987,0.02534607471320778
1772744442369169200,0.952169189453125,0.05618015238344669,0.012161014447547495,0.010209113194793461
1772744442379196400,0.962196533203125,0.04749883327782154,0.008157587492465972,0.014485822399612516
1772744442389224200,0.97222412109375,0.035686230409145356,0.008173844507522881,0.023576946148835123
1772744442399252500,0.98225244140625,0.040625440376996995,0.004736307806894183,0.02872072051176801
1772744442409279200,0.992279296875,0.04421615834534168,0.008680113529227674,0.018534586333762853
1772744442419307300,1.002307373046875,0.04152326599955559,0.01298453272487968,0.030977486462611704
1772744442429334500,1.01233447265625,0.05484042821228504,0.018713029906898736,0.019023557160794735
1772744442439362300,1.0223623046875,0.04990297181010246,0.016378412946872412,0.037431430108658965
1772744442449390300,1.032390380859375,0.05095043503642082,0.01069320691730827,0.03487895088056102
1772744442459417300,1.042417236328125,0.039730537363886834,0.018734547618962823,0.034323180161323394
1772744442469445000,1.052445068359375,0.044670331853628155,0.020030578778870402,0.032524277513194824
1772744442479472400,1.062472412109375,0.04512275179624557,0.014865304970182477,0.036621392367407676
1772744442489500200,1.072500244140625,0.05425006110370159,0.012065298988111317,0.02767228917106986
1772744442499528400,1.082528564453125,0.044078211179375645,0.009775872876681387,0.02851264898534864
1772744442509555500,1.092555419921875,0.03734627257585525,0.011226838869974016,0.022230518242251127
1772744442519583200,1.102583251953125,0.03720189566910267,0.02770235551577061,0.025631467525847256
1772744442529610500,1.112610595703125,0.045431963875889776,0.020979586599394678,0.012284896555542945
1772744442539638300,1.12263818359375,0.03674889120459556,0.023120763346552848,0.01733156721955165
1772744442549666300,1.132666259765625,0.05350771830379963,0.027662681092508135,0.0029958938803523777
1772744442559693300,1.142693359375,0.05830021327733993,0.01757755960356444,0.025044625814910976
1772744442569721300,1.152721435546875,0.038251696982979776,0.007881108638644219,0.03043636532323435
1772744442579748400,1.162748291015625,0.048584874948859214,0.011245616635680198,0.018529325636755675
1772744442589776400,1.1727763671875,0.043347558817267415,0.014294373214431106,0.009569865443184972
1772744442599804400,1.182804443359375,0.037214170628786084,-0.0015123773243278264,0.028672186928614972
1772744442609831400,1.19283154296875,0.05516717594861984,0.020217187392152846,0.026852972144819794
1772744442619859200,1.202859130859375,0.05381342325210571,0.018471330105513332,0.029501806153170763
1772744442629886500,1.212886474609375,0.05006897602677345,0.009446129465661942,0.045540995474625375
1772744442639914200,1.222914306640625,0.0416881011724472,0.005910575750656425,0.024794888837542384
1772744442649942300,1.2329423828125,0.05126724590063095,0.002239632152952254,0.01906746936775744
1772744442659969300,1.24296923828125,0.04288286391496658,0.0027187939720228313,0.029553792068734763
1772744442669997300,1.252997314453125,0.0478185667514801,0.013317856332473456,0.02199418873572722
1772744442680024300,1.2630244140625,0.048721653071045874,0.011981529694795608,0.026712577293440697
1772744442690052400,1.27305224609375,0.044829906329512594,-0.0014807035444304346,0.016383947638515382
1772744442700080400,1.283080322265625,0.03645136956274509,0.013514182622171937,0.021711700266227124
1772744442710107400,1.293107421875,0.04109773406386375,0.021496486612968147,0.01414102754993364
1772744442720135200,1.30313525390625,0.045586277654767034,0.015319551543705165,0.02322144724205136
1772744442730162400,1.313162353515625,0.04439326847791671,0.01197236000765115,0.030213479820173233
1772744442740190200,1.323190185546875,0.04859013564586639,0.0026308964928612112,0.018074750269670037
1772744442750218500,1.333218505859375,0.042753100055456156,0.003353329015895724,0.008953140050638466
1772744442760245200,1.343245361328125,0.04904021750092506,0.010325834909640253,0.02882399822315201
1772744442770273500,1.3532734375,0.030184125861525534,0.0036008009709417818,0.02137850452279672
1772744442780300300,1.36330029296875,0.04290215313732624,-0.003123319652304053,0.02662166587328538
1772744442790328600,1.37332861328125,0.04558686217665672,0.002957753827050328,0.03650889016995206
1772744442800355300,1.383355224609375,0.03840425719618797,0.01408558930195868,0.021425540268607435
1772744442810383400,1.39338330078125,0.04573474621474743,0.019163842414319513,0.02215027434658259
1772744442820411400,1.403411376953125,0.05725976431369781,0.0031131635844707487,0.02003967540077865
1772744442830438400,1.4134384765625,0.04963000008761882,-0.0001359378719702363,0.019437051598820834
1772744442840466400,1.423466552734375,0.053523500394821164,0.019215426471084356,0.031120876988675442
1772744442850493400,1.433493408203125,0.033926819521188735,0.006388239732384681,0.02150651481663808
1772744442860521200,1.443521240234375,0.047402387166023255,0.0073423986520618195,0.009871168211009352
1772744442870549500,1.453549560546875,0.04740706334114075,0.007438808231242,0.009826543617993592
1772744442880576300,1.463576171875,0.051148003435134884,0.012492949815653263,0.022496585299912837
1772744442890604500,1.4736044921875,0.043970074629783626,0.010133198414370418,0.00812847099583596
1772744442900631600,1.483631591796875,0.060577510559558866,0.00407072003763169,-0.005203158133663237
1772744442910659300,1.493659423828125,0.044267011749744414,0.010434007991850375,0.02612142473356798
1772744442920687400,1.503687255859375,0.04007949693202972,0.0075366060499101875,0.022043434704933314
1772744442930714400,1.51371435546875,0.04546469710171223,0.006456811456568539,0.019394783359672874
1772744442940742400,1.523742431640625,0.05369534983038902,0.0022048531005159017,0.019730773848388342
1772744442950769400,1.533769287109375,0.04292319592535496,0.0024695319186896084,0.02304963433910161
1772744442960797200,1.543797119140625,0.0427729737997055,-0.004189377981238067,0.025938578979950395
1772744442970825500,1.553825439453125,0.05698971520066261,0.006118957804329693,0.02841245828019455
1772744442980852500,1.5638525390625,0.05324234536588192,0.006435732135921716,0.025804942662920802
1772744442990880500,1.573880615234375,0.04187164104580879,0.008480608901754021,0.029865159572847185
1772744443000907500,1.583907470703125,0.04291209000945091,0.0022927140470594166,0.03389715503528714
1772744443010935600,1.593935546875,0.04485796338021755,0.013114844573661685,0.029541370978578924
1772744443020963300,1.60396337890625,0.034087563040852545,0.00988627444859594,0.008683310133311898
1772744443030990300,1.613990234375,0.04441372674405575,0.012798947024904191,0.014218805493880063
1772744443041018400,1.624018310546875,0.03364566449224949,0.01497252820432186,0.025731110241729766
1772744443051045400,1.63404541015625,0.035443069303035736,0.012226079040393233,0.022305793701857327
1772744443061073700,1.64407373046875,0.040683308044075966,0.017834383908845484,0.023616584039479492
1772744443071101400,1.654101318359375,0.06118424428105354,0.001768105651065707,0.023665866541303694
1772744443081128400,1.66412841796875,0.04787409633100032,0.010530563701502979,0.029156390248984098
1772744443091156500,1.674156494140625,0.04308160135746002,0.012495945490337907,0.02599774355497211
1772744443101183500,1.68418359375,0.03559621403813362,-0.001627564669214189,0.020522289552260188
1772744443111211500,1.69421142578125,0.03574234451055527,0.008766622768901288,0.003953961790166795
1772744443121239300,1.7042392578125,0.038432898768782614,0.0003951367974281311,0.012847571939602493
1772744443131266300,1.714266357421875,0.030651158851385116,0.0024981004260480402,0.020457444155123083
1772744443141294600,1.724294677734375,0.05160159242153167,0.012650843791104852,0.015445516010932624
1772744443151321300,1.7343212890625,0.0568418311625719,0.013126717674545943,0.023882742428686467
1772744443161349600,1.744349609375,0.03783610191941261,0.008684753171727061,0.019475684842467308
1772744443171377400,1.75437744140625,0.030054946523904797,0.012822875889763235,0.01880554876225069
1772744443181404400,1.764404296875,0.0498053566545248,0.006952339888550341,0.006551266540680081
1772744443191432400,1.774432373046875,0.04262684332728386,0.009844956057518721,0.01691799971628934
1772744443201459500,1.78445947265625,0.03305120573043823,0.0004941767251119018,0.011589498169906436
1772744443211487500,1.794487548828125,0.044424248138070103,0.018062164782732724,0.020570859668031332
1772744443221515500,1.804515625,0.048158173969388006,0.015325871686637401,0.03646050271727144
1772744443231542300,1.814542236328125,0.04142155919075012,0.01468304373845458,0.008601860661245882
1772744443241570600,1.824570556640625,0.04620820894539356,-0.001927278268150985,0.01251622109338641
1772744443251597300,1.834597412109375,0.03842763807177543,-0.0029265549711883065,0.02073204157911241
1772744443261625600,1.84462548828125,0.04695815052986145,0.007552863064967095,0.03772352665672078
1772744443271652400,1.85465234375,0.056686932861804956,0.01654284626096487,0.013256408468820154
1772744443281680400,1.864680419921875,0.04561258113980293,0.008247676928713917,0.01277821476412937
1772744443291708400,1.87470849609375,0.049499651706218714,-0.004105060698650777,0.016827270959224552
1772744443301735400,1.8847353515625,0.052794017076492304,0.0017516294403001665,0.012812555425148456
1772744443311763500,1.894763427734375,0.05758008230924606,0.0152711823573336,0.022789978755917397
1772744443321790500,1.90479052734375,0.04546294353604317,0.011355177957378327,0.014377831980492918
1772744443331818200,1.914818359375,0.04576104969978332,0.009806779471598566,0.016458693375159053
1772744443341846500,1.924846435546875,0.05518588064908981,-0.0012148922150954603,0.01955130736194551
1772744443351873300,1.934873291015625,0.04381751441657543,0.01159958117250353,0.007688161616120487
1772744443361901600,1.944901611328125,0.046965749314427374,-0.003007547785528004,0.02338670254005119
1772744443371928600,1.954928466796875,0.04382394415736198,0.010180288959108292,0.01755136571638286
1772744443381956400,1.964956298828125,0.04711655596196651,-0.00429619935657829,0.0047000857160426675
1772744443391984400,1.974984375,0.04577157109379768,0.003030088410899043,-0.003314732304867357
1772744443402011400,1.985011474609375,0.05280220038294792,0.0031587928244844075,0.020704258523043244
1772744443412039400,1.995039306640625,0.033494273322820664,0.009537095684744416,0.018574352088570594
1772744443422066400,2.00506640625,0.033199089768528936,0.002016125595383346,0.022158804712910204
1772744443432094200,2.01509423828125,0.04322656278610229,0.011126958692073821,0.015187303466163574
1772744443442122500,2.02512255859375,0.051903790238499635,0.0030938743621110915,0.0233280311553739
1772744443452149500,2.0351494140625,0.036788054171204565,0.00571611262448132,0.014356186404265463
1772744443462177500,2.045177490234375,0.05280395394861698,0.013173114099539815,0.0126963999658823
1772744443472204500,2.05520458984375,0.04607259986698627,0.005878390514105558,0.019667937745247034
1772744443482232300,2.065232421875,0.0474175847351551,0.008189261272363364,0.02036552808796987
1772744443492260400,2.07526025390625,0.050263037294149396,0.01384242819584906,0.01169551582764834
1772744443502287400,2.085287353515625,0.054901218488812444,0.023519663003645837,0.029295579523965713
1772744443512315400,2.0953154296875,0.05056523511111736,0.00631046178843826,0.021385902377963065
1772744443522342400,2.10534228515625,0.0384422511190176,0.006228847919590771,0.0019085005024448037
1772744443532370400,2.115370361328125,0.04233165977299213,0.017378858693689107,0.00827449187040329
1772744443542398500,2.1253984375,0.05489771135747432,0.017624175224266944,0.019812186787836254
1772744443552425500,2.135425537109375,0.05430208355188369,0.009426146123558281,-0.002715761764720082
1772744443562453500,2.14545361328125,0.043380292043089866,-0.00109546708650887,0.006113989368267357
1772744443572480500,2.15548046875,0.033952538484334945,0.009785554020479321,0.004875460549257696
1772744443582508300,2.16550830078125,0.052663084173202514,0.005562018041312694,0.026785332002397626
1772744443592535600,2.17553564453125,0.049529462322592734,0.00934957375600934,0.006497965450864285
1772744443602563300,2.185563232421875,0.043696518385410305,0.004144442860968411,0.010768098784424364
1772744443612591600,2.195591552734375,0.04055412870645523,0.004231353959441185,0.014112751303520053
1772744443622618400,2.205618408203125,0.04983107561767101,0.005199906730651855,0.01866133625227958
1772744443632646400,2.215646484375,0.04952829327881336,0.0019680852025747296,0.02840774557245895
1772744443642673400,2.22567333984375,0.04743395134806633,-0.00672273238375783,0.010705938534718006
1772744443652701400,2.235701416015625,0.044299160453677176,0.008776340445317327,0.021794866771344096
1772744443662729500,2.2457294921875,0.056710898259282105,0.010816212242469191,0.014518847886379808
1772744443672756500,2.255756591796875,0.04563187036216259,0.010159757627733051,0.012087419488374143
1772744443682784300,2.2657841796875,0.049517771884799,0.010315386580862104,0.013107848577294499
1772744443692811500,2.2758115234375,0.05640577783286571,0.003383760686777532,0.025191907064802944
1772744443702839300,2.28583935546875,0.03740180215537548,-0.00029748510923236605,0.011945581598579882
1772744443712867600,2.29586767578125,0.0534130257576704,0.005008585409633815,0.008685027166362852
1772744443722894300,2.305894287109375,0.046676410979032516,0.008503953244723379,0.012857253083400428
1772744443732922400,2.31592236328125,0.04922258833050728,0.0024542612843215465,0.024502883621025828
1772744443742949400,2.325949462890625,0.04562953227460384,0.0022233020726591347,0.014723138286825269
1772744443752977400,2.335977294921875,0.04173895457684994,0.0007886661596596241,0.0057619793265126645
1772744443763005400,2.34600537109375,0.047121232137084,0.004338029204308987,0.013467128610052167
1772744443773033000,2.356032958984375,0.043829789376258844,0.01027984034344554,0.020417568802461025
1772744443783061000,2.36606103515625,0.03335106545984745,-0.00018580489568412303,0.019487813671678303
1772744443793088000,2.376087890625,0.04741466212570667,-0.011914492340572177,0.024573939563240853
1772744443803116000,2.386115966796875,0.046667643150687214,-0.003738857734762132,0.02669226515777409
1772744443813143000,2.39614306640625,0.03680091365277767,0.010710377247817813,0.027534670798666772
1772744443823170800,2.4061708984375,0.048775429084897036,0.013093326861597596,0.020245938562601803
1772744443833199000,2.41619921875,0.039654549518227576,0.0010183467296883463,0.00438004171513021
1772744443843225900,2.426225830078125,0.051474751171469685,-0.00003945522755384445,0.025972846575733274
1772744443853254100,2.436254150390625,0.044590836876630784,0.006216901753470301,0.00813840786796063
1772744443863281000,2.446281005859375,0.04324585200846195,0.013481011004932224,0.004000394747778773
1772744443873309000,2.456308837890625,0.041748891448974604,0.014517441380582748,0.013870686175953596
1772744443883337000,2.4663369140625,0.035466450178623196,-0.008275259055383503,-0.004390197782963514
1772744443893364000,2.476364013671875,0.042507016339898104,-0.0017332535333931445,0.004395184485334902
1772744443903392000,2.48639208984375,0.037270869252085684,0.01783226501699537,0.0282335763156414
1772744443913419000,2.4964189453125,0.05866670850217342,-0.00955156260151416,0.019956125303171573
1772744443923446800,2.50644677734375,0.03293196326494217,0.007569741134531796,0.0067677405692636965
1772744443933475000,2.51647509765625,0.045803135275840755,0.010593326739408075,0.015070673082862049
1772744443943501800,2.526501708984375,0.06016542262732982,0.00467168160546571,0.005810147583484649
1772744443953530000,2.536530029296875,0.05238426723182201,-0.0037847427031025287,0.013023531294707208
1772744443963557000,2.54655712890625,0.049395022287964815,-0.004996712308749557,0.018896405383478847
1772744443973585000,2.5565849609375,0.049395606809854505,-0.006986169092915951,0.01477296877792105
1772744443983613000,2.566613037109375,0.06286591375768184,0.0015191358586773276,0.024180172738991677
1772744443993640000,2.576639892578125,0.050745852375030515,0.008226597608067095,0.017387206396926192
1772744444003668000,2.58666796875,0.04102291526198387,-0.008793401177972554,0.018333510803710668
1772744444013695000,2.596695068359375,0.034441783306002616,-0.0031196298578754066,0.010852890991047024
1772744444023723000,2.606722900390625,0.0447685315310955,0.007129778814688324,0.027891722341720014
1772744444033751000,2.6167509765625,0.05135726227164268,0.012716675568930804,0.014146525708958507
1772744444043778000,2.626778076171875,0.04776712882518768,0.007170768412202596,0.01720963960662484
1772744444053806000,2.63680615234375,0.028173370561003684,0.006706036977283656,0.011645466140843927
1772744444063833000,2.6468330078125,0.04627893609404564,0.0018752923525869845,0.0012934921429492532
1772744444073860900,2.65686083984375,0.04029109385609626,0.009584186229482292,0.008746840356197208
1772744444083888000,2.66688818359375,0.04761982930898666,-0.006229505506716668,-0.0030488661766052243
1772744444093916000,2.676916015625,0.042976387417316436,-0.002053498463705182,0.007366437114775181
1772744444103944000,2.68694384765625,0.059141340276598925,0.008190978305414319,0.0002611534205265343
1772744444113971000,2.696970947265625,0.05599778155386448,0.010239398735202849,0.010430263398494571
1772744444123999000,2.7069990234375,0.03789280054271221,0.001684555553458631,0.008985453151352704
1772744444134026000,2.71702587890625,0.04028407959342003,-0.00228679576292634,0.00435695310048759
1772744444144054000,2.727053955078125,0.03968319109082222,0.0034813758423551913,-0.0020724588925018906
1772744444154082000,2.73708203125,0.03250000158846378,0.010908712831512093,0.014934826542437076
1772744444164109000,2.747109130859375,0.06317512583732604,0.0024023484339937566,0.026964688890986143
1772744444174136800,2.75713671875,0.04551905763745308,0.013466690218634903,0.012516568153258412
1772744444184164000,2.7671640625,0.03759177176952362,-0.008385587562061847,0.0011323832971043884
1772744444194192000,2.77719189453125,0.051803252473473546,-0.004821428807079792,0.0028511333811096847
1772744444204220200,2.78722021484375,0.03998246629834175,0.013836656042188405,0.005891195196751505
1772744444214247000,2.797246826171875,0.036389994764328,0.002711597046256065,0.0043689905981533226
1772744444224275000,2.80727490234375,0.045070729348063464,0.0069387497546151275,0.014694533246848732
1772744444234302000,2.817302001953125,0.04162964898347855,0.011107925198040903,0.020917115822434423
1772744444244330000,2.827330078125,0.045074236479401585,0.01576981606185436,0.023201902291364967
1772744444254358000,2.83735791015625,0.04177870206534862,0.0020674904564395545,0.010078691748157143
1772744444264385000,2.847385009765625,0.03758884916007518,0.016463680077530442,0.018788908154703677
1772744444274412800,2.857412841796875,0.04177753302156925,-0.0011581935917958617,0.00926039763521403
1772744444284440000,2.867440185546875,0.04102992952466011,0.010523878232389688,0.008186137733515352
1772744444294467800,2.8774677734375,0.03429506831169128,0.010294489923305809,0.009479081887193024
1772744444304494800,2.887494873046875,0.029503742381930348,0.010547551368921994,0.018646997199673204
1772744444314523000,2.89752294921875,0.04940671272575855,0.01655603453610092,0.020727073143050074
1772744444324551000,2.907551025390625,0.044617724883556364,-0.0022197584087029097,0.01468351866248995
1772744444334578000,2.917577880859375,0.05823357778191566,0.0013098039569333195,0.01641858056047931
1772744444344606000,2.92760595703125,0.0594300940901041,0.0046651057342067355,0.0012003522330895065
1772744444354633000,2.937633056640625,0.06018178924024105,-0.004369081929698586,0.005846534071117639
1772744444364661000,2.947660888671875,0.04686930320262909,-0.00021349662020802497,0.001510970818530768
1772744444374688800,2.957688720703125,0.048663200882077214,0.0038501360895112154,0.02233626190535724
1772744444384716000,2.967716064453125,0.04551788859367371,0.008572305773198605,0.01473725814372301
1772744444394743800,2.977743896484375,0.04821370354890823,0.01027162050437182,0.010674209955893457
1772744444404771000,2.98777099609375,0.04327683166861534,0.010460238411650061,-0.0027666334354318678
1772744444414798800,2.997798828125,0.042376083436608314,0.0031185704119503495,0.017166403253097085
1772744444424827000,3.007826904296875,0.04716448675692081,0.004202347060665488,0.0038991263303905723
1772744444434854100,3.017854248046875,0.05749415759146213,-0.008887399604357778,0.014445472122915089
1772744444444882000,3.0278818359375,0.040732407882809636,0.016769202362746,0.010669387650303543
1772744444454909200,3.0379091796875,0.03699029874503612,0.001608933033980429,-0.0005553140615113079
1772744444464937000,3.04793701171875,0.03998421986401081,-0.0051852936834096905,0.025921171187423167
1772744444474964700,3.05796484375,0.03265197727978229,-0.0018016060618683695,0.002349412670359015
1772744444484992000,3.067991943359375,0.045669864284992215,-0.001746514873765409,0.010154679593816399
1772744444495020000,3.07802001953125,0.06063304013907909,0.011954568622633815,-0.0017254172868095337
1772744444505047000,3.088047119140625,0.05105389541089535,-0.002965827535651624,-0.0011862689088098703
1772744444515075000,3.098074951171875,0.032499417066574096,0.004042114997655153,0.003821731978934258
1772744444525101800,3.108101806640625,0.03623860359489917,-0.005900711943767964,0.001112673949636519
1772744444535130000,3.118130126953125,0.03159866883456707,-0.001434745510853827,0.015052790366299449
1772744444545158000,3.128157958984375,0.04282032007277012,0.0009377923067659139,0.027779311475809663
1772744444555185200,3.13818505859375,0.03968085300326347,0.010166406564228236,0.0008743899480439721
1772744444565213000,3.148212890625,0.04746493100821972,0.0137785691794008,0.00213611697955057
1772744444575240000,3.158239990234375,0.046268999221920966,0.00602813771571964,-0.011957217237446456
1772744444585268000,3.16826806640625,0.03698971422314644,0.010603154013678432,-0.012564298018813133
1772744444595296000,3.1782958984375,0.049554596763849254,-0.0016750570727512239,0.023013741041813043
1772744444605323000,3.188322998046875,0.04042728745639324,-0.008422229778021574,0.011761658132728189
1772744444615351000,3.19835107421875,0.033095044872164726,0.010999605985358357,0.002272840302810073
1772744444625377800,3.208377685546875,0.04342003953158855,0.012369798360019921,0.012934428239148109
1772744444635406000,3.218406005859375,0.0524023874104023,-0.003447510105371475,0.019567144251894205
1772744444645433900,3.228433837890625,0.03878244285881519,0.0011093494813889265,0.01686460729492828
1772744444655461000,3.238461181640625,0.03339548912346363,0.00670329703092575,0.019190365095064044
1772744444665489000,3.248489013671875,0.04386544521152973,-0.005061448108032346,0.001897431119158864
1772744444675516000,3.258515869140625,0.05239654219150543,0.009139584267139435,0.00779558577965945
1772744444685544000,3.2685439453125,0.03773731772005558,0.0010366495713591574,0.0074499141471460455
1772744444695571000,3.278571044921875,0.04028115698397159,-0.004624773723818362,0.0007578326299786568
1772744444705599000,3.288598876953125,0.05105331088900566,0.0011151216350495814,-0.007831917468365281
1772744444715627000,3.298626953125,0.04985854814648628,0.0037870442580431696,0.008401260055229067
1772744444725653800,3.30865380859375,0.04057692506015301,0.00741571961659938,0.012004892304074019
1772744444735682000,3.31868212890625,0.046858197286725044,0.013156930149719118,0.011417246875539421
1772744444745709000,3.328708984375,0.039976036557555196,0.000245279997959733,0.010406699859816581
1772744444755737000,3.338737060546875,0.03578384556472301,-0.0018384309409186243,0.019358141143713144
1772744444765764900,3.348764892578125,0.055092357146739955,-0.01589070249516517,0.009803948193695396
1772744444775791600,3.35879150390625,0.06257891350984573,0.00865490602273494,0.010287694856338202
1772744444785819600,3.368819580078125,0.041024668827652926,0.001522095000743866,0.013629150771349668
1772744444795846700,3.3788466796875,0.037734979632496835,-0.00253313520681113,0.0040667379822582
1772744444805874700,3.388874755859375,0.04701368010938167,-0.0075032517695799465,0.018044336865097283
1772744444815902700,3.39890283203125,0.06182488027215004,0.008858575368672609,0.0199667745613493
1772744444825929700,3.4089296875,0.04865618661940097,0.010489354908280074,-0.001723919449467212
1772744444835957800,3.418957763671875,0.057931964486837385,0.001742167492210865,0.008710526933800429
1772744444845984800,3.42898486328125,0.05493921241164207,0.0053218160772696135,0.020813564116414635
1772744444856012500,3.439012451171875,0.052692894789576526,-0.010172726707160473,0.008955332007724791
1772744444866039800,3.449039794921875,0.04984861127436161,-0.006028174248337745,0.0037105266894213854
1772744444876067600,3.459067626953125,0.04401391377151012,0.0022032456653192636,0.010983805628027766
1772744444886096000,3.469095947265625,0.05090250424146652,-0.00328106749728322,0.015467928772140293
1772744444896122600,3.47912255859375,0.041323359513282774,0.010331205204501747,0.015796229144744572
1772744444906150700,3.489150634765625,0.04206687135696411,0.0020548136379569767,0.01211514774551615
1772744444916177700,3.499177734375,0.04953998371660709,-0.005354074379056692,0.013644457938335835
1772744444926205700,3.509205810546875,0.05178162516355514,0.00029138416200876236,0.019846363052073865
1772744444936233700,3.519233642578125,0.04355389504432678,0.009131145232357083,0.0009012779549695551
1772744444946260700,3.5292607421875,0.04265723846554756,0.009001637101173401,-0.0009026844607666134
1772744444956288500,3.53928857421875,0.048050621941685676,0.008327939090691506,0.004611731579154729
1772744444966315800,3.549315673828125,0.04626140043735504,0.002036729991994798,0.015155300892703234
1772744444976343600,3.559343505859375,0.03654080141186714,-0.0004380626237019896,0.003637497985828668
1772744444986371800,3.569371826171875,0.03983049060702323,0.010324483202770351,0.0013931713914498685
1772744444996398600,3.579398681640625,0.04147065902948379,0.0011673267463222145,0.005881112194154411
1772744445006426600,3.589426513671875,0.039973113948106764,-0.0007035086268559098,0.014342267476767302
1772744445016453600,3.59945361328125,0.05613105254471302,-0.00419540586322546,0.018423143582232297
1772744445026481700,3.609481689453125,0.05134557183384895,-0.0074036273200064895,0.012161197110638022
1772744445036508700,3.6195087890625,0.03428863857090473,-0.0024049787824973463,-0.006990662604942918
1772744445046536700,3.62953662109375,0.04940379011631012,-0.007415098562091589,0.025878354959003626
1772744445056564500,3.639564453125,0.04536415933668613,-0.0017424962857738135,0.009688304191082716
1772744445066591700,3.649591796875,0.0413221904695034,-0.006047755731642246,0.012205821703653781
1772744445076619500,3.65961962890625,0.058825113934278486,0.0025673662699759003,0.002881327589973807
1772744445086646800,3.669646728515625,0.06405950745642185,0.009070135760121048,0.01650653283856809
1772744445096674600,3.679674560546875,0.05777355905473232,-0.0023142682917416096,0.01192267564702779
1772744445106702600,3.68970263671875,0.038169279396533966,0.00394771471247077,0.011812328874040394
1772744445116729900,3.699729736328125,0.040116906332969667,0.004746719603054225,0.012979308560490607
1772744445126757600,3.709757568359375,0.04894494043290615,0.01483677299544215,0.008079992211610078
1772744445136785000,3.719784912109375,0.06121288585364818,0.005959419861063361,-0.005957830692175776
1772744445146812700,3.729812744140625,0.03757774324417114,0.005674173178896308,0.011753620956744999
1772744445156840400,3.73984033203125,0.04760580078363418,0.00963372445963323,0.01820606676544994
1772744445166867700,3.74986767578125,0.03712883043289184,-0.0001964358875527978,0.014562778359651564
1772744445176895700,3.759895751953125,0.04819967502355575,0.009941986691206692,0.014899426435492932
1772744445186922800,3.7699228515625,0.04850128831863403,0.004423917389474809,0.0190121772502549
1772744445196950800,3.77995068359375,0.032789924445748325,0.007630567943677306,0.009507559063006191
1772744445206977500,3.7899775390625,0.054036710613965984,-0.004733458262681961,-0.004929327894654125
1772744445217005800,3.800005859375,0.04864741879105568,0.0027528058394789695,0.004014240610040724
1772744445227033600,3.81003369140625,0.04954173728227615,0.00520385225340724,0.01869308309741318
1772744445237060900,3.820060791015625,0.03367781319618225,0.009877433555014432,0.008890212615951895
1772744445247088600,3.830088623046875,0.04490121800005436,0.010774857318773865,0.007381598151288926
1772744445257115600,3.84011572265625,0.049985973918437954,0.010646335568279028,0.001168861116282642
1772744445267143700,3.850143798828125,0.046097734308242794,-0.005201587231084704,-0.002354271508567035
1772744445277171700,3.860171630859375,0.04115969338417053,0.0006670490739867091,0.0007036547573283314
1772744445287198700,3.87019873046875,0.051636663734912866,0.014225582294538616,0.017627079567406327
1772744445297226800,3.880226806640625,0.05702595555782318,-0.007896927262283861,0.014433288494776934
1772744445307253500,3.89025341796875,0.046101825961470604,-0.013756868804246187,0.012186514214985072
1772744445317281800,3.90028173828125,0.050742345243692394,0.0023382702218368648,-0.00993197675384581
1772744445327309600,3.9103095703125,0.059276949355006214,0.0024787746710702775,0.0020369857203215358
1772744445337336800,3.9203369140625,0.04371639212965965,-0.007113375669158995,0.00111943248398602
1772744445347364600,3.930364501953125,0.03025660657584667,-0.0020303002512082457,-0.003945248760748654
1772744445357391600,3.9403916015625,0.03250175515413284,-0.0012394056018441915,0.016898856624402103
1772744445367419600,3.950419677734375,0.06362988386750221,0.003367686334811151,0.011977657237276434
1772744445377446700,3.96044677734375,0.04926993460357189,0.001418780756741762,0.007913220809958875
1772744445387474700,3.970474609375,0.03640168520212173,0.0013565657081082462,0.000469699870981276
1772744445397502700,3.980502685546875,0.03744797938466072,0.014169906584545968,0.0017936967500485478
1772744445407529500,3.990529541015625,0.041491117295622826,0.01809595745448023,0.010984207486826925
1772744445417557800,4.000557861328125,0.05241700045764446,0.011369023819640278,0.00790892822733149
1772744445427584800,4.010584716796875,0.0437403575271368,-0.0016000921403989195,0.003676167762093246
1772744445437612800,4.02061279296875,0.05257131423652172,-0.004769954348169267,0.019695081480499355
1772744445447640600,4.030640625,0.04314239163398743,0.006570647094585001,-0.0013860657972283661
1772744445457667600,4.04066748046875,0.037004327270388604,0.012348426778428255,0.01871359616247937
1772744445467695600,4.050695556640625,0.03401332876086235,-0.0030939839599654077,0.02241968413880095
1772744445477722600,4.06072265625,0.04030278429389,0.005211597168445587,0.003909556392859667
1772744445487750700,4.070750732421875,0.05167758026719093,-0.0026675752414390443,0.006422269866149872
1772744445497777700,4.080777587890625,0.049881344500184055,-0.008310366901382803,0.012420651764422655
1772744445507805700,4.0908056640625,0.03925356750190258,0.009246186446771025,0.016329568836465476
1772744445517833700,4.100833740234375,0.04434241507351398,-0.01123732373137027,0.008659381268452853
1772744445527860700,4.11086083984375,0.04419745364487171,0.004049238858185708,0.00985467373393476
1772744445537888800,4.120888671875,0.04225158027410507,0.00493705454338342,-0.006319521877728402
1772744445547915800,4.130915771484375,0.05391805267035961,0.012302870603650807,0.00002367313653230667
1772744445557943600,4.140943603515625,0.043885318955779073,0.006135908939130604,0.0110009028933011
1772744445567971600,4.1509716796875,0.05480944855213165,-0.005748334393650293,0.01850567076653242
1772744445577998600,4.16099853515625,0.05675415287911892,-0.00038841479569673535,0.007122362693212926
1772744445588027000,4.17102685546875,0.051070262023806566,0.0037273134274408218,0.008783555637393145
1772744445598053600,4.1810537109375,0.044186932250857354,0.015780995042994617,0.01136904208594933
1772744445608081700,4.19108154296875,0.04508066622018814,0.007631554324366152,-0.00381614248836413
1772744445618109700,4.201109619140625,0.037891631498932835,0.009851422330923378,0.0029295871784910557
1772744445628136700,4.21113671875,0.049563364592194556,0.0104645492605865,-0.008861516244430094
1772744445638164700,4.221164794921875,0.031005963638424873,-0.008617277426086365,0.01222693755691871
1772744445648191700,4.231191650390625,0.04806757307648658,0.019819639441929757,0.011334975419566035
1772744445658219500,4.241219482421875,0.035350130322575564,0.015950762119330466,0.0005253573146648705
1772744445668246800,4.251246826171875,0.03504851702749729,-0.006705123661831021,0.01056797310244292
1772744445678274600,4.261274658203125,0.04926467390656471,0.004748875027522444,0.022112353488989173
1772744445688302800,4.271302734375,0.03804068458080292,0.0007874240506440401,0.0028902050161734223
1772744445698329600,4.28132958984375,0.04776829786896705,-0.0027943434262648224,0.013041834136378019
1772744445708357600,4.291357666015625,0.06108253747224807,-0.005864581184461712,0.011884170267544686
1772744445718384600,4.301384521484375,0.053901101535558694,0.00033127778097987175,0.005020641173608601
1772744445728412700,4.31141259765625,0.048068742120265955,0.0105448844878003,0.01661872450876981
1772744445738440700,4.321440673828125,0.056150341767072676,-0.005087094005942344,0.001021853861026466
1772744445748467700,4.3314677734375,0.024877251625061034,0.00986581618245691,-0.004269822806306183
1772744445758495500,4.34149560546875,0.04358487470448017,0.014889927954785526,0.009486936400085686
1772744445768522800,4.351522705078125,0.05840075104236602,0.0013421353239566087,0.005485445673763752
1772744445778550300,4.36155029296875,0.05256137736439705,0.007982340523414313,-0.000480750987958163
1772744445788578300,4.371578369140625,0.060190557068586344,-0.0036593992903828617,-0.009401815399900077
1772744445798605300,4.381605224609375,0.04193593845367431,0.0036892099067568776,0.0044858949760906396
1772744445808633300,4.39163330078125,0.05391162292957306,0.009367292075790463,0.015285722339339553
1772744445818660400,4.401660400390625,0.04822948563992977,-0.01087170528937131,0.017515837745275348
1772744445828688100,4.411688232421875,0.04254501026272774,0.020647285905107855,0.0004342814977280795
1772744445838715400,4.42171533203125,0.04374094204902649,-0.008442030457034707,0.0028015586183406413
1772744445848743200,4.4317431640625,0.045692076116800304,-0.0019281185183674097,0.016428736628312617
1772744445858771200,4.441771240234375,0.041052725878357885,-0.006994425464607774,0.004642820837162435
1772744445868798200,4.451798095703125,0.03985270243883133,0.002947086302563548,0.012885675460286438
1772744445878826200,4.461826171875,0.05257248328030109,-0.008150938555970787,-0.0015415668861940503
1772744445888853200,4.471853271484375,0.06798457194566726,0.008179616661183536,0.010709957122709602
1772744445898881300,4.48188134765625,0.05675999809801578,0.008209354212321341,0.010592997945845126
1772744445908909300,4.491909423828125,0.038503041395545,-0.000505647967197001,0.001464227333664894
1772744445918936300,4.501936279296875,0.05690963570177555,-0.009194200531207024,0.004099270278681069
1772744445928964000,4.511964111328125,0.0377536843329668,0.0044999783003702755,-0.000253846896905452
1772744445938991400,4.521991455078125,0.054663318079710005,0.0026867913985624907,0.0179563480543904
1772744445949019100,4.53201904296875,0.04404021725654602,-0.007484400938637554,0.0030879743442870674
1772744445959047400,4.54204736328125,0.04882394440174102,-0.00004208557605743408,0.009226294436212628
1772744445969074200,4.55207421875,0.04432955559194088,0.016302826960012316,0.007784954787790775
1772744445979102200,4.562102294921875,0.05300853661000728,0.01735200721938163,0.006149846132937818
1772744445989129200,4.572129150390625,0.04432838654816151,-0.005288534862175584,-0.00448616897072643
1772744445999157200,4.5821572265625,0.036999651095271105,-0.0050613019775599235,0.006831161194294691
1772744446009185300,4.592185302734375,0.042236967226862904,0.007075491344183683,0.002971289162058383
1772744446019212300,4.60221240234375,0.04838029228746891,0.007839388388767838,0.0064538888471201055
1772744446029240000,4.612239990234375,0.06260112534165382,0.002236563413031399,0.0157572488412261
1772744446039267300,4.622267333984375,0.05527472797632217,-0.003417955217324197,0.009048508450202643
1772744446049295000,4.632295166015625,0.04809036943018436,0.0013387743230909108,0.007876523795071989
1772744446059322000,4.642322021484375,0.04733750523626804,-0.0030860929144546387,0.011926986495964229
1772744446069350100,4.65235009765625,0.05556698892116546,-0.0002703779065981507,0.010997523626126349
1772744446079378200,4.662378173828125,0.043749709877371784,0.004936287358403206,0.020962945991847663
1772744446089405200,4.6724052734375,0.03626607612371444,-0.005505209820158779,0.02099675692990422
1772744446099433200,4.68243310546875,0.04165244533717632,-0.013012845503911375,0.008561693047638982
1772744446109460200,4.692460205078125,0.03761632168889045,0.008425956105068326,0.006653521338757127
1772744446119488300,4.70248828125,0.0407557887583971,-0.011504925158992409,0.0031384258898906406
1772744446129516000,4.71251611328125,0.04090893349349498,-0.0005364814968779682,0.008284611405618487
1772744446139543300,4.722543212890625,0.037168577921390535,0.00009440028518438338,0.007130911325849592
1772744446149571000,4.732571044921875,0.03223287508487701,0.007654825602099299,0.004746683070436119
1772744446159598000,4.74259814453125,0.05572305626571178,0.011455204265750944,-0.0007938720577396451
1772744446169626000,4.752626220703125,0.0483937362909317,0.003759717859700322,-0.012164046654850243
1772744446179654100,4.762654052734375,0.04719663546085357,-0.012067271749489008,0.0044815658608451485
1772744446189681400,4.772681396484375,0.03836684779524803,0.010901442840509116,-0.013821586337219922
1772744446199709200,4.782709228515625,0.051237435284256935,-0.00277859786786139,-0.0031500797950662672
1772744446209736200,4.792736083984375,0.037623335951566694,-0.0012086816700175404,0.011044340176228433
1772744446219764200,4.80276416015625,0.04884790979921817,0.010364924811013042,0.008638192349951715
1772744446229791200,4.812791259765625,0.05124094241559505,-0.00975658365432173,-0.003537142883893102
1772744446239819300,4.8228193359375,0.0311877499461174,0.0028793182959780095,0.0004652428915724158
1772744446249847300,4.832847412109375,0.034925182908773424,0.003061360331997275,0.002530157798435539
1772744446259874000,4.8428740234375,0.053933834761381146,0.004126907204277813,0.001088197095505893
1772744446269902300,4.85290234375,0.04136719865500927,0.0159624890897423,-0.000376267700176686
1772744446279929000,4.86292919921875,0.05453823039531708,0.021969839745759962,0.013599760280083865
1772744446289957400,4.872957275390625,0.0443675495147705,0.013321546126902103,0.01911978407688439
1772744446299985200,4.882985107421875,0.033144729232788085,-0.00012603753246366977,0.016918237178307025
1772744446310012200,4.89301220703125,0.03524024020731449,-0.0013420987913385033,-0.0007994615483097731
1772744446320040200,4.903040283203125,0.052746086281538006,0.005534728175587952,0.010400745043065398
1772744446330067200,4.913067138671875,0.042867081823945045,-0.009076017511636019,0.015918649948015808
1772744446340095200,4.92309521484375,0.054690790608525275,-0.007013385893404484,0.009863149301335215
1772744446350123300,4.933123291015625,0.05424363136291504,-0.000605966536514461,0.018964995373971758
1772744446360150300,4.943150390625,0.04990180276632308,-0.006584054565429687,-0.0016509820774197577
1772744446370178300,4.95317822265625,0.05378945785462856,0.00037062341067939993,-0.007347860278468578
1772744446380205000,4.963205078125,0.03823065419495106,-0.0008116086438298225,0.0039015374831855294
1772744446390233300,4.9732333984375,0.038084523722529406,-0.003323481866903603,0.005135390127077698
1772744446400260000,4.983260009765625,0.05394727876484394,0.005659852392598986,0.001958623254485428
1772744446410288400,4.993288330078125,0.03629237960875034,-0.008683584127947688,0.006355524772871286
1772744446420316200,5.003316162109375,0.03165069128274917,0.005200089393742382,-0.001343541829753667
1772744446430343200,5.01334326171875,0.04152326599955559,0.005140322030521929,-0.0003584945814684033
1772744446440371200,5.02337109375,0.03463818266093731,0.007061243623122573,0.006095503863506019
1772744446450398200,5.033398193359375,0.03612988252341747,-0.0034550723573192953,0.016721417698264122
1772744446460426200,5.04342626953125,0.051989714956283566,-0.00643514761403203,0.012189144563488661
1772744446470454300,5.053454345703125,0.04975567229390144,-0.007485277721472084,0.008142188993934542
1772744446480481000,5.06348095703125,0.04630933123230934,-0.0067768006585538386,0.00020041794292628763
1772744446490509300,5.07350927734375,0.049292730957269666,0.006771101570129394,0.007631042867712676
1772744446500536300,5.083536376953125,0.05826455744206905,0.002550524733029306,0.002833853452745825
1772744446510564400,5.093564453125,0.05691255831122398,-0.007807897271960973,-0.0034821247610263522
1772744446520592100,5.103592041015625,0.05466974782049656,-0.001359013393521309,0.02025434106476605
1772744446530619100,5.113619140625,0.041649522727727886,-0.012901530616544187,0.011463643300533293
1772744446540647200,5.123647216796875,0.04508884952664375,-0.0036960049737244844,0.001427219791524112
1772744446550674200,5.133674072265625,0.04508943404853344,-0.0012669511958956717,-0.0037706045798957346
1772744446560702200,5.1437021484375,0.03760930742621422,-0.003570113571733236,0.01335298244478181
1772744446570729200,5.153729248046875,0.04074877449572086,0.0028208295743912455,0.02194768271287903
1772744446580757200,5.16375732421875,0.043593058010935784,-0.0006310644451528787,0.01708656121622771
1772744446590785300,5.173785400390625,0.0611029957383871,-0.00045848435722291466,0.013875983405578881
1772744446600812300,5.183812255859375,0.05003098210394382,0.0017790289038792251,0.012301098771672694
1772744446610840300,5.19384033203125,0.043298458978533745,0.001916245417483151,0.004156023700907827
1772744446620867300,5.203867431640625,0.03925941272079944,0.006245945184864103,0.026546609609387813
1772744446630895000,5.21389501953125,0.04643851056993007,-0.0064393853977322574,0.008407854192797094
1772744446640923100,5.223923095703125,0.054069443839788435,0.0041438583390787246,-0.0004594707379117608
1772744446650950100,5.2339501953125,0.04867956749498844,0.011675532485544681,0.01523992870254442
1772744446660978400,5.243978515625,0.048076340904831885,-0.002510302320495248,-0.007648742921184748
1772744446671005200,5.254005126953125,0.0266781635671854,0.015425971060246228,-0.0051339105560444295
1772744446681033200,5.264033203125,0.03714987322092056,0.009841923850215971,0.0033100195971317585
1772744446691061200,5.274061279296875,0.03610182547271251,-0.005696494608558714,0.001438088245410472
1772744446701088300,5.284088134765625,0.04044190050363541,0.004836480245739221,-0.005773505367524922
1772744446711116300,5.2941162109375,0.05510638567209243,-0.00403338370192796,-0.004194638678245246
1772744446721143300,5.304143310546875,0.04028875576853752,0.0030173750597983595,0.004429689543135464
1772744446731171000,5.314171142578125,0.03190788091421127,-0.008026179665140807,-0.00167759608970955
1772744446741199400,5.324199462890625,0.0331049817442894,-0.00010338730923831462,0.0041430180888622995
1772744446751226000,5.33422607421875,0.051363692012429234,-0.0060114423092454666,0.0027994397264905274
1772744446761254400,5.34425439453125,0.04178454728424549,-0.0021785496154800056,0.008646887113060801
1772744446771281700,5.35428173828125,0.04567746306955814,-0.006268668473325669,0.009735047675948589
1772744446781309700,5.364309814453125,0.0426858800381422,0.0007858531480655073,-0.006603088059462607
1772744446791336700,5.374336669921875,0.05061491947174072,-0.006435951331630349,0.002846767733246088
1772744446801364700,5.38436474609375,0.06333353126943111,-0.00497081068251282,0.0007345065533183514
1772744446811392800,5.394392822265625,0.04507891265451908,-0.0018423764636740086,0.0058953233825974165
1772744446821419800,5.404419677734375,0.028470892202854155,-0.0005371756166219711,0.004946881817653775
1772744446831447600,5.414447509765625,0.04881868370473384,-0.004042809117399156,0.019039887241087853
1772744446841474800,5.424474853515625,0.041187750434875485,-0.0025208602471277117,0.011704849911574274
1772744446851502600,5.434502685546875,0.06109188982248306,0.00733132926877588,0.011436280369572342
1772744446861531000,5.44453076171875,0.04238602030873299,0.006801569773629308,0.0068666343664750456
1772744446871557600,5.4545576171875,0.040592122629284855,-0.007708090159296989,0.002911887125018984
1772744446881585700,5.464585693359375,0.03939326823353767,0.005967091710865497,0.0007493935951963066
1772744446891612700,5.47461279296875,0.05046703543365001,0.02016936619505286,-0.0004925510236062109
1772744446901640700,5.484640625,0.06423837115466595,-0.001118007711879909,-0.003526347495242953
1772744446911668700,5.494668701171875,0.05346212559640407,0.009337444926798343,-0.007061426286213099
1772744446921695700,5.50469580078125,0.044781975534558295,-0.0006100581897422671,0.0032133725559338926
1772744446931723500,5.5147236328125,0.04777355856597423,-0.00930346959196031,0.014328476413432508
1772744446941750800,5.524750732421875,0.042532735303044314,-0.00927329364940524,0.0006689670364372432
1772744446951778600,5.534778564453125,0.0346036958694458,0.012644048724137246,0.0068509253406897185
1772744446961806800,5.544806884765625,0.06542670415639877,-0.012025588032230734,-0.0009486790269613265
1772744446971833600,5.55483349609375,0.04059095358550548,-0.007356682905741036,-0.0034842984518036243
1772744446981861600,5.564861572265625,0.034006899020075795,-0.0030314035851508377,0.0063681102598086
1772744446991888600,5.574888671875,0.043588381835818285,-0.0001870104720816016,0.00025434008724987506
1772744447001916700,5.584916748046875,0.03880348564684391,-0.0002313245378434658,0.005644709622394294
1772744447011943700,5.594943603515625,0.06379647260606289,0.006469890133850276,0.007776040828973055
1772744447021971700,5.6049716796875,0.04644026413559913,-0.006414835478365421,-0.006558518265374004
1772744447031999500,5.61499951171875,0.03312310192286968,0.002151953869499266,0.009629541474860162
1772744447042026800,5.62502685546875,0.04419394651353359,0.010900748720765113,0.011869959079101681
1772744447052054500,5.635054443359375,0.04165244533717632,-0.0010526508580893277,0.014776932566985488
1772744447062081500,5.64508154296875,0.05242693732976913,-0.002100479410588741,0.002042611743509769
1772744447072109800,5.65510986328125,0.05153203431665897,-0.011780015773326158,-0.005363554593455046
1772744447082137600,5.6651376953125,0.05826572648584842,-0.013255275957658887,-0.0024759981920942664
1772744447092164900,5.675164794921875,0.048396658900380134,-0.002234152260236442,0.015607830433174966
1772744447102192600,5.685192626953125,0.04944412212669849,0.0098022859595716,-0.000971621511131525
1772744447112219600,5.6952197265625,0.042866497302055356,-0.006026968671940267,0.0023768304002471266
1772744447122247700,5.70524755859375,0.049155368313193316,0.001392769532650709,-0.004124696980882436
1772744447132275500,5.715275390625,0.050803720042109486,0.008499898124113678,-0.00006033361880108714
1772744447142302700,5.725302734375,0.05005436297953129,0.007951945385150611,0.003432787460274994
1772744447152330800,5.735330810546875,0.04541676630675792,-0.000573744767345488,-0.0050115445517003535
1772744447162357500,5.745357421875,0.04706570255756378,0.00502860528435558,-0.008925850184913724
1772744447172385800,5.7553857421875,0.039437107375264166,0.008107939664460719,-0.0017538031310774386
1772744447182413600,5.76541357421875,0.05006079272031784,-0.002724200799502432,-0.01227291385680437
1772744447192440800,5.77544091796875,0.04931085113584995,-0.00596994125507772,0.004400865307450294
1772744447202468600,5.785468505859375,0.059636430317163466,0.0065127428948879235,-0.005095039850380271
1772744447212495600,5.79549560546875,0.04347556911110878,-0.00019698387682437897,-0.007326013772841543
1772744447222523600,5.805523681640625,0.047964112702012056,0.0032812136277556416,0.0030112558462657034
1772744447232550700,5.815550537109375,0.04647182831764221,-0.002854768376611173,0.0039488289573229845
1772744447242578700,5.82557861328125,0.04976327107846737,-0.009005326895602047,0.015934760832600293
1772744447252606700,5.835606689453125,0.05275485410988331,0.0019083909045904874,-0.005144687678385526
1772744447262633500,5.845633544921875,0.039433600243926045,-0.004608078317344188,-0.007635554646048695
1772744447272661800,5.855661865234375,0.03823591489195823,-0.006605280016548931,0.005172342870291322
1772744447282688500,5.8656884765625,0.05963526127338409,0.0001438654500991106,-0.002205455888714641
1772744447292716800,5.875716796875,0.05829144544899463,0.003075315792113542,0.008727003144565969
1772744447302744600,5.88574462890625,0.047968788877129555,0.010318345722928642,0.0012358254052698611
1772744447312771800,5.895771728515625,0.0440758730918169,-0.004269274817034602,0.00661134443115443
1772744447322799600,5.905799560546875,0.036892099067568775,0.005579261437058449,0.005872052104864269
1772744447332826600,5.91582666015625,0.050208092236518856,-0.0033227512145414945,0.003750822167191654
1772744447342854700,5.925854736328125,0.05245733246803284,0.00015931874755769967,0.0028643764551728964
1772744447352882700,5.935882568359375,0.04527472748756409,0.005375226764939725,-0.002715889628883451
1772744447362909700,5.94590966796875,0.0505114590972662,0.018508045386709273,0.0027941059642471373
1772744447372937700,5.955937744140625,0.037191374275088306,0.0054151934491470455,0.01131813388261944
1772744447382964700,5.96596484375,0.04751519989073276,0.0028397169379517436,0.00009113061586394906
1772744447392992800,5.97599267578125,0.04481996945738792,-0.0004140972262248397,0.012556370440684259
1772744447403020500,5.9860205078125,0.045569326519966126,0.021136384596303105,0.010564721699431538
1772744447413047800,5.9960478515625,0.05170855992734432,0.009269019333086907,-0.004554357102420181
1772744447423075600,6.00607568359375,0.04542436509132385,-0.005888875375501811,0.012683960609417408
1772744447433102600,6.0161025390625,0.041239188361167904,-0.005749941828846931,0.01389677046528086
1772744447443130600,6.026130615234375,0.057851300466060636,0.007188121405802667,-0.011830175057984888
1772744447453157600,6.03615771484375,0.03525836038589477,0.0027901787078008053,0.0067661696666851635
1772744447463185700,6.046185546875,0.029124972197413442,0.013614062800072133,-0.002223977926094085
1772744447473213700,6.056213623046875,0.05067161809504032,-0.0009489347552880644,-0.0007547456237487494
1772744447483240700,6.06624072265625,0.04992109198868274,-0.008418686114065349,0.003322038828488439
1772744447493268700,6.076268798828125,0.042888709133863445,0.010870061321556568,0.0037221623282879587
1772744447503295700,6.086295654296875,0.04738251342177391,-0.006291537892259657,0.0158585172586143
1772744447513323800,6.09632373046875,0.04768588028252124,0.003218998579122126,0.003968319109082222
1772744447523351600,6.1063515625,0.03257014421522617,0.0015008330170065164,0.006826485019177198
1772744447533378600,6.116378662109375,0.04409399327039718,-0.0008942819586023687,-0.017805450075305998
1772744447543406800,6.12640673828125,0.05546411306858062,-0.0049039925239980214,-0.015258176745288073
1772744447553433600,6.13643359375,0.05740589478611946,-0.0022682371929287908,0.00680003540366888
1772744447563462000,6.1464619140625,0.045588031220436094,0.009026625411957501,0.0034836225983686745
1772744447573489700,6.15648974609375,0.04439034586846828,0.004785371113009751,-0.007658131804037838
1772744447583516700,6.1665166015625,0.05337444731295109,0.005721592517197132,-0.002318707004841417
1772744447593544700,6.176544677734375,0.047394788381457324,0.00522836564015597,0.005637147370446473
1772744447603571700,6.18657177734375,0.049939796689152716,-0.00010817308221012354,-0.009748729141429066
1772744447613599700,6.196599853515625,0.04425356774628162,0.004549297334812581,0.011399291093740611
1772744447623627800,6.206627685546875,0.04754208789765835,0.012475523756816983,0.006296743790339678
1772744447633654500,6.216654541015625,0.03931318873465061,0.005864288923516869,-0.00022074834490194914
1772744447643682800,6.226682861328125,0.039163551130890845,-0.0030247911812737584,0.0037152941960841416
1772744447653709600,6.23670947265625,0.03302314867973327,0.0035998876554891464,-0.009820497469697147
1772744447663737900,6.24673779296875,0.04454173703789711,-0.006051408993452787,0.00801235206918791
1772744447673765600,6.256765625,0.05456804101169109,-0.01699764082375914,-0.0073087155781686305
1772744447683792600,6.266792724609375,0.04739186577200889,-0.011450966482050717,-0.013916863405238835
1772744447693820700,6.276820556640625,0.05547521898448467,0.002043232798017561,0.0007947671068832278
1772744447703847700,6.28684765625,0.04006488388478756,0.00602678600884974,0.006086882165633142
1772744447713875700,6.296875732421875,0.04844225160777568,-0.015551825929619371,0.010319733962416647
1772744447723902700,6.30690283203125,0.04484919555187225,-0.0015436492454260586,0.0022155571576207875
1772744447733930500,6.316930419921875,0.04589432069063187,0.001214855682477355,-0.0036403109974227845
1772744447743958800,6.326958740234375,0.04320259738862514,0.012141761757805942,0.0016667093695141373
1772744447753985500,6.336985595703125,0.0396142175078392,-0.008350625846534968,0.00948938408549875
1772744447764013800,6.347013916015625,0.049643444091081616,-0.0018202011644840239,0.004251976622361689
1772744447774040800,6.357040771484375,0.05577858584523201,-0.004662438853085041,-0.0032170806166715916
1772744447784068900,6.36706884765625,0.04484861102998256,0.002815203551203012,0.02748805517796427
1772744447794097000,6.377096923828125,0.034820553490519525,0.01519530410952866,-0.003592654197104275
1772744447804124000,6.3871240234375,0.04963409174084663,-0.0006819178495556116,0.010178334464039653
1772744447814152000,6.39715185546875,0.03407294999361038,-0.010256715196184813,0.007587240258604288
1772744447824179000,6.407178955078125,0.039458150163292884,-0.003712663847580552,0.0029549408154562113
1772744447834206700,6.417206787109375,0.05397416677176952,-0.0025918065914884206,0.003014123656786978
1772744447844235000,6.427235107421875,0.038113165295124055,-0.0006894801015034318,-0.0009596936113201081
1772744447854261800,6.43726171875,0.05187748675346374,0.02084821530468762,0.013936846747342496
1772744447864290000,6.4472900390625,0.048587213036417956,0.002142199660465121,0.00982970368945971
1772744447874317000,6.457317138671875,0.05262742833793163,-0.017952859189361334,0.004213416443951428
1772744447884344800,6.4673447265625,0.06161036073863506,0.014677527313120662,-0.023130115696787832
1772744447894372900,6.477372802734375,0.036621465432643885,0.00688482761029154,0.0021095029672607776
1772744447904400000,6.48739990234375,0.037217093238234515,-0.010689845916442573,0.0006443075192160904
1772744447914428000,6.497427978515625,0.031529110729694367,0.00848404296785593,0.014070957988407462
1772744447924455000,6.507454833984375,0.043348143339157104,0.00485766916424036,0.009626509267557412
1772744447934482700,6.517482666015625,0.038702947881817815,0.008095774302631616,0.004831822336930781
1772744447944511000,6.527510986328125,0.0400455946624279,0.003936499198712408,0.0037632797899655995
1772744447954538000,6.5375380859375,0.04468260681331158,0.004645816511847078,-0.002494392365310341
1772744447964566000,6.54756591796875,0.036899697852134705,0.00790927528720349,0.004429324216954409
1772744447974593000,6.557593017578125,0.03764554778337478,0.016265198363363743,0.0034612646360881625
1772744447984621000,6.56762109375,0.043481414330005644,0.0023590938141569494,-0.010755221036542206
1772744447994648000,6.57764794921875,0.05066109670102596,-0.000958579366467893,0.0034046390780247747
1772744448004675800,6.58767578125,0.039137247645854946,0.0045580286305397745,0.002186732921935618
1772744448014703900,6.597703857421875,0.03883388078510761,-0.0019324293673038482,0.0024897709891200065
1772744448024731000,6.60773095703125,0.05394727876484394,0.007560352251678705,0.018308084101509303
1772744448034759200,6.61775927734375,0.04781272153258324,-0.0007865472678095102,0.0105553510828875
1772744448044786000,6.627785888671875,0.04227671471536159,0.004825812721252441,-0.008363667991198599
1772744448054814000,6.63781396484375,0.048858431193232535,-0.008601531867682933,-0.010066709049418568
1772744448064842000,6.647842041015625,0.035090018081665036,0.004851641282252967,0.0031425906083546577
1772744448074869000,6.657868896484375,0.03674070789813995,-0.009108056617714464,0.005351042171753943
1772744448084897000,6.66789697265625,0.05335457356870174,-0.004682714456133544,0.00844467907184735
1772744448094924000,6.677924072265625,0.05590133544206619,-0.01215619214195758,0.010870919838082044
1772744448104951800,6.687951904296875,0.04781798222959041,-0.006059044310636818,0.008760028631333261
1772744448114980000,6.69797998046875,0.04541968891620636,0.0053767246022820465,0.0056493675312027335
1772744448125006800,6.7080068359375,0.03599310440123081,0.002174859821051359,0.0014316219720058143
1772744448135035100,6.71803515625,0.05260521650612354,-0.01297824911456555,0.01198788637034595
1772744448145062000,6.728061767578125,0.03105389443337917,-0.0168401121744886,0.004326868489477783
1772744448155089000,6.7380888671875,0.043324177941679955,-0.007974559075757861,-0.0005604286280460655
1772744448165117000,6.748116943359375,0.05021159936785698,-0.005163118384219706,0.003924845293536782
1772744448175144000,6.75814404296875,0.05784311715960502,-0.008033705384470522,-0.006735336137004196
1772744448185172000,6.768171875,0.040486908689141274,0.012932912135496735,-0.019069259466044604
1772744448195199000,6.778198974609375,0.04662263496518135,-0.004152918428368866,-0.010455653568077832
1772744448205227000,6.78822705078125,0.03434884432554245,-0.016766498949006198,-0.0031086883387528358
1772744448215255000,6.798255126953125,0.047367315852642054,0.0047953445177525275,0.0015484167520888148
1772744448225282000,6.808281982421875,0.041079613885283466,-0.01167681112717837,0.0049401598159223795
1772744448235309800,6.818309814453125,0.041378889092802996,-0.01067132387906313,-0.0021598631813190875
1772744448245337000,6.828337158203125,0.04810790508687496,0.006628332098573446,-0.005107534005772322
1772744448255364900,6.83836474609375,0.03119944038391113,0.0008345876606181263,-0.005066489609330893
1772744448265393000,6.848392822265625,0.048558571463823315,-0.0038294586276635526,-0.0011342281943187117
1772744448275420000,6.858419921875,0.04122691340148449,-0.003505231641978025,-0.007096917724702507
1772744448285448000,6.868447998046875,0.05095394216775894,-0.009294226839579641,-0.0024221125803887845
1772744448295475000,6.878474853515625,0.04287526513040066,-0.0014952800590544938,0.012347129870485514
1772744448305503000,6.8885029296875,0.04527472748756409,0.0058227148041129105,-0.005780081238783896
1772744448315531000,6.898531005859375,0.05111468568742275,-0.0030392580980435012,-0.009216101835761218
1772744448325558000,6.90855810546875,0.050071898636221884,-0.004029620842263102,0.00485058183632791
1772744448335585800,6.918585693359375,0.040641806989908213,0.008003164115734398,-0.015939619670808314
1772744448345613000,6.928613037109375,0.044072950482368464,0.0007194368483498693,-0.0062742579638957975
1772744448355640800,6.938640869140625,0.05409925445616245,0.008863288076408207,-0.005907397412881255
1772744448365669000,6.948669189453125,0.03869125744402408,0.016970022164471448,0.011678674290701746
1772744448375696000,6.95869580078125,0.041538463568687435,0.008095993498340249,-0.014995105362311004
1772744448385724000,6.968723876953125,0.04034136273860931,0.01318071288410574,-0.007802782705426216
1772744448395751000,6.9787509765625,0.03749824826717377,0.0030340339336544274,0.023346589725371448
1772744448405779000,6.988779052734375,0.050367082190513605,-0.004120112137310207,-0.004144862986076623
1772744448415805700,6.9988056640625,0.044078795701265334,0.0012719561645761132,0.014443645492009818
1772744448425834000,7.008833984375,0.05096563260555267,-0.009545205925963819,0.029258352786116302
1772744448435861800,7.01886181640625,0.050963879039883614,0.00909527020137757,0.004715940872300416
1772744448445889000,7.028888916015625,0.04841945525407791,0.0029456615304574367,0.007697020776011049
1772744448455916800,7.038916748046875,0.049616556084156035,-0.006468611492216587,0.011172204339597374
1772744448465943800,7.04894384765625,0.04318097007870674,0.006248831261694431,-0.004488744520302862
1772744448475971800,7.058971923828125,0.0464677366644144,0.01751877862103283,-0.009815474234707654
1772744448485999900,7.068999755859375,0.05439852966368198,0.002813851844333112,-0.004180865881219506
1772744448496027000,7.07902685546875,0.05110884046852588,0.0057933060465380545,-0.01029496484734118
1772744448506055000,7.089054931640625,0.04467793063819408,-0.005454977470263838,0.017769301049690694
1772744448516082000,7.09908203125,0.052609308159351345,0.004170600215531886,0.003904587956797331
1772744448526110000,7.10910986328125,0.0572515810072422,0.009784275378845632,-0.0007607552394270896
1772744448536137700,7.1191376953125,0.048422962385416025,-0.0025779241966083642,-0.0036766792187467217
1772744448546165000,7.1291650390625,0.04497603680193424,-0.005788995197601616,-0.00697730993302539
1772744448556192800,7.13919287109375,0.04946282682716846,0.0012402093194425106,-0.005965027617942541
1772744448566220000,7.149219970703125,0.04497837488949299,0.0019630802338942883,0.0004500087898224592
1772744448576247800,7.159247802734375,0.045427872222661966,0.0019656009845435618,0.0038490218446590005
1772744448586275800,7.16927587890625,0.058147653064131735,-0.0036086189512163397,-0.008345547812618315
1772744448596303000,7.17930322265625,0.04946808752417564,-0.0003045724371448159,-0.013074293367564677
1772744448606331000,7.189330810546875,0.04676818091571331,-0.0009420300904661417,-0.0036757476369850333
1772744448616358100,7.199358154296875,0.04960837277770042,-0.011822064816765487,-0.0039955176432617005
1772744448626386000,7.209385986328125,0.039135494080185886,-0.010002411641553044,0.0009032872489653527
1772744448636413700,7.21941357421875,0.05140694663226604,0.006004683774895965,0.026721454719640315
1772744448646441000,7.22944091796875,0.040489246776700016,-0.00431753440555185,0.0015647468323819339
1772744448656469000,7.239468994140625,0.0467728570908308,-0.00853906109072268,-0.006065802844986319
1772744448666496000,7.24949609375,0.02866670703589916,0.00017181290294975043,0.0032658333955332634
1772744448676524000,7.25952392578125,0.04512801249325275,-0.0033776597395539284,0.009560933218058199
1772744448686552000,7.269552001953125,0.04856850833594799,0.0005221972431987523,-0.003699238110426813
1772744448696579000,7.2795791015625,0.05095861834287643,0.006686601624451578,0.010376743112970143
1772744448706606800,7.28960693359375,0.0470692096889019,0.013978621796146035,0.0027771365631371735
1772744448716634000,7.299634033203125,0.045421442481875414,-0.008268317857943474,-0.007631024601403623
1772744448726662000,7.309661865234375,0.04033259491026401,0.007298669108189642,-0.011303210308123379
1772744448736689000,7.31968896484375,0.05140928471982479,0.010303330816887318,0.0056140952884219586
1772744448746717000,7.329717041015625,0.03823708393573761,0.009943703724257647,-0.0020928075607866046
1772744448756745000,7.339744873046875,0.044071196916699404,-0.00551770397555083,-0.0076233344852924345
1772744448766772000,7.34977197265625,0.03823182323873043,-0.007856631784513592,-0.00026416736152023074
1772744448776799200,7.35979931640625,0.03553717732727527,-0.008068411371670662,0.013447492327820509
1772744448786826500,7.369826416015625,0.05258826537132263,-0.00021002602148801087,0.000883778830897063
1772744448796854300,7.379854248046875,0.045700259423255916,-0.005381656505726277,-0.01025339072793722
1772744448806882300,7.38988232421875,0.037917350462079044,-0.0039205709772184485,-0.005312719455361366
1772744448816909300,7.399909423828125,0.03418050202131271,0.0013967515880241989,-0.010590422396268695
1772744448826937000,7.40993701171875,0.03268880215883255,0.0031543723776936527,-0.0028513708431273698
1772744448836964400,7.41996435546875,0.043615854364633555,-0.008206869994290173,0.005017389770597219
1772744448846992100,7.4299921875,0.055737669312953944,-0.008103153891488909,0.0025810842680744827
1772744448857020400,7.4400205078125,0.05708849940001964,-0.005335004352405667,0.020929482113663106
1772744448867047400,7.45004736328125,0.04242050710022449,-0.0019708982141688463,0.010342274587787687
1772744448877075200,7.4600751953125,0.04885375501811504,0.003303535057418048,0.00011425576312467455
1772744448887102500,7.4701025390625,0.05902560494244098,-0.005868526707217097,0.015616817457228899
1772744448897130200,7.480130126953125,0.04331190298199653,-0.009534501868858933,0.020979002077504992
1772744448907158300,7.490158203125,0.0478010310947895,-0.00804152336474508,-0.0026751374933868645
1772744448917185300,7.500185302734375,0.06321779593527317,-0.009518975506164132,-0.01091382739804685
1772744448927213300,7.51021337890625,0.04975684133768082,0.0015247984144836663,0.0163564020444639
1772744448937240300,7.520240234375,0.04062836298644543,0.0003810352068394422,0.017438059801328926
1772744448947268400,7.530268310546875,0.043325346985459326,-0.00010145108047872781,0.007731671964284032
1772744448957296400,7.54029638671875,0.05410217706561088,-0.01183978313654661,0.022685203207191078
1772744448967323400,7.550323486328125,0.03181260384619236,-0.004607493795454502,0.015520919334702192
1772744448977351200,7.56035107421875,0.04094400480687618,-0.0010108940755948425,-0.0051293257124722
1772744448987378400,7.57037841796875,0.04662321948707104,-0.0016311813984066247,0.00735975164566189
1772744448997406200,7.58040625,0.04228139089047909,0.0005742562239989638,0.013373605107702314
1772744449007434500,7.5904345703125,0.05261223076879978,-0.008919036851637065,0.003062858169339597
1772744449017461200,7.600461181640625,0.03345569487810135,0.008839505342021584,-0.003459931195527315
1772744449027489300,7.6104892578125,0.053960722768306726,0.0018817951586097479,-0.007141980709135532
1772744449037516300,7.620516357421875,0.04229074324071407,-0.0065112085249274965,0.00008422595104202627
1772744449047544300,7.63054443359375,0.051418637070059774,-0.005500570177659392,-0.0038690051867626605
1772744449057572400,7.640572265625,0.049474517264962194,-0.001058276881277561,0.0056623000780120485
1772744449067599400,7.650599365234375,0.041544308787584305,0.005195303620770573,0.0037894188782200216
1772744449077627400,7.66062744140625,0.04962473939061165,-0.0038012554464861748,0.005425239919126033
1772744449087654400,7.670654296875,0.055011693125963206,0.0033209245836362243,0.0185031682821922
1772744449097682200,7.68068212890625,0.04887129067480564,-0.008233867599070072,0.0076719046010635785
1772744449107710500,7.69071044921875,0.04558101695775985,-0.009116568717733024,-0.007805979309510439
1772744449117737200,7.7007373046875,0.04213993659317493,-0.009732399061135948,0.011757767408899963
1772744449127765500,7.710765625,0.049474517264962194,-0.0065586643958464265,0.015676621353067455
1772744449137792300,7.720792236328125,0.05022270528376102,-0.0009754939686506986,-0.0026521036776714023
1772744449147820300,7.7308203125,0.046480596145987506,-0.011961875146254896,-0.005110657544620335
1772744449157848300,7.740848388671875,0.05262216764092445,0.010045081739500165,-0.0009524236203171312
1772744449167875300,7.750875244140625,0.053071080452203746,0.0006142594408243894,0.002486866645980626
1772744449177903400,7.7609033203125,0.0523193853020668,-0.0026683789590373633,-0.00197429574765265
1772744449187930400,7.770930419921875,0.047832595276832576,0.004396517925895751,0.00829036529297009
1772744449197958100,7.780958251953125,0.051878071275353425,0.005360942511260509,0.0014295578790828585
1772744449207985400,7.7909853515625,0.050236149287223815,0.013505414793826638,0.0022329649501480163
1772744449218013200,7.80101318359375,0.03901157543957233,0.01675652554426342,0.014053075271844863
1772744449228041500,7.81104150390625,0.03003448825776577,-0.008379413549602031,0.0009875862652435898
1772744449238068200,7.821068115234375,0.04051262765228748,-0.007702573733963072,-0.008315901593025773
1772744449248096300,7.83109619140625,0.04470598768889904,0.002422514439187944,0.014594470405858009
1772744449258123500,7.84112353515625,0.03587327741384506,-0.005500424047186971,0.011556691878847777
1772744449268151300,7.8511513671875,0.05442600219249725,-0.004656666699424386,-0.005489884386863559
1772744449278179300,7.861179443359375,0.047691140979528424,-0.004770173543877899,-0.014003902367874979
1772744449288206300,7.871206298828125,0.05233049121797084,0.010855375209078193,-0.0011441650664433837
1772744449298234000,7.881234130859375,0.05861351701021194,-0.004179331511259079,0.015729867643956095
1772744449308261400,7.891261474609375,0.04798983166515827,-0.0038375323362648483,0.006632314153946935
1772744449318289200,7.9012890625,0.035571664118766784,0.010262414284609257,0.024137100782245395
1772744449328317400,7.9113173828125,0.035118075132369996,0.00891947524305433,0.005097213541157543
1772744449338344400,7.921344482421875,0.06011106209158897,-0.005202756274864077,-0.0005962123274803161
1772744449348372200,7.931372314453125,0.04499649506807327,0.0055461994176730514,-0.0028343101104721423
1772744449358399500,7.9413994140625,0.04095452620089054,0.0013581000780686736,0.01461635344410315
1772744449368427300,7.95142724609375,0.0479839864462614,0.003806041219457984,0.01343466937886551
1772744449378455300,7.961455322265625,0.03810322842299938,-0.007939195501431823,-0.019381905611790717
1772744449388482300,7.971482421875,0.03242109113335609,-0.000671834846958518,-0.0032821634758263825
1772744449398510300,7.98151025390625,0.04544131622612476,0.0056724926784634585,-0.009115673668589442
1772744449408537300,7.991537353515625,0.041999066817760465,-0.0025779972618445754,0.001521711408253759
1772744449418565400,8.0015654296875,0.052175008395314214,-0.0022866861650720238,0.00356426835283637
1772744449428593400,8.011593505859375,0.0515741198927164,-0.00007814327012747525,0.0010684146828018129
1772744449438620400,8.021620361328125,0.04827917000055313,-0.01219129998795688,-0.0008646722716279327
1772744449448648200,8.031648193359375,0.04857552259862423,-0.0007199848376214504,-0.007714209372829645
1772744449458675500,8.041675537109375,0.05126666137874126,0.0016273454735055565,0.01014233156889677
1772744449468703200,8.051703125,0.05874561895728111,-0.013345511524379253,0.0011294606876559555
1772744449478731500,8.0617314453125,0.050960956430435175,0.019319544432684778,-0.005767313088756054
1772744449488758300,8.07175830078125,0.049618309649825096,0.0013464096402749418,0.0016001104067079723
1772744449498786300,8.081786376953126,0.04139291761815548,0.005461114950105548,0.009423424443509429
1772744449508813300,8.091813232421876,0.03885141644179821,-0.01322276192754507,-0.01101096762958914
1772744449518841300,8.10184130859375,0.05905307747125625,-0.010003982544131576,0.009752163207530975
1772744449528869400,8.111869384765624,0.04334171359837055,-0.006220226221717894,0.00230988437756896
1772744449538896400,8.121896484375,0.036161446705460544,0.0000016439678147435187,-0.004850472238473594
1772744449548924200,8.131924072265624,0.04978606743216514,-0.008786606111004949,0.012919194137398152
1772744449558951400,8.141951416015624,0.0331745398491621,0.0038761473136022686,-0.006406432976201176
1772744449568979200,8.151979248046874,0.04484568842053413,-0.0030285540409386155,-0.013434596313629298
1772744449579007500,8.162007568359375,0.052930795198678965,-0.004917107733897865,0.0037833909962326287
1772744449589034200,8.1720341796875,0.04335808021128178,0.006684446199983358,-0.003426960507687181
1772744449599062300,8.182062255859375,0.047696401676535605,-0.01126972816362977,0.00005876271622255444
1772744449609089300,8.19208935546875,0.04170972848236561,-0.0006947773311287164,0.009594579759333283
1772744449619117300,8.202117431640625,0.05068856922984123,0.0052135699298232795,0.003552102991007268
1772744449629145300,8.212145263671875,0.05921499003469944,0.00274396494589746,0.00536276914216578
1772744449639172400,8.22217236328125,0.04694646009206772,-0.004456358354352414,0.010728004236053674
1772744449649200000,8.2322001953125,0.03138590286672115,0.0058694034900516265,-0.006545640517491847
1772744449659227400,8.242227294921875,0.04829845922291279,0.0029660467313602566,-0.0010322656571865082
1772744449669255200,8.252255126953125,0.05218786787688732,0.004358195209503174,0.01009284813767299
1772744449679283500,8.262283447265625,0.0346691623210907,-0.0019277166595682502,0.0030753888573497533
1772744449689310200,8.272310302734375,0.05277940402925014,0.001273636665008962,-0.006600640374049544
1772744449699338200,8.282338134765626,0.03991115462779998,0.0015886208983138203,0.0022291472915560006
1772744449709365200,8.292365234375,0.02793956180512905,-0.0021228739054873587,0.0011009835118427872
1772744449719393300,8.302393310546876,0.04649228658378124,-0.0015569836510345339,0.003255257202591747
1772744449729421300,8.31242138671875,0.040809564772248265,0.0037136136956512924,-0.0014823840448632834
1772744449739448300,8.3224482421875,0.03961304846405983,0.00926701003909111,-0.003147741707507521
1772744449749476000,8.33247607421875,0.04948854579031467,0.009098119745589793,-0.020512590142153203
1772744449759503400,8.34250341796875,0.03302840937674045,-0.009947101257741451,0.0063546845226548606
1772744449769531100,8.35253125,0.04574760569632053,-0.013096468666754662,0.011453870825190096
1772744449779559000,8.362558837890624,0.042454993891716,-0.002607880943454802,0.013276939800195396
1772744449789587000,8.3725869140625,0.04485270268321037,0.0001074424298480153,-0.004939995419140905
1772744449799615000,8.382614990234375,0.05278817185759544,0.004879333006776869,-0.002092113441042602
1772744449809641700,8.392641845703125,0.04814882161915302,-0.010394516231678426,0.0028569055347703394
1772744449819670000,8.402669921875,0.03932020299732685,-0.0044964346364140505,0.011923278435226529
1772744449829696800,8.41269677734375,0.058629299101233476,-0.0006961290379986167,-0.005363097935728729
1772744449839725000,8.42272509765625,0.05518938778042793,-0.00033098552003502844,-0.009376260833535342
1772744449849752800,8.4327529296875,0.050254269465804094,0.0075428896602243185,0.0020103899743407964
1772744449859779800,8.44277978515625,0.05115560221970081,0.0028359175456687804,-0.0025113069674931464
1772744449869807900,8.452807861328125,0.04562134896814823,-0.003712956108525395,0.0005632964385673403
1772744449879835000,8.4628349609375,0.04322773182988167,-0.01017298243548721,0.00934423999376595
1772744449889863000,8.47286279296875,0.05535130034387111,0.005347571573033928,0.01609797030398622
1772744449899891000,8.482890869140626,0.053853755262494085,-0.003198576845601201,0.0020634353358298537
1772744449909918000,8.49291796875,0.045914778956770895,0.0022602000169456003,0.010167027618736028
1772744449919946000,8.502946044921876,0.046210547032952305,-0.005831628762930631,0.005965210281033069
1772744449929973000,8.512972900390626,0.04830430444180965,-0.004368460875190794,0.0008898067128844558
1772744449940001000,8.5230009765625,0.04022387383878231,0.011949965512752533,-0.006900207842513918
1772744449950028800,8.53302880859375,0.04277005119025707,-0.006527136746421456,0.011233104213979094
1772744449960055800,8.543055908203126,0.04725859478116035,0.0015375117655843495,-0.0013352306591346858
1772744449970083800,8.553083740234374,0.04217383886277675,0.012063581955060363,-0.00018543956950306891
1772744449980110800,8.56311083984375,0.031848844203352926,0.006719955904781818,-0.016269819739554076
1772744449990139000,8.573138916015624,0.04157762653529644,-0.004450988059490919,-0.011682692878693342
1772744450000167000,8.5831669921875,0.04098199872970581,-0.010207834553159772,-0.004494242679327726
1772744450010194000,8.59319384765625,0.03125613900721073,-0.007254829966463148,0.004683865233603864
1772744450020222000,8.603221923828125,0.026314590951800346,-0.00021751520819962024,0.009933986047841608
1772744450030249000,8.6132490234375,0.05160276146531105,0.0016910218268632888,0.004981514739617705
1772744450040277000,8.623277099609375,0.044720016214251514,-0.010472951762750744,-0.011418087125755845
1772744450050304800,8.6333046875,0.04695639696419239,-0.007412358615733683,-0.0018410978220403194
1772744450060331800,8.643331787109375,0.0482978747010231,0.0005430208355188369,-0.004043101378343999
1772744450070360000,8.653360107421875,0.03333703693449497,-0.004672704518772662,-0.006834576994087547
1772744450080386800,8.66338671875,0.044560441738367075,-0.002148044879361987,0.009722590053174645
1772744450090415000,8.6734150390625,0.05009644855558872,0.0006930602980777621,0.004964819333143532
1772744450100443000,8.68344287109375,0.04456161078214645,-0.0022356866301968693,-0.0104517263116315
1772744450110470000,8.693469970703125,0.048745033946633334,-0.011786007122695445,0.0013423727859742938
1772744450120498000,8.703497802734375,0.04171265109181404,-0.00016267974842339752,-0.0037069830254651604
1772744450130525000,8.71352490234375,0.05383095890879631,0.007960822811350226,0.0039378691718913615
1772744450140553000,8.723552978515626,0.05562485658824443,-0.0015827756794169544,0.002885364444274455
1772744450150581000,8.7335810546875,0.04559972165822983,0.004906038350611925,-0.010237827832624316
1772744450160607700,8.743607666015626,0.05757306804656982,0.006148183898814022,-0.00007328443191945552
1772744450170636000,8.753635986328124,0.057718029475212096,0.012217713070847094,0.013195051936712115
1772744450180662800,8.763662841796876,0.06565057604014873,0.010715857140533625,-0.004926058225333691
1772744450190691000,8.773691162109374,0.057419923311471936,-0.006529109507799148,-0.0004621558853425085
1772744450200718800,8.78371875,0.0367693494707346,-0.008318879001401365,0.008692151026893406
1772744450210745900,8.793745849609374,0.04500292480885982,-0.0007099018350243568,-0.0023170630370266732
1772744450220774000,8.80377392578125,0.04979249717295169,-0.00677917527873069,0.008791848541703074
1772744450230801000,8.81380078125,0.04889700963795185,0.001955846775509417,-0.006173994193505496
1772744450240829000,8.823828857421875,0.05428571693897247,0.006020502398535609,-0.0027746523451060057
1772744450250857000,8.83385693359375,0.03976794676482677,0.018595906333252785,-0.007358308607246726
1772744450260884000,8.843884033203125,0.045453591185808176,0.005185841672681272,-0.0077092044041492044
1772744450270912000,8.853912109375,0.038871290186047555,0.010932130239717662,-0.01516465324293822
1772744450280938800,8.863938720703125,0.046051557078957556,0.010246924454532564,-0.0035108028662391003
1772744450290967000,8.873967041015625,0.044409050568938256,0.005398242314346134,0.006044522594939917
1772744450300994800,8.883994873046875,0.036625557085871695,0.016118227640725673,0.01983458128273487
1772744450311022000,8.89402197265625,0.04665186105966568,0.0017914865266531704,-0.00034810105161741376
1772744450321049900,8.9040498046875,0.04635200133025646,-0.0017930574292317032,0.01061334661412984
1772744450331076900,8.914076904296875,0.04904197106659412,-0.006141315766610205,0.013456552417110652
1772744450341105000,8.92410498046875,0.0640045623987913,0.011799341528303921,0.01826709450399503
1772744450351133000,8.9341328125,0.04006079223155975,0.012608721682429313,0.0036879312651231884
1772744450361160000,8.944159912109376,0.035869770282506944,0.009788768890872598,0.005132248321920633
1772744450371188000,8.95418798828125,0.03317746245861053,-0.009936470265872776,0.011846340741496533
1772744450381215000,8.964215087890626,0.04873626611828804,0.0035875396305695174,0.007235833005048334
1772744450391243000,8.974242919921876,0.048881812068819995,0.006352072440460324,0.008781181017216295
1772744450401270800,8.984270751953124,0.05037526549696922,-0.002273644020408392,0.00890254237456247
1772744450411298000,8.994298095703124,0.05007832837700844,-0.005955035946890712,-0.002334288166463375
1772744450421325800,9.004325927734374,0.04244914867281913,0.0015013079410418867,0.0032125688383355736
1772744450431352800,9.014352783203124,0.05202127913832664,0.00768156747855246,0.002971161297895014
1772744450441380900,9.024380859375,0.04184709112644195,0.002836465534940362,0.02370650907894596
1772744450451409000,9.034408935546875,0.05157704250216484,0.011307649021223188,0.0034941622586920854
1772744450461436200,9.044436279296875,0.044999417677521705,-0.006284340966492891,-0.00015316300140693782
1772744450471464000,9.0544638671875,0.043808162066340445,0.008671674494445324,-0.0039049350166693326
1772744450481491000,9.064490966796875,0.0496487047880888,-0.0050056262675672765,-0.012220361685659736
1772744450491519000,9.07451904296875,0.0569902997225523,-0.014650091316923498,-0.002552734956424683
1772744450501546800,9.084546630859375,0.03694002986252308,-0.007777648264169693,-0.005322711126413196
1772744450511574000,9.094573974609375,0.04576864848434925,-0.007050977957434952,0.011546645408868789
1772744450521601800,9.104601806640625,0.05489712683558464,-0.0026192060550674794,-0.0018826354088261723
1772744450531628800,9.11462890625,0.045618426358699796,0.0036221725525334477,0.0021560820553451774
1772744450541657000,9.124656982421875,0.040078327888250345,-0.003638539165444672,-0.000502853221911937
1772744450551684900,9.134684814453125,0.04157353488206863,-0.01832008506655693,-0.00795855778902769
1772744450561712000,9.144712158203125,0.04351648564338684,-0.012252163329720496,0.007009915294684469
1772744450571740000,9.154739990234376,0.02825461910367012,0.010347644882649183,-0.005773450568597764
1772744450581767000,9.164766845703125,0.03723229080736637,-0.0014356588263064623,0.013769198562856763
1772744450591795000,9.174794921875,0.05234685783088207,-0.000917735899426043,0.009630838382802903
1772744450601823000,9.184822998046876,0.04591185634732246,-0.004084456302039325,-0.005930120701342821
1772744450611850000,9.19485009765625,0.05235211852788925,-0.010710194584727287,-0.0015428089952096342
1772744450621878000,9.2048779296875,0.05265548538863658,0.0016928484577685594,0.007605670964438468
1772744450631904800,9.21490478515625,0.05310615176558494,-0.0012078048871830105,-0.011046495600696652
1772744450641933000,9.22493310546875,0.055501522469520566,-0.002266374029405415,0.0023527371386066077
1772744450651960800,9.2349609375,0.04218260669112205,-0.011132182856462895,-0.001390796771273017
1772744450661988000,9.244988037109374,0.03949263695478439,0.0030060864808037877,0.00544350622817874
1772744450672016000,9.255015869140625,0.04398585672080516,0.0050797509497031565,0.0059110324083827435
1772744450682043000,9.26504296875,0.0540098226070404,0.010315094319917261,-0.01944202003488317
1772744450692071000,9.27507080078125,0.0460801986515522,0.008308503737859428,0.0071211936494335526
1772744450702099000,9.285098876953125,0.04144377102255821,0.0011916209373623132,0.005016403389908373
1772744450712126000,9.2951259765625,0.05371054739952087,0.0017076807007193565,-0.004959960494935512
1772744450722154000,9.305154052734375,0.0622404753357172,-0.0005732333106920123,0.007681439614389092
1772744450732180700,9.3151806640625,0.05132219095826149,0.0010832651920616625,-0.0027986177425831553
1772744450742209000,9.325208984375,0.04234568829834461,-0.0004401449829339981,-0.004708506484515965
1772744450752236800,9.33523681640625,0.0535696776241064,0.015387100354582071,-0.011255334312096238
1772744450762264000,9.34526416015625,0.0511778140515089,0.0046604295590892434,0.006358410849701613
1772744450772291800,9.355291748046875,0.055226212659478184,-0.0018229776434600352,0.005701353446766734
1772744450782318600,9.365318603515625,0.04445230518877506,0.0015956716936081647,0.007302066641673446
1772744450792346600,9.3753466796875,0.04430617471635341,-0.0005897095214575529,0.0018485322098247706
1772744450802374700,9.385374755859376,0.05433306321203708,0.0012211027601733804,-0.007893767190817743
1772744450812401700,9.395401611328126,0.04325871149003505,-0.011876133091561495,-0.0015362148576416074
1772744450822429700,9.4054296875,0.03248772662878036,-0.013343977154418825,-0.013002762501314281
1772744450832456700,9.415456787109376,0.04087386218011379,0.0038595249723643063,-0.0024552476650103925
1772744450842484700,9.425484619140626,0.04566109645664692,0.004759067627973854,-0.003374755396414548
1772744450852512500,9.435512451171874,0.04222469226717949,-0.007452142636850476,0.003659527154546231
1772744450862539800,9.445539794921874,0.038486674782633776,0.006098718733899295,0.00994574955087155
1772744450872567600,9.455567626953124,0.044621232014894485,0.01500748991984874,0.01434740030961111
1772744450882594600,9.465594482421874,0.04133388090729713,0.017069792744517327,-0.008267368009872733
1772744450892622600,9.47562255859375,0.04852174658477306,0.010767550795152783,-0.017739435634389518
1772744450902650600,9.485650634765625,0.056605099797248835,0.009199059369415044,-0.007876542061381041
1772744450912678000,9.495677978515625,0.03505377772450447,0.0034906185947358604,-0.008287333085667342
1772744450922705700,9.50570556640625,0.05151625222563743,0.013658778724633157,-0.0006308087168261408
1772744450932732700,9.515732666015625,0.04358487470448017,-0.006713672294467688,0.00714844698254019
1772744450942760700,9.5257607421875,0.04314063806831837,-0.004820040567591786,-0.003997435605712234
1772744450952788500,9.53578857421875,0.04508768048286438,0.003516556753590703,-0.010419066151045262
1772744450962815700,9.545815673828125,0.04703706098496914,0.005944185759313404,0.0024547362083569167
1772744450972843500,9.555843505859375,0.04553951590359211,-0.0043917321529239415,0.0016104491376318036
1772744450982870500,9.56587060546875,0.05167115052640438,-0.005725793768279254,0.013296722212899476
1772744450992898800,9.57589892578125,0.04643792604804039,0.0035392435094341633,-0.001184990267176181
1772744451002926600,9.585926513671875,0.04689268407821655,0.0012316606868058443,-0.009701145406346768
1772744451012953900,9.595953857421875,0.06305471432805061,-0.01168031825851649,0.021000063131842762
1772744451022981600,9.605981689453126,0.057068041133880615,-0.011684154183417558,0.011696027284301816
1772744451033008600,9.616008544921876,0.04809036943018436,0.004643441891670227,-0.00747201638109982
1772744451043036700,9.62603662109375,0.050934652945399284,0.015045410777442156,-0.006791870363522321
1772744451053064700,9.636064697265626,0.040754619714617725,0.015151136174239218,0.002037332780193537
1772744451063091700,9.646091796875,0.04209960458278656,0.005914630871266127,-0.02020500376401469
1772744451073119700,9.65611962890625,0.05197568643093109,-0.011146430577524005,0.006279244666267186
1772744451083146500,9.666146484375,0.07232932315170765,0.004125445899553597,0.020228804764710364
1772744451093174800,9.6761748046875,0.03926408889591693,0.015229242911748587,0.004931446786504238
1772744451103202600,9.68620263671875,0.029986557462811467,-0.011625884657539427,-0.006694748398289084
1772744451113229800,9.696229736328124,0.053176878914237016,0.0021740195708349346,-0.008374901771266013
1772744451123257600,9.706257568359375,0.047941316348314285,-0.005113178295269609,-0.013172566110268234
1772744451133284600,9.71628466796875,0.0382113649725914,-0.001948832512833178,0.003257430893369019
1772744451143312600,9.726312744140625,0.05048340204656124,0.0022926044492051004,-0.0007835698594339191
1772744451153340700,9.736340576171875,0.04345627988874912,0.0035401933575049042,-0.006414013494458049
1772744451163367700,9.74636767578125,0.04136310700178146,-0.0012822218302637337,-0.009412647321168333
1772744451173395700,9.756395751953125,0.04854454293847084,0.0015045958766713738,-0.001353734430205077
1772744451183422500,9.76642236328125,0.0344774391412735,0.008691877032257616,0.004996164319477975
1772744451193450800,9.77645068359375,0.04584522085189819,-0.007125577563606202,-0.010815371992252767
1772744451203478500,9.786478515625,0.041052141356468196,0.005243380546197295,0.007869856592267752
1772744451213505800,9.796505859375,0.047938393738865846,0.0011071575243026017,0.009776238202862442
1772744451223533600,9.806533447265625,0.052879941794276235,-0.001096526532433927,0.009829813287314026
1772744451233560600,9.816560546875,0.03941606458723545,-0.0019166472762823105,-0.004725384554080665
1772744451243588600,9.826588623046876,0.0521364299505949,0.009005728754401206,0.016444244724698364
1772744451253616600,9.83661669921875,0.05318038604557514,0.0031104601707309483,0.0016997896552085876
1772744451263643600,9.8466435546875,0.05183014048039913,-0.003932992067374289,-0.010057703759055583
1772744451273671700,9.856671630859376,0.04150865295231342,-0.005076864872872829,0.011123561158590018
1772744451283698700,9.86669873046875,0.044502574071288103,-0.0016247151250019668,-0.009729403386451303
1772744451293726700,9.876726806640624,0.050040918976068494,-0.006414177891239523,0.008144874141365289
1772744451303754500,9.88675439453125,0.051534956926107406,-0.005293905157037079,0.00199252552408725
1772744451313781800,9.89678173828125,0.04614683414697647,-0.006300305720604956,-0.004470058086141943
1772744451323809500,9.9068095703125,0.05018763397037983,-0.008584471135027706,-0.0024532201047055423
1772744451333836800,9.9168369140625,0.034622985091805454,0.009172938547469676,-0.006480831652972847
1772744451343864600,9.926864501953125,0.03402677276432514,0.0025142478432506324,0.004328676854074001
1772744451353892600,9.936892578125,0.04196048837304115,-0.001153517416678369,0.0008522877140901982
1772744451363919600,9.946919677734375,0.047800446572899814,-0.010502543183416127,-0.0018988558912649749
1772744451373947600,9.95694775390625,0.049748658031225204,0.010387100110203027,-0.01865797525141388
1772744451383975000,9.966974853515625,0.05499123485982418,0.009141483963280916,-0.01904228012757376
1772744451394002700,9.977002685546875,0.05963876840472221,0.006353643343038857,0.010196545974165201
1772744451404030500,9.987030517578125,0.0467728570908308,-0.0015741905141621827,0.01225070202499628
1772744451414057700,9.9970576171875,0.053203766921162604,-0.004154343200474977,-0.0026087759925983844
1772744451424085500,10.00708544921875,0.05259937128722667,0.006956212346069514,-0.011620185569114982
1772744451434112800,10.01711279296875,0.04092530010640621,0.010785707506351173,-0.017752386447507887
1772744451444140800,10.027140869140625,0.045263037049770354,-0.007526851840876043,-0.009081241676025092
1772744451454168800,10.0371689453125,0.053341714087128636,-0.005086947875469923,-0.0013839651716873048
1772744451464195800,10.04719580078125,0.042567222094535825,0.0015496405947953461,-0.0031495683384127914
1772744451474223600,10.0572236328125,0.047507016584277154,0.0005969429798424244,-0.009965550229884684
1772744451484251000,10.0672509765625,0.05035246914327144,0.0025929025700315834,0.001362356128077954
1772744451494278700,10.077278564453126,0.04257014470398426,0.00014638620074838398,0.000900784764625132
1772744451504306700,10.087306640625,0.05050853648781776,0.005276150304637849,-0.017266301697306335
1772744451514333700,10.097333740234374,0.047964697223901745,0.012800773655809462,-0.005385145370755344
1772744451524361700,10.10736181640625,0.053500704041123386,0.011626797972992061,-0.006348912368994206
1772744451534388700,10.117388671875,0.040626609420776366,-0.010092281882092356,-0.0004519632848910987
1772744451544416800,10.127416748046874,0.05813479358255863,-0.0071655077151954166,-0.013227602499444036
1772744451554444800,10.13744482421875,0.03359539560973644,-0.004004778661951422,-0.022818857790529726
1772744451564471800,10.147471923828125,0.04511339944601059,0.013720628447085619,-0.015286653921101241
1772744451574499600,10.15749951171875,0.04585398868024349,0.001295300507545471,0.00293616304975003
1772744451584526800,10.16752685546875,0.04779635491967201,-0.0007698518613353371,-0.006543612957186996
1772744451594554600,10.1775546875,0.05378419715762138,0.0025136267887428403,-0.007115732023026794
1772744451604583000,10.1875830078125,0.03777940329611301,0.0006766936851665377,0.0011313055848702787
1772744451614609700,10.197609619140625,0.04810673604309559,-0.01049790354091674,0.005733593482244759
1772744451624637700,10.2076376953125,0.05409574732482433,-0.001839453854225576,0.0009090228700079023
1772744451634664700,10.217664794921875,0.06128010587096214,0.00647639293987304,-0.004289459088537842
1772744451644692700,10.227692626953125,0.05095335764586925,0.012121413089521228,-0.013530019512120633
1772744451654720800,10.237720703125,0.040325580647587775,0.005304426551051437,-0.0009554740939289331
1772744451664747800,10.247747802734375,0.044812370672822,0.0016882088152691721,-0.004459171365946531
1772744451674775600,10.257775634765625,0.05588964500427246,0.002484839085675776,-0.013252316815592347
1772744451684802800,10.267802734375,0.04271802874207496,-0.000558729861304164,-0.0025506891298107803
1772744451694830600,10.27783056640625,0.04017360495626926,-0.0009500672664493322,0.008953322713728994
1772744451704859000,10.28785888671875,0.05289280127584934,-0.015163922590576112,-0.0037796098702587186
1772744451714885600,10.2978857421875,0.05273965654075145,-0.002823934846930206,0.0013362718387506902
1772744451724913700,10.30791357421875,0.057526306295394895,0.003192183637432754,-0.008623268775455653
1772744451734940700,10.317940673828126,0.043161680856347084,0.008628602537699042,-0.012328991425596177
1772744451744968700,10.32796875,0.06351473305523395,0.0055615065846592185,-0.010060133178159594
1772744451754996700,10.337996826171874,0.047204818767309184,-0.007781082330271601,-0.000568100477848202
1772744451765023700,10.348023681640624,0.03942775502502918,0.008014306564256548,0.001028667194303125
1772744451775051500,10.358051513671874,0.05604629687070846,-0.0011797843690961598,-0.0042336555143818256
1772744451785078500,10.36807861328125,0.0511082559466362,0.0013340616153553128,-0.013125402500294148
1772744451795106600,10.3781064453125,0.03763736447691917,-0.008064429316297172,0.004943648680951446
1772744451805134600,10.388134521484375,0.05005085584819317,0.00007777794394642115,-0.0023749124377965927
1772744451815161600,10.39816162109375,0.04226151714622974,-0.008168291549570859,0.007766743277665227
1772744451825189600,10.408189697265625,0.055278819629549975,-0.0023602263253182172,0.0034527160034514962
1772744451835216600,10.418216552734375,0.048996962881088256,-0.002857800583913922,-0.0007233823711052537
1772744451845244700,10.42824462890625,0.05213935256004333,-0.0006853884482756257,0.004780366144329309
1772744451855272400,10.4382724609375,0.04195873480737209,-0.0034369887113571166,-0.002986669394280761
1772744451865299700,10.4482998046875,0.044054245781898496,-0.0011668883549049497,0.004067633031401783
1772744451875327500,10.458327392578125,0.0482411760777235,-0.011857355325855313,-0.0005472586192190647
1772744451885354500,10.4683544921875,0.035220366463065145,-0.0009415186338126659,-0.02439049102142453
1772744451895382500,10.478382568359375,0.05302607226669788,-0.0060659489754587405,0.005226465944014489
1772744451905410600,10.48841064453125,0.05661737475693226,-0.0041516763193532825,0.0008343501986004412
1772744451915437800,10.498437744140626,0.04150631486475467,-0.007455868963897228,0.016883056267071515
1772744451925465600,10.508465576171876,0.044347091248631475,0.0011358356295153498,-0.01025116223823279
1772744451935492600,10.51849267578125,0.043002106380462646,0.009818469909392297,-0.00927011531163007
1772744451945520600,10.528520751953126,0.039406712237000464,0.0004433963859453797,0.0025790932403877377
1772744451955548400,10.53854833984375,0.05751753846704959,-0.003039769554696977,-0.005974727028049528
1772744451965575700,10.54857568359375,0.052580082064867015,-0.0017854586446657775,-0.006224372673872858
1772744451975603500,10.558603515625,0.03731237030625343,0.013794059009477496,-0.007256309537496417
1772744451985631700,10.5686318359375,0.03850479496121406,-0.0033429902849718925,-0.00656341363620013
1772744451995658800,10.57865869140625,0.05167641122341156,-0.00422821215428412,-0.0025288791568018497
1772744452005686500,10.5886865234375,0.04060439758896828,-0.005423559418693185,0.0008696772403083741
1772744452015713800,10.5987138671875,0.04255436261296272,0.0009328969359397888,0.015437771095894276
1772744452025741600,10.608741455078125,0.05019114110171795,0.005424764995090663,0.004658949988055974
1772744452035769600,10.61876953125,0.048099721780419345,0.004366597711667418,-0.0110984632499516
1772744452045796600,10.628796630859375,0.053035424616932864,0.00010766162555664777,-0.003324760508537292
1772744452055824600,10.63882470703125,0.05512859750390053,-0.010266798198781906,0.009714973002299666
1772744452065851600,10.6488515625,0.04046469685733318,-0.00685505352653563,-0.0013024791670031846
1772744452075879700,10.658879638671875,0.04165829055607319,0.010086034804396331,-0.0002697020531632006
1772744452085907700,10.66890771484375,0.057369069907069206,0.0017979528000578284,-0.008238087116461247
1772744452095934700,10.678934814453125,0.040460020682215686,-0.004939867554977536,-0.006302662074472755
1772744452105962500,10.68896240234375,0.029085224708914757,0.002152867184951901,-0.0015493666001595557
1772744452115989800,10.69898974609375,0.044946226185560226,-0.0011604220815002917,-0.005136595703475177
1772744452126017500,10.709017578125,0.03940905032455921,0.005466083386167883,-0.010520827758777886
1772744452136045600,10.719045654296876,0.04374854083359241,0.0017255816835910081,-0.02803306704116985
1772744452146072600,10.729072509765626,0.05930851353704929,-0.0005455050535500049,-0.0023865115440450608
1772744452156100600,10.7391005859375,0.04733633619248867,-0.0023976722588762637,-0.005699983473587781
1772744452166127600,10.749127685546876,0.04838379941880703,0.007117540387623011,0.011245415706280619
1772744452176155600,10.75915576171875,0.044941550010442734,-0.003065159724280238,-0.005478193949069827
1772744452186183700,10.76918359375,0.03925532106757164,0.001538607744127512,-0.008095317644905299
1772744452196210700,10.779210693359374,0.05631400789618492,-0.008815320748835802,-0.003790880182944238
1772744452206238500,10.789238525390624,0.05556406631171703,0.01366758308559656,-0.017950904694292693
1772744452216265700,10.799265625,0.05840542721748352,0.004137319000437856,0.00753574753338471
1772744452226293500,10.80929345703125,0.0397013112694025,0.0030343261945992707,0.006531155334413051
1772744452236321800,10.81932177734375,0.04628711940050125,-0.0015498232578858733,0.010728479160089045
1772744452246348500,10.8293486328125,0.04389700939357281,-0.017781850004009902,-0.0017738960710354148
1772744452256376600,10.83937646484375,0.0543757333099842,-0.001993584970012307,0.0014710406669415533
1772744452266403600,10.849403564453125,0.053179801523685455,-0.000726341513171792,0.000783825587760657
1772744452276431600,10.859431640625,0.044049569606781004,0.003149440474249422,-0.0019959778564982117
1772744452286459600,10.869459716796875,0.05168050287663936,-0.004472030847519636,-0.002089209097903222
1772744452296486700,10.879486572265625,0.053479076731204986,-0.009104914812557399,-0.008798881070688366
1772744452306514400,10.889514404296875,0.056469490718841546,0.004896247608959675,-0.01238525165747851
1772744452316541700,10.899541748046875,0.04808744682073593,-0.013559117742441593,-0.00338536812197417
1772744452326569500,10.909569580078125,0.04703764550685882,-0.0030162060160189865,0.003036974809411913
1772744452336597800,10.91959765625,0.0474918190151453,-0.002047945505753159,-0.012055855306331067
1772744452346624500,10.92962451171875,0.042702246651053426,0.0013571136973798273,-0.009383585623465477
1772744452356652500,10.939652587890626,0.03237783651351928,-0.005935965920239687,-0.01681097741154954
1772744452366679600,10.949679443359376,0.02400046879053116,-0.014077442528121173,0.00011447495883330702
1772744452376707600,10.95970751953125,0.03971592431664467,-0.005312646390125155,0.003386610230989754
1772744452386735600,10.969735595703124,0.05273030419051647,0.004927921388857066,0.0024065131524577737
1772744452396762600,10.9797626953125,0.05213000020980835,-0.004949439100921153,0.009501969572436065
1772744452406790400,10.989790283203124,0.050632455128431314,-0.0002635828396305442,-0.002716455884464085
1772744452416817700,10.999817626953124,0.038806992778182024,-0.0005416691286489367,0.0022122509556822476
1772744452426845400,11.009845458984374,0.046885669815540314,-0.008210925114899873,0.007745225565601139
1772744452436873700,11.019873779296875,0.04598609062731266,0.0025771935442462563,-0.011150229969806968
1772744452446900500,11.029900390625,0.04793430208563804,0.0011395254239439964,-0.006838011060189456
1772744452456928500,11.039928466796875,0.04943243168890476,0.005067841316200792,-0.0077700312132947145
1772744452466956500,11.04995654296875,0.04629530270695686,-0.0035185660475865006,-0.013102204287797212
1772744452476983600,11.059983642578125,0.04480126475691795,0.0026453268770128486,-0.014956106792483478
1772744452487011600,11.070011474609375,0.04479834214746952,0.007822510319203137,0.003198996970709413
1772744452497038600,11.08003857421875,0.05033025731146335,0.00040244332104921336,0.0004345189597457647
1772744452507067600,11.090067626953125,0.04644201770126819,-0.0046188554396852845,-0.0013737908375449478
1772744452517094700,11.1000947265625,0.0449473952293396,0.005000365570560097,0.0023545455032028258
1772744452527122400,11.110122314453125,0.052878772750496864,-0.0070909811742603775,-0.011680153861735015
1772744452537150700,11.120150634765626,0.05003565827906131,-0.0011719663888216018,-0.0011843509463593364
1772744452547177500,11.130177490234376,0.050934652945399284,0.0039712051859125495,-0.008172529333271086
1772744452557205800,11.140205810546876,0.04809387656152248,0.008033997645415365,0.009568184942752122
1772744452567232500,11.150232421875,0.049288054782152174,0.008524338445626198,0.003388108068332076
1772744452577260500,11.160260498046876,0.05227729972600936,0.007683576772548258,-0.014858582968451082
1772744452587288600,11.17028857421875,0.04943243168890476,0.013200805824063718,-0.004331800392922014
1772744452597315600,11.180315673828124,0.052127077600359915,0.012175810157880187,-0.014236030623316765
1772744452607343600,11.190343505859374,0.0458446363300085,-0.001703735177963972,0.006385572851262986
1772744452617371600,11.20037158203125,0.034472762966156006,0.010406462397798895,-0.00653100920394063
1772744452627398400,11.2103984375,0.04554302303493023,0.0017591916922479866,0.008211290441080927
1772744452637426700,11.2204267578125,0.06110825643539428,-0.0034928105518221854,0.00328059257324785
1772744452647453400,11.230453369140625,0.04525193113386631,0.007215411271527409,0.0018218999312259257
1772744452657481700,11.240481689453125,0.048995209315419196,-0.0015470102462917564,0.005704878844413906
1772744452667509500,11.250509521484375,0.04749649519026279,-0.005113580154068768,0.003622446547169238
1772744452677536500,11.26053662109375,0.046152094843983645,0.003982639895379543,-0.002143587899953127
1772744452687564500,11.270564453125,0.04630290149152279,-0.0015226064573973417,-0.01592971933130175
1772744452697591600,11.280591552734375,0.04929682261049747,0.002550342069938779,0.014749916695896535
1772744452707619600,11.29061962890625,0.033735096341371534,-0.005336100330948829,-0.002999601941090077
1772744452717647600,11.300647705078125,0.049446460214257235,0.00018459931928664446,-0.01663330102339387
1772744452727674400,11.31067431640625,0.048394320812821384,0.0014134835271164773,-0.023625278802588582
1772744452737702700,11.32070263671875,0.04464928906559944,0.004100055729970336,-0.01402881761342287
1772744452747729700,11.330729736328125,0.04913900170028209,-0.0034118908027186987,0.01118676258791238
1772744452757757700,11.3407578125,0.05288461796939373,0.008498034960590303,-0.005788757735583931
1772744452767785500,11.350785400390626,0.05063713130354881,-0.007986468709260225,0.015410663893260061
1772744452777812500,11.3608125,0.04749824875593185,-0.006134520699642598,-0.007414788034837693
1772744452787840500,11.370840576171876,0.05751987655460834,0.008971168897673487,-0.013212441462930291
1772744452797867500,11.380867431640626,0.0543757333099842,0.0003356251625344157,-0.02130472690053284
1772744452807895600,11.3908955078125,0.05108429054915905,-0.013440021407417952,-0.012496073354501277
1772744452817923600,11.400923583984374,0.04734276593327522,0.007635719042830169,0.005597619077656418
1772744452827950600,11.41095068359375,0.054226680228114124,-0.0017884177867323158,0.001067665764130652
1772744452837978600,11.420978515625,0.04255202452540397,0.00108925654143095,0.02061679943529889
1772744452848005600,11.431005615234374,0.04599076680243015,0.01909947194121778,-0.004389777657855302
1772744452858033700,11.44103369140625,0.057365562775731085,0.003206139097549021,-0.007391845550667494
1772744452868061400,11.4510615234375,0.04060381306707859,0.0007665273930877447,0.0076147127874195576
1772744452878088700,11.461088623046875,0.037760114073753355,-0.014851057249121367,0.007102196688018739
1772744452888116500,11.471116455078125,0.048234746336936946,-0.0021412498123943805,-0.003687712069414556
1772744452898144500,11.48114453125,0.05481529377102851,-0.0034531361285597083,-0.008031129834894091
1772744452908171800,11.491171875,0.05122340675890445,-0.009939648603647946,-0.007346508571598678
1772744452918199600,11.501199462890625,0.02922784804999828,-0.008110533480346202,0.0020883323150686917
1772744452928226800,11.511226806640625,0.03910159181058406,0.003151888159662485,-0.00562423308994621
1772744452938254600,11.521254638671875,0.04912205056548118,-0.006252886382304132,-0.007823167906329035
1772744452948282400,11.531282470703125,0.058847910287976264,0.004779745089821518,-0.0059106305495835836
1772744452958309600,11.5413095703125,0.053012628263235086,0.005380779722891748,-0.014322740792389958
1772744452968337400,11.55133740234375,0.03625380116403103,0.008760448756441474,-0.028653829288017
1772744452978364700,11.56136474609375,0.05031915139555931,0.002146181715838611,0.004822762247640639
1772744452988392700,11.571392822265626,0.05152092840075492,0.0032666005805134773,-0.0028978220670484007
1772744452998420500,11.58142041015625,0.047931963998079294,-0.005902246313728392,-0.0023253742076456544
1772744453008447700,11.59144775390625,0.0542190814435482,-0.006183109081722795,-0.0001546791050583124
1772744453018475500,11.6014755859375,0.0548158782929182,0.008007073105871678,0.003178885764442384
1772744453028502800,11.611502685546874,0.04344692753851413,-0.002072422359883785,0.010778674977365881
1772744453038530600,11.621530517578124,0.04569324516057968,-0.01055197181571275,0.00001258548693731427
1772744453048558600,11.63155859375,0.036115269476175306,-0.009788440097309649,0.022253533791657537
1772744453058585600,11.641585693359374,0.04224807314276695,0.00991604853235185,-0.016791067134682088
1772744453068613600,11.651613525390625,0.05601064103543758,-0.004606543947383761,0.004352039463352411
1772744453078640600,11.661640625,0.05795066918730735,0.004669343517906963,0.0031634689996019004
1772744453088668700,11.671668701171875,0.04463175340890884,-0.005040880244038998,-0.004850764499418438
1772744453098696700,11.68169677734375,0.03729658821523189,-0.000016183949820697307,-0.0043705615007318555
1772744453108723700,11.6917236328125,0.04747136074900627,-0.007074979887530208,-0.009469382477086037
1772744453118751500,11.70175146484375,0.044029111340641976,-0.008817841499485075,0.0034337555746547874
1772744453128778800,11.71177880859375,0.03774140937328339,0.008292246722802519,-0.0033309527873061594
1772744453138806500,11.721806640625,0.045673955938220025,-0.006596512188203632,-0.003434961151052266
1772744453148834800,11.731834716796875,0.045078328132629394,-0.008268683184124529,0.0005138130073435604
1772744453158861600,11.741861572265625,0.03505260868072509,0.0029323636574670672,0.0015138020964339375
1772744453168889600,11.7518896484375,0.05435527504384517,0.004088292226940393,-0.008700991920474917
1772744453178917600,11.761917724609376,0.05091302563548088,0.003745689334347844,-0.0023025230550207196
1772744453188944600,11.771944580078125,0.04403203395009041,0.0011297712149098515,-0.003931622094195336
1772744453198972700,11.78197265625,0.056902621439099306,0.0070941229794174426,-0.008533288937062025
1772744453208999700,11.791999755859376,0.03475567156076431,0.014471958271041512,-0.003731953069940209
1772744453219027500,11.80202734375,0.03789806123971939,0.005381327712163329,0.0026180370112881064
1772744453229055700,11.8120556640625,0.04134557134509086,0.004719539335183799,0.007423336667474359
1772744453239082500,11.82208251953125,0.04538695569038391,-0.004315415513701737,-0.013986238847021012
1772744453249110800,11.83211083984375,0.046425651088356966,0.0002316533314064145,-0.0028848347213119266
1772744453259137500,11.842137451171874,0.04687222581207752,0.0018471257040277122,0.0019507870079018175
1772744453269165600,11.85216552734375,0.045078328132629394,0.0005506926853209733,-0.005372176291327923
1772744453279193600,11.862193603515625,0.058248190829157824,0.005079970145411789,0.011808620813302695
1772744453289220600,11.872220703125,0.042678281253576276,-0.005259345300309359,-0.006495170705579221
1772744453299248600,11.88224853515625,0.03968143752515316,0.005451506871543824,-0.0053696555406786495
1772744453309275600,11.892275634765625,0.04611293187737465,0.005807663365453481,0.0004619366896338761
1772744453319303400,11.902303466796875,0.044914077481627464,0.009702405781671404,-0.002147588221635669
1772744453329331700,11.912331787109375,0.044917584612965585,-0.0021493965862318873,-0.0012228745921514929
1772744453339358500,11.9223583984375,0.04761106148064136,-0.00018814298324286937,-0.01167478356687352
1772744453349386800,11.93238671875,0.04596329427361488,0.0006562719516456127,-0.002103584683127701
1772744453359413500,11.94241357421875,0.03339724268913269,0.02001483322046697,-0.003214578132331371
1772744453369441500,11.952441650390625,0.045964463317394254,0.002025112619437277,0.0013404000245966017
1772744453379469600,11.962469482421875,0.04865151044428348,0.003299589534662664,-0.0028244280372746286
1772744453389496600,11.97249658203125,0.045205753904581064,-0.0035552447961643336,-0.003124324299301952
1772744453399524600,11.982524658203126,0.05702420199215412,-0.0033768194893375038,0.002953296847641468
1772744453409552600,11.992552734375,0.043405426484346386,0.0023846666468307375,-0.008771956531144678
1772744453419579400,12.002579345703126,0.03966448639035225,-0.006952997475676238,-0.0025731932225637136
1772744453429607700,12.012607666015626,0.04100947125852108,-0.0195539377104491,0.003581055090855807
1772744453439634700,12.022634765625,0.05612403828203678,-0.013212350131385027,0.004832479924056679
1772744453449662700,12.032662841796874,0.05867021563351154,-0.0025309797823429105,0.0033182394362054764
1772744453459690500,12.0426904296875,0.05822188734412193,-0.004031849331967532,0.005063475668337196
1772744453469717500,12.052717529296874,0.05567921712398529,-0.010682137534022331,-0.0036020613462664185
1772744453479745500,12.06274560546875,0.03951894043982029,0.006370083021186292,-0.00005313669303432107
