time,seconds_elapsed,z,y,x
1772744441506795800,0.089795654296875,-0.001241528196260333,-0.00098403450101614,-0.00006047566421329975
1772744441516823800,0.09982373046875,-0.0008396303746849298,-0.0011639813892543316,-0.000723835255485028
1772744441526851800,0.109851806640625,0.0007670546183362603,0.0018445919267833233,-0.001006396603770554
1772744441536878800,0.11987890625,0.0013302154839038849,-0.0011498939711600542,-0.0009560738690197468
1772744441546906600,0.12990673828125,-0.0008690229151397943,-0.0005626669153571129,-0.0016434357967227697
1772744441556934000,0.139933837890625,0.0014364999951794744,0.0024909204803407192,-0.00014334107981994748
1772744441566961700,0.149961669921875,-0.0009148049866780639,-0.0012529513332992792,-0.0010362989269196987
1772744441576990000,0.159989990234375,-0.00045475480146706104,0.0038156118243932724,-0.002256345935165882
1772744441587016700,0.1700166015625,-0.0009104216587729752,-0.0011895331554114819,-0.00036709936102852225
1772744441597044700,0.180044677734375,-0.001925938413478434,-0.0003374877851456404,-0.0020223234314471483
1772744441607072000,0.190072021484375,-0.0011264574714004993,-0.0018666749820113182,-0.0003916699206456542
1772744441617099800,0.200099853515625,-0.00011091865599155426,0.0010573058389127254,0.0006806935416534543
1772744441627126800,0.210126708984375,0.0019104206003248692,-0.0009645659010857344,-0.0005054784123785794
1772744441637154800,0.22015478515625,0.00017844716785475612,-0.0007107248529791832,-0.00009440263966098428
1772744441647182600,0.2301826171875,-0.0009488689247518778,-0.0003338875249028206,0.002762370277196169
1772744441657209900,0.2402099609375,-0.0009697391651570797,0.00011988729238510132,-0.0008976231911219656
1772744441667237600,0.250237548828125,0.00008540519047528505,-0.0018322097603231668,0.0013538131024688482
1772744441677264600,0.2602646484375,0.0009204038651660085,-0.0008654543198645115,-0.0016299813287332654
1772744441687293000,0.27029296875,-0.0008719036122784019,-0.0008998091798275709,0.0007884352817200124
1772744441697320700,0.28032080078125,0.0004885832313448191,-0.0007331301458179951,-0.001488248584792018
1772744441707348000,0.290347900390625,-0.0005119663546793163,-0.0012505825143307447,-0.00028636393835768104
1772744441717375700,0.300375732421875,-0.0009766612201929092,-0.0007237258832901716,-0.0004032437864225358
1772744441727402800,0.31040283203125,-0.002074948977679014,0.0008818940259516239,0.0012023759773001075
1772744441737430800,0.3204306640625,0.00038936955388635397,0.0005912948399782181,-0.0011567375622689724
1772744441747458800,0.330458740234375,-0.002178450347855687,0.0012128762900829315,-0.0008616593549959362
1772744441757485800,0.34048583984375,-0.00013430556282401085,0.001216310542076826,-0.0010795170674100518
1772744441767513300,0.350513427734375,-0.0009875823743641376,-0.001425811555236578,-0.0005490154144354165
1772744441777540000,0.3605400390625,-0.0011664513731375337,-0.0005323693621903658,0.00012893864186480641
1772744441787568400,0.370568359375,0.000058070116210728884,-0.002338791498914361,-0.0007413824205286801
1772744441797596200,0.38059619140625,-0.00048799789510667324,-0.001040192786604166,0.0009775722865015268
1772744441807623400,0.39062353515625,0.00010535441106185317,-0.0019227643497288227,0.0008425500709563494
1772744441817651200,0.400651123046875,-0.002291998825967312,-0.0009570950642228127,-0.0011434329207986593
1772744441827678200,0.41067822265625,0.0006886111805215478,-0.0003661396913230419,-0.0032539882231503725
1772744441837706200,0.420706298828125,-0.0011754794977605343,-0.0006499977316707373,0.0024792123585939407
1772744441847734300,0.430734375,-0.0013432586565613747,0.0005960953421890736,-0.00026091403560712934
1772744441857761300,0.44076123046875,0.0008287889650091529,-0.0005523429717868567,0.0007132361643016338
1772744441867789300,0.450789306640625,0.0012357200030237436,-0.0021414512302726507,-0.00031394505640491843
1772744441877816300,0.46081640625,-0.001185550820082426,-0.0006648979615420103,0.00018690194701775908
1772744441887844400,0.47084423828125,0.00034816376864910126,-0.0008433295879513025,-0.0042358096688985825
1772744441897872100,0.4808720703125,0.0006835755193606019,-0.0019517787732183933,-0.00008089537732303143
1772744441907899400,0.4908994140625,-0.002285316586494446,0.0004882095381617546,0.00016518071061000228
1772744441917927200,0.50092724609375,0.0008695863652974367,-0.0012201739009469748,0.0008982961298897862
1772744441927954200,0.5109541015625,0.0006749093299731612,-0.001842821016907692,0.0018802036065608263
1772744441937982200,0.520982177734375,-0.0004829379031434655,0.0006314734928309917,0.0018252565059810877
1772744441948010200,0.53101025390625,-0.00027707553817890584,0.0018954095430672169,0.0008907532319426537
1772744441958037500,0.54103759765625,-0.0016648974269628525,0.00009509874507784843,-0.001774410717189312
1772744441968065300,0.551065185546875,-0.00012079655425623059,-0.0009991941042244434,0.0003523895866237581
1772744441978092300,0.56109228515625,0.0015057665295898914,0.000032829586416482925,0.0015378487296402454
1772744441988120300,0.571120361328125,-0.0028343868907541037,-0.0012502812314778566,0.001794843701645732
1772744441998148000,0.581148193359375,-0.0012527622748166323,-0.0007081448566168547,-0.0010755453258752823
1772744442008175400,0.59117529296875,-0.00023703262559138238,-0.0008516893722116947,0.0009766865987330675
1772744442018203100,0.601203125,-0.00024707705597393215,-0.0002470549661666155,0.000826124451123178
1772744442028230100,0.611230224609375,0.0007678535766899586,-0.002093158196657896,-0.000032212294172495604
1772744442038258400,0.621258544921875,0.0000919209560379386,0.0006952416151762009,0.0004470500280149281
1772744442048286200,0.6312861328125,-0.0012966512003913522,-0.00017135078087449074,0.00022414344130083919
1772744442058313500,0.6413134765625,-0.0003177242761012167,-0.0016300550196319818,0.00047344702761620283
1772744442068341200,0.65134130859375,0.0014391631120815873,-0.0021411157213151455,-0.0011931591434404254
1772744442078368300,0.6613681640625,0.0012183139333501458,0.000451450701802969,0.0003577909665182233
1772744442088396300,0.671396240234375,-0.0003380374109838158,0.00020164623856544495,-0.0008004178525879979
1772744442098424300,0.68142431640625,0.0013400204479694366,-0.000874803401529789,0.000817718799225986
1772744442108451300,0.691451416015625,0.0011256359284743667,0.0003337389789521694,-0.0007018808391876519
1772744442118479400,0.701479248046875,0.00022127525880932808,-0.0010223286226391792,0.0029153632931411266
1772744442128506400,0.71150634765625,-0.00043519397149793804,-0.003395471489056945,0.0012381045380607247
1772744442138534400,0.721534423828125,-0.0006028235075064003,-0.0006494282279163599,-0.0011636074632406235
1772744442148562200,0.731562255859375,-0.00041294010588899255,0.002934920135885477,0.0012878322741016746
1772744442158589400,0.74158935546875,-0.0013104414101690054,0.0009732909966260195,-0.0005249533569440246
1772744442168617200,0.7516171875,-0.0006707501597702503,0.0014468010049313307,0.0006244669202715158
1772744442178644500,0.76164453125,-0.00046746301813982427,0.0014532904606312513,0.0018826681189239025
1772744442188672300,0.77167236328125,-0.0002429585438221693,-0.0006793690845370293,0.0018674880266189575
1772744442198700300,0.7817001953125,0.0007949952268972993,-0.0007184450514614582,0.0009235998149961233
1772744442208727300,0.791727294921875,0.0005672950064763427,-0.000021229498088359833,-0.0007946716505102813
1772744442218755300,0.80175537109375,0.001365751028060913,0.001872022170573473,-0.0021832003258168697
1772744442228782300,0.8117822265625,0.0006474964320659637,0.0013415203429758549,0.0007388200610876083
1772744442238810400,0.821810302734375,-0.00005744007648900151,-0.0001705337781459093,-0.0009656610200181603
1772744442248838100,0.831838134765625,-0.000880090519785881,0.00034105940721929073,-0.002286056289449334
1772744442258865400,0.841865478515625,-0.0029323124326765537,0.002548299729824066,0.00042044284055009484
1772744442268893200,0.85189306640625,-0.00007074576569721103,-0.0006735925562679768,0.0002502668648958206
1772744442278920400,0.86192041015625,-0.00021187998936511576,-0.00033849035389721394,-0.0007123635150492191
1772744442288948200,0.8719482421875,0.0009681667434051633,-0.0009174614679068327,0.00158780871424824
1772744442298976500,0.8819765625,0.0020677705761045218,-0.0009680974762886763,-0.0011185721959918737
1772744442309003300,0.892003173828125,0.0002110147033818066,-0.0007457234896719456,-0.0008115096716210246
1772744442319031300,0.90203125,-0.0031495224684476852,-0.0010699019767343998,-0.0005037598893977702
1772744442329058300,0.912058349609375,-0.0009545451030135155,0.0008078927639871836,0.0005481887492351234
1772744442339086300,0.92208642578125,-0.0023202155716717243,-0.000020082807168364525,-0.0009764975402504206
1772744442349114400,0.9321142578125,-0.0002799680223688483,-0.0007082435768097639,-0.0016018077731132507
1772744442359141400,0.942141357421875,-0.000026994384825229645,0.0005220789462327957,0.0005788109265267849
1772744442369169200,0.952169189453125,-0.001001178752630949,-0.0001098893117159605,-0.0017551834462210536
1772744442379196400,0.962196533203125,0.002944609383121133,0.0007899135816842318,-0.00023114754003472626
1772744442389224200,0.97222412109375,-0.0007686360040679574,-0.0005842777900397778,0.0007283894228748977
1772744442399252500,0.98225244140625,-0.0021168235689401627,0.00004685507155954838,-0.0006888149655424058
1772744442409279200,0.992279296875,-0.0006731240428052843,0.00014406046830117702,-0.0005239652819000185
1772744442419307300,1.002307373046875,0.0018202450592070818,-0.001898652408272028,0.0018848100444301963
1772744442429334500,1.01233447265625,0.0027347744908183813,-0.00044856127351522446,-0.0004113674513064325
1772744442439362300,1.0223623046875,-0.000652217015158385,-0.0002604597248136997,-0.0007095636101439595
1772744442449390300,1.032390380859375,0.0010679187253117561,-0.00041545554995536804,0.0008430592715740204
1772744442459417300,1.042417236328125,-0.0005748707917518914,-0.0006118933670222759,0.0014239817392081022
1772744442469445000,1.052445068359375,-0.001516298158094287,0.0036811220925301313,-0.0022671595215797424
1772744442479472400,1.062472412109375,-0.0007618258241564035,0.000870133051648736,-0.0033225249499082565
1772744442489500200,1.072500244140625,0.0019756373949348927,-0.0015586698427796364,0.0008549093035981059
1772744442499528400,1.082528564453125,-0.0006240183138288558,0.001900416100397706,0.0016398753505200148
1772744442509555500,1.092555419921875,0.002025294117629528,0.00002262112684547901,0.0005897909868508577
1772744442519583200,1.102583251953125,0.0002371734008193016,-0.0013109489809721708,0.0009134685387834907
1772744442529610500,1.112610595703125,0.0010273333173245192,-0.0010931023862212896,-0.0022314584348350763
1772744442539638300,1.12263818359375,0.0009998715249821544,-0.0004749221261590719,-0.00016807066276669502
1772744442549666300,1.132666259765625,-0.0021064393222332,0.0011823629029095173,0.0006652323645539582
1772744442559693300,1.142693359375,-0.00046767026651650667,0.0015733472537249327,-0.0022715090308338404
1772744442569721300,1.152721435546875,-0.00005727715324610472,0.0023693658877164125,0.0009344042628072202
1772744442579748400,1.162748291015625,-0.00024861530982889235,-0.000945328501984477,0.003428894327953458
1772744442589776400,1.1727763671875,0.0005977372638881207,0.0011090340558439493,-0.001167455455288291
1772744442599804400,1.182804443359375,-0.00012081093154847622,0.00027377763763070107,0.0009617476025596261
1772744442609831400,1.19283154296875,0.0016121079679578543,-0.0003539295867085457,-0.0014526741579174995
1772744442619859200,1.202859130859375,0.00015787279698997736,0.001557973911985755,-0.0018466099863871932
1772744442629886500,1.212886474609375,-0.00033427937887609005,0.0003494312986731529,-0.0011603133752942085
1772744442639914200,1.222914306640625,-0.002893310971558094,0.0012727489229291677,-0.0005461884429678321
1772744442649942300,1.2329423828125,0.0002500182017683983,-0.0014290278777480125,-0.0012548556551337242
1772744442659969300,1.24296923828125,0.00019062968203797936,-0.0014828236307948828,0.000022929103579372168
1772744442669997300,1.252997314453125,-0.0016514788148924708,0.0018927331548184156,0.0019310840871185064
1772744442680024300,1.2630244140625,0.0008298369939438999,-0.00048186443746089935,0.001601861440576613
1772744442690052400,1.27305224609375,0.0018487623892724514,-0.000295975711196661,-0.0011664945632219315
1772744442700080400,1.283080322265625,0.0014046333963051438,0.0007571454625576735,0.0009563087369315326
1772744442710107400,1.293107421875,-0.0008635808480903506,-0.0009539355523884296,-0.0000841883011162281
1772744442720135200,1.30313525390625,-0.000985167222097516,-0.00015107798390090466,0.002264522947371006
1772744442730162400,1.313162353515625,-0.0005481425323523581,0.00014240224845707417,0.002302872482687235
1772744442740190200,1.323190185546875,-0.00032809231197461486,-0.0009076613932847977,0.0018049360951408744
1772744442750218500,1.333218505859375,-0.0011803038651123643,-0.0009883551392704248,0.0025349087081849575
1772744442760245200,1.343245361328125,0.0012770788744091988,0.0006740556564182043,0.00018394243670627475
1772744442770273500,1.3532734375,0.0002762629883363843,0.00010866648517549038,-0.00179052515886724
1772744442780300300,1.36330029296875,-0.00008800000068731606,-0.0002908341120928526,-0.0024209455586969852
1772744442790328600,1.37332861328125,-0.0013340930454432964,0.0009360839612782001,-0.0017575521487742662
1772744442800355300,1.383355224609375,0.000668901891913265,0.00048431800678372383,-0.001437745289877057
1772744442810383400,1.39338330078125,-0.002514907158911228,-0.000046449946239590645,-0.0020992744248360395
1772744442820411400,1.403411376953125,-0.0007449531694874167,-0.0004061139188706875,0.0001264797756448388
1772744442830438400,1.4134384765625,0.00014614051906391978,0.000018127495422959328,0.00021143461344763637
1772744442840466400,1.423466552734375,-0.0019870917312800884,0.0019724122248589993,-0.0018540663877502084
1772744442850493400,1.433493408203125,0.0016302799340337515,0.0005691926926374435,0.0015816778177395463
1772744442860521200,1.443521240234375,0.0012011441867798567,0.001428048824891448,0.00008588290074840188
1772744442870549500,1.453549560546875,-0.0009629405103623867,0.0007902218494564295,0.0010835030116140842
1772744442880576300,1.463576171875,0.00004081038059666753,0.0010714693926274776,0.0027522481977939606
1772744442890604500,1.4736044921875,-0.00009101608884520829,-0.0005421401001513004,0.000575912999920547
1772744442900631600,1.483631591796875,-0.00035624438896775246,-0.0008278652094304562,-0.0004195112851448357
1772744442910659300,1.493659423828125,-0.0009685051045380533,-0.00048698042519390583,-0.00010179617675021291
1772744442920687400,1.503687255859375,-0.001110839657485485,0.000912361778318882,0.0011214186670258641
1772744442930714400,1.51371435546875,0.00020556087838485837,-0.0027912964578717947,0.00033365562558174133
1772744442940742400,1.523742431640625,-0.0001291613734792918,0.0001325765624642372,0.00013306224718689919
1772744442950769400,1.533769287109375,-0.0007997453212738037,0.0009813259821385145,-0.0008128925692290068
1772744442960797200,1.543797119140625,-0.0013359517324715853,-0.0007674556691199541,0.001798892510123551
1772744442970825500,1.553825439453125,0.0006763327401131392,-0.00018156017176806927,-0.000019247527234256268
1772744442980852500,1.5638525390625,-0.00035698898136615753,0.0005382085219025612,0.00003085628850385547
1772744442990880500,1.573880615234375,0.0018291999585926533,-0.0014461127575486898,-0.0005955192027613521
1772744443000907500,1.583907470703125,-0.0009436317486688495,0.0010039866901934147,-0.0022087390534579754
1772744443010935600,1.593935546875,0.0005128510529175401,0.0004849368706345558,0.0014397915219888091
1772744443020963300,1.60396337890625,0.000015328929293900728,0.001889486564323306,0.00040567415999248624
1772744443030990300,1.613990234375,-0.00015218387125059962,-0.00034756865352392197,-0.0009538695449009538
1772744443041018400,1.624018310546875,-0.0012568433303385973,0.00011099851690232754,-0.0005525226588360965
1772744443051045400,1.63404541015625,0.0013554514152929187,-0.00025199027732014656,0.0022797491401433945
1772744443061073700,1.64407373046875,0.0009894780814647675,-0.0015492436941713095,0.0015459153801202774
1772744443071101400,1.654101318359375,0.0007732294616289437,-0.00042405794374644756,0.0017901272512972355
1772744443081128400,1.66412841796875,-0.0014116698876023293,-0.0002542790025472641,-0.0001859887852333486
1772744443091156500,1.674156494140625,-0.0006095257122069597,-0.001251366687938571,-0.0008797422633506358
1772744443101183500,1.68418359375,0.000732103711925447,-0.0014015205670148134,0.0002408531727269292
1772744443111211500,1.69421142578125,0.0008514132350683212,-0.0015591797418892384,-0.00030003488063812256
1772744443121239300,1.7042392578125,-0.00019417412113398314,0.0011942279525101185,0.000912085990421474
1772744443131266300,1.714266357421875,0.0008023807895369828,0.0003667837008833885,-0.000926560431253165
1772744443141294600,1.724294677734375,0.0010180973913520575,-0.001306311460211873,0.0018128417432308197
1772744443151321300,1.7343212890625,0.0011680333409458399,-0.000012015225365757942,-0.0006069063674658537
1772744443161349600,1.744349609375,-0.0019783442839980125,-0.0016849343664944172,-0.0021839276887476444
1772744443171377400,1.75437744140625,0.0002459277166053653,-0.0023637739941477776,0.0018425054149702191
1772744443181404400,1.764404296875,0.002478699665516615,-0.00046425662003457546,-0.0000567458919249475
1772744443191432400,1.774432373046875,0.0002850538585335016,0.00013628625310957432,0.002452484332025051
1772744443201459500,1.78445947265625,0.0001554936170578003,-0.0010623978450894356,0.0006412890506908298
1772744443211487500,1.794487548828125,0.00017653260147199035,-0.000676772091537714,-0.0007909589330665767
1772744443221515500,1.804515625,0.0010131896706297994,-0.0003403469454497099,-0.0030936915427446365
1772744443231542300,1.814542236328125,-0.0010835169814527035,0.0020700800232589245,-0.0019775605760514736
1772744443241570600,1.824570556640625,-0.0009603740181773901,-0.000017002923414111137,0.0010902545182034373
1772744443251597300,1.834597412109375,-0.00030603536288253963,0.000979551812633872,-0.0007811487885192037
1772744443261625600,1.84462548828125,-0.0005241975304670632,-0.00046797236427664757,-0.0007945484248921275
1772744443271652400,1.85465234375,0.0013157804496586323,-0.00024852785281836987,0.00197620433755219
1772744443281680400,1.864680419921875,0.0009025642066262662,-0.0007848900277167559,0.0015927404165267944
1772744443291708400,1.87470849609375,-0.0007296871626749635,0.00005560368299484253,-0.000681599136441946
1772744443301735400,1.8847353515625,-0.001554463291540742,0.0004449840635061264,0.00027072563534602523
1772744443311763500,1.894763427734375,0.0012016422115266323,0.001860187854617834,-0.0011969424085691571
1772744443321790500,1.90479052734375,0.0009758116211742163,-0.00013634655624628067,-0.0015258623752743006
1772744443331818200,1.914818359375,-0.00010143700637854636,-0.0011358310002833605,0.0008928204188123345
1772744443341846500,1.924846435546875,-0.0000341658596880734,-0.0015730455052107573,0.0006428437191061676
1772744443351873300,1.934873291015625,0.0002385418047197163,0.001392650417983532,0.0010718789417296648
1772744443361901600,1.944901611328125,-0.0006342217093333602,-0.0002368115819990635,-0.00032114237546920776
1772744443371928600,1.954928466796875,0.000746893638279289,-0.0005739678163081408,-0.0011589728528633714
1772744443381956400,1.964956298828125,0.0001570344320498407,-0.000785136129707098,0.00020356388995423913
1772744443391984400,1.974984375,0.00037461466854438186,-0.000998721458017826,0.0027215825393795967
1772744443402011400,1.985011474609375,-0.0013131427112966776,-0.0029138464014977217,-0.00007735268445685506
1772744443412039400,1.995039306640625,0.0001252306392416358,-0.0007721320725977421,-0.0010491402354091406
1772744443422066400,2.00506640625,0.00021766428835690022,-0.00028075859881937504,0.00037747895112261176
1772744443432094200,2.01509423828125,-0.0012771680485457182,-0.0011510795447975397,-0.0001511585433036089
1772744443442122500,2.02512255859375,0.0009205997921526432,-0.0011027972213923931,-0.0016851350665092468
1772744443452149500,2.0351494140625,0.00044975290074944496,-0.0006649736315011978,-0.00009895639959722757
1772744443462177500,2.045177490234375,0.0017806146061047912,0.0019380298908799887,0.0018156353617087007
1772744443472204500,2.05520458984375,0.001536669093184173,-0.0009967738296836615,-0.0009452636586502194
1772744443482232300,2.065232421875,-0.0009134960710071027,0.000673066359013319,-0.0008134511299431324
1772744443492260400,2.07526025390625,0.0008740176563151181,-0.0012878191191703081,-0.0005130465724505484
1772744443502287400,2.085287353515625,0.002405979670584202,0.0011032074689865112,0.0006171378190629184
1772744443512315400,2.0953154296875,-0.0010414824355393648,-0.0021453164517879486,-0.0008694387506693602
1772744443522342400,2.10534228515625,0.0011928370222449303,0.000300906365737319,-0.000050329428631812334
1772744443532370400,2.115370361328125,0.00019308645278215408,0.0010346071794629097,-0.0008239776943810284
1772744443542398500,2.1253984375,0.0006732043111696839,0.0004594498313963413,0.002152319997549057
1772744443552425500,2.135425537109375,-0.0015939446166157722,0.0016450891271233559,-0.000911646755412221
1772744443562453500,2.14545361328125,0.00010304339230060577,0.0013576357159763575,0.001672558719292283
1772744443572480500,2.15548046875,-0.0002586138725746423,-0.002382241189479828,0.0015705598052591085
1772744443582508300,2.16550830078125,-0.0008361383806914091,-0.0009482805617153645,0.0012799573596566916
1772744443592535600,2.17553564453125,-0.0011535871308296919,-0.0006433487869799137,0.0018128559459000826
1772744443602563300,2.185563232421875,-0.0002002262044698,0.0005719515029340982,0.0008387357229366899
1772744443612591600,2.195591552734375,-0.0006084888009354472,-0.0006017035339027643,0.0011021223617717624
1772744443622618400,2.205618408203125,-0.0006058592698536813,0.00044779572635889053,-0.0011784301605075598
1772744443632646400,2.215646484375,0.000511070538777858,-0.000764741562306881,0.00034303381107747555
1772744443642673400,2.22567333984375,-0.0004303019377402961,0.0020908238366246223,0.001852385001257062
1772744443652701400,2.235701416015625,0.0014991583302617073,-0.0005590212531387806,0.0012659569038078189
1772744443662729500,2.2457294921875,-0.00041307631181553006,-0.0013717703986912966,-0.0022370191290974617
1772744443672756500,2.255756591796875,-0.0011249392991885543,0.0019396040588617325,-0.0030008135363459587
1772744443682784300,2.2657841796875,-0.001146626891568303,0.0004200153052806854,0.0003473705146461725
1772744443692811500,2.2758115234375,0.00207526539452374,-0.00040662987157702446,0.0019492617575451732
1772744443702839300,2.28583935546875,0.0005921432166360319,0.0005823825486004353,-0.00026541875558905303
1772744443712867600,2.29586767578125,0.00009173521539196372,-0.0006301547400653362,-0.0009903311729431152
1772744443722894300,2.305894287109375,-0.0015780148096382618,0.001321126939728856,-0.0025650642346590757
1772744443732922400,2.31592236328125,-0.00164992013014853,-0.0003244404215365648,0.0011585676111280918
1772744443742949400,2.325949462890625,0.0006031053490005434,-0.00235751923173666,0.000806924479547888
1772744443752977400,2.335977294921875,0.0017456014174968004,0.0013530631549656391,-0.0023345404770225286
1772744443763005400,2.34600537109375,-0.0007205110159702599,-0.0006661296356469393,-0.00044751435052603483
1772744443773033000,2.356032958984375,-0.00035326110082678497,0.0009440176654607058,-0.0015929399523884058
1772744443783061000,2.36606103515625,-0.0009116474539041519,-0.0017029057489708066,-0.0005014771013520658
1772744443793088000,2.376087890625,-0.0017939526587724686,0.0005365465767681599,-0.0015952372923493385
1772744443803116000,2.386115966796875,-0.0005053110653534532,0.0003660609945654869,0.00009751191828399897
1772744443813143000,2.39614306640625,0.0005397133063524961,0.0002198533620685339,0.0016123178647831082
1772744443823170800,2.4061708984375,-0.0009574791765771806,-0.0005335754249244928,0.0005638054572045803
1772744443833199000,2.41619921875,-0.003029684768989682,0.00048641511239111423,-0.000422096811234951
1772744443843225900,2.426225830078125,-0.0010967812268063426,-0.00027562864124774933,-0.0023770644329488277
1772744443853254100,2.436254150390625,0.0015290956944227219,-0.0006521996110677719,0.0014658768195658922
1772744443863281000,2.446281005859375,0.0006095407297834754,-0.0028470000252127647,-0.00008651934331282973
1772744443873309000,2.456308837890625,0.0016039651818573475,-0.00041926256380975246,-0.0008870655437931418
1772744443883337000,2.4663369140625,0.0007382930489256978,0.001816251315176487,0.0004043768858537078
1772744443893364000,2.476364013671875,0.000408593681640923,0.00013579684309661388,0.0020504766143858433
1772744443903392000,2.48639208984375,0.000529965793248266,-0.001898811198771,-0.0004024579538963735
1772744443913419000,2.4964189453125,0.00005672202678397298,-0.0020889609586447477,-0.000877033278811723
1772744443923446800,2.50644677734375,0.0015571239637210965,0.0006472303066402674,0.000733829801902175
1772744443933475000,2.51647509765625,0.0026042787358164787,-0.0012691805604845285,0.0013695263769477606
1772744443943501800,2.526501708984375,-0.00036131369415670633,0.000897406367585063,-0.00044440157944336534
1772744443953530000,2.536530029296875,-0.0006329561583697796,0.000942946644499898,0.0020065053831785917
1772744443963557000,2.54655712890625,0.0015030140057206154,-0.0005923735443502665,0.0015100056771188974
1772744443973585000,2.5565849609375,-0.0015289948787540197,0.0012574580032378435,-0.0007664642762392759
1772744443983613000,2.566613037109375,0.002605158369988203,-0.0005372152663767338,-0.0004666603053919971
1772744443993640000,2.576639892578125,0.000368103152140975,0.0009538885205984116,0.00008647824870422482
1772744444003668000,2.58666796875,0.00021982303587719798,0.0008861229289323092,-0.00002382270758971572
1772744444013695000,2.596695068359375,-0.0032923538237810135,0.00198920420370996,-0.000441140029579401
1772744444023723000,2.606722900390625,-0.0012084717163816094,0.0010272208601236343,-0.00018194649601355195
1772744444033751000,2.6167509765625,0.0008184602484107018,0.0008921986445784569,0.00044842378702014685
1772744444043778000,2.626778076171875,-0.0015444079181179404,0.00043404591269791126,0.0000075866119004786015
1772744444053806000,2.63680615234375,-0.001099926303140819,0.0009648138657212257,0.0009897603886201978
1772744444063833000,2.6468330078125,-0.0008263636846095324,-0.0006753767374902964,-0.0011792713776230812
1772744444073860900,2.65686083984375,-0.0005288886022754014,-0.0000372834037989378,0.0010575175983831286
1772744444083888000,2.66688818359375,-0.0011550160124897957,-0.0008939332328736782,-0.0025794149842113256
1772744444093916000,2.676916015625,-0.00014408008428290486,-0.0017368237022310495,0.00023341580526903272
1772744444103944000,2.68694384765625,0.0008265476790256798,0.0009926443453878164,0.0016247539315372705
1772744444113971000,2.696970947265625,-0.0006360603147186339,0.0008328545372933149,-0.002247748663648963
1772744444123999000,2.7069990234375,-0.0003535709111019969,-0.0017586782341822982,-0.0013398255687206984
1772744444134026000,2.71702587890625,-0.0033435020595788956,-0.0017099423566833138,-0.001663133269175887
1772744444144054000,2.727053955078125,0.0008361280197277665,0.002113967202603817,-0.0020820193458348513
1772744444154082000,2.73708203125,0.00072161213029176,-0.0017207185737788677,0.001961724366992712
1772744444164109000,2.747109130859375,-0.00013058120384812355,0.0005147436168044806,0.0005914460052736104
1772744444174136800,2.75713671875,-0.0005998301785439253,0.0022897403687238693,0.0004550922312773764
1772744444184164000,2.7671640625,0.0000035558477975428104,0.0018212480936199427,-0.0011340781347826123
1772744444194192000,2.77719189453125,-0.000346916145645082,0.0013171115424484015,-0.002084826584905386
1772744444204220200,2.78722021484375,-0.002036863239482045,-0.000450934749096632,-0.001199841732159257
1772744444214247000,2.797246826171875,0.0006737021030858159,0.0019232735503464937,0.0012137810699641705
1772744444224275000,2.80727490234375,-0.0004324798355810344,0.00034692557528615,-0.00006754591595381498
1772744444234302000,2.817302001953125,-0.0002015837817452848,-0.00045015849173069,0.000863761524669826
1772744444244330000,2.827330078125,-0.00046950497198849916,-0.0006080162711441517,0.0015398276736959815
1772744444254358000,2.83735791015625,0.0011006947606801987,-0.000019990140572190285,0.0007946753175929189
1772744444264385000,2.847385009765625,-0.002168017905205488,0.0008403605315834284,-0.0021139567252248526
1772744444274412800,2.857412841796875,-0.0018348563462495804,0.0006190517451614141,-0.0008489553001709282
1772744444284440000,2.867440185546875,0.0014482967089861631,-0.0010339654982089996,0.0002427307772450149
1772744444294467800,2.8774677734375,-0.0006121910992078483,0.0011367769911885262,-0.0006425039609894156
1772744444304494800,2.887494873046875,-0.0002464551944285631,0.0009855043608695269,-0.001345289871096611
1772744444314523000,2.89752294921875,-0.000041391816921532154,0.0007213188800960779,0.00016339082503691316
1772744444324551000,2.907551025390625,-0.0019446522928774357,0.00033499114215373993,-0.002189246006309986
1772744444334578000,2.917577880859375,0.00008973642252385616,0.001650060061365366,-0.0014374357415363193
1772744444344606000,2.92760595703125,-0.000937348697334528,-0.00019633863121271133,0.0006520314491353929
1772744444354633000,2.937633056640625,-0.002817540429532528,0.0012058159336447716,0.00045149546349421144
1772744444364661000,2.947660888671875,-0.0003401915018912405,0.00342733645811677,-0.003140270011499524
1772744444374688800,2.957688720703125,0.0003474366385489702,0.0000733514316380024,-0.000022773572709411383
1772744444384716000,2.967716064453125,0.0027126569766551256,-0.0007260136771947145,-0.0001003728830255568
1772744444394743800,2.977743896484375,0.0006716102361679077,-0.002709269756451249,0.0005230730748735368
1772744444404771000,2.98777099609375,-0.0016416043508797884,0.0008115468081086874,-0.001864048419520259
1772744444414798800,2.997798828125,-0.00020642680465243757,-0.00004945322871208191,-0.0021418160758912563
1772744444424827000,3.007826904296875,-0.001326951663941145,0.001632653409615159,0.00047121127136051655
1772744444434854100,3.017854248046875,-0.00025050187832675874,0.0013178677763789892,-0.0013352108653634787
1772744444444882000,3.0278818359375,-0.00024023468722589314,-0.0011973432265222073,-0.00012008467456325889
1772744444454909200,3.0379091796875,-0.00004316074773669243,0.00044502830132842064,0.0003411747748032212
1772744444464937000,3.04793701171875,-0.0012988306116312742,0.0008258046582341194,-0.0016991434386000037
1772744444474964700,3.05796484375,-0.00043356959940865636,0.0007416489534080029,-0.00031137015321291983
1772744444484992000,3.067991943359375,0.0009198946063406765,0.0008963891305029392,-0.000503257499076426
1772744444495020000,3.07802001953125,0.00017314421711489558,0.0011198283173143864,-0.0008673116099089384
1772744444505047000,3.088047119140625,-0.0014074679929763079,-0.0006574441213160753,-0.0009891584049910307
1772744444515075000,3.098074951171875,0.0017614273820072412,0.0018344754353165627,-0.0011012775357812643
1772744444525101800,3.108101806640625,0.0008986011380329728,-0.0011068377643823624,-0.0004324050678405911
1772744444535130000,3.118130126953125,0.0000546453520655632,-0.00023119035176932812,0.00041128438897430897
1772744444545158000,3.128157958984375,-0.002191404579207301,-0.002486899495124817,-0.0016293798107653856
1772744444555185200,3.13818505859375,0.0014877524226903915,0.0008284698706120253,0.00018077081767842174
1772744444565213000,3.148212890625,-0.0009490478551015258,0.0009333477355539799,0.00013358634896576405
1772744444575240000,3.158239990234375,-0.002171438653022051,0.0004885999951511621,-0.00006215600296854973
1772744444585268000,3.16826806640625,0.0004937764606438577,-0.0014924615388736129,-0.0001544031547382474
1772744444595296000,3.1782958984375,0.0003832552465610206,0.001446869457140565,-0.001810623100027442
1772744444605323000,3.188322998046875,-0.0014356269966810942,-0.0011160378344357014,-0.00011299591278657317
1772744444615351000,3.19835107421875,-0.0029986361041665077,-0.00021535693667829037,0.0009075273992493749
1772744444625377800,3.208377685546875,0.0018658763729035854,0.0014034234918653965,0.0009525266941636801
1772744444635406000,3.218406005859375,0.001065596705302596,0.0021075629629194736,0.0006451979279518127
1772744444645433900,3.228433837890625,-0.0009367400780320168,-0.000528975622728467,-0.0009079792071133852
1772744444655461000,3.238461181640625,0.0002787266857922077,-0.0011532206553965807,0.0009905884508043528
1772744444665489000,3.248489013671875,0.0019510595593601465,0.0015157884918153286,0.0006250251899473369
1772744444675516000,3.258515869140625,-0.0015917436685413122,-0.0004751908127218485,0.0009070538799278438
1772744444685544000,3.2685439453125,0.0003518991288729012,-0.0007205635774880648,0.0006534085259772837
1772744444695571000,3.278571044921875,-0.003198627382516861,-0.00012081977911293507,-0.0005170507356524467
1772744444705599000,3.288598876953125,-0.0020283027552068233,-0.000827765092253685,0.002536516170948744
1772744444715627000,3.298626953125,-0.000837603525724262,-0.001683971262536943,-0.0011000302620232105
1772744444725653800,3.30865380859375,-0.0009201953071169555,-0.0012861969880759716,0.001970964018255472
1772744444735682000,3.31868212890625,0.00007369642844423652,-0.00013624387793242931,-0.0005888664163649082
1772744444745709000,3.328708984375,0.002980711404234171,0.0007363648619502783,-0.0010007945820689201
1772744444755737000,3.338737060546875,-0.001192728290334344,0.0003526031505316496,0.001644256990402937
1772744444765764900,3.348764892578125,0.003226873930543661,-0.0018540607998147607,0.0022355946712195873
1772744444775791600,3.35879150390625,0.001379439258016646,-0.000616756035014987,-0.0006557993474416435
1772744444785819600,3.368819580078125,-0.0021347226575016975,0.0021965913474559784,-0.002479596994817257
1772744444795846700,3.3788466796875,0.0014275215798988938,0.0008013616316020489,-0.0009197836625389755
1772744444805874700,3.388874755859375,-0.0005040967953391373,0.0003662845119833946,0.000027329253498464823
1772744444815902700,3.39890283203125,-0.0008548350888304412,-0.0006963165942579508,-0.001766309724189341
1772744444825929700,3.4089296875,0.0006799573893658817,-0.0010805991478264332,-0.00005682348273694515
1772744444835957800,3.418957763671875,-0.00022738153347745538,0.0006997240707278252,-0.002111185807734728
1772744444845984800,3.42898486328125,0.0007269170600920916,0.00010963226668536663,-0.0006031936500221491
1772744444856012500,3.439012451171875,-0.0013679254334419966,-0.0009337940718978643,-0.001793093979358673
1772744444866039800,3.449039794921875,-0.0005871831672266126,-0.0006898194551467896,0.000026906025595963
1772744444876067600,3.459067626953125,0.002668797504156828,0.0005799757782369852,-0.0004830893303733319
1772744444886096000,3.469095947265625,-0.001108389114961028,-0.0002487108577042818,-0.00007973104948177934
1772744444896122600,3.47912255859375,0.0014338645851239562,-0.0010351422242820263,-0.0012011881917715073
1772744444906150700,3.489150634765625,0.0009793279459699988,0.0007541184313595295,-0.0014661048771813512
1772744444916177700,3.499177734375,-0.0016457499004900455,-0.0005891802720725536,-0.001168629853054881
1772744444926205700,3.509205810546875,0.0010666436282917857,-0.0002614895347505808,0.0005436204373836517
1772744444936233700,3.519233642578125,0.0020378984045237303,0.0015033872332423925,0.0006938227452337742
1772744444946260700,3.5292607421875,-0.0018691604491323233,-0.0000385018065571785,-0.0014607587363570929
1772744444956288500,3.53928857421875,0.0016909532714635134,0.00038041360676288605,0.0015936207491904497
1772744444966315800,3.549315673828125,0.000025086337700486183,0.0020293525885790586,0.0019520486239343882
1772744444976343600,3.559343505859375,0.0004226962337270379,0.0007901836652308702,-0.000012298929505050182
1772744444986371800,3.569371826171875,0.0010142335668206215,0.0008037528023123741,-0.0026044428814202547
1772744444996398600,3.579398681640625,-0.0016105780377984047,0.0004327744245529175,-0.0010869735851883888
1772744445006426600,3.589426513671875,0.0014774412848055363,-0.0023534796200692654,0.00038359215250238776
1772744445016453600,3.59945361328125,-0.000004075176548212767,-0.0005233555566519499,0.0008762769284658134
1772744445026481700,3.609481689453125,0.00022703304421156645,0.00008698063902556896,0.003033645683899522
1772744445036508700,3.6195087890625,0.0016795210540294647,0.0004688780754804611,-0.00095257384236902
1772744445046536700,3.62953662109375,0.00011097721289843321,0.0001962585374712944,-0.0010783582692965865
1772744445056564500,3.639564453125,0.0002385426196269691,0.0002583102323114872,0.0014300731709226966
1772744445066591700,3.649591796875,-0.00036680299672298133,-0.0016241873381659389,-0.00024809021851979196
1772744445076619500,3.65961962890625,0.0015405530575662851,-0.0012606659438461065,0.0001897334586828947
1772744445086646800,3.669646728515625,-0.0006204429664649069,-0.00022531114518642426,-0.001090969773940742
1772744445096674600,3.679674560546875,-0.0006369545590132475,-0.0010202648118138313,-0.0009255874902009964
1772744445106702600,3.68970263671875,0.0008966415771283209,0.00007759314030408859,0.00002976047107949853
1772744445116729900,3.699729736328125,-0.000456776877399534,0.00015908596105873585,0.0001818269956856966
1772744445126757600,3.709757568359375,-0.00023092806804925203,-0.00044427113607525826,-0.000015402270946651697
1772744445136785000,3.719784912109375,0.0012396695092320442,-0.0001366760116070509,0.001441879547201097
1772744445146812700,3.729812744140625,-0.0001062606752384454,0.0009002168662846088,0.0006087101064622402
1772744445156840400,3.73984033203125,-0.0021132188849151134,-0.0007189849857240915,-0.00025521928910166025
1772744445166867700,3.74986767578125,0.001547906780615449,-0.0011672514956444502,0.000544535752851516
1772744445176895700,3.759895751953125,-0.0012678534258157015,-0.0025417087599635124,0.0009671793668530881
1772744445186922800,3.7699228515625,0.0005967437755316496,-0.0008774637244641781,-0.0014541551936417818
1772744445196950800,3.77995068359375,-0.0018973066471517086,0.00022801430895924568,0.0005650535458698869
1772744445206977500,3.7899775390625,0.002632224466651678,0.0003079925663769245,-0.0011486560106277466
1772744445217005800,3.800005859375,0.002598668448626995,-0.001266734441742301,-0.0011598411947488785
1772744445227033600,3.81003369140625,0.0013667503371834755,-0.00022845598869025707,0.0005379632930271327
1772744445237060900,3.820060791015625,0.0003968270611949265,-0.0005099519621580839,-0.0009161226917058229
1772744445247088600,3.830088623046875,-0.0008749316330067813,0.0022102107759565115,-0.0011204162146896124
1772744445257115600,3.84011572265625,0.0007642439450137317,0.00016410439275205135,-0.0019388056825846434
1772744445267143700,3.850143798828125,0.0003122610505670309,0.001052524195984006,-0.0007053489680401981
1772744445277171700,3.860171630859375,-0.000050727801863104105,0.0009068495128303766,0.0019365068292245269
1772744445287198700,3.87019873046875,0.00129733607172966,0.0014957045204937458,0.0028775795362889767
1772744445297226800,3.880226806640625,-0.000036641431506723166,0.0008781175129115582,0.0008237497531808913
1772744445307253500,3.89025341796875,-0.0008078820537775755,-0.000448290491476655,0.0002802035305649042
1772744445317281800,3.90028173828125,0.00007122743409126997,-0.00033803563565015793,0.0017228377982974052
1772744445327309600,3.9103095703125,-0.0005219965241849422,-0.0004092552699148655,0.0018562665209174156
1772744445337336800,3.9203369140625,0.001454335288144648,-0.0016524188686162233,0.0029036877676844597
1772744445347364600,3.930364501953125,-0.002822084352374077,0.0011331902351230383,-0.0006109449896030128
1772744445357391600,3.9403916015625,0.0008062064880505204,-0.0005842822138220072,0.0014585976023226976
1772744445367419600,3.950419677734375,-0.00023668695939704776,-0.0010073129087686539,0.002995793242007494
1772744445377446700,3.96044677734375,-0.0009080698946490884,0.00007153372280299664,-0.0007432849379256368
1772744445387474700,3.970474609375,-0.0009145890362560749,0.0010874106083065271,-0.0020969929173588753
1772744445397502700,3.980502685546875,-0.0009827660396695137,0.000022146152332425117,-0.0003563507634680718
1772744445407529500,3.990529541015625,0.0015836621169000864,0.0017922946717590094,0.0007642211276106536
1772744445417557800,4.000557861328125,-0.0009418134577572346,0.0017073394265025854,0.0010286730248481035
1772744445427584800,4.010584716796875,0.0011182146845385432,0.00004222802817821503,-0.0010962282540276647
1772744445437612800,4.02061279296875,-0.0017271065153181553,-0.000003844732418656349,0.0005900853429920971
1772744445447640600,4.030640625,-0.00016763864550739527,-0.0016661584377288818,0.0007267179898917675
1772744445457667600,4.04066748046875,0.00199538073502481,-0.0015820026164874434,-0.0009180502966046333
1772744445467695600,4.050695556640625,-0.000743670214433223,-0.0009062725584954023,0.0011267480440437794
1772744445477722600,4.06072265625,-0.0004179655807092786,0.00041119311936199665,0.0028615312185138464
1772744445487750700,4.070750732421875,-0.001871253363788128,-0.0008567229378968477,0.000392066256608814
1772744445497777700,4.080777587890625,-0.002278184285387397,0.0011313266586512327,0.0008051224867813289
1772744445507805700,4.0908056640625,0.0029259533621370792,0.0009670266881585121,-0.00045340016367845237
1772744445517833700,4.100833740234375,0.0007552108145318925,-0.00026575056836009026,-0.0004547317512333393
1772744445527860700,4.11086083984375,-0.00044180918484926224,0.002006357768550515,0.0006061773747205734
1772744445537888800,4.120888671875,0.001510554226115346,-0.0015521579189226031,0.00093507778365165
1772744445547915800,4.130915771484375,0.0005621799500659108,-0.0015659810742363334,-0.002141052857041359
1772744445557943600,4.140943603515625,-0.0003896338166669011,-0.0003872660454362631,-0.002508302917703986
1772744445567971600,4.1509716796875,-0.0005234412965364754,0.000988050363957882,-0.001037549925968051
1772744445577998600,4.16099853515625,-0.000692019413691014,-0.0010700407437980175,0.0012700790539383888
1772744445588027000,4.17102685546875,0.0031227250583469868,0.00047561503015458584,-0.00010150339221581817
1772744445598053600,4.1810537109375,0.0006899273139424622,-0.0009486435446888208,0.000026594672817736864
1772744445608081700,4.19108154296875,-0.0018926018383353949,0.0005066297017037868,-0.0021734447218477726
1772744445618109700,4.201109619140625,-0.00009177241008728743,-0.00018392805941402912,-0.000924422056414187
1772744445628136700,4.21113671875,-0.0030938303098082542,-0.00025183381512761116,-0.0011207282077521086
1772744445638164700,4.221164794921875,-0.0005033735651522875,0.0027815066277980804,0.0010255132801830769
1772744445648191700,4.231191650390625,0.0004954077303409576,-0.0006869302596896887,0.000041745021007955074
1772744445658219500,4.241219482421875,0.00038222334114834666,-0.00007440312765538692,-0.00074069167021662
1772744445668246800,4.251246826171875,0.002930954797193408,0.00033837417140603065,0.0006166041712276638
1772744445678274600,4.261274658203125,-0.0002826815180014819,0.0012158856261521578,0.00013270782073959708
1772744445688302800,4.271302734375,-0.00019337193225510418,0.00227784039452672,-0.0015923234168440104
1772744445698329600,4.28132958984375,-0.00034170999424532056,-0.00033205747604370117,-0.0002921681443694979
1772744445708357600,4.291357666015625,0.0006092083640396595,-0.0007801670581102371,0.0019759226124733686
1772744445718384600,4.301384521484375,0.00012184993829578161,-0.0013586056884378195,-0.0013921771897003055
1772744445728412700,4.31141259765625,0.0006151943816803396,0.0023407386615872383,-0.0006421224679797888
1772744445738440700,4.321440673828125,0.0030967278871685266,0.0009937118738889694,0.0012726903660222888
1772744445748467700,4.3314677734375,0.001484324224293232,-0.00028577353805303574,-0.001301795244216919
1772744445758495500,4.34149560546875,-0.0005825550178997219,0.001023170305415988,0.0006305944407358766
1772744445768522800,4.351522705078125,0.000032045936677604914,-0.0015433778753504157,0.0018540641758590937
1772744445778550300,4.36155029296875,0.0004086169064976275,-0.0013220692053437233,-0.0017808843404054642
1772744445788578300,4.371578369140625,-0.0014230371452867985,0.002437742194160819,-0.0017994757508859038
1772744445798605300,4.381605224609375,-0.0015969416126608849,-0.0013862906489521265,-0.0003014476678799838
1772744445808633300,4.39163330078125,0.0005426150746643543,0.0001580843236297369,0.003615261986851692
1772744445818660400,4.401660400390625,-0.002365557011216879,0.0012718185316771269,-0.00024232667055912316
1772744445828688100,4.411688232421875,-0.0024831565096974373,0.002395220333710313,-0.0008317768224515021
1772744445838715400,4.42171533203125,-0.001691931509412825,0.0014561896678060293,0.0010364307090640068
1772744445848743200,4.4317431640625,-0.0008730380795896053,-0.00028492859564721584,0.0009957089787349105
1772744445858771200,4.441771240234375,-0.0025580201763659716,-0.0008825419936329126,-0.0009888786589726806
1772744445868798200,4.451798095703125,-0.000038825441151857376,-0.0005280186887830496,0.000545225222595036
1772744445878826200,4.461826171875,0.0013233814388513565,0.0011873235926032066,-0.0008036658400669694
1772744445888853200,4.471853271484375,-0.001992148580029607,0.0019330456852912903,-0.001763819600455463
1772744445898881300,4.48188134765625,-0.00045630347449332476,-0.0006462258752435446,-0.001082316623069346
1772744445908909300,4.491909423828125,0.0019796439446508884,-0.00021368847228586674,0.0016331392107531428
1772744445918936300,4.501936279296875,0.0009316901559941471,-0.0006416584365069866,-0.0005413317121565342
1772744445928964000,4.511964111328125,0.0018710768781602383,-0.0004400827456265688,-0.0007990698795765638
1772744445938991400,4.521991455078125,-0.0008333632722496986,0.0001961465459316969,0.00013996066991239786
1772744445949019100,4.53201904296875,-0.0009273277828469872,-0.0016487152315676212,-0.0014716030564159155
1772744445959047400,4.54204736328125,-0.0014431821182370186,0.00038301036693155766,-0.00018529623048380017
1772744445969074200,4.55207421875,0.00076811428880319,-0.002668478526175022,-0.00048084091395139694
1772744445979102200,4.562102294921875,0.0009073976543731987,0.00038590095937252045,0.0009612608118914068
1772744445989129200,4.572129150390625,0.0003279178636148572,0.0011131810024380684,-0.0007673939689993858
1772744445999157200,4.5821572265625,0.0016965162940323353,-0.0006359829567372799,0.001784979598596692
1772744446009185300,4.592185302734375,-0.0011093128705397248,0.000959157245233655,0.0026530008763074875
1772744446019212300,4.60221240234375,0.0007836620789021254,0.003151471493765712,0.0005022321129217744
1772744446029240000,4.612239990234375,0.0001507337437942624,-0.0007105653639882803,0.0025383401662111282
1772744446039267300,4.622267333984375,-0.0019265320152044296,0.0001360536552965641,0.00046320504043251276
1772744446049295000,4.632295166015625,-0.0017599682323634624,0.001981531735509634,-0.0011781631037592888
1772744446059322000,4.642322021484375,0.0004065133980475366,-0.0003663112875074148,-0.0005091770435683429
1772744446069350100,4.65235009765625,-0.001065464224666357,0.000733841909095645,-0.0005271211848594248
1772744446079378200,4.662378173828125,-0.0008473513880744576,0.000697622774168849,-0.0018499132711440325
1772744446089405200,4.6724052734375,-0.002021568361669779,-0.00023648678325116634,-0.0015343595296144485
1772744446099433200,4.68243310546875,0.00009404693264514208,0.0009454239625483751,0.002034808974713087
1772744446109460200,4.692460205078125,0.0008955375524237752,-0.001764307846315205,-0.00016479234909638762
1772744446119488300,4.70248828125,-0.0009281951934099197,-0.002612258307635784,0.0002935376833193004
1772744446129516000,4.71251611328125,-0.0004447479441296309,-0.0002954211086034775,-0.00006018689600750804
1772744446139543300,4.722543212890625,0.0006641923682764173,-0.0007130047306418419,-0.000690823420882225
1772744446149571000,4.732571044921875,-0.000038805941585451365,0.0005989281926304102,0.00012167275417596102
1772744446159598000,4.74259814453125,-0.001076373504474759,-0.0008258628658950329,-0.0010671623749658465
1772744446169626000,4.752626220703125,0.00023870589211583138,0.00011794525198638439,0.001766514964401722
1772744446179654100,4.762654052734375,0.000502625189255923,-0.00034091738052666187,-0.0009951831307262182
1772744446189681400,4.772681396484375,0.00131579814478755,-0.0008203005418181419,0.0011811105068773031
1772744446199709200,4.782709228515625,-0.000059191836044192314,0.0013563008978962898,-0.0012961620232090354
1772744446209736200,4.792736083984375,0.00042416166979819536,-0.0010374444536864758,0.0013890331611037254
1772744446219764200,4.80276416015625,0.0007298925193026662,-0.0005173289682716131,0.0001679737470112741
1772744446229791200,4.812791259765625,-0.0033752082381397486,-0.0011834881734102964,-0.00016444758512079716
1772744446239819300,4.8228193359375,0.000696498726028949,0.0009169469121843576,-0.001145822461694479
1772744446249847300,4.832847412109375,0.00035892886808142066,-0.0026707351207733154,0.0004455994348973036
1772744446259874000,4.8428740234375,-0.0010962223168462515,0.0029647797346115112,0.001681838883087039
1772744446269902300,4.85290234375,0.0018038898706436157,0.00045001320540905,-0.0015150920953601599
1772744446279929000,4.86292919921875,-0.001256881165318191,0.0020383226219564676,-0.0002913696225732565
1772744446289957400,4.872957275390625,0.0012672711163759232,0.0007808802183717489,0.0018508064094930887
1772744446299985200,4.882985107421875,-0.0008938841638155282,-0.0000782553106546402,0.000952522037550807
1772744446310012200,4.89301220703125,-0.00017608603229746222,0.0021052504889667034,-0.0018167516682296991
1772744446320040200,4.903040283203125,-0.0018456217367202044,0.0008037639781832695,-0.002027674112468958
1772744446330067200,4.913067138671875,-0.0009354123612865806,-0.0017055991338565946,0.0014469340676441789
1772744446340095200,4.92309521484375,0.00009656260954216123,-0.0027825813740491867,0.0005904615391045809
1772744446350123300,4.933123291015625,-0.0015225636307150126,-0.0011556812096387148,0.0023556766100227833
1772744446360150300,4.943150390625,-0.002805674448609352,-0.00023609166964888573,-0.00015089043881744146
1772744446370178300,4.95317822265625,0.0002930362243205309,-0.00047482107765972614,-0.0015824660658836365
1772744446380205000,4.963205078125,-0.0015946123749017715,-0.00012328382581472397,0.001676177722401917
1772744446390233300,4.9732333984375,0.002011775504797697,0.00030776183120906353,0.0011694042477756739
1772744446400260000,4.983260009765625,0.00036594195989891887,0.0015780895482748747,-0.0007344895275309682
1772744446410288400,4.993288330078125,0.000003767258021980524,0.0010843202471733093,0.0006632323493249714
1772744446420316200,5.003316162109375,0.003754030680283904,-0.000008641043677926064,0.0022171868477016687
1772744446430343200,5.01334326171875,-0.0007178530213423073,-0.0026437747292220592,-0.00028427023789845407
1772744446440371200,5.02337109375,0.0021671494469046593,-0.0017406967235729098,0.0006872508674860001
1772744446450398200,5.033398193359375,-0.00039066083263605833,-0.002822442911565304,0.0015543379122391343
1772744446460426200,5.04342626953125,0.0003552905982360244,-0.0005137484986335039,0.0002975922543555498
1772744446470454300,5.053454345703125,-0.0003288427251391113,-0.0006283302791416645,-0.0008331132121384144
1772744446480481000,5.06348095703125,0.0026312607806175947,-0.0017748211976140738,-0.0013636148069053888
1772744446490509300,5.07350927734375,-0.00008270930266007781,0.0019530269782990217,-0.003523692023009062
1772744446500536300,5.083536376953125,0.002680053934454918,-0.003662514267489314,-0.000540152657777071
1772744446510564400,5.093564453125,-0.00020357119501568377,0.0013329039793461561,-0.0018395931692793965
1772744446520592100,5.103592041015625,0.0006979088648222387,0.0006279654335230589,0.0017396953189745545
1772744446530619100,5.113619140625,0.001069250050932169,-0.000978467520326376,-0.0022645490244030952
1772744446540647200,5.123647216796875,0.00016137841157615185,0.001182421576231718,0.00016611802857369184
1772744446550674200,5.133674072265625,-0.0008995109237730503,-0.0006155355367809534,0.0011391481384634972
1772744446560702200,5.1437021484375,0.0015508636133745313,-0.0014491048641502857,0.0009202362853102386
1772744446570729200,5.153729248046875,0.0015433750813826919,-0.00174977898132056,0.0013215570943430066
1772744446580757200,5.16375732421875,-0.0008683836203999817,0.0012771696783602238,-0.0020300312899053097
1772744446590785300,5.173785400390625,0.0009603588841855526,-0.0001384122297167778,0.0005578119307756424
1772744446600812300,5.183812255859375,0.0000034851254895329475,0.0003659904468804598,0.00013969559222459793
1772744446610840300,5.19384033203125,-0.00026807503309100866,0.0007647811435163021,-0.0005821364466100931
1772744446620867300,5.203867431640625,0.00277378736063838,-0.0016813324764370918,-0.0004668215988203883
1772744446630895000,5.21389501953125,0.0007464356604032218,0.0009911973029375076,-0.0020160761196166277
1772744446640923100,5.223923095703125,0.00035441835643723607,-0.0017023237887769938,-0.0007449493277817965
1772744446650950100,5.2339501953125,0.00022445828653872013,-0.0013967831619083881,-0.0010428584646433592
1772744446660978400,5.243978515625,0.002997341565787792,-0.0015352674527093768,0.0003568990505300462
1772744446671005200,5.254005126953125,-0.0017100514378398657,-0.0016725694295018911,-0.0008371610892936587
1772744446681033200,5.264033203125,0.00035709427902475,-0.0012158374302089214,-0.0009343664278276265
1772744446691061200,5.274061279296875,-0.0005869532469660044,0.00022528087720274925,0.0013673894573003054
1772744446701088300,5.284088134765625,0.00007217907113954425,0.0005805466789752245,-0.0021967189386487007
1772744446711116300,5.2941162109375,0.0017384153325110674,-0.002818450564518571,-0.0006614024750888348
1772744446721143300,5.304143310546875,0.000743991113267839,0.0020026699639856815,-0.002667028922587633
1772744446731171000,5.314171142578125,-0.0004970625159330666,-0.0002167811617255211,-0.00015084887854754925
1772744446741199400,5.324199462890625,0.0009168097749352455,0.0002929477486759424,0.0014790056739002466
1772744446751226000,5.33422607421875,-0.00034145498648285866,0.000535700237378478,0.0002717316965572536
1772744446761254400,5.34425439453125,-0.0003249433939345181,-0.0005143838934600353,0.0008778671617619693
1772744446771281700,5.35428173828125,0.002378975274041295,-0.0005909199826419353,0.0004227628814987838
1772744446781309700,5.364309814453125,0.00013180007226765156,-0.0003507027868181467,-0.0007168037118390203
1772744446791336700,5.374336669921875,0.0008614191319793463,0.00031379819847643375,-0.000955653958953917
1772744446801364700,5.38436474609375,0.00007472140714526176,0.0007574809715151787,-0.0010752298403531313
1772744446811392800,5.394392822265625,0.0019619856029748917,-0.0001306436024606228,0.0012565449578687549
1772744446821419800,5.404419677734375,-0.0012596403248608112,-0.0006225293036550283,-0.000787164899520576
1772744446831447600,5.414447509765625,-0.0005116204847581685,0.0019197158981114626,0.0003281646640971303
1772744446841474800,5.424474853515625,-0.0010330674704164267,-0.0013027088716626167,0.0012030131183564663
1772744446851502600,5.434502685546875,0.0006970942486077547,0.0006948185618966818,-0.0011042499681934714
1772744446861531000,5.44453076171875,-0.0013013419229537249,0.001388039207085967,-0.0007085041725076735
1772744446871557600,5.4545576171875,0.0013918913900852203,0.0016731822397559881,0.00038667686749249697
1772744446881585700,5.464585693359375,0.00014366774121299386,0.0013381566386669874,-0.0010117489146068692
1772744446891612700,5.47461279296875,-0.0025713802315294743,0.0008764171507209539,-0.0006351172924041748
1772744446901640700,5.484640625,-0.0010198226664215326,0.00011901441030204296,0.0017143234144896269
1772744446911668700,5.494668701171875,-0.000030048599001020193,-0.00022706598974764347,0.0010911863064393401
1772744446921695700,5.50469580078125,0.0006607753457501531,-0.00045716320164501667,-0.00011788879055529833
1772744446931723500,5.5147236328125,0.0013093710877001286,-0.0006406663451343775,-0.0016314195236191154
1772744446941750800,5.524750732421875,0.0017250904347747564,-0.0006262853275984526,0.00016142049571499228
1772744446951778600,5.534778564453125,-0.001852995716035366,-0.0010413010604679585,-0.00034609579597599804
1772744446961806800,5.544806884765625,-0.0010654990328475833,-0.0007092049345374107,0.000025681511033326387
1772744446971833600,5.55483349609375,-0.00018763591651804745,0.0020570221822708845,0.0037058237940073013
1772744446981861600,5.564861572265625,-0.0006025563925504684,0.0011408946011215448,-0.000013813376426696777
1772744446991888600,5.574888671875,0.0007801771862432361,0.0006385846063494682,0.0018900353461503983
1772744447001916700,5.584916748046875,0.0018137501319870353,-0.0016232382040470839,0.0018524848856031895
1772744447011943700,5.594943603515625,-0.000024620501790195704,-0.0005650727543979883,-0.0014338765759021044
1772744447021971700,5.6049716796875,-0.0005444695707410574,0.0011771672870963812,-0.0004019016632810235
1772744447031999500,5.61499951171875,0.00011448696022853255,-0.0011186162009835243,-0.0009367819875478745
1772744447042026800,5.62502685546875,-0.000016007921658456326,-0.0008576263207942247,0.0005220976308919489
1772744447052054500,5.635054443359375,0.0001013462315313518,0.0007095714099705219,-0.00005861686076968908
1772744447062081500,5.64508154296875,-0.0005623134784400463,-0.0016550493892282248,0.00010303698945790529
1772744447072109800,5.65510986328125,-0.0009998497553169727,0.00016732420772314072,-0.0018043394666165113
1772744447082137600,5.6651376953125,-0.0003825291059911251,0.0015761363320052624,-0.0008019257802516222
1772744447092164900,5.675164794921875,0.0009328955784440041,0.0001615537330508232,0.00003501353785395622
1772744447102192600,5.685192626953125,0.0015629995614290237,0.0026556039229035378,-0.00035993324127048254
1772744447112219600,5.6952197265625,-0.002235238905996084,-0.00011893361806869507,0.001699658576399088
1772744447122247700,5.70524755859375,-0.0016133906319737434,-0.0004030929412692785,0.0006802005809731781
1772744447132275500,5.715275390625,0.0009784918511286378,-0.0005403885152190924,0.0006569714169017971
1772744447142302700,5.725302734375,0.0013209744356572628,0.0006439192220568657,-0.000246106501435861
1772744447152330800,5.735330810546875,0.001513705588877201,0.001068031182512641,-0.0006828501936979592
1772744447162357500,5.745357421875,0.0007730803918093443,-0.002382892882451415,0.0002402014215476811
1772744447172385800,5.7553857421875,-0.0004078869824297726,0.0012839725241065025,0.0009299925877712667
1772744447182413600,5.76541357421875,0.00029598647961393,0.0004053956363350153,-0.0025188010185956955
1772744447192440800,5.77544091796875,-0.0013805930502712727,0.0007138669025152922,0.00027326715644448996
1772744447202468600,5.785468505859375,-0.002404844854027033,-0.0013412944972515106,0.0019121766090393066
1772744447212495600,5.79549560546875,-0.0019772283267229795,0.0016072564758360386,-0.003942301031202078
1772744447222523600,5.805523681640625,0.001296861912123859,-0.00043885037302970886,-0.00025648606242612004
1772744447232550700,5.815550537109375,0.0005062403506599367,-0.0014242304023355246,0.0023933209013193846
1772744447242578700,5.82557861328125,0.0036804620176553726,-0.0006154284346848726,-0.00017103695427067578
1772744447252606700,5.835606689453125,-0.0023711174726486206,0.001298902789130807,-0.0016864024801179767
1772744447262633500,5.845633544921875,0.0006960451719351113,-0.0013442845083773136,0.0003996515879407525
1772744447272661800,5.855661865234375,-0.0008387999841943383,0.001792773138731718,0.001311545493081212
1772744447282688500,5.8656884765625,0.0007489766576327384,0.0009062066674232483,-0.0007577306823804975
1772744447292716800,5.875716796875,-0.002665450796484947,-0.0010452454444020987,0.0008726460509933531
1772744447302744600,5.88574462890625,0.0015077226562425494,-0.0000931653194129467,0.0004654487711377442
1772744447312771800,5.895771728515625,0.0006357698002830148,-0.0008969027549028397,0.00019438588060438633
1772744447322799600,5.905799560546875,-0.00047423577052541077,-0.0001469566486775875,-0.000119068194180727
1772744447332826600,5.91582666015625,-0.0004791796673089266,0.0023503119591623545,-0.001094636507332325
1772744447342854700,5.925854736328125,0.0011815675534307957,0.0014552234206348658,0.00022362818708643317
1772744447352882700,5.935882568359375,0.000007169670425355434,-0.0006397969555109739,0.0009578642202541232
1772744447362909700,5.94590966796875,-0.0002495590306352824,0.0014912644401192665,-0.0005454901838675141
1772744447372937700,5.955937744140625,-0.0017203101888298988,-0.0024908375926315784,0.0015357014490291476
1772744447382964700,5.96596484375,0.003057400695979595,0.00020827632397413254,-0.0008717962773516774
1772744447392992800,5.97599267578125,-0.00047930539585649967,0.0008193217217922211,-0.0014768117107450962
1772744447403020500,5.9860205078125,0.0005510716000571847,0.0010294453240931034,0.0019967490807175636
1772744447413047800,5.9960478515625,-0.0013899914920330048,0.00042845355346798897,0.00007852993439882994
1772744447423075600,6.00607568359375,-0.00025388706126250327,0.0004801189061254263,0.0020593893714249134
1772744447433102600,6.0161025390625,0.00007160025415942073,-0.0013783511240035295,0.0026723062619566917
1772744447443130600,6.026130615234375,-0.0005952552892267704,0.00035323621705174446,0.001531141810119152
1772744447453157600,6.03615771484375,-0.0001234589726664126,0.00045445188879966736,0.0007461908971890807
1772744447463185700,6.046185546875,-0.0004550224984996021,0.0006746952421963215,0.0000921185128390789
1772744447473213700,6.056213623046875,-0.002161862561479211,-0.0003690121229737997,-0.0004760686424560845
1772744447483240700,6.06624072265625,-0.0012774267233908176,0.0018003988079726696,-0.0016771543305367231
1772744447493268700,6.076268798828125,-0.0005005750572308898,0.0003097192384302616,0.00020255072740837932
1772744447503295700,6.086295654296875,0.002525574993342161,-0.0005254480056464672,0.0007599503151141107
1772744447513323800,6.09632373046875,0.0011691341642290354,-0.00039442675188183784,0.0006491077365353703
1772744447523351600,6.1063515625,-0.00029933289624750614,0.0002676350995898247,0.0005931813502684236
1772744447533378600,6.116378662109375,0.00005025370046496391,-0.00006898748688399792,0.0007294507813639939
1772744447543406800,6.12640673828125,0.0020984909497201443,-0.002524422015994787,0.0006575454608537257
1772744447553433600,6.13643359375,-0.0007958478527143598,-0.0005739622283726931,0.0015292325988411903
1772744447563462000,6.1464619140625,0.00030030927155166864,0.0019246155861765146,-0.00039356964407488704
1772744447573489700,6.15648974609375,0.00044280372094362974,0.001365936128422618,0.0006116098375059664
1772744447583516700,6.1665166015625,0.00006490119267255068,0.000770186772570014,-0.00020651330123655498
1772744447593544700,6.176544677734375,0.0015831462806090713,-0.00035043247044086456,0.0008568919147364795
1772744447603571700,6.18657177734375,0.0020659775473177433,-0.0004399146419018507,0.0005029577878303826
1772744447613599700,6.196599853515625,-0.0015369002940133214,-0.002705452498048544,0.0011398445349186659
1772744447623627800,6.206627685546875,-0.0001230281195603311,0.0014397578779608011,0.00045860797399654984
1772744447633654500,6.216654541015625,0.00002534984378144145,0.002724580466747284,0.0000444369507022202
1772744447643682800,6.226682861328125,-0.0010191418696194887,-0.0012547147925943136,-0.00027807187871076167
1772744447653709600,6.23670947265625,-0.00036729880957864225,-0.00044734892435371876,0.0003840257413685322
1772744447663737900,6.24673779296875,0.0003440314903855324,-0.00025293813087046146,-0.0010929633863270283
1772744447673765600,6.256765625,-0.0010598062071949244,-0.00023981253616511822,0.00026678736321628094
1772744447683792600,6.266792724609375,0.0001229036133736372,0.0015586202498525381,0.003348064608871937
1772744447693820700,6.276820556640625,0.0015642244834452868,-0.0007583200931549072,-0.0007133272010833025
1772744447703847700,6.28684765625,0.001916827168315649,-0.0013881574850529432,-0.0000049263471737504005
1772744447713875700,6.296875732421875,-0.00035990108153782785,-0.0011051665060222149,-0.0012913714163005352
1772744447723902700,6.30690283203125,-0.00039558744174428284,0.000910846283659339,-0.001118266023695469
1772744447733930500,6.316930419921875,-0.00020014334586448967,0.0002067850437015295,-0.0008307166281156242
1772744447743958800,6.326958740234375,-0.00018469701171852648,-0.0004784462507814169,0.00002921809209510684
1772744447753985500,6.336985595703125,-0.00218401663005352,0.0014598749112337828,-0.0009115464054048061
1772744447764013800,6.347013916015625,0.0005598380812443793,-0.002801715163514018,0.003949787933379412
1772744447774040800,6.357040771484375,-0.002209592377766967,0.0007525109685957432,-0.001807567896321416
1772744447784068900,6.36706884765625,-0.0012556479778140783,-0.0027854987420141697,-0.000873064564075321
1772744447794097000,6.377096923828125,-0.0013110036961734295,0.00015066820196807384,-0.0011726194061338902
1772744447804124000,6.3871240234375,-0.00015199603512883186,-0.0007561380043625832,-0.0006019040010869503
1772744447814152000,6.39715185546875,-0.0004273541271686554,0.0013654385693371296,0.0005919926916249096
1772744447824179000,6.407178955078125,-0.0003354750806465745,-0.0016404710477218032,-0.0008431847672909498
1772744447834206700,6.417206787109375,-0.0008045803988352418,-0.0005538738332688808,0.0017397913616150618
1772744447844235000,6.427235107421875,-0.0014152431394904852,-0.0005653253756463528,-0.002403554506599903
1772744447854261800,6.43726171875,-0.00001894088927656412,-0.0008978522382676601,-0.00007393595296889544
1772744447864290000,6.4472900390625,0.0003941153991036117,0.0021788976155221462,-0.0015796872321516275
1772744447874317000,6.457317138671875,0.00024319346994161606,0.00018086773343384266,0.0017675487324595451
1772744447884344800,6.4673447265625,0.0019380291923880577,-0.00013817893341183662,0.0022892621345818043
1772744447894372900,6.477372802734375,-0.0029336297884583473,0.0008962354622781277,-0.0020785427186638117
1772744447904400000,6.48739990234375,0.001567644882015884,-0.001782371778972447,-0.0002950237540062517
1772744447914428000,6.497427978515625,-0.000985995982773602,-0.0012758891098201275,0.0008566433098167181
1772744447924455000,6.507454833984375,0.0017437442438676953,0.0002540969289839268,-0.0013766835909336805
1772744447934482700,6.517482666015625,0.000036195386201143265,0.00008042948320508003,-0.0031655088532716036
1772744447944511000,6.527510986328125,0.0007459278567694128,0.00087751355022192,0.0004340196610428393
1772744447954538000,6.5375380859375,0.0013632549671456218,-0.0014552943175658584,0.0006185546517372131
1772744447964566000,6.54756591796875,-0.0023009884171187878,-0.00016312859952449799,0.00016128987772390246
1772744447974593000,6.557593017578125,0.00044699362479150295,0.000870441785082221,-0.0010353323305025697
1772744447984621000,6.56762109375,-0.003016447415575385,-0.0007604782003909349,0.0001383227063342929
1772744447994648000,6.57764794921875,0.0008952055359259248,-0.0004698436241596937,-0.0005801576771773398
1772744448004675800,6.58767578125,0.0007543243700638413,0.005086575634777546,-0.002472599968314171
1772744448014703900,6.597703857421875,0.0006798173999413848,-0.0018823457648977637,-0.00005445827264338732
1772744448024731000,6.60773095703125,0.000496325665153563,-0.0014866000274196267,0.002672352362424135
1772744448034759200,6.61775927734375,-0.0004663814033847302,0.00025516818277537823,0.0005717754829674959
1772744448044786000,6.627785888671875,0.0015011619543656707,-0.001034068176522851,0.0017076138174161315
1772744448054814000,6.63781396484375,-0.0004725154722109437,0.0013252829667180777,-0.0011891769245266914
1772744448064842000,6.647842041015625,0.0002963391598314047,-0.00018845777958631516,-0.00023496628273278475
1772744448074869000,6.657868896484375,-0.0011531886411830783,0.0019413374830037355,0.0018891299841925502
1772744448084897000,6.66789697265625,-0.0006623680237680674,-0.00017001689411699772,0.0004243913572281599
1772744448094924000,6.677924072265625,0.0005868859007023275,0.0005638035945594311,-0.0029932730831205845
1772744448104951800,6.687951904296875,0.001224979292601347,0.00139897083863616,-0.001381794223561883
1772744448114980000,6.69797998046875,0.0016681649722158909,-0.0026239329017698765,0.0014781788922846317
1772744448125006800,6.7080068359375,0.0007453797152265906,-0.000899802427738905,-0.001231587491929531
1772744448135035100,6.71803515625,-0.0021283775568008423,0.0009115762077271938,0.0010044402442872524
1772744448145062000,6.728061767578125,-0.0023076082579791546,-0.0003204022068530321,-0.0014699026942253113
1772744448155089000,6.7380888671875,0.0008260688628070056,-0.0025880015455186367,0.000836979947052896
1772744448165117000,6.748116943359375,-0.0009438680135644972,0.0005366853438317776,0.0016337977722287178
1772744448175144000,6.75814404296875,-0.000621717656031251,-0.0014679201412945986,-0.00044680063729174435
1772744448185172000,6.768171875,-0.001011870801448822,0.0007273235823959112,0.00047225627349689603
1772744448195199000,6.778198974609375,0.0001498442143201828,0.0008573911618441343,-0.0012908123899251223
1772744448205227000,6.78822705078125,-0.0007692126673646271,0.0018118678126484156,-0.0018514078110456467
1772744448215255000,6.798255126953125,-0.00016388617223128676,-0.0017530681798234582,-0.00006576196756213903
1772744448225282000,6.808281982421875,0.00021268479758873582,-0.0005589067004621029,-0.000945936655625701
1772744448235309800,6.818309814453125,0.0013259757542982697,0.003138034138828516,-0.00360002345405519
1772744448245337000,6.828337158203125,0.00109454698394984,-0.0006042397581040859,-0.0008479127427563071
1772744448255364900,6.83836474609375,0.0011438868241384625,0.00035412516444921494,-0.0006900252192281187
1772744448265393000,6.848392822265625,0.00160567881539464,-0.0002956860698759556,0.0011528822360560298
1772744448275420000,6.858419921875,-0.0009656407055445015,-0.00019630836322903633,-0.0003520034661050886
1772744448285448000,6.868447998046875,0.0013726147590205073,-0.0007209510076791048,0.0015337809454649687
1772744448295475000,6.878474853515625,-0.0005946421297267079,0.0002766670659184456,-0.00037931761471554637
1772744448305503000,6.8885029296875,-0.0011371280997991562,0.0008633614052087069,0.0012713096803054214
1772744448315531000,6.898531005859375,-0.000016871315892785788,0.002147313207387924,-0.0008331170538440347
1772744448325558000,6.90855810546875,-0.0025117206387221813,0.0008865729905664921,-0.0001313741086050868
1772744448335585800,6.918585693359375,-0.0008606990450061858,-0.0002583595924079418,-0.0027186404913663864
1772744448345613000,6.928613037109375,-0.0014857429778203368,-0.0002764691598713398,-0.0002158015558961779
1772744448355640800,6.938640869140625,-0.0010443683713674545,0.00025106361135840416,0.00014611671213060617
1772744448365669000,6.948669189453125,-0.0010536893969401717,0.0012795766815543175,0.001672108075581491
1772744448375696000,6.95869580078125,-0.002329782582819462,0.0012273124884814024,0.0004418267053551972
1772744448385724000,6.968723876953125,-0.0004096433403901756,0.00019214185886085033,0.0007954944740049541
1772744448395751000,6.9787509765625,-0.0005361025687307119,-0.00021636765450239182,0.000300507468637079
1772744448405779000,6.988779052734375,0.0010191835463047028,-0.002445167163386941,-0.000916024437174201
1772744448415805700,6.9988056640625,0.0008243673364631832,-0.0026193945668637753,0.001765907509252429
1772744448425834000,7.008833984375,0.0006730998284183443,0.001284000463783741,0.001084937248378992
1772744448435861800,7.01886181640625,-0.0022775079123675823,-0.0017180423019453883,-0.0004122200480196625
1772744448445889000,7.028888916015625,-0.0012900077272206545,0.0006894553080201149,-0.00041541585233062506
1772744448455916800,7.038916748046875,0.0006272385362535715,-0.001418801723048091,0.00000603025546297431
1772744448465943800,7.04894384765625,-0.00018795509822666645,-0.0011639371514320374,-0.0007375243003480136
1772744448475971800,7.058971923828125,0.0015328701119869947,-0.0016031403793022037,-0.00015319226076826453
1772744448485999900,7.068999755859375,0.0018860052805393934,0.0013116893824189901,-0.0003617177717387676
1772744448496027000,7.07902685546875,0.000912681978661567,0.0017080164980143309,-0.00034250321914441884
1772744448506055000,7.089054931640625,-0.00034033533302135766,-0.00010479730553925037,-0.00004289759090170264
1772744448516082000,7.09908203125,0.0007856646552681923,-0.0009840026032179594,0.0016315039247274399
1772744448526110000,7.10910986328125,0.0018117805011570454,-0.0003147500101476908,0.0019420285243541002
1772744448536137700,7.1191376953125,-0.0006128910463303328,-0.0009086376521736383,-0.00018859072588384151
1772744448546165000,7.1291650390625,-0.001197188626974821,-0.0021406158339232206,0.00007346429629251361
1772744448556192800,7.13919287109375,0.0028955982998013496,-0.0006794065702706575,0.00154010858386755
1772744448566220000,7.149219970703125,-0.0005438741063699126,0.0026972151827067137,0.0012508893851190805
1772744448576247800,7.159247802734375,-0.0005998212727718055,0.00024995021522045135,-0.00006362213753163815
1772744448586275800,7.16927587890625,0.00020152388606220484,0.0009234638419002295,0.00022266764426603913
1772744448596303000,7.17930322265625,-0.000984160928055644,0.001003412064164877,-0.0015858063707128167
1772744448606331000,7.189330810546875,-0.002652897732332349,-0.0012235234025865793,0.00017747253878042102
1772744448616358100,7.199358154296875,0.0014681215398013592,0.0003967816010117531,-0.0013218187959864736
1772744448626386000,7.209385986328125,0.00020178849808871746,0.0007589715532958508,0.001246799947693944
1772744448636413700,7.21941357421875,-0.00042882049456238747,0.0005650192033499479,-0.0007408637902699411
1772744448646441000,7.22944091796875,0.0006207312690094113,0.0017093794886022806,0.0015787495067343116
1772744448656469000,7.239468994140625,-0.0022651092149317265,-0.0006812801584601402,0.00024355330970138311
1772744448666496000,7.24949609375,-0.001329807098954916,0.000729396240785718,0.002085661981254816
1772744448676524000,7.25952392578125,-0.00018053443636745214,-0.0003169672563672066,0.0013155504129827023
1772744448686552000,7.269552001953125,0.0006591602577827871,-0.0005720981862396002,-0.002873868215829134
1772744448696579000,7.2795791015625,-0.0004170360043644905,-0.0012506006751209497,0.00008863303810358047
1772744448706606800,7.28960693359375,0.0010519636562094092,0.002674632240086794,-0.0017058048397302628
1772744448716634000,7.299634033203125,-0.0007196597289294004,0.00019168364815413952,0.0006369572365656495
1772744448726662000,7.309661865234375,-0.000688500760588795,0.00047610909678041935,0.0014268509112298489
1772744448736689000,7.31968896484375,0.0012651849538087845,-0.0006612201686948538,0.0006151327397674322
1772744448746717000,7.329717041015625,-0.0006525572971440852,-0.00002339296042919159,-0.0022232644259929657
1772744448756745000,7.339744873046875,0.0010635978542268276,-0.0000837128609418869,0.0009491514647379518
1772744448766772000,7.34977197265625,-0.0007553411996923387,0.00035304552875459194,0.0013643382117152214
1772744448776799200,7.35979931640625,0.0007390564423985779,0.000278921565040946,-0.0017078400123864412
1772744448786826500,7.369826416015625,-0.0014372788136824965,-0.00046916049905121326,-0.0022266237065196037
1772744448796854300,7.379854248046875,0.0016968018608167768,-0.0009458777494728565,-0.0020580447744578123
1772744448806882300,7.38988232421875,0.000984140089713037,-0.0004444045480340719,0.0015396194066852331
1772744448816909300,7.399909423828125,-0.0011520676780492067,-0.0005643866024911404,0.0013822992332279682
1772744448826937000,7.40993701171875,-0.0006631112773902714,0.0006548084784299135,0.0020339747425168753
1772744448836964400,7.41996435546875,-0.0022840260062366724,-0.0007024025544524193,0.00017051200848072767
1772744448846992100,7.4299921875,-0.001042193965986371,0.00022544292733073235,0.0014469651505351067
1772744448857020400,7.4400205078125,-0.0004504287790041417,0.0006871335208415985,-0.000570697826333344
1772744448867047400,7.45004736328125,0.0002758152550086379,-0.0009541725739836693,-0.001145408023148775
1772744448877075200,7.4600751953125,0.00044089258881285787,-0.0002087494358420372,0.0007723100716248155
1772744448887102500,7.4701025390625,-0.0016329109203070402,-0.0009118239395320415,-0.0008692623814567924
1772744448897130200,7.480130126953125,-0.0006653827149420977,-0.0017341928323730826,-0.0017529650358483195
1772744448907158300,7.490158203125,0.0017932476475834846,0.001096480991691351,-0.0008149996865540743
1772744448917185300,7.500185302734375,0.0004741699667647481,0.0013689175248146057,0.0004694164381362498
1772744448927213300,7.51021337890625,0.00006404315354302526,0.0013548028655350208,-0.0006504427874460816
1772744448937240300,7.520240234375,-0.002342022256925702,0.001516228774562478,-0.0012469894718378782
1772744448947268400,7.530268310546875,0.0002771966392174363,-0.0010145732667297125,0.001683552865870297
1772744448957296400,7.54029638671875,0.0018552916590124369,-0.0005490179173648357,0.0017606266774237156
1772744448967323400,7.550323486328125,-0.0002547308977227658,-0.0000954815186560154,0.0022093693260103464
1772744448977351200,7.56035107421875,0.00262729125097394,0.0022913231514394283,-0.0027031521312892437
1772744448987378400,7.57037841796875,-0.0012201776262372732,-0.0007020698394626379,-0.00015557213919237256
1772744448997406200,7.58040625,0.0008254314307123423,-0.0007211463525891304,0.00044592120684683323
1772744449007434500,7.5904345703125,0.0015404900768771768,0.0009816789533942938,-0.0005801947554573417
1772744449017461200,7.600461181640625,-0.0016505609964951873,0.000024663051590323448,0.0008832279127091169
1772744449027489300,7.6104892578125,-0.0013189974706619978,0.0021035263780504465,-0.0008443646365776658
1772744449037516300,7.620516357421875,-0.0009795741643756628,-0.000467970734462142,0.0008086095913313329
1772744449047544300,7.63054443359375,-0.0011731858830899,-0.0016701215645298362,-0.0017778524197638035
1772744449057572400,7.640572265625,0.0000683252583257854,0.0012400327250361443,0.0001946472330018878
1772744449067599400,7.650599365234375,0.00042385730193927884,0.0007982142269611359,0.0005951866623945534
1772744449077627400,7.66062744140625,0.0006694624898955226,-0.0012021632865071297,-0.0007584845880046487
1772744449087654400,7.670654296875,0.0005360381910577416,0.002177654532715678,0.0003392703947611153
1772744449097682200,7.68068212890625,-0.0006156673771329224,-0.0009087750222533941,-0.000524824601598084
1772744449107710500,7.69071044921875,-0.0020953197963535786,0.003025779267773032,-0.0021693266462534666
1772744449117737200,7.7007373046875,-0.000970735214650631,0.0017922348342835903,-0.00020961026893928647
1772744449127765500,7.710765625,-0.0007709981291554868,-0.0028536496683955193,0.0016604614211246371
1772744449137792300,7.720792236328125,-0.000977029325440526,-0.0007856169249862432,-0.00007146102143451571
1772744449147820300,7.7308203125,-0.001048934762366116,-0.0005456660874187946,0.0003863363526761532
1772744449157848300,7.740848388671875,-0.0032371736597269773,-0.0006985247600823641,0.0007103197276592255
1772744449167875300,7.750875244140625,0.0017072511836886406,-0.0025848415680229664,-0.001034050714224577
1772744449177903400,7.7609033203125,-0.0003734356723725796,-0.00030575203709304333,0.0004819791647605598
1772744449187930400,7.770930419921875,0.0012566852383315563,0.0019310370553284883,0.0017762754578143358
1772744449197958100,7.780958251953125,-0.0015005283057689667,0.0010420067701488733,-0.0013139138463884592
1772744449207985400,7.7909853515625,-0.004214821849018335,0.0012318904045969248,-0.0018630576087161899
1772744449218013200,7.80101318359375,-0.0005406799609772861,0.00032946933060884476,-0.0001709235948510468
1772744449228041500,7.81104150390625,0.000227109354455024,0.0011933986097574234,-0.0014396535698324442
1772744449238068200,7.821068115234375,-0.0009412516374140978,-0.0005214822012931108,0.0010676449164748192
1772744449248096300,7.83109619140625,0.00035464251413941383,0.0007136918138712645,0.0017254456179216504
1772744449258123500,7.84112353515625,0.0002814537729136646,0.00028173276223242283,-0.0018088576616719365
1772744449268151300,7.8511513671875,0.0006995699950493872,0.0005320697091519833,-0.0009531840332783759
1772744449278179300,7.861179443359375,-0.0013993778266012669,-0.0008418147917836905,-0.00012027076445519924
1772744449288206300,7.871206298828125,0.00010237866081297398,0.0010445020161569118,0.001707190414890647
1772744449298234000,7.881234130859375,-0.0011286343215033412,-0.00003745080903172493,-0.0004147891595494002
1772744449308261400,7.891261474609375,0.0016290688654407859,-0.00029923953115940094,0.0011676610447466373
1772744449318289200,7.9012890625,-0.0004656527889892459,-0.0008322331123054028,-0.0012489785440266132
1772744449328317400,7.9113173828125,0.001381515758112073,-0.0016799173317849636,-0.0014793418813496828
1772744449338344400,7.921344482421875,-0.0006447461200878024,0.0021900776773691177,0.00084392522694543
1772744449348372200,7.931372314453125,-0.002058618236333132,-0.0002674874849617481,-0.0010666265152394772
1772744449358399500,7.9413994140625,-0.001542933052405715,-0.0011116189416497946,0.00042197771836072206
1772744449368427300,7.95142724609375,-0.00012746287393383682,-0.0004799170419573784,-0.002901114523410797
1772744449378455300,7.961455322265625,0.0005569147760979831,-0.0016812040703371167,-0.0008672680705785751
1772744449388482300,7.971482421875,-0.0018583058845251799,0.00016782875172793865,0.0001250257482752204
1772744449398510300,7.98151025390625,0.0003723028930835426,-0.00045379879884421825,-0.000003199267666786909
1772744449408537300,7.991537353515625,-0.0007118700304999948,-0.00018908060155808926,-0.0007733854581601918
1772744449418565400,8.0015654296875,0.0010032355785369873,0.0012650671415030956,0.0004321266897022724
1772744449428593400,8.011593505859375,-0.0007073126616887748,-0.002828211523592472,-0.0011958637041971087
1772744449438620400,8.021620361328125,-0.0005839924560859799,-0.0011893459595739841,-0.00037838550633750856
1772744449448648200,8.031648193359375,0.0013369456864893436,-0.0003264816477894783,-0.0022900025360286236
1772744449458675500,8.041675537109375,-0.0013941500801593065,-0.0003728549927473068,-0.00002663105260580778
1772744449468703200,8.051703125,0.0008152083028107882,0.0002766901161521673,0.0005038706585764885
1772744449478731500,8.0617314453125,0.0009440628928132355,0.0025754014495760202,0.00013978168135508895
1772744449488758300,8.07175830078125,0.0003645590040832758,-0.0007660668343305588,0.0013256873935461044
1772744449498786300,8.081786376953126,-0.0005602525779977441,0.0038105384446680546,0.0004956682096235454
1772744449508813300,8.091813232421876,0.0004951581940986216,-0.0022628004662692547,-0.000989842927083373
1772744449518841300,8.10184130859375,0.001957069616764784,0.00012151198461651802,-0.00030066046747379005
1772744449528869400,8.111869384765624,-0.00007891686982475221,-0.0003365518059581518,0.0028266895096749067
1772744449538896400,8.121896484375,-0.0005332757136784494,0.0002697261516004801,0.0018929310608655214
1772744449548924200,8.131924072265624,-0.0010323520982638001,0.00041114003397524357,0.0006265980773605406
1772744449558951400,8.141951416015624,-0.0007063652737997472,-0.0005952930077910423,0.0017052220646291971
1772744449568979200,8.151979248046874,0.00005503243301063776,0.0004840861074626446,-0.0016586165875196457
1772744449579007500,8.162007568359375,-0.0021486934274435043,0.0014060854446142912,0.0014306078664958477
1772744449589034200,8.1720341796875,0.00036879268009215593,-0.00002403208054602146,-0.0019153878092765808
1772744449599062300,8.182062255859375,0.00125506694894284,-0.0006440794095396996,-0.0015718680806457996
1772744449609089300,8.19208935546875,-0.0003281823010183871,-0.0005330254789441824,0.0024388525635004044
1772744449619117300,8.202117431640625,-0.0007126349373720586,-0.002789901103824377,0.00020499731181189418
1772744449629145300,8.212145263671875,0.0001800566678866744,-0.00024338648654520512,0.0005778399063274264
1772744449639172400,8.22217236328125,0.00046046311035752296,-0.001175066689029336,0.0038728031795471907
1772744449649200000,8.2322001953125,-0.0032237539999186993,0.0003610446583479643,-0.0022892188280820847
1772744449659227400,8.242227294921875,-0.0006626517279073596,0.00030899024568498135,0.0004017122555524111
1772744449669255200,8.252255126953125,0.000445755897089839,0.00008475198410451412,-0.0016707597533240914
1772744449679283500,8.262283447265625,-0.00018099756562151015,0.0017899293452501297,-0.0032264466863125563
1772744449689310200,8.272310302734375,0.0007439182954840362,-0.0001728201750665903,-0.000014674384146928787
1772744449699338200,8.282338134765626,0.00010644178837537766,-0.0016379253938794136,0.0027807019650936127
1772744449709365200,8.292365234375,-0.0008789278217591345,-0.0005007556173950434,-0.0013525240356102586
1772744449719393300,8.302393310546876,0.002031588228419423,-0.00019005709327757359,-0.0015665208920836449
1772744449729421300,8.31242138671875,-0.0010651354677975178,-0.0008486569859087467,0.0014455142663791776
1772744449739448300,8.3224482421875,-0.0009371805936098099,0.002224850468337536,-0.0010192859917879105
1772744449749476000,8.33247607421875,0.0006769612664356828,0.0011441395618021488,-0.0016773530514910817
1772744449759503400,8.34250341796875,0.0022549773566424847,-0.0017259193118661642,0.0020361500792205334
1772744449769531100,8.35253125,-0.0010902192443609238,-0.00042203557677567005,-0.0013599127996712923
1772744449779559000,8.362558837890624,-0.0012512777466326952,0.0009498815052211285,0.0005113835213705897
1772744449789587000,8.3725869140625,0.0004145295242778957,0.00020659319125115871,-0.0008944992441684008
1772744449799615000,8.382614990234375,-0.0013080084463581443,-0.00025487691164016724,0.0006401044665835798
1772744449809641700,8.392641845703125,-0.0015575466677546501,-0.001785928150638938,-0.0004435357404872775
1772744449819670000,8.402669921875,-0.0019321106374263763,-0.001281397184357047,0.0009531965479254723
1772744449829696800,8.41269677734375,0.0021965878549963236,-0.00022358959540724754,0.002735650399699807
1772744449839725000,8.42272509765625,0.0015050133224576712,-0.00077979383058846,0.0017221670132130384
1772744449849752800,8.4327529296875,0.0008006072021089494,-0.000011205673217773438,-0.0005998432170599699
1772744449859779800,8.44277978515625,-0.00043168538832105696,0.00015170243568718433,0.0012447459157556295
1772744449869807900,8.452807861328125,0.0006402369472198188,-0.0010744170285761356,-0.0008737986790947616
1772744449879835000,8.4628349609375,0.0005138443084433675,-0.0013151979073882103,0.0006065552588552237
1772744449889863000,8.47286279296875,0.0022494264412671328,-0.000023830914869904518,0.0001042830990627408
1772744449899891000,8.482890869140626,-0.0010152722243219614,-0.0016652736812829971,-0.0005977007676847279
1772744449909918000,8.49291796875,0.000017501646652817726,0.00072491355240345,-0.002492806175723672
1772744449919946000,8.502946044921876,-0.000121255376143381,-0.0014655975392088294,-0.0013882714556530118
1772744449929973000,8.512972900390626,0.0010007343953475356,0.0005528121255338192,-0.0005789368296973407
1772744449940001000,8.5230009765625,-0.0000858099665492773,0.001454619923606515,0.0006483428878709674
1772744449950028800,8.53302880859375,0.001215410535223782,-0.001353417057543993,0.000047800131142139435
1772744449960055800,8.543055908203126,-0.0010633335914462805,-0.0015849308110773563,0.0006520635797642171
1772744449970083800,8.553083740234374,-0.0018340524984523654,-0.0031553967855870724,-0.00007418048335239291
1772744449980110800,8.56311083984375,-0.0007847397355362773,-0.001456179772503674,-0.0013950611464679241
1772744449990139000,8.573138916015624,0.0003002320881932974,0.0009747536387294531,0.002419384429231286
1772744450000167000,8.5831669921875,-0.001863851211965084,0.0006458929274231195,-0.0014047982404008508
1772744450010194000,8.59319384765625,0.0017777553293853998,0.0005534810479730368,-0.001979508437216282
1772744450020222000,8.603221923828125,-0.00043497534352354705,-0.0017439195653423667,0.00018800358520820737
1772744450030249000,8.6132490234375,-0.0018898602575063705,0.0009887497872114182,-0.0011947096791118383
1772744450040277000,8.623277099609375,0.0008452973561361432,0.00022756983526051044,-0.0013671506894752383
1772744450050304800,8.6333046875,-0.0021456987597048283,-0.0003934791311621666,-0.0019333387026563287
1772744450060331800,8.643331787109375,-0.0008192848181352019,-0.00034549529664218426,0.0007770908996462822
1772744450070360000,8.653360107421875,-0.0010432566050440073,0.0010188422165811062,-0.0010181460529565811
1772744450080386800,8.66338671875,-0.0017364493105560541,-0.0004120301455259323,-0.0011154029052704573
1772744450090415000,8.6734150390625,-0.0009324409766122699,-0.00046848924830555916,-0.0009601406054571271
1772744450100443000,8.68344287109375,0.003391725942492485,-0.00046372530050575733,0.0009789392352104187
1772744450110470000,8.693469970703125,0.0010212461929768324,-0.0014134085504338145,-0.0016551932785660028
1772744450120498000,8.703497802734375,-0.0014489763416349888,-0.00005314173176884651,0.002027673413977027
1772744450130525000,8.71352490234375,-0.0003163339861202985,-0.0027637069579213858,0.0003283103578723967
1772744450140553000,8.723552978515626,-0.0000287606380879879,-0.00045002950355410576,-0.0006892692181281745
1772744450150581000,8.7335810546875,0.0008777793846093118,0.00026130094192922115,0.0012926552444696426
1772744450160607700,8.743607666015626,-0.002050593728199601,-0.002401072531938553,-0.00045050826156511903
1772744450170636000,8.753635986328124,-0.00024363893317058682,0.000568085815757513,-0.0004688840708695352
1772744450180662800,8.763662841796876,0.002062563318759203,-0.0013781507732346654,0.000994636444374919
1772744450190691000,8.773691162109374,0.0029800222255289555,0.0005702178459614515,-0.0004818200250156224
1772744450200718800,8.78371875,0.0007662561256438494,0.0006245039403438568,-0.0001221757265739143
1772744450210745900,8.793745849609374,-0.0010002185590565205,-0.0011177361011505127,0.000038679223507642746
1772744450220774000,8.80377392578125,0.00018431188073009253,-0.0003398193512111902,0.0010629331227391958
1772744450230801000,8.81380078125,-0.00006655787001363933,0.000724380137398839,-0.0019451073603704572
1772744450240829000,8.823828857421875,-0.0010688711190596223,0.0002021824475377798,-0.0009017306147143245
1772744450250857000,8.83385693359375,-0.00026725963107310236,-0.001640991191379726,0.00021626439411193132
1772744450260884000,8.843884033203125,0.0017183199524879456,0.00021817022934556007,0.0015061649028211832
1772744450270912000,8.853912109375,0.0012048627249896526,-0.0016508360859006643,0.0008813872700557113
1772744450280938800,8.863938720703125,0.0010015422012656927,-0.00011442694813013077,0.001381631474941969
1772744450290967000,8.873967041015625,-0.0010746581247076392,-0.0006177644245326519,-0.0007587509462609887
1772744450300994800,8.883994873046875,0.0010888304095715284,-0.0016054168809205294,0.000954566290602088
1772744450311022000,8.89402197265625,-0.00002889829920604825,0.00047477823682129383,-0.0010590498568490148
1772744450321049900,8.9040498046875,-0.0005388575373217463,-0.00047472165897488594,0.0009422063594684005
1772744450331076900,8.914076904296875,-0.00007600017124786973,-0.0017197495326399803,0.00024419190594926476
1772744450341105000,8.92410498046875,-0.000120513082947582,0.00006725965067744255,-0.00065427809022367
1772744450351133000,8.9341328125,-0.0005114651285111904,0.00014821975491940975,0.0008227110956795514
1772744450361160000,8.944159912109376,0.0013183730188757181,-0.00043500703759491444,0.0008804156677797437
1772744450371188000,8.95418798828125,-0.0009205465321429074,0.00016340520232915878,0.00011528952745720744
1772744450381215000,8.964215087890626,0.0007018922478891909,-0.0028138787019997835,-0.002131354995071888
1772744450391243000,8.974242919921876,0.0005410373560152948,-0.0016085319221019745,0.0008961265557445586
1772744450401270800,8.984270751953124,-0.001473183510825038,0.00044232397340238094,-0.0010707168839871883
1772744450411298000,8.994298095703124,0.0005950273480266333,-0.0006080267485231161,0.00021159520838409662
1772744450421325800,9.004325927734374,-0.00007691897917538881,0.00008723954670131207,-0.000015820551197975874
1772744450431352800,9.014352783203124,0.002520462032407522,0.0005884463898837566,0.00015888281632214785
1772744450441380900,9.024380859375,-0.0007362277247011662,-0.00019768835045397282,0.00045545713510364294
1772744450451409000,9.034408935546875,-0.004047602415084839,0.0021565461065620184,0.002227790653705597
1772744450461436200,9.044436279296875,0.0014529235195368528,-0.000493776286020875,0.001078919623978436
1772744450471464000,9.0544638671875,0.001355718239210546,-0.0005065593868494034,0.0013431052211672068
1772744450481491000,9.064490966796875,-0.0029780352488160133,0.0022266230080276728,0.002346484921872616
1772744450491519000,9.07451904296875,-0.00005361816147342324,0.0013294036034494638,0.0008473916677758098
1772744450501546800,9.084546630859375,-0.0002545204770285636,0.0004722613375633955,-0.0013045857194811106
1772744450511574000,9.094573974609375,-0.0021568164229393005,0.0004240581765770912,-0.000056894728913903236
1772744450521601800,9.104601806640625,-0.0012962303590029478,-0.0007341613527387381,-0.00009536181460134685
1772744450531628800,9.11462890625,0.0010513460729271173,0.0015617497265338898,0.00027748075081035495
1772744450541657000,9.124656982421875,-0.0025811167433857918,-0.0013951795408502221,-0.00028081779601052403
1772744450551684900,9.134684814453125,0.0003483605687506497,0.0010274979285895824,-0.001113854581490159
1772744450561712000,9.144712158203125,0.0009574793512001634,0.001239631325006485,-0.0019468808313831687
1772744450571740000,9.154739990234376,0.0000645213876850903,0.000020169652998447418,0.0017674298724159598
1772744450581767000,9.164766845703125,-0.001034923829138279,-0.001494801603257656,0.000384832383133471
1772744450591795000,9.174794921875,-0.0006322538247331977,-0.0003368591424077749,0.0005134629900567234
1772744450601823000,9.184822998046876,-0.0011959655676037073,0.0012567108497023582,0.00023260858142748475
1772744450611850000,9.19485009765625,0.0024826587177813053,-0.0004775396082550287,0.0027479641139507294
1772744450621878000,9.2048779296875,0.0021023652516305447,0.000037804944440722466,0.0008842102834023535
1772744450631904800,9.21490478515625,-0.0007711854996159673,-0.0015742065152153373,-0.001877753995358944
1772744450641933000,9.22493310546875,0.001854283851571381,0.0009142446797341108,0.00003782211570069194
1772744450651960800,9.2349609375,0.002018601167947054,0.0009400772396475077,0.0010809822706505656
1772744450661988000,9.244988037109374,0.0016164752887561917,-0.0012248491402715445,0.0019580968655645847
1772744450672016000,9.255015869140625,0.001706490176729858,-0.0011675911955535412,0.002673954702913761
1772744450682043000,9.26504296875,0.0006309666205197573,-0.00005214405246078968,0.001276993309147656
1772744450692071000,9.27507080078125,-0.00016957955085672438,-0.0007256574463099241,0.00075954117346555
1772744450702099000,9.285098876953125,0.0016033041756600142,-0.0017026789719238877,-0.00048229514504782856
1772744450712126000,9.2951259765625,0.0003857070114463568,0.0003098717425018549,0.00005166867049410939
1772744450722154000,9.305154052734375,0.00039547437336295843,-0.0001240761484950781,0.00021044176537543535
1772744450732180700,9.3151806640625,-0.00013156520435586572,0.00021414528600871563,-0.0003469578514341265
1772744450742209000,9.325208984375,-0.0011160087306052446,-0.0006657163612544537,-0.0008663517073728144
1772744450752236800,9.33523681640625,0.0020321139600127935,0.0023194211535155773,0.002061793813481927
1772744450762264000,9.34526416015625,-0.0002943041326943785,0.0019025015644729137,0.001000871998257935
1772744450772291800,9.355291748046875,-0.0007883204962126911,0.0019035669974982738,0.0012333659688010812
1772744450782318600,9.365318603515625,0.00020574056543409824,0.0006291531026363373,-0.0004557226784527302
1772744450792346600,9.3753466796875,0.0022031113039702177,0.001220374833792448,-0.00006929802475497127
1772744450802374700,9.385374755859376,0.0026663807220757008,-0.0010239914990961552,0.00042140285950154066
1772744450812401700,9.395401611328126,-0.0006556464359164238,0.0015209249686449766,-0.000616164761595428
1772744450822429700,9.4054296875,-0.0010114718461409211,0.001218196703121066,0.0007260059355758131
1772744450832456700,9.415456787109376,-0.0007965547265484929,-0.0005701160989701748,0.0007523712120018899
1772744450842484700,9.425484619140626,-0.0019147105049341917,0.0019350540824234486,0.000019928032997995615
1772744450852512500,9.435512451171874,-0.0010648957686498761,-0.0006972141563892365,0.0009807965252548456
1772744450862539800,9.445539794921874,0.00015025207540020347,0.001450196374207735,0.0006255555781535804
1772744450872567600,9.455567626953124,0.0004839461180381477,0.00037640961818397045,0.0006290177698247135
1772744450882594600,9.465594482421874,-0.000626729684881866,0.0008181999437510967,0.00018254847964271903
1772744450892622600,9.47562255859375,-0.00017825333634391427,0.00013296888209879398,0.0013503445079550147
1772744450902650600,9.485650634765625,-0.0006444308091886342,0.0023028303403407335,-0.001888923579826951
1772744450912678000,9.495677978515625,-0.0029209009371697903,0.0013869691174477339,0.001707409042865038
1772744450922705700,9.50570556640625,-0.00043984560761600733,0.0004489885177463293,-0.0014416119083762169
1772744450932732700,9.515732666015625,0.0008517875103279948,0.0009094490669667721,0.00046521134208887815
1772744450942760700,9.5257607421875,-0.00040851894300431013,-0.0004166439175605774,0.0024701086804270744
1772744450952788500,9.53578857421875,-0.00046950532123446465,0.0009397037792950869,0.00020988372853025794
1772744450962815700,9.545815673828125,0.0019344703759998083,0.0008299676701426506,-0.001305267447605729
1772744450972843500,9.555843505859375,-0.00037848507054150105,-0.0013700699200853705,0.0004905019886791706
1772744450982870500,9.56587060546875,-0.0009980336762964725,0.00017701811157166958,0.0010029046097770333
1772744450992898800,9.57589892578125,0.00040172378066927195,-0.0006786554586142302,0.0012308713048696518
1772744451002926600,9.585926513671875,-0.0016093607991933823,0.001627196092158556,0.0013514026068150997
1772744451012953900,9.595953857421875,-0.002176614012569189,0.0011715292930603027,-0.001616956666111946
1772744451022981600,9.605981689453126,0.001345564378425479,0.00022295466624200344,-0.0008508608443662524
1772744451033008600,9.616008544921876,-0.002900846069678664,0.0003169642295688391,0.0019403982441872358
1772744451043036700,9.62603662109375,-0.001776358112692833,-0.001547452062368393,0.0006812548381276429
1772744451053064700,9.636064697265626,0.0018103872425854206,-0.0005738004110753536,-0.0008266268996521831
1772744451063091700,9.646091796875,-0.0011395139154046774,-0.0016544593963772058,-0.00002162076998502016
1772744451073119700,9.65611962890625,-0.00005347677506506443,-0.0003657557535916567,-0.0004898044862784445
1772744451083146500,9.666146484375,0.0009595810552127659,0.001953398808836937,-0.0010785800404846668
1772744451093174800,9.6761748046875,0.00019525387324392796,0.0022743097506463528,0.00013289193157106638
1772744451103202600,9.68620263671875,0.0009036627598106861,-0.0007923899684101343,-0.0014354377053678036
1772744451113229800,9.696229736328124,0.0012594611616805196,0.0011647671926766634,-0.00009773188503459096
1772744451123257600,9.706257568359375,-0.0003849223430734128,-0.001029876759275794,-0.0005975986714474857
1772744451133284600,9.71628466796875,-0.002163381315767765,0.0020181110594421625,0.0006479618023149669
1772744451143312600,9.726312744140625,-0.0002625886700116098,0.00042399903759360313,0.0009554845164529979
1772744451153340700,9.736340576171875,-0.0008207872742787004,0.00015129148960113525,0.0017451117746531963
1772744451163367700,9.74636767578125,-0.001956254243850708,0.0013561511877924204,-0.0005255597643554211
1772744451173395700,9.756395751953125,0.0008555112290196121,-0.0006076639983803034,-0.002304285066202283
1772744451183422500,9.76642236328125,-0.00029637617990374565,-0.0006112130358815193,0.0018859682604670525
1772744451193450800,9.77645068359375,-0.0004140879027545452,-0.0024892741348594427,-0.0012083584442734718
1772744451203478500,9.786478515625,-0.00006399775156751275,-0.00013792910613119602,-0.00044094317127019167
1772744451213505800,9.796505859375,-0.0006006247131153941,0.0012658231426030397,0.0003217861521989107
1772744451223533600,9.806533447265625,-0.00009671537554822862,0.0002035452052950859,0.0017057048389688134
1772744451233560600,9.816560546875,0.0016133002936840057,0.002237933687865734,0.0008417753269895911
1772744451243588600,9.826588623046876,0.00008996535325422883,0.0003266052808612585,-0.00015103589976206422
1772744451253616600,9.83661669921875,-0.001099935034289956,0.0006909258663654327,-0.0010690274648368359
1772744451263643600,9.8466435546875,-0.0015378007665276527,0.00290641188621521,-0.00038710376247763634
1772744451273671700,9.856671630859376,0.001427629147656262,0.0004760113079100847,-0.0008704675128683448
1772744451283698700,9.86669873046875,-0.0007408944657072425,-0.00039087538607418537,0.00172501674387604
1772744451293726700,9.876726806640624,0.00032010889844968915,0.0005508183967322111,0.0006791934138163924
1772744451303754500,9.88675439453125,0.00031121692154556513,-0.0024578706361353397,-0.0017769380938261747
1772744451313781800,9.89678173828125,0.0007234741933643818,-0.0006474535912275314,0.00033654639264568686
1772744451323809500,9.9068095703125,-0.0002472712949384004,0.00044807116501033306,0.00014796957839280367
1772744451333836800,9.9168369140625,0.0010531502775847912,-0.0013836510479450226,0.00029284553602337837
1772744451343864600,9.926864501953125,0.000535325612872839,-0.0004902496002614498,0.000733311171643436
1772744451353892600,9.936892578125,0.00078193424269557,-0.0009890596847981215,0.0003088032826781273
1772744451363919600,9.946919677734375,0.00040611589793115854,0.0012024431489408016,0.002063895808532834
1772744451373947600,9.95694775390625,0.002063933527097106,-0.00020770076662302017,-0.00011883093975484371
1772744451383975000,9.966974853515625,0.0010515972971916199,0.0009638036135584116,0.002038765698671341
1772744451394002700,9.977002685546875,-0.0003867759951390326,0.0009936310816556215,0.0018819053657352924
1772744451404030500,9.987030517578125,0.00015356112271547318,-0.0010868089739233255,-0.0006174581940285861
1772744451414057700,9.9970576171875,-0.0009010506328195333,-0.0014324873918667436,0.0009396921377629042
1772744451424085500,10.00708544921875,-0.0010602276306599379,0.0018641569186002016,-0.002313804579898715
1772744451434112800,10.01711279296875,-0.00046234793262556195,-0.0009729084558784962,0.002063367050141096
1772744451444140800,10.027140869140625,0.00001736643025651574,0.0006360928528010845,-0.0004631061165127903
1772744451454168800,10.0371689453125,0.0008799642673693597,0.0033618384040892124,-0.0007936044130474329
1772744451464195800,10.04719580078125,-0.0015987460501492023,-0.0000856530386954546,-0.0001488073612563312
1772744451474223600,10.0572236328125,0.0018745486158877611,-0.0015581146581098437,-0.0006761132390238345
1772744451484251000,10.0672509765625,0.00044451799476519227,-0.00005865306593477726,0.0012892608065158129
1772744451494278700,10.077278564453126,-0.0007496434263885021,0.0001400187611579895,0.0004860514309257269
1772744451504306700,10.087306640625,0.00017131539061665535,-0.0001891737338155508,0.0019456968875601888
1772744451514333700,10.097333740234374,-0.0009717133361846209,-0.0015005142195150256,-0.001246634405106306
1772744451524361700,10.10736181640625,-0.0019226593431085348,-0.0025372605305165052,0.0005033885827288032
1772744451534388700,10.117388671875,-0.0008739065378904343,-0.0014714635908603668,-0.0005232600960880518
1772744451544416800,10.127416748046874,-0.00028065504739061,-0.0005988921038806438,0.0013566832058131695
1772744451554444800,10.13744482421875,0.0007036492461338639,-0.0000857010018080473,-0.0008007435826584697
1772744451564471800,10.147471923828125,0.00028939422918483615,-0.003263281425461173,-0.0017733044223859906
1772744451574499600,10.15749951171875,0.00016822043107822537,0.0009274689946323633,-0.00001481914659962058
1772744451584526800,10.16752685546875,0.0010943323140963912,0.001331990584731102,-0.0006560799665749073
1772744451594554600,10.1775546875,-0.000989058637060225,0.002918435726314783,0.002195366658270359
1772744451604583000,10.1875830078125,-0.00017260049935430288,-0.00013967673294246197,-0.00021708518033847213
1772744451614609700,10.197609619140625,-0.0017124402802437544,0.0015788611490279436,-0.0009688955615274608
1772744451624637700,10.2076376953125,-0.0003979124594479799,0.002330975839868188,-0.0017765357624739408
1772744451634664700,10.217664794921875,-0.0020482733380049467,-0.001711969031020999,0.0000011243391782045364
1772744451644692700,10.227692626953125,-0.0011080860858783126,0.0023912342730909586,-0.0008567905751988292
1772744451654720800,10.237720703125,-0.0006913013639859855,-0.001912434003315866,0.0015499081928282976
1772744451664747800,10.247747802734375,-0.0010980593506246805,0.00014072307385504246,-0.0003961492038797587
1772744451674775600,10.257775634765625,-0.0003989795222878456,0.002114125294610858,-0.0006643295055255294
1772744451684802800,10.267802734375,-0.00038096774369478226,-0.0006065880879759789,-0.0005085447337478399
1772744451694830600,10.27783056640625,0.0019058886682614684,-0.0014569354243576527,0.00045951426727697253
1772744451704859000,10.28785888671875,0.0005379208596423268,-0.0013826214708387852,-0.001834195340052247
1772744451714885600,10.2978857421875,0.0007128905272111297,0.0009633570443838835,-0.00023150502238422632
1772744451724913700,10.30791357421875,0.0020286059007048607,0.0012125791981816292,-0.00157452211715281
1772744451734940700,10.317940673828126,-0.00025212534819729626,-0.002194136381149292,0.000987438834272325
1772744451744968700,10.32796875,0.0005813924362882972,-0.0005783131346106529,0.0011665078345686197
1772744451754996700,10.337996826171874,-0.0027763210237026215,0.00044407439418137074,0.00017394771566614509
1772744451765023700,10.348023681640624,-0.0010387259535491467,-0.0010053643491119146,0.0006767298327758908
1772744451775051500,10.358051513671874,-0.0005841243546456099,-0.000251157209277153,0.0035468186251819134
1772744451785078500,10.36807861328125,-0.0013518868945538998,-0.00019156397320330143,-0.0014768739929422736
1772744451795106600,10.3781064453125,0.00135521637275815,0.0006289558950811625,-0.0009341217810288072
1772744451805134600,10.388134521484375,-0.0010921284556388855,-0.003859163261950016,-0.0008498624083586037
1772744451815161600,10.39816162109375,-0.0005107604083605111,-0.0004971886519342661,-0.0012392166536301374
1772744451825189600,10.408189697265625,-0.0004578855587169528,-0.0009949931409209967,0.0008387683192268014
1772744451835216600,10.418216552734375,0.0005168314091861248,-0.00036382395774126053,0.0029149686452001333
1772744451845244700,10.42824462890625,0.0010094790486618876,-0.001150221098214388,-0.00011833995813503861
1772744451855272400,10.4382724609375,-0.00025632145116105676,-0.0018663450609892607,-0.0011236832942813635
1772744451865299700,10.4482998046875,-0.0004482632502913475,-0.0001607951708137989,-0.0017158172558993101
1772744451875327500,10.458327392578125,0.001088114338926971,0.000970515888184309,0.0011936862720176578
1772744451885354500,10.4683544921875,0.0026331294793635607,-0.0025389574002474546,0.0007615602808073163
1772744451895382500,10.478382568359375,-0.0010534843895584345,0.000370013527572155,-0.0002935841039288789
1772744451905410600,10.48841064453125,0.000351276365108788,-0.00026241084560751915,-0.00003327871672809124
1772744451915437800,10.498437744140626,-0.00041251821676269174,0.0026787840761244297,-0.0004572539764922112
1772744451925465600,10.508465576171876,0.0015926342457532883,0.001803297083824873,-0.0013026846572756767
1772744451935492600,10.51849267578125,-0.0004806366632692516,0.0017095538787543774,-0.0004233089566696435
1772744451945520600,10.528520751953126,-0.0005218380829319358,-0.0007823999039828777,-0.0006911313394084573
1772744451955548400,10.53854833984375,0.000816400395706296,-0.0008439191151410341,0.0014401964144781232
1772744451965575700,10.54857568359375,-0.0014852553140372038,0.000621892511844635,-0.00038922493695281446
1772744451975603500,10.558603515625,0.00371962646022439,-0.00004070182330906391,0.0005332940490916371
1772744451985631700,10.5686318359375,0.0012118362355977297,-0.0004773554392158985,0.000268549716565758
1772744451995658800,10.57865869140625,0.0006006407784298062,0.0013176151551306248,0.001809987472370267
1772744452005686500,10.5886865234375,0.0001569411251693964,0.001330176368355751,-0.0011221551103517413
1772744452015713800,10.5987138671875,0.0005984932067804039,0.0005341577343642712,0.0007913261651992798
1772744452025741600,10.608741455078125,-0.00033813121262937784,0.00039033335633575916,-0.0004725159960798919
1772744452035769600,10.61876953125,0.001024342025630176,0.001333092339336872,-0.000698884716257453
1772744452045796600,10.628796630859375,-0.001058944035321474,-0.0007260662969201803,-0.0009762078989297152
1772744452055824600,10.63882470703125,-0.0001665187592152506,0.0015077930875122547,-0.0005290631088428199
1772744452065851600,10.6488515625,-0.0019333126256242394,0.0022473400458693504,-0.0016844484489411116
1772744452075879700,10.658879638671875,0.00089150236453861,-0.0013311493676155806,-0.000867124239448458
1772744452085907700,10.66890771484375,-0.0007566731655970216,0.002320961095392704,0.0005390623118728399
1772744452095934700,10.678934814453125,0.0009488152572885156,-0.000014897435903549194,-0.0026127886958420277
1772744452105962500,10.68896240234375,0.00147651182487607,-0.0013871027622371912,-0.00021474558161571622
1772744452115989800,10.69898974609375,-0.0013648145832121372,-0.00015006447210907936,-0.00022486556554213166
1772744452126017500,10.709017578125,-0.0006701056263409555,0.001134343445301056,0.0008575447136536241
1772744452136045600,10.719045654296876,-0.0007345541380345821,-0.0012851383071392775,-0.0005374190513975918
1772744452146072600,10.729072509765626,0.0020449100993573666,0.000696033239364624,-0.0003540509205777198
1772744452156100600,10.7391005859375,-0.0009519448503851891,0.00043797283433377743,-0.0005812185700051486
1772744452166127600,10.749127685546876,-0.0026716601569205523,-0.0008289250545203686,-0.0015395532827824354
1772744452176155600,10.75915576171875,0.00022532633738592267,0.001249405788257718,0.0018602381460368633
1772744452186183700,10.76918359375,-0.0010876896558329463,0.00016904529184103012,-0.0011744671501219273
1772744452196210700,10.779210693359374,-0.0008788978448137641,0.0014721301849931479,-0.0009867142653092742
1772744452206238500,10.789238525390624,-0.0003879721916746348,0.0017105969600379467,-0.0007924519013613462
1772744452216265700,10.799265625,-0.00023510673781856894,0.0035124914720654488,-0.0017900720704346895
1772744452226293500,10.80929345703125,-0.0018285645637661219,-0.0010178119409829378,0.0011865177657455206
1772744452236321800,10.81932177734375,0.0002545599127188325,0.0017236461862921715,0.0029090503230690956
1772744452246348500,10.8293486328125,0.0007736069383099675,0.00026735919527709484,-0.00035965658025816083
1772744452256376600,10.83937646484375,0.0018692313460633159,-0.0009366560261696577,0.0015181383350864053
1772744452266403600,10.849403564453125,0.0009441771544516087,-0.0006636020261794329,0.0002515555825084448
1772744452276431600,10.859431640625,-0.0007653059437870979,-0.0008180653676390648,-0.0009258279460482299
1772744452286459600,10.869459716796875,0.0010030531557276845,0.0015199969056993723,0.000018548336811363697
1772744452296486700,10.879486572265625,0.00027521123411133885,0.0008398254867643118,0.0011810180731117725
1772744452306514400,10.889514404296875,0.0011790808057412505,0.00006706337444484234,0.0009811387863010168
1772744452316541700,10.899541748046875,-0.0007692878134548664,-0.0022522835060954094,-0.0007813411066308618
1772744452326569500,10.909569580078125,-0.00026680444716475904,0.0005142656154930592,-0.0015854770317673683
1772744452336597800,10.91959765625,0.0009097801521420479,-0.00035685417242348194,0.0006872646044939756
1772744452346624500,10.92962451171875,0.00016220659017562866,-0.00045148073695600033,0.0004913667216897011
1772744452356652500,10.939652587890626,0.0015116302529349923,-0.0008959623519331217,-0.0017739180475473404
1772744452366679600,10.949679443359376,-0.00007796339923515916,-0.000008924631401896477,0.0017581845168024302
1772744452376707600,10.95970751953125,0.0004322982858866453,0.0007058675400912762,0.0009794761426746845
1772744452386735600,10.969735595703124,-0.0019885129295289516,-0.0006352697964757681,-0.0018071456579491496
1772744452396762600,10.9797626953125,-0.0012878354173153639,0.0033368347212672234,0.0007372384425252676
1772744452406790400,10.989790283203124,0.00006645714165642858,0.000047469744458794594,-0.002420698758214712
1772744452416817700,10.999817626953124,-0.0016185248969122767,0.0017428379505872726,-0.0009130833786912262
1772744452426845400,11.009845458984374,-0.0006597492028959095,-0.00034266384318470955,-0.0013413057895377278
1772744452436873700,11.019873779296875,-0.0008922431152313948,-0.0008545236196368933,0.0017804515082389116
1772744452446900500,11.029900390625,-0.0004524421819951385,0.0013499404303729534,0.000394196598790586
1772744452456928500,11.039928466796875,0.0007885908707976341,-0.0023569134064018726,0.0005302841309458017
1772744452466956500,11.04995654296875,0.0007134248153306544,0.0014425595290958881,0.0010469540720805526
1772744452476983600,11.059983642578125,0.001631949096918106,0.0002981990110129118,-0.00034454764681868255
1772744452487011600,11.070011474609375,-0.0008087782189249992,0.0009288717992603779,-0.0019119298085570335
1772744452497038600,11.08003857421875,-0.0004457893664948642,-0.0008365374524146318,-0.0008834170293994248
1772744452507067600,11.090067626953125,-0.000008770555723458529,-0.0011743633076548576,-0.00008344219531863928
1772744452517094700,11.1000947265625,0.0009422442526556551,-0.0007445290684700012,-0.0007721356232650578
1772744452527122400,11.110122314453125,0.0016394457779824734,0.0009185515809804201,-0.00028924632351845503
1772744452537150700,11.120150634765626,-0.0012894989922642708,0.0008319986518472433,-0.0005560950376093388
1772744452547177500,11.130177490234376,0.000376362178940326,0.0005700015462934971,0.00019629334565252066
1772744452557205800,11.140205810546876,0.0008397522033192217,0.0008690743707120419,-0.0019515460589900613
1772744452567232500,11.150232421875,0.0004914439050480723,0.001641180831938982,-0.003189503215253353
1772744452577260500,11.160260498046876,-0.0000758094247430563,-0.0015013492666184902,-0.002421181183308363
1772744452587288600,11.17028857421875,-0.0004455699527170509,0.00003453437238931656,0.0003056400455534458
1772744452597315600,11.180315673828124,-0.0006658133934251964,0.0011911450419574976,-0.00041234816308133304
1772744452607343600,11.190343505859374,-0.0018604175420477986,0.0008533713407814503,0.0010682790307328105
1772744452617371600,11.20037158203125,-0.00034987254184670746,-0.00004651094786822796,-0.002381313592195511
1772744452627398400,11.2103984375,0.0007074776804074645,0.0012562808115035295,-0.00015150295803323388
1772744452637426700,11.2204267578125,-0.0019170675659552217,0.0023652210365980864,-0.0012798842508345842
1772744452647453400,11.230453369140625,-0.0002877301594708115,-0.0004085404798388481,0.0007284794701263309
1772744452657481700,11.240481689453125,0.0019144377438351512,-0.0011198706924915314,0.0020214440301060677
1772744452667509500,11.250509521484375,-0.0019697118550539017,-0.0007305729668587446,-0.00003347097663208842
1772744452677536500,11.26053662109375,0.002912661526352167,0.0019046247471123934,0.0019002502085641026
1772744452687564500,11.270564453125,-0.0006757772644050419,0.000851926626637578,-0.0009178226464428008
1772744452697591600,11.280591552734375,-0.00019534298917278647,-0.0002788514830172062,-0.00031062192283570766
1772744452707619600,11.29061962890625,-0.002919840859249234,-0.0009118367452174425,-0.000591884832829237
1772744452717647600,11.300647705078125,0.0011582575971260667,-0.0013483287766575813,-0.00041132254409603775
1772744452727674400,11.31067431640625,-0.00019231156329624355,-0.0024849309120327234,-0.0006791921332478523
1772744452737702700,11.32070263671875,-0.002066644374281168,0.000492217019200325,-0.0015841342974454165
1772744452747729700,11.330729736328125,0.0009098679875023663,0.0018950779922306538,0.00036241678753867745
1772744452757757700,11.3407578125,0.0018622144125401974,-0.002581429434940219,0.00024071027291938663
1772744452767785500,11.350785400390626,0.00009450927609577775,-0.0007354796398431063,-0.00010010757250711322
1772744452777812500,11.3608125,0.00023645575856789947,-0.000809515593573451,-0.0003674889449030161
1772744452787840500,11.370840576171876,-0.0010381796164438128,-0.0008161813020706177,-0.0012325422139838338
1772744452797867500,11.380867431640626,-0.0015846602618694305,-0.0005445389542728662,-0.0004426486266311258
1772744452807895600,11.3908955078125,-0.0016730448696762323,0.001531919464468956,-0.0007652240456081927
1772744452817923600,11.400923583984374,0.001999987056478858,-0.000747480196878314,-0.0010405948851257563
1772744452827950600,11.41095068359375,-0.003094902029260993,0.0010261679999530315,0.0009824554435908794
1772744452837978600,11.420978515625,-0.00088447832968086,0.0005997959524393082,-0.0031023009214550257
1772744452848005600,11.431005615234374,0.0017752507701516151,-0.0005722043570131063,0.00042348477290943265
1772744452858033700,11.44103369140625,-0.0013161464594304562,0.00026216404512524605,-0.0011773414444178343
1772744452868061400,11.4510615234375,-0.0027423929423093796,0.00026339059695601463,-0.000997066730633378
1772744452878088700,11.461088623046875,0.0007852302514947951,0.0003113273996859789,-0.000940341386012733
1772744452888116500,11.471116455078125,-0.0024994940031319857,0.0019057223107665777,-0.0023229499347507954
1772744452898144500,11.48114453125,-0.000885618501342833,0.00044444575905799866,-0.0012606150703504682
1772744452908171800,11.491171875,0.0013298533158376813,0.00019962014630436897,0.0015529068186879158
1772744452918199600,11.501199462890625,0.0017881832318380475,-0.001389488112181425,0.0019747514743357897
1772744452928226800,11.511226806640625,-0.0008835593471303582,0.001087554031983018,-0.001304050674661994
1772744452938254600,11.521254638671875,-0.00039833137998357415,-0.0004765207413583994,-0.0016944700619205832
1772744452948282400,11.531282470703125,-0.0003713883343152702,0.001269614789634943,-0.0010160988895222545
1772744452958309600,11.5413095703125,0.0005093190120533109,0.0001287164632230997,-0.0007106342818588018
1772744452968337400,11.55133740234375,-0.0022284062579274178,0.0025824520271271467,-0.0006325520807877183
