time,seconds_elapsed,z,y,x
1772642710362925000,0.060925048828125,0.1544306832551956,0.0475020481482148,0.3391775212537497
1772642710372970000,0.070969970703125,0.1525491072922944,0.0399796898193657,0.3505316397652029
1772642710383015200,0.08101513671875,0.2010287683010101,-0.0122106622755527,0.351347486192733
1772642710393061000,0.09106103515625,0.2345832473784685,-0.0047645840533077,0.2842860935065895
1772642710403106000,0.10110595703125,0.3775163850635289,-0.0040820086166262,0.199907582251355
1772642710413151000,0.11115087890625,0.5168576357364654,-0.0475602080762386,0.1988774354860186
1772642710423196200,0.121196044921875,0.5815700541436671,-0.0875087721049785,0.1910658118870109
1772642710433241000,0.131240966796875,0.6851911721378564,-0.1049194872416555,0.1567903250586241
1772642710443287000,0.141287109375,0.7589917368859053,-0.1417228851124644,0.0969452934920787
1772642710453332200,0.151332275390625,0.8057137405723332,-0.170647585497424,0.0544192071255296
1772642710463377000,0.161376953125,0.8636901287227868,-0.1930563281171023,0.0244091226566582
1772642710473422000,0.171422119140625,0.9756681561738252,-0.1749852493755519,-0.0068036886654794
1772642710483467000,0.181467041015625,1.129417871427536,-0.1315400023374706,-0.0033505525369197
1772642710493512200,0.19151220703125,1.2608493718892335,-0.0879699598759412,-0.0137666595458984
1772642710503558100,0.20155810546875,1.3508295025438068,-0.0428482309930026,-0.0054098231542855
1772642710513603000,0.21160302734375,1.432729202595353,0.0042732203397899,-0.0254869810212403
1772642710523648000,0.22164794921875,1.4735907898157834,0.0365587023947387,-0.0847421569358557
1772642710533693200,0.231693115234375,1.4545716165691611,0.0521203555986285,-0.1187949409242719
1772642710543738000,0.241738037109375,1.4237047691404818,0.1587915088132023,-0.1223920155681669
1772642710553784000,0.2517841796875,1.4859797312676906,0.2508567751787602,-0.0513617192510515
1772642710563829200,0.261829345703125,1.5473913545638325,0.3097958708815276,0.0148460522804409
1772642710573874000,0.2718740234375,1.5689239719361066,0.3923044966116547,0.0245269768826663
1772642710583919000,0.281919189453125,1.558801806372404,0.4864675389740616,-0.0033545711249113
1772642710593964000,0.291964111328125,1.5559434943318369,0.5926691749807447,-0.0580698385875672
1772642710604010000,0.302010009765625,1.5044289956718682,0.6854612943161279,-0.1619447121471166
1772642710614055200,0.31205517578125,1.4772814610272644,0.7872891722179949,-0.2871490086570382
1772642710624100000,0.32210009765625,1.581310575300455,0.8487482148524373,-0.3876925458367913
1772642710634145000,0.33214501953125,1.4981471389234065,0.7568950568675994,-0.4312153150904923
1772642710644190000,0.34218994140625,1.2708680770784615,0.652245618738979,-0.3746067081619054
1772642710654236200,0.352236083984375,1.3292483698546886,0.6920080125458539,-0.2206212844561785
1772642710664281000,0.362281005859375,1.5310025298207997,0.7720897764552385,-0.0424353393431752
1772642710674326300,0.372326171875,1.6057523581176996,0.7916177760068327,0.0672826342213898
1772642710684371000,0.382370849609375,1.3464455883711577,0.8784273868665099,0.0835897720303386
1772642710694416100,0.392416015625,0.9728893391102552,0.8921583175119012,0.1261283525522798
1772642710704461000,0.4024609375,0.5599123490869998,0.7549615315217524,0.222384129410237
1772642710714507000,0.412507080078125,0.0872679490864276,0.4831569531213492,0.379131419044733
1772642710724552200,0.42255224609375,-0.5266735118299722,0.2089784121312201,0.5641600696593523
1772642710734597000,0.43259716796875,-1.1296160243481397,-0.0690804043583571,0.5891171815875917
1772642710744642000,0.44264208984375,-1.7680279096543787,-0.2319159278653562,0.643393473111093
1772642710754687000,0.45268701171875,-2.3710797277659177,-0.1018447559714317,0.6391094391163438
1772642710764733200,0.462733154296875,-2.9130829106748104,0.0837028039507567,0.5579755358055234
1772642710774778000,0.472778076171875,-3.6011955232173203,0.1494052563086152,0.6186599408056587
1772642710784823300,0.4828232421875,-4.135547314590215,0.1033193585686385,0.7250722238883376
1772642710794868000,0.492867919921875,-4.474396407607197,-0.2829499495320022,1.042782667286694
1772642710804913200,0.5029130859375,-4.680440958243608,-0.9091277916871012,1.4844811632730066
1772642710814958000,0.5129580078125,-4.832958501353859,-1.4538289815083143,1.7831434995912014
1772642710825004000,0.523004150390625,-4.895900402957201,-1.8410374701552088,1.828495237837732
1772642710835049200,0.53304931640625,-4.911280927440524,-2.0067108474366364,1.4758005748197436
1772642710845094100,0.54309423828125,-5.060225288239121,-1.882869217582047,0.7574643811881542
1772642710855139000,0.55313916015625,-5.706354616054893,-1.6693750815920532,0.2161836673349142
1772642710865184000,0.56318408203125,-6.717410311952233,-1.114165941759944,-0.203385779755935
1772642710875230000,0.57322998046875,-7.414669523024559,-0.5545682115800679,-0.135538515655417
1772642710885275100,0.583275146484375,-7.325696523585915,-0.3507299388162792,0.6141864486534148
1772642710895320000,0.593320068359375,-6.924667745509743,-0.3660942428171634,1.6769532617613672
1772642710905365000,0.603364990234375,-6.041233636397123,-0.1610891182310879,1.9021835743829607
1772642710915410000,0.613409912109375,-4.357460465487837,-0.2642788590706885,1.8979954750433563
1772642710925456100,0.6234560546875,-3.1860376820236445,-0.4323879390664398,2.020450911236554
1772642710935501000,0.6335009765625,-2.2183529258191585,-0.3194029265299439,1.7409367813721297
1772642710945546200,0.643546142578125,-1.435067874675989,-0.3327447847925126,1.3115034543275832
1772642710955591200,0.653591064453125,-1.2763210817873478,-0.3610826982654631,0.696988650502637
1772642710965636000,0.663635986328125,-1.3107219485610724,-0.5823509023230522,-0.0855103648293763
1772642710975681000,0.673680908203125,-1.4670353768229485,-0.7758893148686736,-0.9841512492936104
1772642710985727000,0.68372705078125,-1.300166652277112,-0.7087942391086369,-1.9914479579836128
1772642710995772200,0.693772216796875,-0.9369196155846118,-0.3544662027351558,-2.635273392771184
1772642711005817000,0.703817138671875,-0.5439923108994961,0.1933557494550943,-2.7593381638571617
1772642711015862000,0.713862060546875,0.3311076851099729,0.6449862221952527,-2.3475138510003686
1772642711025907000,0.723906982421875,1.513086933901906,0.7196773791074752,-1.702651035989076
1772642711035953200,0.733953125,3.026546208247542,0.8734559551294893,-1.2049744129974391
1772642711045998000,0.743998046875,4.494053294235468,1.0899802525956184,-0.934664530134201
1772642711056043300,0.754043212890625,5.5706917616337535,1.2886895649731158,-0.7905800304569304
1772642711066088200,0.764088134765625,6.25388796056211,1.4483248311340808,-0.6864359845671802
1772642711076133000,0.774133056640625,6.561894756069779,1.5702432378411293,-0.5641990134302526
1772642711086179000,0.784178955078125,6.575522883927822,1.63030432331115,-0.486706498829089
1772642711096224000,0.79422412109375,6.867513195136189,2.036815770582109,-0.3888784311531111
1772642711106269200,0.804269287109375,7.308022335207462,2.238782111994177,-0.4112964165251702
1772642711116314000,0.814314208984375,7.793126988330483,2.3954949148371814,-0.465297032912448
1772642711126359000,0.824359130859375,8.176810079330206,2.6968945671647786,-0.5954186928845941
1772642711136403500,0.834403564453125,8.115475028401613,3.057419777677953,-0.7843819064691663
1772642711146449700,0.84444970703125,7.56584325031042,3.4533342814803123,-0.9648652418043464
1772642711156494600,0.85449462890625,6.653889733678102,3.717566817191243,-0.9403384841173886
1772642711166539800,0.864539794921875,5.915366199803352,3.7320115221291776,-0.6422345123343169
1772642711176584700,0.874584716796875,5.772922891461849,3.621558804549277,-0.3489405711814761
1772642711186630000,0.8846298828125,5.948562951484322,3.322361046180129,-0.2914503956453874
1772642711196675800,0.89467578125,6.063212828493118,3.0974791086047886,-0.6045031128983944
1772642711206720500,0.904720458984375,5.9609951475560665,3.0367160123452543,-1.2774718592576682
1772642711216765700,0.914765625,5.474768796926736,2.8437042540222404,-1.7214045440368353
1772642711226810600,0.924810546875,4.994342657008767,2.227838839305937,-1.641305902057886
1772642711236855800,0.934855712890625,5.100006094485521,1.5176070416748524,-1.3979945738226174
1772642711246900500,0.944900390625,5.63712968865931,1.0548276176065206,-1.1640727860275657
1772642711256946700,0.95494677734375,6.093550099089741,0.8779574312672018,-1.069682510780543
1772642711266991600,0.96499169921875,5.940002043887972,0.7476379837006331,-1.023850441671163
1772642711277036500,0.97503662109375,5.13409950274527,0.3621051731809973,-0.6211296919200568
1772642711287081700,0.985081787109375,3.9031706373453137,-0.3781014914751052,0.0700367552351206
1772642711297126700,0.995126708984375,2.750176075497269,-1.524525150500238,0.8300576159730553
1772642711307172900,1.0051728515625,2.48163385989368,-2.962815786615014,1.4418699559062718
1772642711317217500,1.015217529296875,3.3003304161578413,-4.023571917487681,1.6247757691480218
1772642711327262700,1.0252626953125,3.964133347830176,-3.78169968214482,1.1680193316962568
1772642711337307600,1.0353076171875,2.963779078689217,-2.737678120712936,0.2910140135221183
1772642711347352800,1.045352783203125,0.8682014686673879,-2.452151452560723,-0.0745095167350023
1772642711357398800,1.055398681640625,-1.000032782101631,-2.402901683962345,-0.1584396997008472
1772642711367443500,1.065443359375,-2.460914312469959,-1.9423548412516711,-0.2922371986415237
1772642711377488600,1.075488525390625,-3.7890854084819554,-1.810475304761529,-0.0041218291703611
1772642711387533600,1.085533447265625,-4.575933705064654,-2.092738587203622,0.4067267705220729
1772642711397578800,1.095578857421875,-5.462859163424373,-2.335740411098301,0.6953656524106859
1772642711407623700,1.105623779296875,-6.413141533929109,-2.3471818425670263,0.8417987610407173
1772642711417670000,1.115669921875,-7.116402615764737,-2.1777625567555425,1.11522443783693
1772642711427714600,1.125714599609375,-7.929193162855506,-2.1870298590555786,1.699373475623131
1772642711437759700,1.135759765625,-8.517813720032573,-2.2578502389490605,2.404189239554852
1772642711447804700,1.1458046875,-8.649483705425261,-2.0269953644439576,2.819197589275241
1772642711457849900,1.155849853515625,-8.767931221151352,-1.4453250647962093,2.9744843048378824
1772642711467894500,1.16589453125,-9.186880271321536,-0.6224608674585819,3.1032106379941102
1772642711477940500,1.1759404296875,-10.045472784644364,0.4387430071815848,3.2792759376913305
1772642711487985700,1.185985595703125,-11.39775833121538,1.3436913212269543,3.3889854356884954
1772642711498030600,1.196030517578125,-12.54885962666273,1.639655504502356,3.250250334215164
1772642711508075800,1.20607568359375,-12.77631813672781,1.608623821900785,2.638631178766489
1772642711518120700,1.21612060546875,-11.70895544719696,1.1186059700340032,1.8877058439582584
1772642711528166700,1.226166748046875,-9.721727737256884,0.2216433940455317,1.2382321741506457
1772642711538211600,1.236211669921875,-7.583833080509304,-0.7313450205475092,0.7127006719626486
1772642711548256500,1.246256591796875,-5.621003314244747,-1.4829685667529702,0.2099014452602714
1772642711558301700,1.2563017578125,-4.192997048518062,-2.2312372495725747,-0.1386217407593503
1772642711568346600,1.2663466796875,-3.2901644114524125,-2.718650764159858,-0.2731266573170199
1772642711578391800,1.276391845703125,-2.703807707554102,-2.830074080337584,-0.2577660065779462
1772642711588437500,1.2864375,-2.1828730316370724,-2.7374866897940637,-0.123154159047082
1772642711598482700,1.296482666015625,-1.424140822470188,-2.6188863215938207,0.0921189693141728
1772642711608527600,1.306527587890625,-0.5836544592022895,-2.4062261522099373,0.24221180602815
1772642711618572800,1.31657275390625,0.2086035874694585,-2.057700007048249,0.0305411774045787
1772642711628617700,1.32661767578125,0.7839543287068605,-1.516682328045368,-0.406398598013632
1772642711638663700,1.33666357421875,1.087561427950859,-0.9212021142318844,-0.7734930673819035
1772642711648708600,1.34670849609375,1.1973036591738462,-0.4344245594605803,-1.087811237993464
1772642711658753500,1.35675341796875,1.346707454177737,-0.1488794788688421,-1.412329973167181
1772642711668798700,1.366798828125,1.832235885670781,0.0727447720848023,-1.671655447614193
1772642711678843600,1.37684375,2.610901460319757,0.3296327902518212,-1.774383416160941
1772642711688888800,1.386888916015625,3.2907541940391063,0.7080756425105035,-1.7257963492549957
1772642711698934500,1.3969345703125,3.58474707724154,1.3352316820479928,-1.5498428393691777
1772642711708979700,1.406979736328125,3.6862802830457686,2.129457229400426,-1.2483280362293123
1772642711719024600,1.417024658203125,3.850240426668525,2.807801750513911,-0.8654109611660241
1772642711729069800,1.42706982421875,4.015741369992495,3.158656338623166,-0.3632257747087627
1772642711739114800,1.43711474609375,4.211390198820829,3.204669609518349,0.1159826965151354
1772642711749160700,1.44716064453125,4.598841702443361,3.160664755836129,0.4594206151597201
1772642711759205600,1.45720556640625,5.174964597097039,3.18394830852896,0.5788512601716443
1772642711769250600,1.46725048828125,5.939419860085844,3.163575674846768,0.4622098805520683
1772642711779295700,1.477295654296875,6.633712038046121,3.045436786678433,0.2922684705626219
1772642711789340700,1.487340576171875,7.162565232002735,2.8552055989846585,0.1342041435128077
1772642711799385900,1.4973857421875,7.547030997812747,2.622040693971514,-0.0143250925796804
1772642711809431600,1.507431640625,7.717027498990297,2.3569477420389653,-0.1318268929874524
1772642711819476500,1.5174765625,7.646026209571957,2.2027765865027904,-0.2381924143189564
1772642711829521700,1.527521728515625,7.386255913966893,2.170000398321449,-0.3045539881726726
1772642711839566600,1.537566650390625,7.031718253430724,2.289539216415584,-0.3199010853104293
1772642711849611800,1.54761181640625,6.632257163062691,2.5391958220243454,-0.3047729464192875
1772642711859657700,1.55765771484375,5.992120938181877,2.7828990721866487,-0.2085267228409648
1772642711869702700,1.56770263671875,5.358321515107154,2.900520658482611,-0.0830212879600003
1772642711879747600,1.57774755859375,5.002983059582114,2.8781796473369,0.0591564647804945
1772642711889792800,1.587792724609375,4.897406715866923,2.770361662174761,0.1903410778090357
1772642711899837700,1.597837646484375,4.974279527667164,2.593975752221048,0.2408287907045334
1772642711909883000,1.6078828125,5.124767610776424,2.265342932792008,0.3019125702857971
1772642711919928800,1.6179287109375,5.227771473655104,1.6681369180992245,0.4351375300355255
1772642711929973500,1.627973388671875,5.406600685107708,0.9660054248154164,0.4316106710836291
1772642711940018700,1.638018798828125,5.3698968020886175,0.299008957798779,0.1647477868691086
1772642711950063600,1.648063720703125,4.934658880418539,-0.366794500041008,-0.215411440853402
1772642711960108800,1.65810888671875,4.041366225114465,-1.0947443251922726,-0.4669749760620296
1772642711970153500,1.668153564453125,2.498179921025037,-2.486704879547656,0.1637971350807696
1772642711980199700,1.67819970703125,1.4505746558874844,-4.304745943388343,1.113437919746339
1772642711990244600,1.68824462890625,1.9802841744124888,-4.612956444774568,0.8538304865527897
1772642712000289800,1.698289794921875,2.9240912114232778,-3.456471118201315,-0.2024255929542705
1772642712010334700,1.708334716796875,2.922667316100001,-3.117062637735903,-0.3691980175187811
1772642712020380000,1.7183798828125,2.4573066433668136,-3.2899306026965376,-0.0268593653529882
1772642712030425900,1.72842578125,1.1272370202571154,-2.59028888040185,0.1720997935997322
1772642712040470500,1.738470458984375,-1.0158733253121377,-1.4719608505263924,0.5987260638669133
1772642712050515700,1.748515625,-3.14190160317719,-0.7811424861565232,1.0885090109992772
1772642712060560600,1.758560546875,-5.044464824527502,-0.982358301462233,1.6016593897156417
1772642712070605800,1.768605712890625,-5.933074874973297,-1.626318468545377,1.3843930417105554
1772642712080650500,1.778650390625,-5.872507885807752,-2.0652868089154364,0.3889020677570253
1772642712090696400,1.788696533203125,-6.119720313134789,-2.563584705610573,-0.2766101155186072
1772642712100741600,1.79874169921875,-6.040989890769124,-3.1209453243881464,-0.1899789299657568
1772642712110786600,1.80878662109375,-5.4864317621916525,-3.320342692095041,0.5305771316723897
1772642712120831700,1.818831787109375,-5.226428242352605,-2.982344662949443,1.403149472367763
1772642712130876700,1.828876708984375,-5.34443502857387,-2.452289107465744,2.350790242322534
1772642712140923000,1.8389228515625,-6.086939741039275,-1.9357491593763232,2.89201031202972
1772642712150967600,1.848967529296875,-7.0144093912333245,-1.201392097531259,2.6526789933413264
1772642712161012700,1.8590126953125,-7.819750791361928,-0.5722711876615881,2.0782436133831736
1772642712171057700,1.8690576171875,-8.57421657525599,-0.080002195867151,1.4771535968638956
1772642712181102800,1.879102783203125,-9.341412661385537,0.2329861874453723,0.9931411228917538
1772642712191147800,1.889147705078125,-9.746172442683577,0.4553647638976573,0.5637442554000764
1772642712201193700,1.89919384765625,-9.514035419413446,0.4374975371651351,0.2840950644465163
1772642712211238700,1.90923876953125,-8.772874522772431,0.2463680854573845,0.0568927302327472
1772642712221283600,1.91928369140625,-7.792692688566446,0.10083148727566,0.0408790452453074
1772642712231328800,1.929328857421875,-6.810486655056476,-0.0924794001244008,0.1981934170109219
1772642712241373700,1.939373779296875,-5.960183831173182,-0.1020034536644816,0.2652816246387549
1772642712251419000,1.9494189453125,-5.291390836128592,0.0294764159835875,0.3151776735177263
1772642712261464600,1.959464599609375,-4.687732284295558,0.1625163745552301,0.4020317445736378
1772642712271509800,1.969509765625,-3.993113358598947,0.2013924870468676,0.4641783310808241
1772642712281554700,1.9795546875,-3.083099870118499,0.0884914995320141,0.4724730985542759
1772642712291600000,1.989599853515625,-2.041554927933216,-0.1207933481998741,0.4494949585488065
1772642712301644800,1.999644775390625,-0.984426632168889,-0.3250122908443212,0.2654723249052651
1772642712311690800,2.009690673828125,0.1072112514406442,-0.3899237389549613,-0.1722873155284673
1772642712321735700,2.019735595703125,1.0110621256381274,-0.5009554254665971,-0.6090636257469654
1772642712331780600,2.029780517578125,1.795605652409792,-0.6860419437482953,-0.9698221335593612
1772642712341825800,2.03982568359375,2.2420909442812205,-0.901022518903762,-1.1358147328577934
1772642712351870700,2.04987060546875,2.518675596565008,-0.9216733850054444,-1.2049005440436302
1772642712361916000,2.059916015625,2.774470558798313,-0.6071364570766687,-1.3078669975213706
1772642712371961900,2.0699619140625,3.0587025109648702,0.0135226947221904,-1.3568378030478954
1772642712382006500,2.080006591796875,3.373215035104751,0.6973461587034165,-1.3010187390618029
1772642712392051700,2.0900517578125,3.642992929983139,1.3189645839884876,-1.223929288836196
1772642712402096600,2.1000966796875,3.921967107751965,1.8855156404376028,-1.021826534628123
1772642712412141800,2.110141845703125,4.216232962676883,2.301757769736648,-0.6767323366764932
1772642712422187800,2.120187744140625,4.555032371333241,2.598249776278436,-0.3057766983680426
1772642712432232700,2.130232666015625,4.858860419851541,2.779013170664012,-0.0477628179762512
1772642712442277600,2.140277587890625,5.0382051796108485,2.80657308550179,0.2332154296239837
1772642712452322800,2.15032275390625,5.262777905106544,2.7682643976345656,0.4676008163427934
1772642712462367700,2.16036767578125,5.605130037808418,2.7216952464222905,0.4881087668424472
1772642712472413000,2.170412841796875,6.1236447931021445,2.671445653131604,0.4008879083007574
1772642712482459000,2.180458984375,6.666109163782,2.517616442900896,0.241012001784332
1772642712492503600,2.190503662109375,7.015683064430951,2.269235556316376,0.0762169051747769
1772642712502548700,2.200548828125,7.15138391277492,2.047548176998645,-0.1597091716473922
1772642712512593700,2.21059375,7.164666003674268,1.86150961868912,-0.4664810550652444
1772642712522638800,2.220638916015625,7.100781852784753,1.710209780805558,-0.7553565952539444
1772642712532683500,2.23068359375,6.842448896506428,1.5281456790849566,-0.9705345926776529
1772642712542729700,2.240729736328125,6.297189926671981,1.294389384049922,-1.0289935036480429
1772642712552774700,2.250774658203125,5.716210239636898,1.1309928656592965,-0.911205474743992
1772642712562819800,2.26081982421875,5.381999912336468,1.1531602738037705,-0.8870974539257586
1772642712572864800,2.27086474609375,5.1252054176718,1.1890224453017115,-1.079795762385428
1772642712582909700,2.28090966796875,4.8315562333405015,0.9604653263449668,-1.341752462118864
1772642712592956000,2.290955810546875,4.600787575814128,0.3397475031614303,-1.482741479998827
1772642712603000600,2.30100048828125,4.5195378641039134,-0.3772267544671893,-1.4629960383042693
1772642712613045800,2.311045654296875,4.593891971081495,-0.8996464082449674,-1.522363296291232
1772642712623090700,2.321090576171875,4.682633499851822,-0.9991256041288376,-1.739934910853207
1772642712633135900,2.331135986328125,4.386031310933828,-0.3618810090363025,-2.235477225229889
1772642712643180500,2.3411806640625,3.2864030130922792,0.3460691073983907,-2.247988770148158
1772642712653226500,2.3512265625,1.648973075684905,0.2122989348560571,-1.1593850666027516
1772642712663271700,2.361271728515625,-0.1018634606719016,-1.1694301483422518,0.9543595568157732
1772642712673316600,2.371316650390625,-0.3422071712732314,-2.355854978366196,2.486836396972835
1772642712683361800,2.38136181640625,1.3949772718280553,-1.7912398584157228,2.4084591719590125
1772642712693406700,2.39140673828125,2.5128952595978973,-0.4083353016972542,1.060339293700084
1772642712703451600,2.40145166015625,2.071618642285466,-0.3491311253175139,-0.0116728290718048
1772642712713497600,2.41149755859375,1.0355974319577217,-1.2874068316861986,-0.5751014426514506
1772642712723542800,2.421542724609375,-0.3092144177317619,-1.9421756852924823,-1.1042648716010153
1772642712733587700,2.431587646484375,-2.065750627034902,-2.0967191812723875,-1.5200122031204402
1772642712743633000,2.4416328125,-3.627547523570061,-2.03986916680336,-1.620191071706265
1772642712753677600,2.451677490234375,-4.620556106123328,-2.106129106913507,-1.3449546191610395
1772642712763723500,2.4617236328125,-5.0691035912215705,-2.25293587116152,-0.8431047290727496
1772642712773768700,2.471768798828125,-5.074922506633401,-2.3993200260832905,-0.4039655256478116
1772642712783813600,2.481813720703125,-5.078284676542878,-2.665432676452398,-0.0194220549590885
1772642712793858800,2.49185888671875,-4.928229724153876,-3.011906565259397,0.2408929054493084
1772642712803903700,2.50190380859375,-4.840603463149071,-3.397405181248486,0.5707441972900181
1772642712813948700,2.51194873046875,-4.606139458236098,-3.814983819848299,1.1069085179775953
1772642712823994600,2.52199462890625,-4.329579940393566,-3.8719972081854936,1.4289130053080616
1772642712834039800,2.532039794921875,-4.957161219605803,-3.277235371774435,1.5282967779934404
1772642712844084700,2.542084716796875,-6.601763825121521,-1.9497317997604608,1.6652110937803983
1772642712854129700,2.552129638671875,-8.850210275909305,-0.7128405188247561,2.0381278760939834
1772642712864174600,2.562174560546875,-10.813849020469188,0.2272214864388108,2.426970980205387
1772642712874219800,2.5722197265625,-11.619776111531255,0.9174649735301732,2.597270702113211
1772642712884265700,2.582265625,-11.325673922735453,0.9174256644330918,2.518766781979799
1772642712894310700,2.592310546875,-10.01580829874277,0.4656318908900022,2.1734664669968184
1772642712904355800,2.60235595703125,-8.357570551106333,-0.0072923489652574,1.738459869864583
1772642712914400800,2.61240087890625,-6.928215793380141,-0.4191040946014225,1.3434244869843124
1772642712924445700,2.62244580078125,-5.6715673803120845,-0.8865047487296164,1.013506742311269
1772642712934491600,2.63249169921875,-4.509208777791262,-1.2425205189943314,0.7305711866308003
1772642712944536600,2.64253662109375,-3.441954224810004,-1.519974063067138,0.5982829232092947
1772642712954581800,2.652581787109375,-2.5134324352145194,-1.5886974706813692,0.6474694173131138
1772642712964626700,2.662626708984375,-1.6586153487771749,-1.4810913747042416,0.7764097585462033
1772642712974671600,2.672671630859375,-0.9471744676172732,-1.275444298952818,0.8203976610936224
1772642712984716500,2.682716552734375,-0.3389788568764925,-0.9005228988185524,0.7263063687931746
1772642712994762800,2.6927626953125,0.2768085241675376,-0.4088885516658425,0.6170165575128048
1772642713004807700,2.7028076171875,0.9959434669613838,-0.0441319871932268,0.5529605571877211
1772642713014852900,2.712852783203125,1.738485588827729,-0.029274902062118,0.4656949461888521
1772642713024897800,2.722897705078125,2.5417443374633786,-0.2710181041978299,0.236733922606334
1772642713034942700,2.732942626953125,3.520043426662683,-0.4845123863182962,-0.0657176499269902
1772642713044987600,2.742987548828125,4.679477081647515,-0.5123619317524135,-0.3632319121886044
1772642713055033600,2.75303369140625,5.751438204884529,-0.2464839669220149,-0.7240048138525337
1772642713065078800,2.763078857421875,6.550103195989132,0.2301272908829152,-1.0218356677826494
1772642713075123700,2.773123779296875,6.908468305858969,0.778790954594314,-1.2039105831582098
1772642713085168600,2.783168701171875,6.682934626376628,1.317464408558607,-1.1413417526509613
1772642713095213600,2.793213623046875,5.686111453971266,1.751339079051465,-0.7042782960541546
1772642713105259800,2.803259765625,4.495284881857037,2.172709949541092,-0.237176844068244
1772642713115304700,2.8133046875,3.5169986521393057,2.5203014442011717,0.1974644999481737
1772642713125350000,2.823349853515625,2.8574107078135014,2.769077175322175,0.5862240539619699
1772642713135394800,2.833394775390625,2.7350007181972265,2.775477105492353,0.7581267906196415
1772642713145439700,2.843439697265625,3.1536200980216265,2.729747035452723,0.7554265186849981
1772642713155484700,2.853484619140625,3.6742093215018503,2.4330057303249832,0.8070307414550334
1772642713165530600,2.863530517578125,4.230086715984344,2.0087816623613235,0.7503683585125952
1772642713175575800,2.873575927734375,4.9606625057250255,1.5827765561997889,0.300958447898738
1772642713185620700,2.883620849609375,5.815533952698111,1.2644335139863192,-0.3579302255839109
1772642713195665700,2.893665771484375,6.449356172126532,1.0405028857864438,-0.942464463295415
1772642713205710600,2.903710693359375,6.687099929362535,0.8798265861399471,-1.231111966881901
1772642713215755800,2.913755859375,6.588456599780916,0.8311810670450329,-1.307281744979322
1772642713225801700,2.9238017578125,6.357162457075715,0.8729716056786477,-1.2172412624396385
1772642713235846700,2.9338466796875,6.064706281921267,1.0030250957854092,-1.0938008337970822
1772642713245891600,2.9438916015625,5.922984858113527,1.099293512929231,-1.0772262041583656
1772642713255936500,2.9539365234375,5.859537929597496,1.1261084546186029,-0.940914895765856
1772642713265981700,2.963981689453125,5.677930485603213,1.034087904177606,-0.6885184899296611
1772642713276026600,2.974026611328125,5.347237226513028,0.8493108902364969,-0.3799734958920627
1772642713286072800,2.98407275390625,5.070099031999707,0.6525128913730383,-0.2034552647955715
1772642713296117800,2.99411767578125,5.065941327798366,0.2755588163673877,-0.0550385080676525
1772642713306162700,3.00416259765625,5.268068412730098,-0.3638318508431315,0.1245169718328863
1772642713316207600,3.01420751953125,5.316844426336885,-0.9527499296620487,0.1395735981240868
1772642713326252800,3.024252685546875,4.067237163951993,-0.9455912900790572,-0.31426399273891
1772642713336298800,3.034298828125,1.5463269402027129,-0.4958829445078969,-0.802183812880516
1772642713346343700,3.04434375,-0.5699217019259929,-0.2065109991043806,-0.7126711536072194
1772642713356388600,3.054388671875,-1.4009113380521534,-0.1469669232457876,-0.4875547131562605
1772642713366433500,3.06443359375,-0.4680670090824365,0.1902326489984989,-0.7528165553823113
1772642713376478700,3.074478759765625,1.3303601304888724,0.0675432579189539,-0.9875164148777724
1772642713386523600,3.084523681640625,2.166317033633589,-0.8084022490039467,-1.0473091317351906
1772642713396569900,3.09456982421875,1.313842710930109,-1.9400126620396967,-1.1698504195809365
1772642713406614800,3.10461474609375,-0.9855682034194468,-2.6846681227982043,-1.23729650073573
1772642713416659700,3.11465966796875,-3.429520275172591,-2.4384587350338696,-1.4256766537353396
1772642713426704600,3.12470458984375,-5.456524699705839,-1.609576592580974,-1.5797287129364908
1772642713436749800,3.134749755859375,-6.800581347113847,-0.6898752383008598,-1.6664719074964522
1772642713446794800,3.144794677734375,-8.148388286966085,0.0597507043465971,-1.6066590976990758
1772642713456840700,3.1548408203125,-9.782726688098906,0.3215137812040746,-1.0719413225580006
1772642713466885600,3.1648857421875,-11.2765331674695,0.2624628956899046,-0.279058604649268
1772642713476930600,3.1749306640625,-11.8340594982028,0.1259768883176147,0.668656436118111
1772642713486975700,3.184975830078125,-11.827091997277735,-0.228926682921499,1.269027271517366
1772642713497020700,3.195020751953125,-11.380795505976677,-0.7774595598600804,1.2716640497617422
1772642713507065900,3.20506591796875,-10.593965914094449,-1.1546828071959316,0.7284514910630882
1772642713517111800,3.21511181640625,-10.114379732131958,-1.3497282633036374,0.1279508187390863
1772642713527156500,3.225156494140625,-10.24330421820879,-1.1750588018789887,-0.1388780536079779
1772642713537201700,3.23520166015625,-10.3969972348392,-0.7114166235014796,-0.0119784609548747
1772642713547246600,3.24524658203125,-10.103383706343172,-0.2622815477736294,0.3547439602306112
1772642713557291800,3.255291748046875,-9.22426219973266,-0.1011386535286903,0.6290544935699552
1772642713567337700,3.265337646484375,-7.741237226617335,-0.2156348012804985,0.6656403762325644
1772642713577382700,3.275382568359375,-6.323598625648021,-0.3977826357617974,0.6119512369472533
1772642713587427600,3.285427490234375,-5.241361607590317,-0.5970188215576112,0.8104349238753318
1772642713597472800,3.29547265625,-4.1427147220015526,-0.6374538539290427,1.0327204152166842
1772642713607517700,3.305517578125,-3.532065288367867,-0.8186796051293611,1.333453128068149
1772642713617563000,3.31556298828125,-3.0735359229594468,-1.1072981018170711,1.601943759614974
1772642713627608800,3.32560888671875,-2.546548522874713,-1.405071088080108,1.662291406941414
1772642713637653500,3.335653564453125,-2.024872673201561,-1.5589292321443555,1.5317998176783325
1772642713647698700,3.34569873046875,-1.4092390214145183,-1.5286685339152812,1.329261667727679
1772642713657743600,3.35574365234375,-0.7853133421003818,-1.2533984713613986,1.1864308213733137
1772642713667788800,3.365788818359375,-0.3489022849977016,-0.8441144906371831,1.0524099620055407
1772642713677833500,3.37583349609375,-0.0747276164650917,-0.3156815679192543,0.8623887638006359
1772642713687879700,3.385879638671875,0.182498255354166,0.2340557163730263,0.7151029838640243
1772642713697924600,3.395924560546875,0.6437263583272695,0.5237818820416927,0.7724855708397924
1772642713707969800,3.4059697265625,1.390246736174822,0.4949778123617172,1.0240795011866837
1772642713718014700,3.4160146484375,2.553816468051076,0.5223720152437686,1.177153216874972
1772642713728059600,3.4260595703125,4.033096993941069,0.7756549946561455,1.1589740015838297
1772642713738104600,3.4361044921875,5.305938416919112,1.214753098885715,1.136785623716563
1772642713748150500,3.446150634765625,6.166692492190003,1.6233591803483665,1.0312988579809663
1772642713758195700,3.45619580078125,6.57768853752911,1.8672911247000097,0.8053921074025332
1772642713768240600,3.46624072265625,6.6477966775000095,1.9149803659833968,0.5778332422355189
1772642713778285800,3.476285888671875,6.575736234417557,1.8242428410902616,0.4078690724249929
1772642713788330500,3.48633056640625,6.494876398807763,1.72174093638435,0.4041577968169003
1772642713798376400,3.49637646484375,6.528129849112034,1.649781615588814,0.4700649049013853
1772642713808421600,3.506421630859375,6.611482086059451,1.5660726741582154,0.4566077496960758
1772642713818466600,3.516466552734375,6.742236710172891,1.4718363473638891,0.2734099677704275
1772642713828511700,3.52651171875,6.840284996470809,1.29739134234488,-0.0770026487249881
1772642713838556700,3.536556640625,7.12020083900392,1.1549302060857414,-0.6011519027743488
1772642713848601600,3.5466015625,7.389595872044563,1.0505842809483408,-1.088196364853531
1772642713858647600,3.5566474609375,7.450498961296677,0.926004399947077,-1.4411317047595975
1772642713868692700,3.566692626953125,7.395560333406925,0.8911131193079054,-1.681567769819498
1772642713878737700,3.576737548828125,7.407949274858832,1.0203021015398204,-1.7669458135060965
1772642713888782800,3.586782958984375,7.371929282450676,1.2615129503645002,-1.715366432916373
1772642713898827500,3.59682763671875,7.009225266593695,1.500100903339684,-1.585626684933901
1772642713908872700,3.606872802734375,6.335584246996045,1.7747757764793932,-1.2593569413743912
1772642713918918700,3.616918701171875,5.740333458024263,2.0924774520494043,-0.8259224158644676
1772642713928963600,3.626963623046875,5.280031822246313,2.2858549749448893,-0.4824497547000646
1772642713939008800,3.6370087890625,4.707849774172902,2.397343026921898,-0.2070118612986058
1772642713949053700,3.6470537109375,4.122317830660939,2.2931292037315667,-0.013443528538756
1772642713959098600,3.6570986328125,3.776968854230642,1.9175475861229,0.0745495199518278
1772642713969143600,3.6671435546875,3.913271760120988,1.2980153194621205,0.0343959714028984
1772642713979189800,3.677189697265625,4.314688660731911,0.778845315130055,-0.2606585862142965
1772642713989234700,3.687234619140625,4.510037045308947,0.3120607470735907,-0.7033874116290361
1772642713999279600,3.697279541015625,4.293375239068269,0.1464542975485324,-1.2426901764728129
1772642714009324800,3.70732470703125,3.358767407557368,0.1585539006650447,-1.564940016866475
1772642714019369700,3.71736962890625,1.6279875708013771,0.0352884632632136,-1.4281408518917855
1772642714029414700,3.72741455078125,-0.1847480801075696,-1.1199068234995009,-0.4214817104529589
1772642714039460600,3.737460693359375,-0.2795125224292278,-2.330814937394857,0.1558118719479069
1772642714049505800,3.747505859375,1.58005151515007,-1.6845751349419351,-0.5456301047017798
1772642714059550700,3.75755078125,2.5198481474757197,-0.5704243907511234,-1.4548133163705468
1772642714069595600,3.767595703125,1.567141764694452,-1.2816107126280665,-1.1337012478351591
1772642714079640600,3.777640625,0.1949029788970947,-2.202516182000935,-0.7314299954172223
1772642714089685800,3.787685791015625,-1.472915667033195,-1.9564441568806763,-0.9706400988787413
1772642714099731700,3.797731689453125,-3.8803865586072206,-1.4219509112104771,-0.7082721879959106
1772642714109776600,3.807776611328125,-6.0155257791668175,-1.0462693403586745,0.0497735961096594
1772642714119821800,3.81782177734375,-7.224011342090367,-0.4950606683395803,0.4924336808368563
1772642714129866500,3.827866455078125,-7.784854834547638,0.115144528657943,0.459848923574388
1772642714139911200,3.8379111328125,-8.059171541899442,0.5912229947604238,0.5635252058219165
1772642714149957000,3.84795703125,-8.260146534186601,0.6097244277432561,0.9249456846743822
1772642714160002300,3.858002197265625,-8.119626887384056,0.1181935409650206,0.9587396715961396
1772642714170047200,3.868047119140625,-7.315648007780313,-0.29773879173249,0.9274743263691664
1772642714180092200,3.878092041015625,-6.707649380916356,-0.4093675673544407,1.1038469384498897
1772642714190137000,3.88813720703125,-6.936342985734343,-0.3556951600082218,1.3893014181487262
1772642714200182300,3.898182373046875,-7.58673172456026,-0.3178312932990491,1.384427528502047
1772642714210228200,3.908228271484375,-7.822328532895446,-0.3058332508608699,1.1546434980988505
1772642714220273200,3.918273193359375,-7.530382645350694,-0.3184567317210137,0.7744333439067006
1772642714230318000,3.928318115234375,-7.105818093386292,-0.3682226331479847,0.4638461765170097
1772642714240363000,3.938363037109375,-6.3713412045538425,-0.5682660436734557,0.4021559189425781
1772642714250408200,3.948408203125,-5.4838440837860105,-0.9028706309884786,0.501876924225688
1772642714260453000,3.958453125,-4.725622746750712,-1.2820127175576983,0.6279259279314429
1772642714270499300,3.968499267578125,-4.1688200541168445,-1.5077797674044966,0.6429403955813497
1772642714280544300,3.978544189453125,-3.931673093730211,-1.6134021422185003,0.6721884096365421
1772642714290589200,3.988589111328125,-3.91569168074429,-1.7629560132175683,0.820689337516576
1772642714300634000,3.998634033203125,-3.896931450694799,-1.9923710641779004,0.9799012636989356
1772642714310679300,4.00867919921875,-3.8495039290875193,-2.136921573931724,0.9198136555481702
1772642714320724200,4.01872412109375,-3.80604823372066,-2.1790466052167115,0.6772652014441788
1772642714330770200,4.028770263671875,-3.67719505931437,-2.062873464163393,0.3917173443734645
1772642714340815000,4.038815185546875,-3.3971132125645878,-1.7509931882232426,0.1570138133498839
1772642714350860000,4.048860107421875,-2.983376928606629,-1.3124500875279306,0.029173012590222
1772642714360905200,4.0589052734375,-2.228840417563915,-0.8574931737788021,0.0717422074461355
1772642714370950100,4.0689501953125,-1.410679283350706,-0.4607419268913567,0.2347051201924681
1772642714380995300,4.078995361328125,-0.5696662658601999,-0.0066527358874678,0.2662905276866629
1772642714391041300,4.089041259765625,0.3738216221988201,0.4186274170003831,0.1953442929238081
1772642714401086200,4.099086181640625,1.2472644986510275,0.8412754678189754,0.0967646031629294
1772642714411131100,4.109131103515625,2.192968309193849,1.2163199098110198,0.1107382565230131
1772642714421176300,4.11917626953125,3.16241539889574,1.5361303942285478,0.274264465707913
1772642714431221200,4.12922119140625,4.071501835659146,1.8286872532784937,0.4651988332349807
1772642714441266200,4.13926611328125,4.7630333167344325,2.1041488928817214,0.5914660097360611
1772642714451312000,4.14931201171875,5.191267497122287,2.294792899160087,0.704456575230509
1772642714461357000,4.159357177734375,5.473735362225771,2.4334246863894164,0.8092471753954887
1772642714471402200,4.16940234375,5.693908975979685,2.478269936418533,0.8516042618706822
1772642714481447200,4.179447265625,5.879200661444664,2.3390005819380284,0.9437526034098118
1772642714491492400,4.189492431640625,6.037485682040453,2.227914973282069,0.9234332342848182
1772642714501537000,4.199537109375,6.222526607614755,1.952426153410971,0.958586672991514
1772642714511583000,4.2095830078125,6.407895449969172,1.567882353928685,1.076106552478671
1772642714521628200,4.219628173828125,6.554883416002989,1.2388773401863873,1.110418864186108
1772642714531673000,4.229673095703125,6.7073904377192255,1.0442900031097233,1.0919976568326353
1772642714541718300,4.23971826171875,6.849143425709009,0.934627412994206,1.064354301495105
1772642714551763000,4.249762939453125,7.028417458319663,0.8633870541229843,0.9267759688414632
1772642714561808100,4.25980810546875,7.160312484639882,0.8064845788143574,0.6049657254414632
1772642714571854000,4.26985400390625,6.937602045884728,0.8561370829947292,0.2196393242141232
1772642714581899300,4.279899169921875,6.340096755984425,0.922584800761938,-0.0331306641748175
1772642714591944200,4.289944091796875,5.638431418907642,0.9557507189132272,-0.0760708112349733
1772642714601989400,4.2999892578125,5.044712661808729,1.0718895193055271,-0.0776190270576626
1772642714612034000,4.310033935546875,4.531686567059159,1.2495903112500906,-0.0582091739930212
1772642714622079200,4.320079345703125,4.125810933473706,1.3716893352210522,-0.0026732012646272
1772642714632125200,4.330125244140625,3.6972985206663607,1.3090826569214462,0.1091950822016224
1772642714642170000,4.340170166015625,3.182994661065936,0.978667630250752,0.2859918014459311
1772642714652215300,4.35021533203125,2.7498551729798315,0.5462479808717966,0.3881550122493877
1772642714662260000,4.360260009765625,2.4852555575221777,0.2965150951564312,0.2847445595975034
1772642714672305200,4.37030517578125,1.961037037628889,0.2871533925712108,-0.0466221143753733
1772642714682350000,4.38035009765625,0.2623456990510225,-0.4173077127039432,0.1960023367074318
1772642714692396300,4.390396240234375,-1.9136855038672684,-2.753807417736948,1.358296039032191
1772642714702441200,4.400441162109375,-0.8935247104942798,-3.475944172695279,0.629470673155412
1772642714712486100,4.410486083984375,1.404637080577016,-1.1246443734154103,-1.7868673424199222
1772642714722531000,4.420531005859375,1.6605016009151934,1.1116095352753996,-3.395463984052837
1772642714732576300,4.430576171875,2.1494904019951817,1.7863763440325855,-3.5389486181408163
1772642714742621200,4.44062109375,2.872016740792989,1.1673416516304016,-2.516426064072549
1772642714752667100,4.450667236328125,3.4894343533873555,0.0525929415464401,-1.2792225023172794
1772642714762712300,4.46071240234375,4.236359804904461,-1.2929635890305042,-0.5867613026438281
1772642714772757000,4.470757080078125,3.490542606890201,-2.5198423022568224,-0.1510942505751736
1772642714782802200,4.48080224609375,0.2638748083144426,-2.7700197168692946,0.0484261407231912
1772642714792847000,4.49084716796875,-2.559292853635549,-1.8276751536265012,-0.4777494315220043
1772642714802892300,4.500892333984375,-4.289285923928023,-0.3344990811139345,-1.3989903068616985
1772642714812938200,4.510938232421875,-5.859241576999426,0.7178669686846435,-2.05708333645463
1772642714822983200,4.520983154296875,-7.548868734633922,0.8872108511723578,-1.8509763881064951
1772642714833028000,4.531028076171875,-8.97550897270441,0.5997842676829547,-1.110404689530283
1772642714843073000,4.541072998046875,-9.526481644010545,0.2986581715997308,-0.2564181356329471
1772642714853118200,4.5511181640625,-9.38538039792776,-0.5135137321360409,0.9199429079510272
1772642714863163100,4.5611630859375,-8.236464045304059,-1.263632134475559,1.731598459662497
1772642714873209300,4.571209228515625,-7.258422730258107,-1.6603709602728485,1.729616053673625
1772642714883254300,4.581254150390625,-6.286470964258909,-1.717379672434926,1.1245414975628256
1772642714893299200,4.59129931640625,-5.764560136786103,-1.6725297462306916,0.5065839328728616
1772642714903344000,4.60134423828125,-5.388896101590991,-1.439765969364345,0.1722170633038506
1772642714913389300,4.611389404296875,-4.867025021606684,-1.2368458343587816,0.2711706644110381
1772642714923434200,4.621434326171875,-4.45548186377883,-1.151783870884031,0.6273034121189266
1772642714933480200,4.631480224609375,-3.91507559467256,-0.9424292458515614,1.006542456256598
1772642714943525000,4.641525146484375,-3.518374616667628,-0.5466079002253711,1.3945930948160588
1772642714953570000,4.651570068359375,-3.2554420576393603,-0.0645469987124204,1.626641416889429
1772642714963615200,4.661615234375,-3.60356459043622,0.493543980166316,1.8090493636116385
1772642714973660200,4.67166015625,-4.679093050765991,0.9099294634588062,2.0383507250644266
1772642714983705300,4.681705322265625,-5.615636818775534,1.235760523340106,2.1168892781198023
1772642714993751300,4.691751220703125,-6.050201371228694,1.5042954324200748,1.929280401753634
1772642715003796200,4.701796142578125,-6.24771424036324,1.6640836971856652,1.4483077338688075
1772642715013841200,4.711841064453125,-5.94416676235199,1.771049741693586,0.8105348771184683
1772642715023886000,4.721885986328125,-4.943435476592183,1.8000418812915682,0.1010842564603313
1772642715033931300,4.73193115234375,-3.844607389217615,1.4821975823804736,-0.4736066326288506
1772642715043976200,4.74197607421875,-2.5749568712353703,0.8865707997031509,-0.965886109284684
1772642715054022100,4.752022216796875,-1.195550678026676,0.2235921900257468,-1.3658854712478816
1772642715064067000,4.762067138671875,0.3321867125183343,-0.2456954468928277,-1.6500597018778322
1772642715074112300,4.7721123046875,1.833071167451143,-0.6643102966725826,-1.6036431108787654
1772642715084157200,4.7821572265625,2.7087077545553444,-0.9918338396854698,-1.006327790592611
1772642715094202400,4.792202392578125,2.9376018503814936,-1.0101062862180172,-0.1020747653350234
1772642715104247000,4.8022470703125,2.9761171667367217,-0.8972649199359118,0.6731866999588907
1772642715114293000,4.81229296875,3.059263651978969,-0.7925985306724905,1.073653898629546
1772642715124338200,4.822338134765625,3.112909901970625,-0.6751731976009905,0.9270785319846124
1772642715134383000,4.832383056640625,3.281417625895142,-0.4940590900816023,0.374840882243961
1772642715144429300,4.84242919921875,3.476085626992583,-0.3305623261868953,-0.2487019352324306
1772642715154474000,4.852473876953125,3.734969202890992,-0.1350667882241308,-0.582659602946043
1772642715164519200,4.862519287109375,4.139787436378002,0.0975311305560171,-0.7163629207972436
1772642715174565000,4.872565185546875,4.546564402717352,0.3892984466634691,-0.749282097645849
1772642715184610000,4.882610107421875,4.685705746904016,0.8080361921705305,-0.6583619096621871
1772642715194655200,4.8926552734375,4.404357825741172,1.3114518702708184,-0.3371535776780918
1772642715204700000,4.902699951171875,4.019232719239592,1.677135486460477,0.2705842428252101
1772642715214745000,4.9127451171875,3.954564139974117,1.9274615157634016,0.7942344613112509
1772642715224790000,4.9227900390625,4.383635940229892,1.9223695994518697,1.0118164511367678
1772642715234836200,4.932836181640625,5.257635281521082,1.8526377454474567,1.0004841060657053
1772642715244881200,4.942881103515625,6.191274560260772,1.739313125693053,0.781473763937503
1772642715254926000,4.952926025390625,6.793622029495239,1.461515736618638,0.6091724198836833
1772642715264971000,4.962970947265625,7.00798315757811,0.9906989904366432,0.507053705809079
1772642715275016200,4.97301611328125,6.819939543056488,0.5247985117383301,0.4199612959526479
1772642715285061000,4.98306103515625,6.390053503808379,0.3003457593604922,0.1506379125092644
1772642715295107000,4.993107177734375,5.887993039709329,0.4430905348666012,-0.3317691081607714
1772642715305152300,5.00315234375,5.297165327876806,0.6792138512939214,-0.786966223873943
1772642715315197000,5.013197021484375,4.529826033884286,0.8189262733668088,-1.0457491158768537
1772642715325242000,5.0232421875,3.6271915497392415,0.9509932952530682,-1.0676514433443545
1772642715335287000,5.033287109375,2.775693963113427,1.148553802921623,-0.9098099287323652
1772642715345332200,5.043332275390625,2.1412883908391,1.5150012430906294,-0.7065401035062968
1772642715355378200,5.053378173828125,1.633103306379914,1.743782526192069,-0.3255626182034611
1772642715365423000,5.063423095703125,1.4129682710707188,1.5589894378989937,0.2835772145848721
1772642715375468000,5.073468017578125,1.5320453168720003,1.1992153380140662,0.838792126570642
1772642715385513000,5.083512939453125,1.7239672341316938,0.6045061085730791,1.108462761682272
1772642715395558100,5.09355810546875,1.802815729919076,-0.5474103026494384,1.1768495577532798
1772642715405603000,5.10360302734375,2.205453696757555,-1.5246137055665254,0.7250540306445211
1772642715415649300,5.113649169921875,1.6002619440078734,-1.0651122802555562,-0.3777941060263663
1772642715425694000,5.12369384765625,-0.5731769043296575,-0.0120502110168337,-1.2659852734729646
1772642715435739100,5.1337392578125,-0.854998872745037,0.7514516967698931,-2.112882088305056
1772642715445784000,5.1437841796875,1.3492735052734612,0.8855161760836839,-2.350111466278136
1772642715455829200,5.153829345703125,3.341074514478445,0.1746732608169317,-1.23252636372447
1772642715465874200,5.163874267578125,4.289503950592875,-1.1381900836870074,0.0708143520114943
1772642715475920100,5.173920166015625,3.74810282523036,-2.3397008391618725,0.8288256630253046
1772642715485965000,5.183965087890625,1.537207229679823,-2.4444062452614306,0.9199025759406388
1772642715496010000,5.194010009765625,-1.3859902477741242,-1.636308824422955,0.7672978660035878
1772642715506055200,5.20405517578125,-3.828573953783512,-0.0813891201809048,0.4310671387914568
1772642715516100000,5.21410009765625,-5.208181807044149,1.4930976004488763,0.0646442120091989
1772642715526145000,5.22414501953125,-6.258637785437703,2.3307842499956486,0.0377986194532364
1772642715536191000,5.23419091796875,-7.370173963215946,2.416163901117444,0.254970822901465
1772642715546236200,5.244236083984375,-7.558689286902546,1.8899721814550456,0.4131779194228351
1772642715556281000,5.254281005859375,-6.984386008891462,0.6054607789494096,1.0414694657962769
1772642715566326000,5.264325927734375,-5.778940544316172,-0.6603476766519248,1.5271441008269786
1772642715576371200,5.27437109375,-5.055318226975202,-1.4687420346103608,1.4543391229875384
1772642715586416000,5.284416015625,-5.024397019010782,-2.041705003928393,1.0180239274747669
1772642715596461000,5.2944609375,-5.359633182227611,-2.166686597598344,0.3084130382210016
1772642715606507000,5.304507080078125,-5.646406051048636,-2.13149165783748,-0.3736673084199428
1772642715616552200,5.31455224609375,-5.749678793996572,-1.89147133397162,-0.7886072690792382
1772642715626597000,5.32459716796875,-5.545028328067064,-1.5969135103628038,-0.7714155304554849
1772642715636642000,5.33464208984375,-5.05485587016046,-1.4066167100869118,-0.4455081904675811
1772642715646687000,5.34468701171875,-4.836241760808229,-1.1998777474455535,-0.0190943939073011
1772642715656732200,5.354732177734375,-5.151535790714621,-0.9916239963270724,0.4731296992994844
1772642715666778000,5.364778076171875,-5.739997942459583,-0.8024258049428462,0.8753697528615594
1772642715676823000,5.374822998046875,-6.362600848737359,-0.6411427715748548,1.066563355846703
1772642715686868200,5.3848681640625,-6.863610927000641,-0.6796747468039394,0.9943963105846196
1772642715696913000,5.394912841796875,-7.176312017804384,-0.8257900216564535,0.5850231172069907
1772642715706958000,5.4049580078125,-7.0261337312966585,-0.9669938513308765,0.1074159345667343
1772642715717003000,5.4150029296875,-6.61004825386405,-1.178596328355372,-0.1237731494619511
1772642715727049200,5.42504931640625,-6.100630412739515,-1.3262706692181527,-0.1987595812600106
1772642715737094100,5.43509423828125,-5.484626174074411,-1.3341038470618427,-0.1371492935866117
1772642715747139000,5.44513916015625,-4.589581122145057,-1.2268905497945843,0.0518774867534637
1772642715757184000,5.45518408203125,-3.341457376316189,-1.0798223581314086,0.3216662318194285
1772642715767229200,5.465229248046875,-2.007849057686329,-0.912392784832418,0.5069277778744697
1772642715777274000,5.475274169921875,-0.7904068658471107,-0.7630188004449009,0.6655629270821809
1772642715787320000,5.485320068359375,0.3390548447221517,-0.6045999243363738,0.7655069639988243
1772642715797365200,5.495365234375,1.4163053065389395,-0.3475751280471682,0.6967348218720406
1772642715807410000,5.505409912109375,2.394851648497581,-0.0671361384227871,0.5911850008375943
1772642715817455000,5.515455078125,3.211847246062755,0.1950118460990488,0.4736800997238606
1772642715827500000,5.5255,3.8672909301906815,0.4905519587434828,0.4327621792063116
1772642715837545200,5.535545166015625,4.353432525146007,0.8329961536429822,0.4794952888086438
1772642715847591200,5.545591064453125,4.629207614612579,1.1472966424673796,0.536847042254731
1772642715857636000,5.555635986328125,4.752009233894944,1.4566979610733688,0.600417231824249
1772642715867681000,5.565680908203125,4.895594113487005,1.736351353278011,0.7444561387941241
1772642715877726000,5.575725830078125,5.003747029691934,1.9072132391132413,0.9138146343290804
1772642715887771100,5.585771240234375,5.007884275627136,1.978900318838656,1.0676340538181364
1772642715897816000,5.595816162109375,4.966135968700051,1.957847886198759,1.2632089406274258
1772642715907862300,5.6058623046875,4.961957221710682,1.9124075928859408,1.4725222838014362
1772642715917907000,5.615906982421875,5.191698289754987,1.8686558371819555,1.611175990601629
1772642715927952100,5.6259521484375,5.648038036164641,1.8084445295862848,1.666719598647207
1772642715937997000,5.6359970703125,6.330157545772194,1.6688997191652657,1.5194678671106696
1772642715948042200,5.646042236328125,7.07989805471003,1.4902224834039806,1.2261191270306706
1772642715958087200,5.656087158203125,7.685442858681082,1.4080490809775887,0.9239909412328152
1772642715968132000,5.666132080078125,7.937569361534714,1.4067249927669765,0.639229777560383
1772642715978178000,5.676177978515625,7.844614598983526,1.5194646522402762,0.2777592490211129
1772642715988223000,5.686222900390625,7.34480220607221,1.7631793005794285,-0.0538111399634741
1772642715998268200,5.69626806640625,6.322606692001223,2.090055923990905,-0.2518039381020702
1772642716008313000,5.70631298828125,4.91466297109425,2.481899817353487,-0.1991776422752998
1772642716018358000,5.71635791015625,3.643478667673469,2.902345243561268,-0.053255725437263
1772642716028403000,5.72640283203125,2.7872797714889046,3.346329950788617,0.028160675476212
1772642716038449200,5.73644921875,2.350416878965497,3.763072138564288,0.1135869970176368
1772642716048494000,5.746494140625,2.20018423192203,3.866573137310147,0.2242801722899079
1772642716058539300,5.756539306640625,2.0420833357214927,3.5934257659986613,0.5126248204723001
1772642716068584200,5.766584228515625,2.0340151800781485,3.0157573954686523,0.5810884081065655
1772642716078629000,5.776629150390625,2.6477666713804004,2.6807331214368344,0.0048973435875028
1772642716088674000,5.786674072265625,2.9047102191269394,2.48052297604233,-0.6661144965503364
1772642716098720000,5.796719970703125,2.580580556336045,1.845072570890188,-0.5998582827672362
1772642716108765200,5.80676513671875,2.487479078790545,0.4834174306884408,0.1025768696382641
1772642716118810000,5.81681005859375,3.882822261321544,-1.0045958522334697,0.5986066752709448
1772642716128855000,5.82685498046875,6.959137001344561,-0.9851733588829636,-0.3466232341498136
1772642716138900000,5.83689990234375,9.37398280560076,0.010585691422224,-2.1900173504337666
1772642716148945000,5.84694482421875,9.57827671317756,-0.0395917134150862,-2.831247508031129
1772642716158990800,5.856990966796875,8.762126334264874,-1.174358252394199,-2.649791455206275
1772642716169036000,5.8670361328125,8.011909439986944,-1.7952710136279462,-2.981989858162403
1772642716179081000,5.8770810546875,5.876712936282158,-1.8525547433391207,-2.3337162117943167
1772642716189126000,5.8871259765625,2.3034254106879235,-2.153876361994445,-1.3963919609315694
1772642716199171000,5.897171142578125,-1.241691082432866,-2.2429817556411025,-1.0949049956467003
1772642716209216000,5.907216064453125,-3.5602936039865014,-1.48823715480566,-1.5087719933122397
1772642716219261000,5.917260986328125,-5.26623710564971,-0.4620892498470842,-2.028403623806685
1772642716229307000,5.927306884765625,-7.367206345582008,0.1386760647624731,-2.129122882879525
1772642716239352000,5.93735205078125,-9.92089947951436,0.0723880676016211,-1.827169688322395
1772642716249397000,5.94739697265625,-11.891134553599358,-0.4029711443156004,-1.5278776757985353
1772642716259442000,5.95744189453125,-12.994999466097354,-0.7713278521720319,-1.225409517456591
1772642716269486800,5.96748681640625,-13.2019658077538,-1.0244598057411611,-0.8272459195531904
1772642716279532000,5.977531982421875,-12.390281176078318,-1.2237211990434675,-0.5401857216907665
1772642716289578000,5.987577880859375,-11.104700098514556,-1.3924644122242926,-0.4594400870451703
1772642716299623000,5.997622802734375,-9.907384164381028,-1.6494279798455536,-0.1734641042228788
1772642716309668000,6.007668212890625,-8.880143057358264,-2.034574275265634,0.3084493516433984
1772642716319712800,6.017712646484375,-7.764228226104378,-2.1906009955406187,0.7028575425360352
1772642716329758000,6.027758056640625,-6.619678836518526,-2.210763201342523,1.0682073967266827
1772642716339803000,6.037802978515625,-5.763256652972101,-2.140560807216912,1.3132180031605063
1772642716349849000,6.04784912109375,-5.386046557378768,-1.8439819991745052,1.3210381753921507
1772642716359894000,6.05789404296875,-5.421763182926178,-1.354092157601565,1.2187100928831844
1772642716369939000,6.06793896484375,-5.60894988835752,-0.8243905301220714,1.129832735838741
1772642716379984000,6.07798388671875,-5.753384662777185,-0.343947146808356,1.0996611771978435
1772642716390029000,6.088029052734375,-5.707956790554523,0.0986973978564143,1.1719957610465586
1772642716400074000,6.098073974609375,-5.291268671053648,0.511937568860501,1.300971100527793
1772642716410119200,6.108119140625,-4.624821362352371,0.7687339632213115,1.4018258225485682
1772642716420165000,6.1181650390625,-3.9181174465864896,0.8343668574742973,1.3759082680903374
1772642716430209800,6.128209716796875,-3.2642472953855988,0.7853060355767607,1.2365249318413436
1772642716440255000,6.1382548828125,-2.5965795049786564,0.6942481926880777,1.0891295540504158
1772642716450300000,6.1482998046875,-1.963396167975664,0.4709780742235481,1.0676749703504145
1772642716460345000,6.158344970703125,-1.3116595216721296,0.1302685941621661,1.1030731775984168
1772642716470390000,6.16839013671875,-0.6142904204845429,-0.1726741959542036,1.115350621499866
1772642716480436000,6.17843603515625,0.2012953102827072,-0.4159735414907336,1.1406129269197582
1772642716490481000,6.18848095703125,1.0130196894466876,-0.6642008449487388,1.1601850578740238
1772642716500525800,6.19852587890625,1.7524860571295022,-0.7630062332242726,1.1122753057077526
1772642716510571000,6.208571044921875,2.4139959094285963,-0.5990834990024566,0.9992217579796908
1772642716520616000,6.218615966796875,2.8972558114677667,-0.2266403255499899,0.95017123828046
1772642716530660900,6.228660888671875,3.1551801869452,0.2298101877577602,1.038697589930147
1772642716540705800,6.238705810546875,3.1840830408245324,0.916971052533388,0.9900602541416884
1772642716550752000,6.248751953125,3.0520547435134646,1.4421442428030071,0.9003779373899101
1772642716560797000,6.258796875,2.9101094478219744,1.7392229631915688,0.8892284015398472
1772642716570842000,6.268842041015625,2.8795371994256973,1.898926618413627,0.9240303233951328
1772642716580887000,6.278886962890625,2.9743893200308085,1.968482092937827,0.8703811507940292
1772642716590932000,6.288931884765625,3.167651545983553,1.932122201050818,0.7553189666572958
1772642716600977000,6.298976806640625,3.448708959767222,1.728718812572956,0.6616388855062425
1772642716611022800,6.30902294921875,3.91759429949522,1.3964835847377777,0.4764196442229673
1772642716621068000,6.319068115234375,4.583705508109927,1.0965853499490767,0.1579235120733268
1772642716631113000,6.329113037109375,5.428064913418889,0.8969287467841058,-0.2658596437224186
1772642716641158000,6.339157958984375,6.308444311136007,0.7544713368520141,-0.698941611201316
1772642716651202800,6.349202880859375,7.025127769124508,0.5098053060721606,-1.0464872939582914
1772642716661248000,6.359248046875,7.563883932936191,0.2022439893096685,-1.231714316689223
1772642716671294000,6.3692939453125,7.910271020242571,0.0221655084483325,-1.326677350322902
1772642716681339100,6.379339111328125,8.049405350166559,0.1197654664568603,-1.4661787599936127
1772642716691384000,6.389384033203125,7.929737352734803,0.3223189601071178,-1.5922688994273542
1772642716701429000,6.399428955078125,7.412129190891981,0.4889367786318063,-1.6030663339041171
1772642716711474000,6.409473876953125,6.672260087627172,0.642347178928554,-1.4600082546651365
1772642716721519000,6.41951904296875,6.066849723690748,0.8514595927029848,-1.3164124152876435
1772642716731565000,6.42956494140625,5.535391900193691,1.1585400671459734,-1.2463793863795698
1772642716741610000,6.43960986328125,4.850537997186184,1.4263101293332874,-1.0197947365395723
1772642716751655000,6.449655029296875,3.9954736579895016,1.480172067902237,-0.5272260676788166
1772642716761699800,6.459699951171875,3.240926041030884,1.2204301216088234,0.0713769908629357
1772642716771745000,6.4697451171875,2.8493215093821287,0.8533541742779314,0.3753551153764128
1772642716781790000,6.4797900390625,2.6968162412315606,0.7142813652828335,0.1631672762120142
1772642716791835100,6.489835205078125,2.255227489230037,0.7213818449378013,-0.2032716883895918
1772642716801881000,6.499881103515625,0.8232049735993147,0.5569390323646366,-0.1395540531734004
1772642716811926000,6.509926025390625,-0.3876572553277015,-0.0768330643117427,0.3611420637698844
1772642716821971000,6.519970947265625,0.245837631842494,-1.1993825112745164,0.7428056681733578
1772642716832016000,6.530015869140625,2.553595518776774,-1.134559618230164,0.0379599474947899
1772642716842061000,6.54006103515625,4.924839497193694,0.428345239546895,-1.790345832185447
1772642716852105700,6.550105712890625,5.977345978376269,1.1302268497228622,-2.889726292745769
1772642716862152000,6.56015185546875,5.949155656680464,0.2360109420940279,-2.369305411569774
1772642716872196900,6.57019677734375,5.361583147251606,-1.156492340835929,-1.1446064535353333
1772642716882242000,6.580241943359375,3.922931568869948,-1.643543744112551,-0.3359938862489536
1772642716892287000,6.590286865234375,1.513506620618701,-1.460648598395288,0.2662529173563234
1772642716902332200,6.600332275390625,-1.5718530111253262,-1.0323577193841338,0.7024012501358986
1772642716912376800,6.610376953125,-4.543454161742329,-0.3516564060114324,0.4511209157828241
1772642716922422000,6.620422119140625,-6.596701865556836,0.4810938100464642,-0.3893405687721445
1772642716932468000,6.630468017578125,-8.320721122136712,1.1504853555060923,-1.0511404535263775
1772642716942513000,6.640512939453125,-9.90862802696228,1.4146487715035676,-1.383480018518865
1772642716952558000,6.65055810546875,-10.516382323676346,0.7817140024341642,-1.0926142543610184
1772642716962602800,6.660602783203125,-10.387042827057838,-0.2783228742532432,-0.4011553635979071
1772642716972648000,6.67064794921875,-9.756977329814433,-1.081534568876773,0.0693937263575382
1772642716982692900,6.68069287109375,-8.824457995015383,-1.7375247809715568,0.3622724925719201
1772642716992739000,6.690739013671875,-7.816984833779931,-2.2405821471534666,0.5087214198255912
1772642717002784000,6.700783935546875,-7.08409609092176,-2.538013334241509,0.5382171615641563
1772642717012829200,6.7108291015625,-6.870526989999413,-2.65504163081944,0.6979972430232911
1772642717022873900,6.720873779296875,-6.856650440338254,-2.58004922593832,0.9637705053701996
1772642717032919000,6.7309189453125,-6.769640849927067,-2.310477813417464,0.9790834445100276
1772642717042964000,6.7409638671875,-6.66215662676394,-1.9115346094436945,0.7598796987015753
1772642717053009200,6.751009033203125,-6.439126454535126,-1.5619968030214308,0.6136709734119474
1772642717063055000,6.76105517578125,-6.211641640985012,-1.2701375708468257,0.7115291439652442
1772642717073099800,6.771099853515625,-5.961349952343106,-0.9432719072207808,0.8917113774619996
1772642717083145000,6.78114501953125,-5.719266120076179,-0.6345823901459574,1.0486604732789098
1772642717093190000,6.79118994140625,-5.625414116424322,-0.390050141813606,1.1096672421012073
1772642717103235000,6.801235107421875,-5.358789132618904,-0.1146970771513879,1.095976205074787
1772642717113280000,6.811280029296875,-4.847238371118903,0.1562627209879457,1.025854694165662
1772642717123326000,6.821325927734375,-4.069322738054394,0.2827854066200554,0.93835447069332
1772642717133371000,6.831370849609375,-3.127601275146007,0.1782861906170845,0.9283730287745594
1772642717143415800,6.841415771484375,-2.166965268409252,-0.0714545861437916,1.0983042096309363
1772642717153460700,6.851460693359375,-1.402702897644043,-0.3075036682911217,1.390789757010341
1772642717163506000,6.861505859375,-0.8206453522443771,-0.3633557577639818,1.65982253260985
1772642717173550600,6.871550537109375,-0.3803951553702354,-0.2572334706038236,1.7690677740961311
1772642717183595800,6.881595703125,0.0419096349686384,-0.0698068189367651,1.70256379609704
1772642717193641700,6.891641845703125,0.5073083016246557,0.0802808666780591,1.4307234157308937
1772642717203686700,6.901686767578125,0.9731886143177748,0.0829042009189724,1.1825846673391758
1772642717213731800,6.91173193359375,1.578431220471859,0.0477723895221948,1.0251884122766557
1772642717223776800,6.92177685546875,2.282610586196184,0.0393849387966096,0.8956972322277724
1772642717233821700,6.93182177734375,3.034599750843644,0.0164721191123127,0.9922489232923836
1772642717243866600,6.94186669921875,3.732443483805656,0.3916891411922872,0.9783256118800492
1772642717253912600,6.95191259765625,4.209330343681573,0.906102598647028,0.7201737843222916
1772642717263957800,6.961957763671875,4.325840753865242,1.1456941757068038,0.515819159534201
1772642717274002700,6.972002685546875,4.284057375624776,1.2840993145734072,0.3999582262352109
1772642717284047600,6.982047607421875,4.245013651481271,1.4643810629218816,0.3571232931151986
1772642717294092500,6.992092529296875,4.15900008637011,1.7529719409503042,0.3620282354872673
1772642717304137700,7.0021376953125,4.157227231478691,2.036911632172018,0.444114251891151
1772642717314182700,7.0121826171875,4.4078228715032335,2.1823120367534456,0.5768661142364144
1772642717324228900,7.022228759765625,5.022561035755277,2.2476355727963147,0.6289101897284388
1772642717334273800,7.032273681640625,5.86911765884757,2.2186190294094383,0.6123973732795566
1772642717344318700,7.042318603515625,6.842146698689461,2.039483528486639,0.552709943427518
1772642717354363600,7.05236376953125,7.84085729227662,1.713792315467447,0.4057834983225911
1772642717364408800,7.062408935546875,8.586926419225335,1.4033240982823072,0.1588640625927597
1772642717374453800,7.072453857421875,8.88627060032785,1.260837535320967,-0.033850320218876
1772642717384499700,7.082499755859375,8.576485104709864,1.292023677831888,-0.1802538374282419
1772642717394544600,7.092544677734375,7.663885691389441,1.3737977056771515,-0.2153697206035256
1772642717404589600,7.102589599609375,6.510740322893858,1.3171584113493562,-0.0331301892507821
1772642717414634800,7.112634765625,5.245930815201998,1.181879295548797,0.2650519988676533
1772642717424679700,7.1226796875,4.080688766199351,1.2551099514544009,0.3486621195662766
1772642717434724900,7.132724853515625,3.1226334236055613,1.6085998565033075,0.0630142727198079
1772642717444769500,7.14276953125,2.3316899666637183,2.1773355635151264,-0.2885225985651836
1772642717454815700,7.152815673828125,1.483660932931304,2.53707985278368,-0.292672959710285
1772642717464860700,7.162860595703125,0.6803384714096784,2.4661095430254933,0.0163033201503567
1772642717474905900,7.17290576171875,0.2627355751514434,2.090879369203001,0.2717268369890749
1772642717484950800,7.18295068359375,0.0540068999975919,1.5734716983683406,0.3170692228853702
1772642717494995700,7.19299560546875,-0.3287514773726463,0.8301007244624197,0.1387352476038038
1772642717505040600,7.20304052734375,-0.9731436061322688,-0.6025038288399577,0.3889654518494382
1772642717515086600,7.213086669921875,-1.4238006307303903,-2.0115724621236324,0.3086339874953031
1772642717525131800,7.2231318359375,-0.7089239299029112,-1.7200231726810336,-0.8808245111361146
1772642717535176700,7.2331767578125,0.5486743312358856,0.1581800989165902,-2.444754474177212
1772642717545222000,7.243221923828125,1.2807903361558914,1.112955396926403,-2.7110917270824317
1772642717555266600,7.2532666015625,1.1933446924149989,0.7490981193810701,-1.872407152539492
1772642717565311700,7.263311767578125,0.8747469447880983,-0.2899091210201382,-0.4275192735841497
1772642717575356700,7.273356689453125,0.6584083791524171,-1.2539739331617952,0.5354485371010378
1772642717585402600,7.283402587890625,0.208431153512001,-2.154446270836889,1.1481943950247018
1772642717595447800,7.29344775390625,-1.294256551450491,-2.62031518535316,1.4534126557923852
1772642717605492700,7.30349267578125,-3.517306695175171,-2.401898059877753,1.2882786460846662
1772642717615537700,7.31353759765625,-5.117089915755391,-1.547607919923961,0.7759336654670536
1772642717625582600,7.32358251953125,-5.785970004561543,-0.3632147418580949,0.0654781877484638
1772642717635627800,7.333627685546875,-6.330867155346274,0.5035343360438943,-0.2672500203685835
1772642717645673700,7.343673828125,-6.996081122860312,0.589381020155549,-0.1010660266838967
1772642717655719000,7.353718994140625,-7.215957799494266,-0.0364934551388025,0.1471479606348089
1772642717665763600,7.363763671875,-6.617309769299626,-0.916663301758468,0.3475642413269728
1772642717675808800,7.373808837890625,-5.868323878121376,-1.544842254602909,0.441914549889788
1772642717685853700,7.383853759765625,-5.441456309911608,-2.115297332753241,0.3411179147318005
1772642717695899000,7.39389892578125,-5.041675486069917,-2.5146736674472687,-0.0944699528871104
1772642717705943800,7.40394384765625,-4.648883790463209,-2.679595641839504,-0.8382983517043292
1772642717715989800,7.41398974609375,-4.373341340708732,-2.591466399748623,-1.6060975182935595
1772642717726034700,7.42403466796875,-4.213195786938071,-2.325259787485749,-1.8990625197529791
1772642717736079600,7.43407958984375,-3.735340958812833,-1.881841043578088,-1.6409747704073785
1772642717746124800,7.444124755859375,-2.885399369457364,-1.4674099092237651,-1.1075045841746032
1772642717756169700,7.454169677734375,-1.966661891773343,-1.2079827279679476,-0.4004711076607927
1772642717766214700,7.464214599609375,-1.1936556580603122,-0.96338252896592,0.2645152616424486
1772642717776259600,7.474259521484375,-0.6725456255763769,-0.737257459461689,0.8003034059613943
1772642717786305800,7.484305908203125,-0.3123182289659977,-0.533633267839998,1.1236053126912564
1772642717796350700,7.494350830078125,-0.0700783293545246,-0.3205566266097128,1.2905679260656238
1772642717806395600,7.504395751953125,0.0313479089438915,-0.1487041223019361,1.3697105824939906
1772642717816440800,7.51444091796875,-0.0810731860995292,-0.0161056238874793,1.2588975071690975
1772642717826485800,7.52448583984375,-0.2509218032389879,0.0895129515342414,0.9833024504445492
1772642717836530700,7.53453076171875,-0.3985281934320926,0.2297144722983241,0.6629537674970924
1772642717846576600,7.54457666015625,-0.5551502492517233,0.4103291058629751,0.4654566439209505
1772642717856621800,7.554621826171875,-0.5261585480451584,0.6782258631698787,0.3399382034279405
1772642717866666800,7.564666748046875,-0.3513888411164284,0.9097313105382024,0.2831147847048938
1772642717876711700,7.574711669921875,-0.1549783802658319,1.0127624998152256,0.3033729434282519
1772642717886756600,7.584756591796875,0.0227384860306978,1.041502125956863,0.254378190770559
1772642717896801800,7.5948017578125,0.292147547596693,1.037881158980727,0.178454478122387
1772642717906846700,7.6048466796875,0.7204951252311468,1.017554410266876,0.066796631669579
1772642717916892700,7.614892578125,1.4401783495575189,0.8885409307323395,-0.0094973938620183
1772642717926937900,7.624937744140625,2.0645751535147427,0.6397998325332999,-0.0354813280873466
1772642717936982500,7.634982421875,2.415651275420189,0.6021642216220497,-0.111095563794393
1772642717947027700,7.64502783203125,2.796037078440189,0.5120087344005704,-0.1698339675595983
1772642717957072600,7.65507275390625,2.9224405216068026,0.2843088167950511,-0.1973566008605994
1772642717967117800,7.665117919921875,3.1378000130772588,0.0786380679070949,-0.2639682039526291
1772642717977162500,7.67516259765625,3.278817088007927,-0.0416919005647301,-0.3515977711593732
1772642717987208700,7.685208740234375,3.102186847904324,-0.0973129577606916,-0.3575261748276651
1772642717997253600,7.695253662109375,2.7838205709457395,-0.1016100704327225,-0.2535521517425775
1772642718007298800,7.705298828125,2.223802423396706,0.1510182444632053,-0.0760888720480492
1772642729644251600,0.060251708984375,-0.0287654912352561,0.2162698843136429,0.2506179249215871
1772642729654296600,0.070296630859375,0.1213403145581483,0.185135325859487,0.2854704809855669
1772642729664341800,0.080341796875,0.2369569907724857,0.0343079277932643,0.3706226800270378
1772642729674386700,0.09038671875,0.3356254547953605,-0.1625964540541171,0.41921135436818
1772642729684431600,0.100431640625,0.3698006961196661,-0.2930238920398056,0.3706623544503003
1772642729694476500,0.1104765625,0.3042974195957184,-0.35743776589185,0.2963651652917266
1772642729704521700,0.120521728515625,0.1547948403924703,-0.374624609144777,0.2814120724402368
1772642729714566700,0.130566650390625,-0.0428477926015853,-0.4818509120240807,0.4118971588972955
1772642729724611800,0.14061181640625,-0.1727706420660018,-0.3455393844358623,0.3123872025489806
1772642729734656500,0.150656494140625,-0.226674666211009,-0.2511462596446275,0.1433348868863657
1772642729744701700,0.16070166015625,-0.24875439607203,-0.2421889000765979,0.1316740405132994
1772642729754747600,0.17074755859375,-0.1863467474758625,-0.2428023557998239,0.201535767975077
1772642729764792600,0.18079248046875,-0.0450479329943656,-0.2623407306149601,0.2892982591127976
1772642729774837800,0.190837646484375,0.2251104856342077,-0.2613957048498094,0.4010202294435351
1772642729784882400,0.20088232421875,0.5510106652289629,-0.2750098041824996,0.4810755072047933
1772642729794927600,0.210927734375,0.8369757247984408,-0.2535907301872968,0.4946268800321966
1772642729804972500,0.22097265625,1.0388672474086285,-0.2440104164153337,0.4925585127929225
1772642729815017700,0.231017822265625,1.25662269410491,-0.240048527047038,0.4985020774977281
1772642729825062700,0.241062744140625,1.4360165537029503,-0.2025264595128595,0.4974497189005836
1772642729835107600,0.251107666015625,1.580124580386281,-0.1299037063725292,0.4920416493119671
1772642729845152500,0.261152587890625,1.7746704164087772,-0.0511800060085952,0.4717064980959519
1772642729855197700,0.27119775390625,1.9334698162674904,0.0249018015444278,0.4314201169475913
1772642729865243600,0.28124365234375,2.019264185670018,0.1331831664346158,0.3403715898765251
1772642729875288800,0.291288818359375,2.0284803423047064,0.2884700281277298,0.2169319649515673
1772642729885333500,0.30133349609375,1.988577370983362,0.4609066159337758,0.1236931612946093
1772642729895378700,0.311378662109375,1.981766521924734,0.6638787733875214,-0.0598043524962849
1772642729905423600,0.321423583984375,2.001567200937867,0.9127638101018964,-0.4153436460893601
1772642729915468800,0.33146875,2.108398513150215,1.1114905850708483,-0.6317759544230998
1772642729925513700,0.341513671875,2.238567446330189,1.3089774429813026,-0.8625781488928943
1772642729935558700,0.35155859375,2.411946575683355,1.5783153390072284,-1.162951746108383
1772642729945603600,0.361603515625,2.5125205810666085,1.7892460542500015,-1.3450241772659122
1772642729955648800,0.371648681640625,2.520973936635256,1.833718525443971,-1.362755648789555
1772642729965693700,0.381693603515625,2.509820089936256,1.6938614342033862,-1.1678832842264324
1772642729975739000,0.39173876953125,2.526803957962989,1.5162654178075492,-0.943544367486611
1772642729985784600,0.40178466796875,2.621460263735056,1.3790794454723596,-0.7968311998061836
1772642729995829500,0.41182958984375,2.641028887557983,1.1946627892762425,-0.6596192162469029
1772642730005874700,0.421874755859375,2.318570372849703,0.9656222707167268,-0.4896872316729277
1772642730015919600,0.431919677734375,1.5619260758727789,0.7835062926784158,-0.2729534744408913
1772642730025964800,0.44196484375,0.7899234662443398,0.6900362740814685,-0.1158592527985572
1772642730036009500,0.452009521484375,0.1227127719551324,0.5074304666996002,-0.0090086878964677
1772642730046054700,0.4620546875,-0.6244400585770606,0.2456076224789023,0.0968390749049372
1772642730056099600,0.472099609375,-1.8041835111409423,0.3729091835290193,0.1786229300244711
1772642730066144800,0.482144775390625,-3.3298610465466973,0.8305594280153512,0.342536622423306
1772642730076189700,0.492189697265625,-4.574444927811622,0.8870455776080489,0.7103191105883568
1772642730086234600,0.502234619140625,-5.31476469745338,0.5809256187602877,0.8367096942733973
1772642730096279600,0.512279541015625,-5.762008114215731,-0.0615536621153354,0.7421431856766343
1772642730106325500,0.522325439453125,-5.869847142165899,-0.9562690436989068,0.4382657450586557
1772642730116370700,0.53237060546875,-5.681036634925007,-1.4581629190593957,-0.546561101941578
1772642730126415600,0.54241552734375,-5.51036559548676,-2.804536611238122,-0.4130577271092683
1772642730136460500,0.55246044921875,-5.280296610662341,-4.049061163531244,0.6217210819419473
1772642730146505500,0.56250537109375,-5.051778362411261,-4.476597424782812,1.264507602135837
1772642730156549600,0.572549560546875,-5.872174123808741,-4.26822472345978,1.2758432351425288
1772642730166594800,0.5825947265625,-7.255799980539083,-3.9251498294413087,1.044826813400164
1772642730176639700,0.5926396484375,-7.90741972246468,-3.7707524639338255,0.8101561799991875
1772642730186685000,0.602684814453125,-7.754886397263407,-3.787400816395879,0.6245088860295712
1772642730196729900,0.612729736328125,-7.148765254709124,-3.858347160756588,0.4711801726669072
1772642730206774800,0.62277490234375,-6.275063435059786,-3.8518554606497286,0.3148202018495649
1772642730216820700,0.63282080078125,-5.292373417425155,-3.830953542396426,0.2569813955388963
1772642730226865700,0.64286572265625,-4.370953568789362,-3.775872583426535,0.2919995174281299
1772642730236910800,0.652910888671875,-3.4692589958429334,-3.349802595335245,0.1064820603832602
1772642730246955800,0.662955810546875,-2.594350138491392,-3.19857918368876,0.2228518199872225
1772642730257001000,0.6730009765625,-1.618217287415266,-3.0959952997878197,0.6787406077589839
1772642730267045600,0.683045654296875,-0.4330354431897401,-2.665141876812279,0.8613200385905802
1772642730277090800,0.6930908203125,0.6698533177524805,-2.0832254934489725,0.7997540284503251
1772642730287135700,0.7031357421875,1.5015058017015457,-1.4087392551988362,0.5283128765348345
1772642730297181000,0.713180908203125,2.0743542047291994,-0.809548788690567,0.3006274989113211
1772642730307225600,0.7232255859375,2.368869065979123,-0.2876014285996556,0.2063379806250333
1772642730317270800,0.733270751953125,2.547127784067392,0.1622597694456577,0.1251217327930033
1772642730327315700,0.743315673828125,2.808801282945275,0.575907352206856,-0.0993731782261282
1772642730337362000,0.75336181640625,3.0102170047372576,0.9020850335687398,-0.4095825252793729
1772642730347406800,0.76340673828125,3.235490571978688,1.2192258603855968,-0.5930608777120709
1772642730357452000,0.7734521484375,3.604537819382548,1.515592340851575,-0.5003263337828219
1772642730367496700,0.78349658203125,4.047309059166908,1.653022789467126,-0.1635942329198122
1772642730377542000,0.7935419921875,4.382604259094595,1.7455059889838098,0.2444965194318443
1772642730387586800,0.8035869140625,4.7869297406286,1.91552908590734,0.445683181708306
1772642730397632000,0.813632080078125,5.185626276364922,2.309123622329533,0.5104030527696013
1772642730407676700,0.8236767578125,5.426349341672658,2.810910530184209,0.4659541816469281
1772642730417721900,0.833721923828125,5.402687311056256,3.186496531707048,0.3540422051694244
1772642730427766800,0.843766845703125,5.20230268587768,3.4013618099197744,0.2094508519485592
1772642730437812000,0.85381201171875,5.152554612368345,3.5548639801532027,0.167420659340173
1772642730447857000,0.86385693359375,5.392897153925896,3.8155157347679136,0.1211236761327832
1772642730457902800,0.87390283203125,5.74587881719172,4.217365766099095,0.0614092852085828
1772642730467947800,0.88394775390625,5.999418693974614,4.539647170674801,0.0294402486916631
1772642730477992700,0.89399267578125,6.152883162546157,4.659374497078359,-0.1332571084536612
1772642730488038000,0.904037841796875,6.380749668890237,4.655564875662327,-0.414692415639013
1772642730498082800,0.914082763671875,6.48759091797471,4.542226373513043,-0.6987522261090576
1772642730508128000,0.9241279296875,6.458227460846304,4.416344031611085,-0.947785731383413
1772642730518172700,0.934172607421875,6.126333593794703,4.419735719875991,-1.088346440848708
1772642730528217900,0.9442177734375,5.569119397750496,4.484137757159769,-1.025912561832741
1772642730538262800,0.9542626953125,5.042749837303162,4.518944282124936,-0.814206697499007
1772642730548308000,0.964307861328125,4.557479764485359,4.467278684556484,-0.5231633848171681
1772642730558352600,0.9743525390625,4.239155573102831,4.207054799965023,-0.1462710134034976
1772642730568397800,0.984397705078125,4.15321858035922,3.7270199974522,0.1678179150294512
1772642730578443800,0.99444384765625,4.312054805096984,3.1649940172120927,0.2533112373924814
1772642730588488700,1.00448876953125,4.333507927492261,2.633641699916124,0.1817617212405428
1772642730598534000,1.014533935546875,3.8257062893927096,2.002538968579471,0.0405497539254371
1772642730608578800,1.024578857421875,2.8500720354884863,1.365962482006848,-0.157140672866255
1772642730618623700,1.034623779296875,1.9134324058890344,0.7892860451236366,-0.36535000032112
1772642730628668700,1.044668701171875,1.1824550496101378,0.1967690650299191,-0.3872019493082538
1772642730638713900,1.0547138671875,0.6110919167041778,-0.3389204046875238,-0.3181251982117071
1772642730648758800,1.0647587890625,0.243715232861042,-0.6181634625256062,-0.3732836428645998
1772642730658803700,1.0748037109375,-0.0515443092763423,-0.6448652992293238,-0.4835002866663038
1772642730668848600,1.0848486328125,-0.9910779067516328,-0.4079734826475382,-0.5507576403159647
1772642730678893800,1.094893798828125,-3.1625194437921045,-0.1543146556600928,-0.2637704528908245
1772642730688938800,1.104938720703125,-5.807183472982048,0.2428358196780085,-0.1433638481193687
1772642730698985000,1.11498486328125,-7.179428688520193,0.7171127893164754,-0.6736265526808798
1772642730709030000,1.12502978515625,-7.488656550255417,0.1122089135974645,-0.8728514864303171
1772642730719074800,1.13507470703125,-7.444217689070105,-1.3796028848245738,-0.7494019246332347
1772642730729119700,1.14511962890625,-7.117732987585663,-2.69816064157784,-0.4497865253739058
1772642730739165000,1.1551650390625,-7.15759504237473,-3.771913032145798,0.2344178276836871
1772642730749209900,1.1652099609375,-7.842756403896212,-4.594537867769598,0.5719665421592072
1772642730759254800,1.1752548828125,-9.12351751395762,-4.976375038641691,0.3799358307627961
1772642730769299700,1.1852998046875,-10.902587626630067,-4.844468614144623,-0.2187421196460723
1772642730779345000,1.195344970703125,-13.020441365867852,-4.729658578138054,-0.6769016288287937
1772642730789389800,1.205389892578125,-14.425380644261836,-4.462406986866891,-0.8828468107439577
1772642730799435000,1.21543505859375,-14.254177689903974,-3.8597517668575048,-0.8751004344008863
1772642730809479700,1.225479736328125,-12.97281218420863,-3.359728069283068,-0.6489997686855494
1772642730819525600,1.235525634765625,-11.539432408750056,-3.250030553984642,-0.2350725652653723
1772642730829570800,1.24557080078125,-10.195436551618576,-3.296632730683684,0.0663928457748144
1772642730839615700,1.25561572265625,-9.008943624794483,-3.4622014785468576,0.2434962563481181
1772642730849661000,1.265660888671875,-7.91318369281888,-3.6189836933642634,0.331728082030639
1772642730859705900,1.275705810546875,-6.686929248970746,-3.5607094913110133,0.3487704022463411
1772642730869750800,1.285750732421875,-5.294746576297283,-3.3956977928087118,0.4197386661779135
1772642730879795700,1.295795654296875,-3.817515968674421,-3.2446263568535447,0.635808059483394
1772642730889841000,1.3058408203125,-2.349635957720876,-3.213095200297236,1.119715977102518
1772642730899885800,1.3158857421875,-0.8014531605184078,-3.2132159040674564,1.7051763166829943
1772642730909930800,1.3259306640625,0.7263140406429767,-3.3248049322009083,2.185611078298837
1772642730919975700,1.3359755859375,1.966106011456251,-3.493967905163765,2.401067162011564
1772642730930020900,1.346020751953125,2.727918650981784,-3.515661266055703,2.39825853433162
1772642730940066800,1.35606689453125,3.2180969541072844,-3.1798619159981607,2.25267575892061
1772642730950111700,1.36611181640625,3.634968028959632,-2.561501761856675,2.0518845987677574
1772642730960157000,1.376156982421875,4.189236234679818,-1.915861094340682,1.6628316512979566
1772642730970201900,1.386201904296875,4.652923421242833,-1.3927990510061383,0.991160908859968
1772642730980246800,1.396246826171875,4.92124819470346,-0.8648620951116085,0.2270285942152142
1772642730990291700,1.406291748046875,5.104081381100416,-0.1415957516014576,-0.4984862588740885
1772642731000337000,1.4163369140625,5.029620891138911,0.6667696725234389,-1.0227987406611443
1772642731010381800,1.4263818359375,4.593927042394876,1.417903973907232,-1.1720799321986737
1772642731020426800,1.4364267578125,3.922675548282265,2.013842745143175,-0.9609832127392292
1772642731030471700,1.4464716796875,3.300061536088586,2.476624215038121,-0.5278633061364293
1772642731040516900,1.456516845703125,3.4484026702970265,2.9201150012686847,-0.2814757853262126
1772642731050561800,1.466561767578125,3.792846222320199,3.078476009710133,0.2213112394817173
1772642731060606700,1.476606689453125,4.133309764796495,2.8296871268466117,1.2273321560822426
1772642731070652700,1.486652587890625,4.488125657752156,2.797274219019711,2.007249045966565
1772642731080697900,1.49669775390625,5.017829915580153,2.77566941319406,2.249650273619592
1772642731090742800,1.50674267578125,5.522249510025977,2.727180984356999,2.285239327264577
1772642731100788000,1.5167880859375,5.973367137873172,2.5943568604931238,2.148912602107227
1772642731110833000,1.5268330078125,6.265094998753071,2.321292783550918,1.8657465256065129
1772642731120877800,1.5368779296875,6.628888563412428,2.097471753205359,1.3227230597391724
1772642731130922800,1.5469228515625,6.849973446792363,1.871758625502884,0.8302594221554697
1772642731140968000,1.556968017578125,6.771178727018833,1.6237696608453989,0.3143075030870735
1772642731151012900,1.567012939453125,6.626922231775522,1.5565516893580555,-0.2174097019985318
1772642731161058300,1.577058349609375,6.4226207254141565,1.6302859108716248,-0.4837545536883175
1772642731171103500,1.587103515625,6.117571026146411,1.780879207921028,-0.4842015668034553
1772642731181148400,1.5971484375,5.662984260883927,2.0109607599660757,-0.2033233089789748
1772642731191194600,1.607194580078125,5.228865114110708,2.240525302399695,0.2265690138794481
1772642731201239600,1.617239501953125,4.996019650310278,2.4401208230271934,0.6729454385489225
1772642731211284700,1.62728466796875,4.739063243082166,2.6750799179807303,1.056720445615798
1772642731221329400,1.637329345703125,4.53267207096517,2.9779826683476567,1.3219042907021938
1772642731231374600,1.64737451171875,4.387513658446073,3.415473921902477,1.333787182328105
1772642731241419500,1.65741943359375,4.191080401241779,3.861459447558224,1.118056811718643
1772642731251464700,1.667464599609375,3.995043449878693,4.177662701264024,0.7951550832875073
1772642731261509400,1.67750927734375,3.7354648774534462,4.046168364699184,0.763942418095842
1772642731271554600,1.687554443359375,3.3160242443740366,3.399721056975424,1.16918837547563
1772642731281599500,1.697599609375,3.31262349601984,2.533547587004304,1.6423659325048323
1772642731291644700,1.707644775390625,3.991715182238817,1.9797066667854784,1.586899042957276
1772642731301689600,1.717689697265625,4.9961388927757735,1.6001754347681998,1.1938029575765132
1772642731311734500,1.727734619140625,5.917876136797666,1.437030114659667,0.6391343543618917
1772642731321780500,1.737780517578125,6.074943598297238,1.307924719057977,0.2036840685827657
1772642731331825400,1.747825439453125,4.185265577483177,0.9221326730802656,0.2841748882170766
1772642731341870600,1.75787060546875,1.2364198640316724,0.753128397810459,0.5159114409275353
1772642731351915500,1.76791552734375,-1.03422029838562,0.9885273454859852,0.6689746352218091
1772642731361960400,1.77796044921875,-2.701188464966416,1.359830262862146,0.8120504693131894
1772642731372005400,1.78800537109375,-4.254723144590854,1.5035747169300913,0.9419517645329236
1772642731382050600,1.798050537109375,-5.457334847044945,1.2119675598204136,1.2219310276910662
1772642731392095500,1.808095458984375,-5.661031373250484,0.700065500664711,1.2349823785744607
1772642731402140700,1.818140625,-5.331468579494953,-0.0410652930989861,0.9433835509017108
1772642731412185300,1.828185302734375,-5.113941096335649,-1.4082994024768472,0.8099331848982722
1772642731422230500,1.83823046875,-4.939105338433385,-2.879343430419266,0.5572885764546692
1772642731432275500,1.848275390625,-5.252364063119888,-3.791587746691704,-0.028027934208326
1772642731442321700,1.85832177734375,-6.355740315318108,-4.048530417655408,-0.7410266027368605
1772642731452366600,1.86836669921875,-7.808868162819743,-3.988777667482197,-0.9482901007089763
1772642731462411500,1.87841162109375,-9.443442710795996,-3.9773748144581913,-0.472021555394493
1772642731472456400,1.88845654296875,-11.37584577461481,-3.952915495984256,0.0155897102545946
1772642731482501600,1.898501708984375,-13.081793952453136,-3.99159769333899,0.2778063760984688
1772642731492546600,1.908546630859375,-13.956382491809128,-4.045771182075143,-0.0228474993631243
1772642731502591500,1.918591552734375,-14.017003256988524,-4.007426546111703,-0.7955706052858382
1772642731512636400,1.928636474609375,-13.733089284729957,-3.8429572839230297,-1.744459694801271
1772642731522681600,1.938681640625,-12.970938207030295,-3.3649262224480507,-2.4367814494714137
1772642731532726500,1.9487265625,-11.560131497907635,-2.740935661204159,-2.5125074293240903
1772642731542771500,1.958771484375,-9.61572469256222,-2.205112920495868,-1.8165294902339577
1772642731552816600,1.968816650390625,-7.399749601790308,-1.6071104947283863,-0.8216204078216105
1772642731562861600,1.978861572265625,-5.3468707312881945,-1.3516376040562987,0.4775586947228759
1772642731572907500,1.988907470703125,-3.2854268615365028,-1.280069912926853,1.6358073046416044
1772642731582952400,1.998952392578125,-1.2819225550562143,-1.2419924034669994,2.4433920997828245
1772642731592997600,2.00899755859375,0.4046609970986843,-1.3653119091436263,2.866604652616381
1772642731603042600,2.01904248046875,1.5419710830807685,-1.5706374978557227,2.951036209233105
1772642731613087500,2.02908740234375,2.2237533235579727,-1.414834941725433,2.5576070925056933
1772642731623132400,2.03913232421875,2.7560008361279964,-0.8132666401699185,1.833027766700834
1772642731633177600,2.049177490234375,3.088009269469976,-0.0406469215564429,1.2954897465072572
1772642731643222500,2.059222412109375,2.979353664439917,0.4180172492127865,1.2706295921474695
1772642731653267700,2.069267822265625,2.4907395418912173,0.6294359671682119,1.2762377874180677
1772642731663312400,2.0793125,1.7798825980991124,0.7480247910611331,1.0167553688436746
1772642731673357600,2.089357666015625,0.9586796119719744,0.6998842988789081,0.3822538619142026
1772642731683402500,2.099402587890625,0.3281102568596601,0.3759081461492926,-0.3950381593592464
1772642731693447700,2.10944775390625,0.1527636268258094,-0.0781161994574591,-1.023009022410959
1772642731703493600,2.11949365234375,0.5862561661332846,-0.488351306894049,-1.3070853456243872
1772642731713538300,2.129538330078125,1.3511924906373023,-0.8782750458490103,-1.0948228703211993
1772642731723583500,2.13958349609375,2.465416300064325,-0.925745529815182,-0.6283523366499691
1772642731733628400,2.14962841796875,3.256960645508766,-0.793717086373642,-0.6371641502674669
1772642731743673600,2.159673583984375,3.693057229834795,-0.8579992236047983,-0.9206082399919628
1772642731753718500,2.169718505859375,4.358794344440103,-0.8566670251529663,-0.8238350151311605
1772642731763763500,2.179763427734375,5.366361029177904,-0.5705670871574431,-0.7170125438123941
1772642731773808400,2.189808349609375,5.812652259781957,-0.4429238365301862,-0.9352667338110506
1772642731783853600,2.199853515625,5.928641276440024,-0.6627599254254252,-1.260333092930168
1772642731793898500,2.2098984375,6.334533861160278,-0.8294015632171183,-1.6374971574246882
1772642731803943700,2.219943603515625,6.201324829632044,-0.9883375220023096,-1.7870567275121807
1772642731813988400,2.22998828125,5.994144552963972,-0.927925431137532,-1.7300249267354606
1772642731824034600,2.24003466796875,5.896240643572807,-0.7046054821819067,-1.5684339964620768
1772642731834079500,2.25007958984375,5.79466593671441,-0.4926513421755283,-1.2441104185342788
1772642731844124700,2.260124755859375,5.813865142703056,-0.2975857017963193,-0.850460498663038
1772642731854169600,2.270169677734375,5.939599892827868,-0.0640219884576275,-0.5690912059186026
1772642731864214500,2.280214599609375,6.005210136857628,0.262481746520847,-0.4598365755494684
1772642731874259500,2.290259521484375,6.039238663187622,0.6900836934197694,-0.4924778853047639
1772642731884304600,2.3003046875,6.305692966601252,1.0601496163468809,-0.5398894786905497
1772642731894349600,2.310349609375,6.68830229088962,1.4690841260463,-0.7659698322702199
1772642731904394800,2.320394775390625,7.038762326723337,1.8589787850372488,-0.9493677398778496
1772642731914439400,2.330439453125,7.05968119611144,1.908594756599516,-0.7037265804555267
1772642731924484600,2.340484619140625,6.550877102971077,1.3961287799507378,-0.1037326886098831
1772642731934529500,2.350529541015625,6.628916035941243,1.005441363146901,-0.0259819249313324
1772642731944574700,2.36057470703125,7.519948929619789,0.992865959212184,-0.5009915196932851
1772642731954619400,2.370619384765625,8.346961478808522,0.885474967290461,-0.744991560845077
1772642731964665300,2.380665283203125,8.45830530000925,0.2124769217714667,-0.4942290398210286
1772642731974710500,2.39071044921875,7.475833309039473,-0.5780187914028764,-0.087703710155189
1772642731984755500,2.40075537109375,4.968945180901884,-0.9328776467174292,0.1223071137636899
1772642731994800600,2.410800537109375,2.177568495488167,-0.8887595419190824,0.0632042788665741
1772642732004845600,2.420845458984375,0.2856991021096706,-0.5739531493991613,-0.3210148917712271
1772642732014890500,2.430890380859375,-0.8268722639352083,-0.2170246482037007,-0.9114638334192336
1772642732024935400,2.440935302734375,-0.7338496968448162,0.1332782973721623,-1.7880027761906383
1772642732034980600,2.450980712890625,-0.5183990199595689,0.4308126525737345,-2.165636357893049
1772642732045025500,2.461025634765625,-1.473196237540245,0.5691726371243596,-1.896868370709568
1772642732055070700,2.47107080078125,-3.5957658993840216,0.4023480439811944,-0.9459511363673956
1772642732065115400,2.481115478515625,-5.465422876432537,0.2410290625169873,0.3857735604729503
1772642732075160600,2.49116064453125,-6.139964644262195,0.3245864666476845,1.531914091707766
1772642732085205500,2.50120556640625,-6.173242644485831,-0.3852595465362072,2.704767784757912
1772642732095251500,2.51125146484375,-6.30111031498611,-0.796591545831412,3.0772938141882418
1772642732105296600,2.521296630859375,-6.995411845296621,-0.3448373736463487,2.780403455978632
1772642732115341300,2.53134130859375,-8.093219357451796,0.2925247103460133,2.7743396258950237
1772642732125386500,2.541386474609375,-9.372211704275012,0.579370644403249,3.3468849543228743
1772642732135431400,2.551431396484375,-10.867849490725993,0.3778780579827726,3.97904683932364
1772642732145476600,2.5614765625,-12.142876441049577,-0.0360731839001178,3.965360551537573
1772642732155521500,2.571521484375,-12.205825941437482,-0.5601476191475987,3.302695976245403
1772642732165566000,2.58156591796875,-11.466956370604038,-0.8245446977704763,2.690516556565463
1772642732175611100,2.591611083984375,-10.175895984846353,-0.8951208936445415,1.887550361135602
1772642732185655800,2.60165576171875,-9.012097704911232,-0.2183981285139918,0.1257478288020938
1772642732195701000,2.611700927734375,-8.968487695765495,-0.6914793124966323,-0.486385194452852
1772642732205746000,2.621745849609375,-8.415105040708184,-1.431812818402797,-0.27040954384543
1772642732215791000,2.631791015625,-7.678786323401331,-1.4250230121321976,0.2928154551872052
1772642732225837000,2.641837158203125,-7.253649524506926,-1.1090372005693614,1.0785621289372445
1772642732235882000,2.651882080078125,-5.449703913775086,-1.2297796953648328,1.7931613279975949
1772642732245927000,2.661927001953125,-3.0226907018631697,-1.8427502654224632,2.2143903057985006
1772642732255971800,2.671971923828125,-0.7942477591842413,-1.9038491695076225,1.904787765531987
1772642732266017000,2.68201708984375,0.6499830806344747,-1.6900873224921524,1.652686250989139
1772642732276062000,2.69206201171875,1.3677782992571592,-1.7952943945035338,1.6648098195031285
1772642732286107000,2.70210693359375,0.9313573052823544,-1.55533120765239,1.5573574527829883
1772642732296151800,2.71215185546875,0.7469494169145822,-1.2826663591608405,0.5091765066493302
1772642732306197000,2.722197021484375,0.8724474356740712,-0.9229155670862644,-0.1553359980644658
1772642732316242000,2.732241943359375,0.4310346247613429,-0.7424964560937136,0.2704914499752223
1772642732326287000,2.742287109375,-0.2487199092805385,-0.8307922138579189,0.7994095258615911
1772642732336331800,2.752331787109375,-0.3609557108849286,-0.4121750259906053,0.6695543348059058
1772642732346377700,2.762377685546875,0.2616536251336336,0.3633428982824087,0.038286439502798
1772642732356423000,2.7724228515625,1.358578509235382,0.9162392311275004,-0.6335631301008164
1772642732366467800,2.7824677734375,2.5363795955598354,0.8254789098806679,-1.2621473027452823
1772642732376513000,2.792512939453125,3.2379958327978846,0.8546051972523331,-1.7007704829394816
1772642732386557700,2.8025576171875,3.141425217837095,0.7774176934797317,-1.5005217591002582
1772642732396603000,2.812602783203125,3.3691847566753625,1.232021775203198,-0.6772119368869811
1772642732406647800,2.822647705078125,3.5193916847556825,1.3195555356189608,0.0087470778182148
1772642732416693000,2.83269287109375,4.051712847083807,1.0984751092184335,0.4572902520675211
1772642732426738000,2.842738037109375,4.647151267582178,0.9019572424706072,0.5657637054637075
1772642732436782800,2.852782958984375,5.426040129593014,0.9496259524226188,0.3796730516407638
1772642732446827800,2.862827880859375,4.751041265645623,0.2843477970985695,0.2272876104775816
1772642732456873000,2.872873046875,4.521960122814774,-0.1993453269924037,0.3694336894381791
1772642732466918000,2.88291796875,5.01423627500236,-0.0208760805591475,-0.1516294351641088
1772642732476963000,2.892963134765625,5.808405123731494,-0.2999557188632898,-0.4244031508576125
1772642732487009000,2.903009033203125,6.513683975130319,-0.4805285773791372,-0.3008910817509517
1772642732497054000,2.913053955078125,6.74423402146995,-0.4854368076868355,-0.1459348037190735
1772642732507099000,2.923098876953125,6.538807310470938,-0.3935121553683653,-0.0485712482823058
1772642732517144000,2.93314404296875,6.489435084536671,-0.2130543198006227,-0.1348891666349023
1772642732527189000,2.94318896484375,6.550295503690839,0.1537596521258354,-0.2235418846106156
1772642732537234000,2.95323388671875,6.320488969194889,0.4638342303508892,-0.1293288656266406
1772642732547278800,2.96327880859375,5.86229161221981,0.741112746650353,0.0277359289918094
1772642732557324000,2.973323974609375,5.918568795236945,1.0194280951842665,-0.0115759445685893
1772642732567369000,2.983368896484375,5.662359406983852,1.3457479614958163,0.1094165063999593
1772642732577414100,2.9934140625,5.171329455465078,1.7470695850387217,0.1332791193560697
1772642732587458800,3.003458740234375,5.1015007169574496,1.9121213232904672,-0.0626074820172041
1772642732597504000,3.01350390625,5.240605236265063,1.747957035397738,-0.2014421166085638
1772642732607549000,3.023548828125,5.136400180903077,1.112964018624276,-0.1770038591889664
1772642732617595000,3.033594970703125,5.719549028670787,0.745869074331969,-0.3073421575864777
1772642732627640000,3.04364013671875,6.376732249942422,0.5075558466449379,-0.3101336149359122
1772642732637684700,3.053684814453125,6.528523232343793,0.0176164668418467,0.1707129240849055
1772642732647730000,3.06372998046875,6.710710522052645,-0.34235914696455,0.3541218462768942
1772642732657774800,3.07377490234375,6.780002084943652,-0.5694255889721215,0.1142497535089962
1772642732667820000,3.083820068359375,6.667986648091674,-1.1262624761365354,-0.0312172865678556
1772642732677865000,3.093864990234375,6.430400711765885,-1.6099992019072171,-0.2853831862946041
1772642732687910000,3.103909912109375,5.421116117194295,-1.899427261412144,-0.5535274338228627
1772642732697954800,3.113954833984375,4.459999633464217,-1.972454503700137,-0.8218119118057191
1772642732708000000,3.124,3.58243412412405,-1.7645571648038922,-1.2441074959248304
1772642732718045000,3.134044921875,2.1461925294935704,-1.3231823478139937,-1.4547224232167004
1772642732728090000,3.144090087890625,0.8752969798862934,-1.020875225252658,-1.3019416991256176
1772642732738134800,3.154134765625,-0.3327764951050281,-1.0773591828882694,-1.3194390696324407
1772642732748181000,3.164180908203125,-2.3401526745826,-1.266098378458619,-1.768634204984456
1772642732758226000,3.174225830078125,-4.910525725159049,-1.2287024215221405,-2.222220414902269
1772642732768270800,3.184270751953125,-7.459331087049842,-0.9612859950780868,-2.0364099662601944
1772642732778316000,3.19431591796875,-9.576671616068484,-0.5956878652147949,-1.6464765826940535
1772642732788361000,3.20436083984375,-11.201258438515662,-0.4317719260599464,-1.4423599313803015
1772642732798406000,3.214406005859375,-12.487085015273092,-0.7403681388281286,-1.173842850217968
1772642732808450800,3.224450927734375,-12.941452584826946,-0.9574351648688316,-0.3948421253304928
1772642732818496000,3.23449609375,-12.471748329931495,-0.8851544300992041,-0.0407473679899238
1772642732828541000,3.244541015625,-11.755362978106737,-0.1616289972614497,9.6181250317e-05
1772642732838585900,3.2545859375,-12.278335881853105,0.7516164588775486,0.3735534362493082
1772642732848630800,3.264630859375,-13.79254217517376,2.0554647953420875,1.0316931179955602
1772642732858676000,3.274676025390625,-14.944155511796474,3.246874720302224,1.638034625302255
1772642732868721000,3.284720947265625,-14.879411529207228,4.077094541099667,2.061904619131237
1772642732878767000,3.29476708984375,-13.842068714886905,4.386840873751044,2.5497718688353896
1772642732888811800,3.304811767578125,-11.830388700735568,3.6381352608188986,2.233389897561818
1772642732898857000,3.31485693359375,-9.531869766789674,2.1679991415016358,1.865090545915812
1772642732908902000,3.32490185546875,-7.269072719088196,1.0170409808520229,1.2578585195101797
1772642732918947000,3.334947021484375,-5.745166285008192,-0.2428773207321763,0.6533677546367049
1772642732928992000,3.344991943359375,-4.86671405596137,-1.120031618922949,0.3959422320595011
1772642732939037000,3.355036865234375,-3.991642117002606,-1.647368416967243,0.5916243421029299
1772642732949081900,3.365081787109375,-2.798206239172816,-1.8768547795981168,0.939857860993594
1772642732959127000,3.375126953125,-1.0335860921353102,-1.7843354858547449,1.105927982507646
1772642732969172000,3.385171875,0.3132382664203643,-1.4357222469314932,0.5558117088351399
1772642732979217200,3.395217041015625,-0.8092799086213112,-0.9682853524461388,0.2503116354513913
1772642732989261800,3.40526171875,-1.8131898244172333,-0.6562376840498299,0.6273807151388376
1772642732999307000,3.41530712890625,-1.749012243539095,-0.2442625645454972,0.8506096978753804
1772642733009352000,3.42535205078125,-1.270453066536784,0.1165260826768353,0.8318628387641162
1772642733019398000,3.43539794921875,-0.5533411540031433,0.3614337401928379,0.6495844367057084
1772642733029443000,3.445443115234375,0.0241384159564971,0.4103432439861819,0.441732252125442
1772642733039487700,3.45548779296875,0.8436831134825944,0.4172193403007462,0.5382742620462552
1772642733049533000,3.465532958984375,2.173904712283611,0.3583403042221442,0.6595726006262004
1772642733059577900,3.475577880859375,3.6232144628018137,0.2285022469643503,0.5180367990510538
1772642733069623000,3.485623046875,4.551619348019361,0.3889843026803806,0.2196411325787194
1772642733079668000,3.49566796875,4.68179821807146,0.6114480731980875,0.2965986817866564
1772642733089713000,3.505712890625,4.667775537937879,0.8039004075400531,0.4958685506563633
1772642733099757800,3.5157578125,4.83562392117083,1.039168276181817,0.5939994737364351
1772642733109803000,3.525802978515625,5.2292941531777375,0.965342723122984,0.5566451274519786
1772642733119848000,3.535847900390625,5.844449081537127,0.7179562544032931,0.2223963861036114
1772642733129892900,3.545892822265625,6.567544744655489,0.4620048960318789,-0.3564402062218636
1772642733139937800,3.555937744140625,7.216365211251378,0.1078827392277307,-0.8409367373839021
1772642733149983000,3.56598291015625,7.88030375200212,-0.0983966065452434,-1.173055060841143
1772642733160028700,3.576028564453125,8.474957159602642,-0.3685786069788038,-1.4583343301035463
1772642733170073900,3.586073974609375,8.939225360924006,-0.5224383950108662,-1.5705506963551044
1772642733180118800,3.596118896484375,9.01776815176308,-0.5258207674581558,-1.4430729019552468
1772642733190163700,3.606163818359375,8.651657542333007,-0.3660695832999422,-1.120535038400441
1772642733200208600,3.616208740234375,8.050697728064655,-0.1579772698208689,-0.6898701967995613
1772642733210253800,3.62625390625,7.589564317637682,0.1243859658643603,-0.5179419603744522
1772642733220298800,3.636298828125,7.311825234621763,0.0732206094356253,-0.6619537236090749
1772642733230343700,3.64634375,7.387319743806123,0.3619718656575307,-1.0333713534060864
1772642733240388600,3.656388671875,7.307825935852527,0.5822529218412935,-1.1763740491960195
1772642733250433800,3.666433837890625,7.031462232843041,0.9866996186021716,-0.9553361467629672
1772642733260478700,3.676478759765625,6.670860742223263,1.3189444179832934,-0.5786773283768445
1772642733270524000,3.68652392578125,6.428895567899942,1.517102307023108,-0.2396701221887022
1772642733280568600,3.696568603515625,6.4429661788284776,1.5587586978830397,-0.108431112091802
1772642733290614500,3.706614501953125,6.527460571548343,1.383730193887651,-0.0287295431390404
1772642733300659700,3.71665966796875,6.4734799750357865,0.4335521605402231,0.1912525300981477
1772642733310704600,3.72670458984375,6.766358759516478,-0.206644927682355,-0.4005340533617884
1772642733320749800,3.736749755859375,6.85632018547058,-0.8464123923160135,-0.8878466648578643
1772642733330794500,3.74679443359375,6.330197293260693,-1.3366848034657537,-0.8830540237538516
1772642733340839700,3.756839599609375,5.5800920426636935,-1.3521017144367098,-0.9324313642546534
1772642733350884600,3.766884521484375,4.366473793026804,-1.138970420409739,-0.8109457229416817
1772642733360929800,3.7769296875,2.6619027487605806,-1.1081909590035677,-0.4291761008804663
1772642733370974700,3.786974609375,0.6385498324722051,-1.0635828056659549,-0.2406856559067964
1772642733381019600,3.79701953125,-1.084793716803193,-0.9155241416607052,-0.3884675487972795
1772642733391064600,3.807064697265625,-2.2304098588377235,-0.8586085876747965,-0.5389904474915936
1772642733401109800,3.81710986328125,-2.426460254204273,-0.8623625333808362,-0.5417189591400325
1772642733411154700,3.82715478515625,-2.1408657815128564,-0.7091391800887882,-0.3948029258312657
1772642733421200600,3.83720068359375,-2.1430963170439004,-0.1121415474496781,0.0179665954537689
1772642733431245800,3.847245849609375,-3.007902882575989,0.3984451182585209,0.6193180393882095
1772642733441290500,3.85729052734375,-4.448749925175309,0.3589972702935338,1.5233948312960564
1772642733451335700,3.867335693359375,-5.536238872411847,0.0700935999888926,1.958573131733388
1772642733461380600,3.877380615234375,-5.538697371479868,-0.0635851679429411,1.5569383505880832
1772642733471425800,3.88742578125,-5.667340118005871,0.0563801684675738,1.0144804096490143
1772642733481470500,3.897470458984375,-6.653387629374861,0.1457469529967755,0.8406300825875253
1772642733491515600,3.907515625,-8.646952725642919,-0.191643940568529,1.1308194818537682
1772642733501560600,3.917560546875,-10.382139857447148,-0.5856254304816946,1.4172177452087402
1772642733511605800,3.927605712890625,-11.379513064950704,-0.5856530491409823,1.289563717459142
1772642733521650700,3.937650634765625,-11.894695460951327,-0.5690031623089685,1.249736733983457
1772642733531695600,3.947695556640625,-11.61020398106575,-0.2362628892947919,1.240835780777782
1772642733541740500,3.957740478515625,-11.111424438333511,0.4359402247205376,1.281229312095046
1772642733551785700,3.96778564453125,-10.688957735431194,1.327354226671159,1.5061867991246285
1772642733561831700,3.977831787109375,-10.262934801352024,1.997847303631901,1.7131413042128083
1772642733571876900,3.987876953125,-9.542407527416945,2.089056683820486,1.998976599922776
1772642733581921500,3.997921630859375,-8.72977713932395,1.4453250647962093,2.0607669934034347
1772642733591966700,4.007966796875,-7.770596592092514,0.3741302862891927,1.7625426101110877
1772642733602011600,4.01801171875,-6.703395230603218,-0.7053659451603889,1.1483695323958991
1772642733612056800,4.028056884765625,-5.828179499259591,-1.5196407394595444,0.4992867616020143
1772642733622101800,4.038101806640625,-5.103838804516196,-2.071771348629147,-0.035841731498111
1772642733632146700,4.048146728515625,-4.470482449033856,-2.3380057256817817,-0.4639126658819615
1772642733642191600,4.058191650390625,-3.968126801380514,-2.334701277308911,-0.6615782413601875
1772642733652236800,4.06823681640625,-3.547326570385694,-2.28394212706089,-0.4942782127249985
1772642733662281700,4.07828173828125,-2.79256735650301,-1.9808676733888684,-0.3944830827597528
1772642733672327000,4.088326904296875,-1.8590537499696016,-1.587594185614586,-0.2695409808499738
1772642733682371600,4.09837158203125,-0.9722416888564824,-1.2396478861674665,-0.1127070175790228
1772642733692416800,4.108416748046875,-0.244175836110115,-0.9778491534747182,-0.0983968074746429
1772642733702462700,4.118462646484375,0.602848404493928,-0.8062112417656928,-0.1260524743044749
1772642733712507600,4.128507568359375,1.5417191541463136,-0.6219122205998748,-0.0652427989568561
1772642733722552800,4.138552734375,2.2342723794847728,-0.4829814869565889,0.1299154698755592
1772642733732597500,4.148597412109375,2.7473785537332294,-0.3062560793828219,0.3460023988377302
1772642733742642700,4.158642578125,3.0637732383579013,-0.1864491118717938,0.3032657384604215
1772642733752687600,4.1686875,3.548168281906843,-0.1089922896385192,-0.3866493934594094
1772642733762732800,4.17873291015625,3.920265564531088,0.1458749267579987,-1.0821194560926406
1772642733772777700,4.18877783203125,3.78325772524178,0.6359343892768025,-1.0266326197355986
1772642733782822700,4.19882275390625,3.6068443427592514,1.2174565856907515,-0.524753795813769
1772642733792867600,4.20886767578125,3.175498167830705,1.813486761537194,0.1490571004580706
1772642733802912800,4.218912841796875,2.657150585797429,2.098069719098508,1.086390338344872
1772642733812957700,4.228957763671875,2.59092308665216,2.022483147716522,1.6182503129020331
1772642733823002600,4.239002685546875,3.1911510795146225,1.6441285582631826,1.763439705081284
1772642733833047600,4.249047607421875,4.129762301447987,0.8651726223655044,1.7820787929691373
1772642733843093800,4.25909375,5.354621491545439,-0.0587640679294243,1.5848318812943991
1772642733853138700,4.269138671875,6.82791651328504,-0.7689787317626178,1.2119572576221078
1772642733863183600,4.27918359375,8.174367362353205,-1.0421402777299285,0.6375266999695449
1772642733873228800,4.289228759765625,8.505010937082767,-1.1134413538124412,0.1938490128647536
1772642733883273700,4.299273681640625,7.475459215030074,-0.9076130762752144,0.1974439686167985
1772642733893318700,4.309318603515625,5.852307978343963,-0.6304604148451238,0.5511679016172886
1772642733903363600,4.319363525390625,4.9136757136225695,-0.278675633213669,0.8974534282453358
1772642733913408800,4.32940869140625,4.839581718885898,-0.1171367710542399,1.0953826961610469
1772642733923453700,4.33945361328125,5.27765106458962,0.0754845357796177,0.828505929551646
1772642733933498600,4.34949853515625,5.898325048631429,0.1808103753324598,0.3637449762772768
1772642733943543600,4.35954345703125,6.462061339920759,0.3176351496724411,0.1291894206233322
1772642733953588700,4.369588623046875,6.828144476822018,0.7763402735065669,0.0046088820349425
1772642733963633700,4.379633544921875,6.820235311132669,1.3219523676276206,0.2636021288529038
1772642733973678600,4.3896787109375,6.46366234537661,1.858009209352732,0.6936844213254749
1772642733983724500,4.399724609375,6.041501347422599,2.376940728753805,0.9986408893518148
1772642733993769700,4.409769775390625,5.6749897559762,2.6358985389322043,1.1527862528596071
1772642734003814700,4.419814697265625,5.366090395542979,2.356499998271465,1.1218950747072696
1772642734013859800,4.42985986328125,5.282416671556234,1.0092390018641948,1.1718589098591357
1772642734023904800,4.43990478515625,6.407028019484877,-0.0312581848338246,0.456597410965152
1772642734033949700,4.44994970703125,8.280379759398102,-0.2973826717711985,-0.66960708790645
1772642734043994600,4.45999462890625,8.774607630175352,-0.7952166042163967,-0.854083219204843
1772642734054039800,4.470039794921875,6.527886103484034,-1.300880353504419,-0.2211520303320139
1772642734064084700,4.480084716796875,3.6478958995938298,-1.5651982294112443,0.3204747204799205
1772642734074129700,4.490129638671875,1.597651469248533,-0.6736768215633928,-0.2363592075424268
1772642734084174600,4.500174560546875,-0.6459861199527979,0.8188374260395764,-0.4698918133568018
1772642734094219800,4.5102197265625,-3.646786477047205,1.6248963267877696,0.476658677143231
1772642734104264700,4.5202646484375,-6.232281108909845,1.9166396774977448,1.3058188328199087
1772642734114310000,4.530309814453125,-7.173099485498667,1.7326060292698442,1.176149958116561
1772642734124355800,4.54035595703125,-6.515407145661115,1.5457549855336543,0.2590505847620777
1772642734134400500,4.550400390625,-5.345025395682454,0.9005800358332693,-0.223992222194001
1772642734144445700,4.56044580078125,-3.861353356835246,-0.0753881262004375,-0.4241139951853081
1772642734154490600,4.57049072265625,-2.914069583624601,-1.4203608655400572,-0.3807259216945618
1772642734164536600,4.58053662109375,-2.8409266060024496,-1.8302315601110457,-0.8617232856292277
1772642734174581500,4.59058154296875,-4.074765221369266,-1.5050418668732046,-1.705746663916856
1772642734184626700,4.600626708984375,-6.059007778018713,-1.2029757134608925,-1.8522613133504984
1772642734194671600,4.610671630859375,-7.544473130023479,-0.8735887146636843,-1.5056445089414714
1772642734204716500,4.620716552734375,-8.735617097523807,-0.6793221339739859,-0.991237115901336
1772642734214761500,4.630761474609375,-9.528935466903448,-0.820839413511753,-0.3985996512331068
1772642734224806700,4.640806640625,-9.69096201211512,-0.9471683301374316,-0.0898227938015479
1772642734234851600,4.6508515625,-9.402420380055904,-0.9416200483605264,-0.3324025837587192
1772642734244896500,4.660896484375,-9.068116529253125,-1.1108813671313225,-0.5705569310896098
1772642734254941400,4.67094140625,-8.677084244534372,-1.314250999470055,-0.5795586412560194
1772642734264986600,4.680986572265625,-8.01102272028029,-1.4458891284197568,-0.4774938493257388
1772642734275032600,4.691032470703125,-7.041902962836623,-1.5706111943706869,-0.5147533934662119
1772642734285077500,4.701077392578125,-6.125629829439521,-1.4789036554016173,-0.201850788741
1772642734295122700,4.711122802734375,-5.5624985183060165,-1.1645838773548602,0.4870358769139274
1772642734305167400,4.72116748046875,-5.450414107871056,-1.0259762016534806,0.8710093656949699
1772642734315212500,4.731212646484375,-5.498192342612147,-1.1440903937719762,0.8240044534139335
1772642734325257500,4.741257568359375,-5.471175740870833,-1.4228361696124077,0.2914457742691971
1772642734335302700,4.751302734375,-4.988896082040667,-1.7460558779515325,-0.0723743313372135
1772642734345347300,4.761347412109375,-4.087386218011379,-1.837266719444841,-0.1522067418617196
1772642734355392500,4.771392578125,-3.2563246856927868,-1.6979441734723746,-0.0109171518662944
1772642734365437400,4.7814375,-2.4964164184838533,-1.4413210898518565,0.4981288237385451
1772642734375482600,4.791482666015625,-1.782527559649944,-1.0760865326039493,1.2613120209649205
1772642734385527600,4.801527587890625,-1.3508371013283729,-0.730932201962918,1.7808640103518962
1772642734395572500,4.811572509765625,-0.8587713770210742,-0.5103519071042537,2.1565027649752797
1772642734405617400,4.821617431640625,-0.0703530546426773,-0.2541477795481681,2.2931499542586504
1772642734415663400,4.831663330078125,0.7263467738687992,-0.0390272114001214,2.1880476577959955
1772642734425708500,4.84170849609375,1.3465075476914643,0.1057800495937466,2.039360925020277
1772642734435753500,4.85175341796875,2.0456325526356696,0.2069321471258997,1.74356172304824
1772642734445798700,4.861798583984375,2.8796909286826846,0.2204161903381347,1.170546877412498
1772642734455843300,4.87184326171875,3.607024960023165,0.1403051272690296,0.3830349658219144
1772642734465888500,4.881888427734375,3.729629595428705,0.1152995730891823,-0.3674777695974335
1772642734475933400,4.891933349609375,3.283736424231529,0.1989543001145124,-0.831907481623441
1772642734485978600,4.901978515625,2.527267483821511,0.2016485076345503,-0.6863765825301409
1772642734496023300,4.912023193359375,1.9378730196624996,0.1612942854143679,-0.2921639507422223
1772642734506068500,4.922068359375,1.708373359158635,0.0978036638870835,-0.0809666021862067
1772642734516113400,4.932113525390625,1.9128759410500524,0.2007936443708836,-0.1447627825313247
1772642734526158600,4.94215869140625,2.3615648804455995,0.3614431290756911,-0.3173146490138024
1772642734536203500,4.95220361328125,3.2441046710669994,0.6194906194761395,-0.5995370514562353
1772642734546248400,4.96224853515625,4.206212503921986,1.232189094594121,-0.8203879434172063
1772642734556293400,4.97229345703125,4.848021630451083,1.7038794087402522,-0.5523102035202085
1772642734566339600,4.982339599609375,5.147362888944149,2.0227584575265647,-0.0256131281515583
1772642734576384500,4.992384521484375,5.4986909397840495,2.117012904499471,0.3594408493425697
1772642734586429700,5.0024296875,6.056904083737731,2.069330531348288,0.291948956284672
1772642734596474400,5.012474365234375,6.669273765292763,1.9426427182823416,-0.0965080528522841
1772642734606519600,5.02251953125,7.254186700123548,1.651465769283473,-0.5840685198958963
1772642734616564500,5.032564453125,7.865327716666459,1.4080582871973513,-1.099545441863686
1772642734626609700,5.042609619140625,8.419525195237993,1.4407123103037476,-1.576551105813682
1772642734636654600,5.052654541015625,8.701140827426315,1.6759192425385117,-1.7193598864667117
1772642734646699500,5.062699462890625,8.523706869724393,2.0490188340730966,-1.4051152194827794
1772642734656744400,5.072744384765625,7.965507169774174,2.377482434415072,-0.558482097088173
1772642734666789600,5.08278955078125,7.537435486471653,2.7058672704324125,0.2975375518056564
1772642734676834600,5.09283447265625,7.46280373159647,2.842776617783308,0.8587588828656822
1772642734686879700,5.102879638671875,7.636177015730738,2.829044445028901,1.038107222821563
1772642734696924400,5.11292431640625,7.829545040145516,2.68839649567157,1.0523481488157065
1772642734706969600,5.122969482421875,7.961106304466724,2.5515233886778352,0.747646313137561
1772642734717015600,5.133015625,7.771404401344061,2.4644717126905915,0.1093994913330767
1772642734727060500,5.143060546875,7.00069124700427,2.548301504021883,-0.5601980341605842
1772642734737105700,5.153105712890625,5.722796632289886,2.3204029951043426,-0.4325695792436599
1772642734747150300,5.163150390625,4.675833172187209,1.2583080168433487,0.4802918094811961
1772642734757195500,5.173195556640625,4.643331417033076,-0.0232090261518955,1.302725835240632
1772642734767240400,5.183240478515625,5.944734333106875,-0.4762047228306532,1.166622032118961
1772642734777285600,5.19328564453125,6.831157687163352,-0.4672159452110528,0.4202521321253851
1772642734787330600,5.20333056640625,6.03889028814137,-0.4289470048323273,-0.2578593474172055
1772642734797375500,5.21337548828125,3.9300533835738896,-0.4087558651968836,-0.3829990177256986
