time,seconds_elapsed,z,y,x
1772639519940407000,0.059406982421875,0.2126695217341184,0.0227796217586845,0.1008336061675101
1772639519950452000,0.069451904296875,0.195998957440257,0.0149858991425484,0.0894896802565082
1772639519960497200,0.0794970703125,0.1830401071459055,0.0492130167845636,0.0857915198583155
1772639519970542000,0.0895419921875,0.1691968752324581,0.038330826633796,0.0664569605195894
1772639519980587300,0.099587158203125,0.1951438019156456,0.0307554229434579,0.0513057147474959
1772639519990631200,0.109631103515625,0.1689665736079215,0.0266624545414,0.0160980616355314
1772639520000676000,0.119676025390625,0.1409194597750902,0.0379222458329051,-0.0060186027023941
1772639520010721300,0.12972119140625,0.1074041436642408,0.0246540373284369,-0.0316755699956789
1772639520020766200,0.13976611328125,0.0883475610166788,-0.0080048811487853,-0.0464295966111123
1772639520030811100,0.14981103515625,0.0472638554781675,-0.0005868599772453,-0.0488455717116594
1772639520040856000,0.15985595703125,0.0286415725946426,0.0119394441187381,-0.0528002276215702
1772639520050901200,0.1699013671875,0.0551204141974449,-0.0124413292262703,-0.0515223897054791
1772639520060946200,0.1799462890625,0.0607125351160764,-0.0465084340009838,-0.0380886153757572
1772639520070991000,0.1899912109375,0.060073652690649,-0.0399045056913048,0.0003324833573773
1772639520081035800,0.200035888671875,0.0802688839793205,-0.0542285068590193,-0.0240161778163164
1772639520091081000,0.2100810546875,0.1000415059417486,-0.0425191451691091,-0.0516771418757736
1772639520101126000,0.2201259765625,0.0747673639535903,-0.0299804930482059,-0.0675820190267637
1772639520111171000,0.230171142578125,0.0984206267416477,-0.0205209561116993,-0.0430969450570642
1772639520121215700,0.2402158203125,0.1601011301070451,-0.0156274849817156,-0.014234386655502
1772639520131261000,0.250260986328125,0.1775046848505735,-0.0214483000896871,0.0076120093736797
1772639520141305900,0.260305908203125,0.1690004758775234,-0.0244367413159459,0.0164002594524994
1772639520151351000,0.27035107421875,0.1421931329727172,-0.0215017838425934,0.0056703737866133
1772639520161395700,0.280395751953125,0.1129407350033521,-0.0096089553445577,-0.0010967091955244
1772639520171441000,0.29044091796875,0.0782458537191152,-0.023733926808834,0.0041189065609127
1772639520181485000,0.300485107421875,0.0581540828049182,-0.0338322731055319,0.0068702510956674
1772639520191530000,0.310530029296875,0.0467114822924137,-0.0432381801586598,0.0510877246152609
1772639520201575000,0.320574951171875,0.0517366169780492,-0.0405382735501974,0.0649251113098114
1772639520211619800,0.330619873046875,-0.0097784666925668,-0.052925972893089,0.0891371770244091
1772639520221665000,0.3406650390625,-0.0505488684982061,-0.0667603639129549,0.103337186486274
1772639520231710000,0.3507099609375,-0.08896072447896,-0.0839651081487536,0.0850074202759191
1772639520241755100,0.360755126953125,-0.0820762256622314,-0.0858222803227603,0.0555646143009886
1772639520251799800,0.3707998046875,-0.0396177246391773,-0.0880315538700669,0.0293318198811262
1772639520261845000,0.380844970703125,0.0090957451254129,-0.0935729675147682,0.0177330789588391
1772639520271889000,0.390888916015625,0.0882516994267702,-0.097699180599302,0.0512640310302376
1772639520281933800,0.400933837890625,0.0880716666847467,-0.1064444317866116,0.0523726498592644
1772639520291978800,0.410978759765625,0.095594463405013,-0.1179080750871449,0.0252392898704856
1772639520302024000,0.42102392578125,0.1040600939333438,-0.1208461743656545,0.0031164880527183
1772639520312068900,0.43106884765625,0.1085427923053503,-0.1295667295031249,-0.0283796702554449
1772639520322114000,0.441114013671875,0.1207780045002698,-0.1023021443501114,-0.0401876334816217
1772639520332158700,0.45115869140625,0.1153279224008321,-0.0787093795776367,-0.0337004634194076
1772639520342204000,0.461203857421875,0.0961088426679372,-0.0447326565001159,-0.0662312985375523
1772639520352248800,0.471248779296875,0.1084878472477197,-0.0309104673746973,-0.074390858791396
1772639520362294000,0.4812939453125,0.1172767183810472,-0.0113533147938549,-0.0868572493936866
1772639520372338000,0.491337890625,0.1097159277379512,-0.0033715222597122,-0.0905322846446186
1772639520382382800,0.5013828125,0.1216775836884975,0.0021980945661664,-0.0891889802768826
1772639520392428000,0.511427978515625,0.1313069972991943,0.0123468558758497,-0.071957238436304
1772639520402473000,0.521472900390625,0.1197878244191408,0.0180309659268707,-0.0445572634005919
1772639520412518000,0.531517822265625,0.1004746366620063,0.031995486132428,-0.0343024844331666
1772639520422562800,0.541562744140625,0.115469961220026,0.0324128347616642,-0.0243313081800937
1772639520432608000,0.55160791015625,0.1473135447263717,0.0190038295470178,0.0082143226483836
1772639520442653000,0.56165283203125,0.1612771881490945,0.0121068365748971,0.0079634896924719
1772639520452698000,0.571697998046875,0.156390000629425,0.0051873395100235,-0.0089688308101147
1772639520462741800,0.58174169921875,0.1589268256306648,-0.0035527971107512,-0.0074304422616958
1772639520472787000,0.591786865234375,0.182772396120429,-0.0192286512788385,-0.007639481902495
1772639520482832000,0.601831787109375,0.1773456948965787,-0.0372264455884695,-0.0095132398851215
1772639520492877000,0.611876953125,0.1818944442421197,-0.0254467951413243,-0.0054821212055161
1772639520502921700,0.621921630859375,0.1457213070988655,-0.0180222711637616,-0.0138517440134659
1772639520512967000,0.631966796875,0.1257107847273349,-0.005057867911458,-0.0082475673308596
1772639520523011800,0.64201171875,0.1260825406491756,-0.0034624884787946,-0.0053699660679325
1772639520533057000,0.65205712890625,0.1043552774876356,0.0048206981547176,-0.0014747852602973
1772639520543101700,0.662101806640625,0.0803933871418237,-0.0125018272418528,-0.0343491000538691
1772639520553147000,0.67214697265625,0.094283380806446,0.007130363336578,-0.0641521541759371
1772639520563191000,0.68219091796875,0.1186520983874797,0.0071118778318166,-0.0481473237818107
1772639520573236000,0.692236083984375,0.1048942066699266,-0.0125228700298815,-0.019151567454636
1772639520583281000,0.702281005859375,0.0838204389810562,-0.0094262191887944,-0.0309014072854071
1772639520593325800,0.712325927734375,0.1013613563686609,-0.0030032734692096,-0.0405753541575744
1772639520603371000,0.72237109375,0.0985340239882469,-0.0080000588431954,-0.0355992097128182
1772639520613416000,0.732416015625,0.0980588076919317,-0.0165636698532849,0.0023318404810503
1772639520623461000,0.742461181640625,0.1119061312586069,-0.0254004717815667,0.0163369849579408
1772639520633505800,0.752505859375,0.1056453172981739,-0.0250485165387392,0.0060761415759101
1772639520643551000,0.762551025390625,0.093500121474266,-0.0272757641341537,-0.0002167480232194
1772639520653596000,0.772595947265625,0.0590624298214912,-0.0383052538011223,-0.0008956701980903
1772639520663639800,0.782639892578125,0.060730070772767,-0.0077513447791337,0.0105061233799904
1772639520673684700,0.792684814453125,0.0611158552199602,-0.0155713708803057,0.0248599716966971
1772639520683730000,0.80272998046875,0.0449462261855602,-0.0222127085909247,0.0208776605948805
1772639520693774800,0.81277490234375,0.018021394380927,-0.0068793111849576,0.0036557460285723
1772639520703820000,0.822820068359375,-0.0012608137160539,-0.0087923782646656,-0.0307181231403723
1772639520713864700,0.83286474609375,-0.0357768313020467,-0.0142660604353994,-0.0213870348891243
1772639520723910000,0.842909912109375,-0.02172726316154,-0.0040564357839524,0.0065776613572612
1772639520733954800,0.852954833984375,-0.0203074594914913,0.0027379005312919,0.0185125023661181
1772639520744000000,0.863,2.80570507049e-05,-0.0078145462084561,0.0322285642359405
1772639520754044000,0.8730439453125,0.0151578216433525,-0.0160449066761881,0.0179371866961941
1772639520764088800,0.8830888671875,0.0162415252268314,-0.0219924169037491,0.0020790347637608
1772639520774134000,0.893134033203125,0.0577589460074901,-0.0201733847830444,-0.0219888367071747
1772639520784179000,0.903178955078125,0.1217319442242383,-0.0287231133982539,-0.0412680491294711
1772639520794223900,0.913223876953125,0.1520113471537828,-0.0486777408640831,-0.0267558319132775
1772639520804268800,0.923268798828125,0.169653971350193,-0.0458677980098873,-0.0161736476223915
1772639520814314000,0.93331396484375,0.1556248614758253,-0.050295843585208,-0.0142705539474263
1772639520824359000,0.94335888671875,0.1549549993902444,-0.0511524604145437,-0.0129734268089756
1772639520834404000,0.953404052734375,0.1245499242544174,-0.0320840411987155,-0.0212988451490178
1772639520844448800,0.96344873046875,0.0690910718828439,-0.0265586288407444,-0.0029228651767596
1772639520854493000,0.973492919921875,0.0703109690666198,-0.0244737853907048,-0.0080181059565395
1772639520864537900,0.983537841796875,0.0642407092422246,-0.0105708591792732,0.0027931743824854
1772639520874583000,0.9935830078125,0.0326350261449813,0.0079291855640709,0.0284979994054883
1772639520884627700,1.003627685546875,-0.0101513916581869,0.0072616615660488,0.0204447490703314
1772639520894673000,1.0136728515625,0.000658171647787,0.0059917146954685,0.0089361706495285
1772639520904717800,1.0237177734375,-0.0065045595884323,0.0079595807023346,-0.0276345144439488
1772639520914763000,1.033762939453125,0.0019943886876106,0.0205371035289019,-0.0731998954411596
1772639520924807700,1.0438076171875,0.0246767606168985,0.038072614089027,-0.0920862360883504
1772639520934852900,1.053852783203125,0.0432616340994834,0.0511142472960054,-0.0723623121058568
1772639520944897000,1.06389697265625,0.0556266101539134,0.0471228395722806,-0.0611531550230458
1772639520954942000,1.07394189453125,0.0551882187366485,0.0326728008721023,-0.0265674332017079
1772639520964987000,1.08398681640625,0.1135585746407508,0.0382969243641942,0.00934011180792
1772639520975031800,1.09403173828125,0.1350105279922485,0.0341638431474566,0.0409239483995363
1772639520985077000,1.104076904296875,0.122368488562107,0.0127896312072873,0.042816812941432
1772639520995122000,1.114121826171875,0.1412906311750412,0.0126731652207672,0.0524833802247419
1772639521005167000,1.1241669921875,0.1756803920328617,-0.0136782506100833,0.0448438252570107
1772639521015211800,1.134211669921875,0.2354723051726818,-0.0177010763853788,0.0299851692233234
1772639521025257000,1.144257080078125,0.2812058823436498,-0.0393182302359491,0.0204490964518859
1772639521035302000,1.154302001953125,0.2427478491336107,-0.0529726615790277,0.0246639376679435
1772639521045345800,1.164345703125,0.2076847190588712,-0.0729981623239815,0.0323208821618929
1772639521055390700,1.174390625,0.1709989562183618,-0.0936000747174024,0.0153091762801632
1772639521065436000,1.184435791015625,0.0960942296206951,-0.1138298658628016,0.0446004084225744
1772639521075480800,1.194480712890625,0.0448591324239969,-0.0846752291794866,0.037287272397615
1772639521085525800,1.20452587890625,0.0414689054638147,-0.0911515125215053,0.0333455490345135
1772639521095570700,1.21457080078125,0.0372948346495628,-0.0982528689593076,0.0298520443629473
1772639521105615600,1.22461572265625,0.0447317066520452,-0.0848874106254428,0.0153339453952386
1772639521115660500,1.23466064453125,0.0367903922587633,-0.0551073355201631,0.033976138555631
1772639521125705700,1.244705810546875,0.0296077872782945,-0.0316701266355812,0.0363890814488753
1772639521135749600,1.25474951171875,0.0137158061414957,-0.0316831322476267,0.0288038504842668
1772639521145794600,1.264794677734375,0.0226595755755901,-0.0213324916902929,0.0264961580637842
1772639521155839700,1.27483984375,0.0254664496898651,-0.0006064414605498,-0.0010256532533094
1772639521165884700,1.284884765625,0.0600181231111288,0.0077699764143675,-0.0243001093242317
1772639521175929900,1.294929931640625,0.0974339537918567,0.0102160543922334,-0.040181861327961
1772639521185974500,1.304974609375,0.1400789172977209,0.0123725748389959,-0.0454985628386959
1772639521196019700,1.315019775390625,0.1648924560368061,-0.0003841770119965,-0.0262044451082125
1772639521206064600,1.325064697265625,0.2036205383598804,-0.0033341128587722,-0.0156601086096838
1772639521216109800,1.33510986328125,0.2150888578355312,0.001589388083294,-0.0228029295690357
1772639521226154800,1.34515478515625,0.218869545418024,-0.0015681260995566,-0.0383756521562114
1772639521236198700,1.35519873046875,0.1809989567071199,-0.0003390226960182,-0.0313988719461485
1772639521246243800,1.365243896484375,0.1436813257038593,0.0114352939888834,-0.035425497113727
1772639521256288800,1.375288818359375,0.0941945334792137,0.0345568610530346,-0.0259359668977558
1772639521266333700,1.385333740234375,0.0576478868484497,0.0289263078201562,0.0111156335804611
1772639521276378600,1.395378662109375,0.0171674079000949,0.0245189397066831,0.0291333016343414
1772639521286423800,1.405423828125,-0.0256985048800706,0.0117636491604149,0.0396977310728281
1772639521296468700,1.41546875,-0.0561971035182476,0.0062414516728371,0.063934456304647
1772639521306513700,1.425513671875,-0.0732154583364725,0.0041226328879594,0.0436877870896831
1772639521316558600,1.43555859375,-0.0974193407446146,-0.0202296450149267,0.0315569851173087
1772639521326602800,1.445602783203125,-0.0639034401118755,-0.0370489701297134,0.0505391142891719
1772639521336647700,1.455647705078125,-0.0355278249770402,-0.0549286910176277,0.0542537508981302
1772639521346692900,1.46569287109375,0.0153477912575006,-0.0917126535356044,0.0613480565406382
1772639521356737500,1.475737548828125,0.0335866277813911,-0.1137446717973798,0.0257262331372126
1772639521366782700,1.48578271484375,0.0321434432357549,-0.113964817354083,0.0071982044083997
1772639521376827600,1.49582763671875,0.0242938987791538,-0.101990082726255,0.0058194634011015
1772639521386872800,1.505872802734375,0.0393780706644058,-0.0857970728162676,-0.0094730540052056
1772639521396917500,1.51591748046875,0.0475292284160852,-0.0841504746530205,0.0056209451543167
1772639521406962700,1.525962646484375,0.0678173986852169,-0.073782298438996,0.0125793859900906
1772639521417007600,1.536007568359375,0.0721481213659048,-0.0452132065586745,0.0067326692558825
1772639521427051800,1.5460517578125,0.0834229640960693,-0.0225827109470963,-0.0134417384404689
1772639521437096700,1.5560966796875,0.0616834259748458,-0.0252897048834711,-0.0260225492026656
1772639521447141600,1.5661416015625,0.0892184986323118,0.0104003979831933,-0.0677219754867255
1772639521457186800,1.576186767578125,0.1588297949969768,0.03744914842844,-0.0583189179778099
1772639521467231700,1.586231689453125,0.1929769792705774,0.0386108126189559,-0.0418833680162206
1772639521477277000,1.59627685546875,0.2176408804059028,0.0403231694947928,-0.0354283101253211
1772639521487321600,1.606321533203125,0.2502922731637954,0.0504891742002218,-0.0331251112168654
1772639521497366800,1.61636669921875,0.2492898181229829,0.0540058040190488,-0.0346883054129779
1772639521507411700,1.62641162109375,0.2518985393166542,0.0511697768755257,-0.0388014763528481
1772639521517455600,1.63645556640625,0.2432043607294559,0.0440516154333949,-0.0236815025018528
1772639521527500500,1.64650048828125,0.200333187252283,0.0334084947355091,-0.0359902913896366
1772639521537545700,1.656545654296875,0.1593979502737522,0.0454309409625828,-0.0273588027751073
1772639521547590700,1.666590576171875,0.1066401735544204,0.0437415996361523,-0.0328866993511095
1772639521557635800,1.6766357421875,0.0601876344591379,0.0221229844808578,-0.0365303165504708
1772639521567680500,1.686680419921875,0.0319137261331081,0.0233398859899491,-0.0287295066064223
1772639521577725700,1.6967255859375,0.0282657250195741,-0.0012332681220024,-0.0435555390121415
1772639521587770600,1.7067705078125,0.0299333659708499,-0.0114450116652995,-0.0266046964721754
1772639521597815800,1.71681591796875,0.0081458970546722,-0.0361027753207832,-0.0217051609275862
1772639521607860700,1.72686083984375,-0.001215805530548,-0.067074398298189,-0.0154100063061341
1772639521617904600,1.736904541015625,-0.0086596917957067,-0.0721146574877202,-0.0096254680879414
1772639521627949800,1.74694970703125,-0.0049064767420291,-0.0907839943833649,-0.0223131002254784
1772639521637994800,1.756994873046875,0.014282207852602,-0.0933399624764919,-0.0230417798262089
1772639521648039700,1.767039794921875,0.0320142638981342,-0.0786805918745696,-0.0078426397917792
1772639521658084600,1.777084716796875,0.069523618081212,-0.0778227329362183,-0.0019284838445484
1772639521668129800,1.7871298828125,0.0769675043463706,-0.0466658895850181,-0.0023409736355766
1772639521678174700,1.7971748046875,0.0610790303409099,-0.035404344727844,-0.0047599078781902
1772639521688220000,1.807219970703125,0.0529728807747364,-0.0111534813728183,0.006516250026226
1772639521698264600,1.8172646484375,0.0789905346065759,0.015897607159987,0.0343182299915701
1772639521708309800,1.827309814453125,0.0971305869311094,0.0151957425009459,0.0205855457805097
1772639521718353700,1.837353759765625,0.0973497826397419,0.0040474487598985,-0.004135638500005
1772639521728398800,1.84739892578125,0.1153776067614555,0.0150363872207701,-0.0023142317591235
1772639521738443500,1.857443603515625,0.1085205804735422,0.034446094154939,0.0068394175659865
1772639521748488700,1.86748876953125,0.1156575927466154,0.0330452874463051,0.0082435122102499
1772639521758533600,1.87753369140625,0.1017833811730146,0.0412790089149028,0.0227284395607188
1772639521768578800,1.887578857421875,0.106012397044897,0.0344189869523048,0.0248555512499064
1772639521778623500,1.89762353515625,0.0912666633337736,0.0380970909431576,0.0464803404176607
1772639521788668700,1.907668701171875,0.0627981092184782,0.028424422712624,0.033769583132863
1772639521798713600,1.917713623046875,0.0318213716745376,0.0164467654753476,0.0422863958591595
1772639521808757800,1.9277578125,0.0884480987817049,0.0004074848223477,0.0345372795697301
1772639521818802700,1.937802734375,0.0915028101772069,-0.0186205293178558,0.017934044891037
1772639521828847600,1.94784765625,0.1088631103008985,-0.0173955175675451,0.0225805920552462
1772639521838892800,1.957892822265625,0.1307896954268217,-0.0343811391599476,0.0242706640340387
1772639521848937700,1.967937744140625,0.1317056412279605,-0.0377807184703648,0.0162148564156144
1772639521858983000,1.97798291015625,0.0953273369014263,-0.041461379744485,0.0229523114444687
1772639521869027600,1.988027587890625,0.1040033953100442,-0.0209643159650266,0.0320520020926371
1772639521879072800,1.99807275390625,0.1069178214520216,-0.0190127435058355,0.0281707767451181
1772639521889117700,2.00811767578125,0.1329442431122064,-0.0083755410920828,0.0010168123597279
1772639521899163000,2.018162841796875,0.1311608668267727,-0.0105431674547493,-0.0248851426705718
1772639521909206500,2.02820654296875,0.134116209501028,-0.0120164548777043,-0.0147735715661197
1772639521919251700,2.038251708984375,0.1383364575445652,-0.0214963770151138,-0.0214875726541504
1772639521929296600,2.048296630859375,0.14560089558959,-0.0146731068663299,-0.0278529429676011
1772639521939341800,2.058341796875,0.1508534092903137,-0.0222891348280012,-0.002349083876796
1772639521949386500,2.068386474609375,0.1443944424092769,-0.0288850259616971,0.0035534546978771
1772639521959431700,2.078431640625,0.105443657246232,-0.0222865775447338,0.0172568032165989
1772639521969476600,2.0884765625,0.0955289969533681,-0.0287844151314347,0.0179712716288864
1772639521979521800,2.098521728515625,0.0735235013723373,-0.0140929688908159,0.0208032801844179
1772639521989566700,2.108566650390625,0.0186176067084074,-0.0193887372113764,0.0140550115006044
1772639521999610600,2.118610595703125,-0.0207020117670297,-0.0191075821824371,-0.0081310648117214
1772639522009655800,2.12865576171875,-0.0550485180050134,-0.0042380759611725,0.0113906511295586
1772639522019700700,2.13870068359375,-0.0288438171684741,0.0014786942504346,0.0314576894612982
1772639522029745700,2.14874560546875,0.0118248778283596,-0.0221961227823048,0.0358714507829397
1772639522039790600,2.15879052734375,-0.0092886373490095,-0.0333860637079924,0.0151969480773434
1772639522049835800,2.168835693359375,0.0119581488192081,-0.029141484940797,0.002032674871385
1772639522059880700,2.178880615234375,0.0246802677482366,-0.028074367165938,0.011603928554058
1772639522069926000,2.18892578125,0.0493868389815092,-0.0355137964516878,0.0233428816646337
1772639522079970800,2.198970703125,0.0443470912486314,-0.0306139686461538,0.0206215669419616
1772639522090016000,2.20901611328125,0.0539765048593282,-0.0187310770202428,0.0268910391328856
1772639522100060000,2.219059814453125,0.0743880092471837,-0.0390744115427136,0.0103995212003588
1772639522110104800,2.229104736328125,0.1015337903261184,-0.037798838648945,-0.010390936035104
1772639522120149800,2.239149658203125,0.103673724964261,-0.0357690863870084,-0.0006572948649525
1772639522130195000,2.24919482421875,0.0649257688969373,-0.0425996630594134,0.0169471527455374
1772639522140240000,2.259239990234375,0.0399374581128358,-0.0407005514398217,0.0203716107688844
1772639522150285000,2.26928515625,0.0423959571808576,-0.0169645788043737,0.0327334084855392
1772639522160329700,2.279329833984375,0.03506196103096,-0.0145852093871682,0.0408677612328901
1772639522170375000,2.289375,0.0670107584774494,-0.0130059773717075,0.01716152614858
1772639522180419800,2.299419921875,0.0695353085190057,-0.0267871768996119,-0.0034440395066514
1772639522190463700,2.309463623046875,0.0696609807252883,-0.0234671656314283,-0.0115138756504282
1772639522200509000,2.319509033203125,0.0926233386397361,-0.0252676391821354,0.0032488822607323
1772639522210553900,2.329553955078125,0.112672439455986,-0.0460201390273869,-0.0076325041724368
1772639522220599000,2.33959912109375,0.11007248609066,-0.0508775159306824,-0.0166830219166353
1772639522230644000,2.34964404296875,0.0905219824463129,-0.0478730734176933,0.0057215925171971
1772639522240689000,2.35968896484375,0.0729068307787179,-0.0449003412172198,0.0128821317963302
1772639522250733800,2.36973388671875,0.0944125601440668,-0.0355556628320366,0.0314156404178589
1772639522260779000,2.379779052734375,0.0703372725516557,-0.0143915865112096,0.0312645415093749
1772639522270824000,2.389823974609375,0.0786246239036321,-0.0299026055064052,0.0307824205482378
1772639522280869000,2.399869140625,0.1014718310058116,-0.0238728238228708,0.0209473648302257
1772639522290912800,2.409912841796875,0.1291080259501934,-0.0311353621717542,0.0152882430899888
1772639522300958000,2.4199580078125,0.1475683962702751,-0.0183975342169404,0.0041212446484714
1772639522311003000,2.4300029296875,0.107321726077795,-0.0236138075605034,0.0109387791762128
1772639522321047800,2.4400478515625,0.1043102693021297,-0.0177331520240753,0.003426576915197
1772639522331092700,2.4500927734375,0.0942401261866092,-0.0131222972277551,-0.0143449343578889
1772639522341138000,2.460137939453125,0.0810305160015821,-0.0110784433752298,-0.007897694447264
1772639522351182800,2.470182861328125,0.0672357994049787,-0.01393149471879,0.0054611149501055
1772639522361228000,2.48022802734375,0.0358142407029867,-0.0164949154660105,-0.0101360844912007
1772639522371272700,2.490272705078125,0.0131242699891328,0.0132224696666002,-0.0187248664751648
1772639522381316900,2.50031689453125,0.0383820453643798,0.0183918351285159,-0.0023191636625677
1772639522391362000,2.510362060546875,0.0192412915647029,0.0059227411124855,-0.0161622494455426
1772639522401407000,2.520406982421875,0.0420469976127147,0.0065556321885436,-0.0041399493489414
1772639522411452000,2.530451904296875,0.0855401023805141,-0.0123020668860524,-0.0238308478446677
1772639522421496800,2.540496826171875,0.1241039340525865,-0.0253357359822839,-0.0260466241979971
1772639522431542000,2.5505419921875,0.1461608675599098,-0.0296331409152597,-0.023509689598903
1772639522441587000,2.5605869140625,0.1362391930043697,-0.0183685273181647,-0.0290483998298645
1772639522451631900,2.5706318359375,0.1086994441717863,-0.016534589889273,-0.032472017602995
1772639522461676800,2.5806767578125,0.0947100817859172,-0.0254262638099491,-0.0296752630239352
1772639522471722000,2.590721923828125,0.0565922403156757,-0.0017995967678725,-0.0328594094853848
1772639522481766000,2.600765869140625,0.0333259310185909,0.0085232789997011,-0.0245122177049517
1772639522491810800,2.610810791015625,0.0430681573539972,-0.0072481444973498,-0.018488208175078
1772639522501855700,2.620855712890625,0.0791086080282926,0.0043904169786721,-0.0135247770814225
1772639522511901000,2.63090087890625,0.1326022978067398,0.0119547147531062,-0.0331860110912472
1772639522521945900,2.64094580078125,0.1662076302886009,-0.008321545882523,-0.0617642726587131
1772639522531991000,2.650990966796875,0.210680393743515,-0.0037902591284364,-0.0697896486062556
1772639522542035700,2.66103564453125,0.2228717667967081,-0.0356202525008469,-0.0812113524612039
1772639522552081000,2.671080810546875,0.2359907760888338,-0.0479161088418215,-0.0593695595419034
1772639522562125800,2.681125732421875,0.2151782896846532,-0.0429828171581029,-0.0316509104784578
1772639522572171000,2.6911708984375,0.1963976013690233,-0.0443108508914709,-0.0085213427709415
1772639522582215000,2.70121484375,0.1386684659779071,-0.0429729533512145,-0.0202342115921899
1772639522592259800,2.711259765625,0.0944026232719421,-0.0421926166284829,-0.027179866011627
1772639522602305000,2.721304931640625,0.0986491748005151,-0.0488655915863811,-0.023192586473748
1772639522612350000,2.731349853515625,0.0912596490710973,-0.0335245953958481,-0.0054362727697938
1772639522622395000,2.741394775390625,0.0687690003216266,-0.0252533183958381,0.0142024206146597
1772639522632439800,2.751439697265625,0.0112532154202461,-0.0281221518304198,0.0283629748489707
1772639522642485000,2.761485107421875,-0.0169131408780813,-0.0257163327977061,0.0216488641630858
1772639522652530000,2.771530029296875,0.0073544544160366,-0.0301898249499499,-0.0033699148245155
1772639522662575000,2.7815751953125,0.0192792854875326,-0.025909005825594,-0.0011397811522707
1772639522672619800,2.791619873046875,-0.004030278429389,-0.0312655644226819,-0.0170960962295532
1772639522682664000,2.801663818359375,0.0071358432292938,-0.0126133247923105,-0.0173917912404984
1772639522692708900,2.811708984375,0.0259603706866502,0.0036702860105782,-0.0018575009675696
1772639522702753800,2.82175390625,0.0736743080198764,-0.0070125091105699,-0.0093953856591135
1772639522712798700,2.831798828125,0.0857429314762353,-0.0059616118181496,-0.0388348671657964
1772639522722844000,2.841843994140625,0.1080734212279319,0.0008064210120588,-0.0290186257461085
1772639522732888800,2.851888916015625,0.1346878719091415,-0.0034113428134471,-0.0231346092088148
1772639522742934000,2.86193408203125,0.1323626438319683,0.0006598521482199,-0.0149491838613525
1772639522752978700,2.871978759765625,0.139133160880208,0.0129827426265925,-0.003321910964325
1772639522763024000,2.88202392578125,0.1345300509989261,0.0115852238535881,0.0031129809213802
1772639522773068000,2.892068115234375,0.1398112062722444,0.005963803775236,-0.0147557801811024
1772639522783113000,2.902113037109375,0.162475458022952,-0.0002813011594116,-0.0206291657265275
1772639522793158000,2.912157958984375,0.1840998453319072,-0.0108658966030925,-0.0242403784936293
1772639522803202800,2.922202880859375,0.1784545329213142,-0.0076562869068235,-0.0129873457364737
1772639522813248000,2.932248046875,0.1796446194887161,-0.0126908470079302,-0.0065132178189232
1772639522823293000,2.94229296875,0.1635451330810785,-0.0026601591199636,0.0034947467805817
1772639522833337900,2.952337890625,0.1365963358789682,-0.0115069709856063,0.0275799347124993
1772639522843382800,2.9623828125,0.0969043769598007,-0.0198334122389554,0.0318404782338067
1772639522853428000,2.972427978515625,0.0624830519199371,-0.0192789932265877,0.0202865263013169
1772639522863473000,2.982472900390625,0.0574602553218603,-0.0212534351047128,0.0284972322205081
1772639522873516800,2.992516845703125,0.063868953320384,-0.0289507846742868,0.0130763391941785
1772639522883561700,3.002561767578125,0.0939618937671184,-0.0418737599376589,0.0255021055251359
1772639522893607000,3.01260693359375,0.1229991876810789,-0.0665577540129423,0.0130846320984885
1772639522903651800,3.02265185546875,0.1159177049875259,-0.0695630733087658,0.0349259135611355
1772639522913697000,3.032697021484375,0.1169908871769905,-0.0777029059488326,0.0357625470483675
1772639522923741700,3.04274169921875,0.1014063645541668,-0.0749655168741941,0.0161841690164059
1772639522933787000,3.052786865234375,0.0617120675474405,-0.0618429273854941,0.0119492348603904
1772639522943831800,3.062831787109375,0.0257674784630537,-0.0589214869808405,0.0358085416145622
1772639522953877000,3.072876953125,-0.0020429040044546,-0.0452680785510689,0.0215766757097095
1772639522963921700,3.082921630859375,-0.0182435126990079,-0.0359718424174934,0.0104999128349125
1772639522973965800,3.0929658203125,-0.0153659114360809,-0.0213042885091155,0.0160423493929207
1772639522984011000,3.103010986328125,0.0083761986792087,0.0028162264645099,0.0076776584884151
1772639522994056000,3.113055908203125,0.0006008885025978,-0.0011399638153612,-0.0057082946442067
1772639523004100900,3.123100830078125,0.0334036724299192,-0.0178629158835858,0.002242664360255
1772639523014145800,3.133145751953125,0.0618675503700971,-0.0192812582489103,-0.0069329045357182
1772639523024191000,3.14319091796875,0.1123147120594978,-0.0182432204380631,-0.0244401388494297
1772639523034236000,3.15323583984375,0.1563333020061254,-0.0237131762817502,-0.02535239485614
1772639523044281000,3.163281005859375,0.1669499730885028,-0.0269148949325084,-0.0187905155899003
1772639523054325800,3.17332568359375,0.1707534570246934,-0.0336470527317374,-0.0337163916409015
1772639523064371000,3.183370849609375,0.1437935539066791,-0.0248165344137698,-0.0288864872664213
1772639523074414800,3.193414794921875,0.1085427923053503,-0.0200972508069127,-0.0005838643025606
1772639523084459800,3.203459716796875,0.0734334850013256,-0.0266305980984121,0.0178852738458663
1772639523094505000,3.2135048828125,0.0484095183819532,-0.0223475139517337,0.0250109610073268
1772639523104550000,3.2235498046875,0.009117956957221,-0.0198861653394997,0.0232748944623395
1772639523114594800,3.2335947265625,0.027225276055932,-0.0308441972054541,0.0104002153201028
1772639523124639700,3.2436396484375,0.0709744014114141,-0.0340039033453911,0.0144037884056568
1772639523134685000,3.253684814453125,0.1163742165833711,-0.0429784332439303,0.0112815281992778
1772639523144729900,3.263729736328125,0.1573790116667747,-0.0580451425377279,0.0183507359331473
1772639523154774800,3.27377490234375,0.1728600739151239,-0.0738012954004108,0.0248942027598619
1772639523164818700,3.283818603515625,0.1719511423766613,-0.063423255379498,0.014203553125821
1772639523174864000,3.29386376953125,0.1512245806902647,-0.0762961078908294,0.0094909915206953
1772639523184908800,3.30390869140625,0.1294166535079479,-0.0488707061529159,0.0017064385917037
1772639523194954000,3.3139541015625,0.0902443345487117,-0.0425908221658319,-0.0318677315669134
1772639523204998700,3.32399853515625,0.0749006349444389,-0.0291472570944577,-0.0231415138736367
1772639523215043800,3.3340439453125,0.0648246466100215,-0.0295998231675475,-0.0300834054334089
1772639523225088800,3.3440888671875,0.0412935488969087,-0.0170190124053508,-0.0334920448331162
1772639523235134000,3.354134033203125,0.0285182384759187,-0.0172974640205502,-0.0409054628947749
1772639523245178600,3.3641787109375,-0.0009030863195657,-0.0178654731668531,-0.0766908062968403
1772639523255223800,3.374223876953125,-0.0156616795122623,-0.0099815880492329,-0.0674420260341838
1772639523265268000,3.38426806640625,-0.0263292039990425,-0.0184963184162974,-0.0333980098741129
1772639523275313000,3.39431298828125,-0.0391401702553033,-0.0008454378481954,-0.0287744051940739
1772639523285357800,3.40435791015625,-0.0228343476206064,0.0035936405777931,-0.0455989179406315
1772639523295402800,3.41440283203125,0.0040957448810338,-0.0117243400633335,-0.0759754245691001
1772639523305448000,3.424447998046875,0.098597152352333,-0.0373653426025062,-0.0672541022466495
1772639523315492900,3.434492919921875,0.1237093817770481,-0.0370879869658499,-0.03793294989001
1772639523325537800,3.444537841796875,0.1268535250216722,-0.0679556381121277,-0.0130403180327266
1772639523335582700,3.454582763671875,0.1225906068801879,-0.0668047875765711,-0.0218120553681626
1772639523345628000,3.4646279296875,0.0735720166891813,-0.0619596125677228,5.03784803673e-05
1772639523355672800,3.4746728515625,0.0345990196943283,-0.0695646076787263,-0.0005889423364773
1772639523365716700,3.484716796875,0.0368441682726144,-0.0517712499000132,0.0014063231339678
1772639523375761700,3.49476171875,0.053872459962964,-0.036061128136143,0.0249842191308736
1772639523385806800,3.504806884765625,0.0672702861964702,-0.0227397281397134,0.0481802031381055
1772639523395851800,3.514851806640625,0.038113165295124,-0.0308243965264409,0.0302159092392772
1772639523405897000,3.52489697265625,0.0685544807881116,-0.0310192615114152,0.0420680038681253
1772639523415941600,3.534941650390625,0.123550976344943,-0.0165505911760032,0.0547060977755114
1772639523425986800,3.54498681640625,0.1756868217736482,-0.0274897722110152,0.0615988894965499
1772639523436031700,3.55503173828125,0.1960340287536382,-0.0266982565071433,0.0549644199181348
1772639523446077000,3.565076904296875,0.1872708765834569,-0.0278403392143547,0.0426888391802087
1772639523456121900,3.575121826171875,0.1461199510276317,-0.014182766066119,0.0380465297996997
1772639523466165800,3.585165771484375,0.1104699609756469,-0.0011452245123684,0.0334317294806241
1772639523476211000,3.5952109375,0.0977472575247287,0.0161760587751865,-0.0011316343784332
1772639523486255900,3.605255859375,0.1097585978358983,0.0297142433274537,-0.0166944200934842
1772639523496300800,3.61530078125,0.0845300485551357,0.0225746737711131,-0.0323177403567358
1772639523506345700,3.625345703125,0.0702156919986009,0.0141507634926587,-0.060373110561259
1772639523516391000,3.635390869140625,0.0858019681870937,0.0242240484133362,-0.0752724639315158
1772639523526435800,3.645435791015625,0.1031599302232265,0.0368470908820629,-0.0665058411626145
1772639523536481000,3.65548095703125,0.0820721340090036,0.0234261029686778,-0.04538838046249
1772639523546525700,3.665525634765625,0.0629658670008182,-0.0005813070192933,-0.067806365834549
1772639523556571000,3.67557080078125,0.062587681338191,-0.0104236327283084,-0.0532865133011713
1772639523566614800,3.68561474609375,0.1053612396597862,-0.0277905817884951,-0.0375738342540338
1772639523576660000,3.695659912109375,0.1119295121341943,-0.0467174005765467,-0.0551013076381757
1772639523586704600,3.70570458984375,0.1207335808366537,-0.0472438356034457,-0.053520687383227
1772639523596749800,3.715749755859375,0.0911754779189825,-0.038157515893504,-0.0439697458362206
1772639523606794800,3.725794677734375,0.0906119988173246,-0.0388561656821519,-0.0331769875345751
1772639523616840000,3.73583984375,0.0735521429449319,-0.035588396057859,-0.0074746832622215
1772639523626884600,3.745884521484375,0.0642804567307233,-0.0265299872681498,0.020414463529922
1772639523636929800,3.7559296875,0.068771922931075,-0.0256211287949234,0.0267248522531241
1772639523646974700,3.765974609375,0.1000426749855279,-0.0037678281009197,0.0179992190817371
1772639523657019000,3.776018798828125,0.1009270566046237,-0.0197631965469568,0.0070337710943073
1772639523667063800,3.786063720703125,0.1152706392556428,-0.0273931799687445,0.02295344395563
1772639523677108700,3.796108642578125,0.1216571254223585,-0.0196192580316215,0.0321468407692387
1772639523687154000,3.80615380859375,0.0897194338917732,-0.0316274565376341,0.0514025261854752
1772639523697198800,3.81619873046875,0.1016349126130342,-0.0394867917358875,0.0396017233524471
1772639523707244000,3.826244140625,0.1085053829044103,-0.0350894335597753,0.0232835161602124
1772639523717288700,3.836288818359375,0.1197509995400905,-0.0242287245884537,0.0048653410140424
1772639523727334000,3.846333984375,0.150776252400875,-0.0175194362081587,-0.007470007087104
1772639523737378800,3.85637890625,0.1609884343355894,-0.0062974927090108,-0.011104527664557
1772639523747424000,3.866424072265625,0.1591740783900022,-0.00308656783849,-0.0338244551252573
1772639523757467600,3.876467529296875,0.104865565097332,-0.0076684157360345,-0.0458675788141787
1772639523767512800,3.886512939453125,0.0491156208246946,-0.0006125789403915,-0.0139484093209728
1772639523777557800,3.896557861328125,0.034355274066329,0.0038882396101951,-0.0131581722587347
1772639523787603000,3.90660302734375,0.0355547129839658,-0.0031744653176516,-0.0063830155679956
1772639523797647600,3.916647705078125,0.0573714079946279,-0.0021145810011774,0.0104636359451338
1772639523807692800,3.92669287109375,0.0848339999377727,0.0005229278955608,0.0100435108369216
1772639523817737700,3.93673779296875,0.1308849724948406,-0.0174500972989946,0.0012968348775058
1772639523827783000,3.946782958984375,0.1545931803405285,-0.0221844323445111,-0.0143530811317265
1772639523837827800,3.956827880859375,0.1693897674560547,-0.0127558750681579,-0.0334034897668287
1772639523847872800,3.966872802734375,0.1369546477973461,-0.0158045951142907,-0.0371062898075208
1772639523857917000,3.9769169921875,0.0937748467624187,-0.0256849147461354,-0.0357551309268921
1772639523867961900,3.9869619140625,0.0298550400376319,-0.0257487006973475,-0.006895385536924
1772639523878006800,3.9970068359375,-0.0043640404284,-0.031123525603488,0.010940240480937
1772639523888051700,4.0070517578125,-0.0355734176844358,-0.0337168300323188,0.0598840484026819
1772639523898097000,4.017096923828125,-0.0854132611304521,-0.0414823494672775,0.0650199865190312
1772639523908141800,4.027141845703125,-0.0971229881465434,-0.0456284362960606,0.0370711819615215
1772639523918187000,4.03718701171875,-0.102685298448801,-0.0455244644649326,0.0426731666870415
1772639523928231700,4.047231689453125,-0.0488292050987482,-0.0472738654155284,0.0686964465420693
1772639523938276900,4.05727685546875,-0.019546996513009,-0.0597726969826966,0.062393948864378
1772639523948321800,4.06732177734375,0.0202723881781101,-0.0765633074596524,0.035725649104081
1772639523958366000,4.077365966796875,0.0512678304225206,-0.0676303516805171,0.0249511571114882
1772639523968410600,4.08741064453125,0.0578267505466938,-0.0528253620628267,0.0287316620308905
1772639523978455800,4.097455810546875,0.0736503426223993,-0.0686992960862815,0.0002442570846527
1772639523988500700,4.107500732421875,0.0974304466605186,-0.0425661991812288,0.00809869691208
1772639523998546000,4.1175458984375,0.1204518412858247,-0.0324923297386616,0.0177561310408636
1772639524008590600,4.127590576171875,0.1201087269365787,-0.0201213623348623,0.0176596483964473
1772639524018635800,4.1376357421875,0.1487906315416097,0.0043010581947863,-0.0085111501704901
1772639524028680700,4.1476806640625,0.1816559593111276,0.0050889937020838,-0.0274367268495261
1772639524038726000,4.157725830078125,0.2011918499082327,0.0203989371672272,-0.0305716273417696
1772639524048770800,4.167770751953125,0.1885287676900625,0.0320770269360393,-0.0359629284586757
1772639524058814700,4.177814697265625,0.1880979750573635,0.0160183839954435,-0.0400545086212456
1772639524068860000,4.18785986328125,0.204253575566411,0.0218509626064449,-0.0502194904133677
1772639524078904800,4.19790478515625,0.2030062058538198,0.0257751503128558,-0.0364880483113229
1772639524088950300,4.2079501953125,0.1801782879739999,0.0055292848154902,-0.0447177146593108
1772639524098995200,4.2179951171875,0.1428302618324756,-0.0122990712113678,-0.0391773969931527
1772639524109040400,4.228040283203125,0.1469523101985454,-0.0179584852125495,-0.0104183720313012
1772639524119085000,4.2380849609375,0.1518348215430975,-0.0336197263333946,-0.0214615248974412
1772639524129130200,4.248130126953125,0.1309282271146774,-0.0411761330623179,-0.0153674823386594
1772639524139175200,4.258175048828125,0.1261275488346815,-0.0462068937711417,0.0213475431289523
1772639524149219300,4.26821923828125,0.1094359417527914,-0.0760034816198051,0.0325475305246189
1772639524159264000,4.278263916015625,0.0636515111774206,-0.079583532063663,0.0303598842872306
1772639524169309200,4.28830908203125,-0.0095294603675603,-0.0718196931291371,0.0233204141044989
1772639524179354000,4.29835400390625,-0.0249041396319866,-0.0732073480952531,0.0286233062855899
1772639524189399300,4.3083994140625,0.0150637136191129,-0.0626695874679833,0.0132002578347921
1772639524199444200,4.3184443359375,0.0461596936285495,-0.0686044574096798,0.0220337718274444
1772639524209489200,4.3284892578125,0.0297089095652103,-0.0490222434528172,0.0371656187793239
1772639524219534000,4.3385341796875,0.0585696778684854,-0.0449057480446994,0.0425613403430208
1772639524229579300,4.348579345703125,0.0821603968143463,-0.0487871925879269,0.0261686066098511
1772639524239624200,4.358624267578125,0.1025818380743265,-0.0289611599378287,0.0176697313990443
1772639524249669000,4.368669189453125,0.1288245328336954,-0.0157692315399646,0.0265368919329717
1772639524259713300,4.37871337890625,0.1254325523078441,0.0010020166493952,-0.0043063188917934
1772639524269758200,4.38875830078125,0.113797059571743,0.0070199617646634,-0.0233233367139473
1772639524279803400,4.398803466796875,0.1364098733961582,0.0010197715017944,-0.0372945058559998
1772639524289848000,4.40884814453125,0.1398369252353906,-0.0087722853247076,-0.0370072133472189
1772639524299893200,4.418893310546875,0.1191138706803321,-0.0115372930586338,-0.0250620336074382
1772639524309938200,4.428938232421875,0.0854705442756414,-0.0106730774447321,-0.0261587062703445
1772639524319983400,4.4389833984375,0.0835106423795223,-0.0103678839530795,-0.0261651360111311
1772639524330028300,4.4490283203125,0.0851595786303281,-0.014289149050042,0.0122519076013937
1772639524340073200,4.4590732421875,0.0608241787970066,-0.0184744719106704,0.0208232635265216
1772639524350117000,4.4691171875,0.0290589212238788,-0.0396638288032263,0.0272438711585477
1772639524360162300,4.479162353515625,0.0049555765807628,-0.044250937397778,0.0484206242978572
1772639524370207000,4.48920703125,-0.0233078103512525,-0.071420756939426,0.0082200948020443
1772639524380252200,4.499252197265625,0.0062321723878383,-0.0888926276788115,0.0176566161891445
1772639524390297000,4.509297119140625,0.051377136015892,-0.1183824146006256,0.0386813571045175
1772639524400342300,4.51934228515625,0.0928185689508915,-0.1302711514454335,0.0585533112555742
1772639524410387200,4.52938720703125,0.123062316045165,-0.1397125682033598,0.0701651673877611
1772639524420432100,4.53943212890625,0.1323439391314983,-0.1458870190545916,0.05838274046164
1772639524430477000,4.54947705078125,0.1652566131740808,-0.1427083159532398,0.0574152836689725
1772639524440522200,4.559522216796875,0.186362529566884,-0.1329522802881896,0.055156508424133
1772639524450566400,4.56956640625,0.1814192279458046,-0.104197383512184,0.0327771014967933
1772639524460611000,4.579611083984375,0.1766015985310077,-0.0549334402579814,0.0159938340760767
1772639524470656300,4.58965625,0.1983908210128545,-0.0305861307911574,-0.0064128627169877
1772639524480701200,4.599701171875,0.209233117544651,-0.0087763039126992,-0.0271506399171426
1772639524490746400,4.609746337890625,0.1918874304682016,0.00996602515392,-0.0357466918921098
1772639524500791000,4.619791015625,0.1590396383553743,0.04009279480502,-0.0418770844059065
1772639524510836200,4.629836181640625,0.1005149686723947,0.0644668461482971,-0.0747926079927012
1772639524520881200,4.639881103515625,0.0401356110334396,0.0675937459971755,-0.0991806513287126
1772639524530926300,4.64992626953125,0.0433487278610467,0.0685357760876417,-0.1138313637001439
1772639524540971300,4.65997119140625,0.0416840095192194,0.065247621262446,-0.1031378645218908
1772639524551015200,4.67001513671875,0.0025379940450191,0.0521084459651261,-0.0958282356282696
1772639524561060000,4.68006005859375,0.0014560440272092,0.0312456906784325,-0.0952282969737425
1772639524571105300,4.690105224609375,-0.0117231710195541,0.0139225076947361,-0.0783390484279021
1772639524581150200,4.700150146484375,-0.0130634797126054,-0.0283348447330296,-0.0565474513258784
1772639524591195100,4.710195068359375,0.0114987146139144,-0.0606831628911197,-0.0297568038275465
1772639524601240000,4.720239990234375,0.0454956767618656,-0.0728836690988391,-0.0010219634588807
1772639524611285200,4.73028515625,0.0516705660045146,-0.0932240079466253,0.0284269434632733
1772639524621330200,4.740330078125,0.0467740261346101,-0.1089618214350193,0.0236116156034171
1772639524631375000,4.750375,0.0562386045724153,-0.1165076337046921,0.0626319223387166
1772639524641420000,4.760419921875,0.0896586436152458,-0.1308343382861465,0.0931671631928533
1772639524651464200,4.770464111328125,0.0910726020663976,-0.1198658580914139,0.0776055099889636
1772639524661509400,4.78050927734375,0.1060936455875635,-0.1007600294746458,0.0672514718981459
1772639524671554000,4.790553955078125,0.1267787062197923,-0.0908143164563924,0.073958349125646
1772639524681599200,4.80059912109375,0.144427760156989,-0.0754815766375511,0.0598246463656425
1772639524691644200,4.81064404296875,0.1406336285710334,-0.0651810588322579,0.0468811032382771
1772639524701689300,4.820689453125,0.144739310324192,-0.0413392146695405,0.0635023119650781
1772639524711734300,4.830734375,0.1374468152284622,-0.0236883341014385,0.0525131543084979
1772639524721779200,4.840779296875,0.0894277574688196,0.0184475108385086,0.0262396990846842
1772639524731824000,4.85082421875,0.0808995830982923,0.0266655963465571,-0.0139955729309469
1772639524741869300,4.860869384765625,0.1183580838769674,0.0372466115936636,-0.012887282895483
1772639524751913000,4.870912841796875,0.1445008253931999,0.0424067708358168,-0.000859868232347
1772639524761958100,4.880958251953125,0.1482283214837312,0.0334134631715714,0.0106166710823774
1772639524772003000,4.891003173828125,0.1354834062010049,0.0074544807244092,-0.0011628697669133
1772639524782048300,4.90104833984375,0.1284030925512314,-0.0021701105806976,-0.0014813611315563
1772639524792093200,4.91109326171875,0.1247223582118749,-0.0005459434449672,-0.0293881897108629
1772639524802138000,4.92113818359375,0.1321025315910577,-0.0053331046562641,-0.0507485192561522
1772639524812183000,4.93118310546875,0.1466466052502393,-0.0238956201765686,-0.0602295739047229
1772639524822228200,4.941228271484375,0.1584714830785989,-0.0241906576003879,-0.0750769413594156
1772639524832273200,4.951273193359375,0.1540735403805971,-0.0150547996602952,-0.0894031344842165
1772639524842318300,4.961318359375,0.1446902104854583,-0.02881188766025,-0.065093051755242
1772639524852362200,4.9713623046875,0.1234580373644828,-0.0213864868998527,-0.0418371907869353
1772639524862407200,4.9814072265625,0.0791916101366281,-0.0252834943383932,-0.0239347466105595
1772639524872452400,4.991452392578125,0.0644511371225118,-0.0209887928191572,0.0099538597920909
1772639524882497000,5.0014970703125,0.0850906050473451,-0.0173307817682623,0.0302830561913549
1772639524892542200,5.011542236328125,0.0904892492204904,-0.0109087858967483,0.018692681238614
1772639524902587100,5.021587158203125,0.0777718064665794,-0.0226485427249222,0.0103930914595723
1772639524912632300,5.03163232421875,0.0491623825758695,-0.0218495743669569,0.0200165137208998
1772639524922677200,5.04167724609375,0.0507698177725076,-0.028848274147883,0.0317410364473238
1772639524932722200,5.05172216796875,0.0300701440930366,-0.0286607156865298,0.0095375340761616
1772639524942766000,5.06176611328125,0.0105798462033271,-0.034587840713188,0.0214754072923213
1772639524952811300,5.071811279296875,0.0092336922913789,-0.047732934294641,0.0240626107739284
1772639524962856200,5.081856201171875,0.0069119713455438,-0.0634956630285829,0.0310043562032282
1772639524972901000,5.091901123046875,0.0151245038956403,-0.0574094749826937,0.0667608023043721
1772639524982946000,5.101946044921875,0.0373071096092462,-0.060164107453078,0.0514016494026407
1772639524992991200,5.1119912109375,0.034826983231306,-0.0498231845721602,0.0244264756502583
1772639525003036200,5.1220361328125,0.0806879861742258,-0.0499973720952868,0.0039959377683699
1772639525013081000,5.1320810546875,0.1012386067718267,-0.0462505137171596,0.0065131812863051
1772639525023126000,5.1421259765625,0.109181090208888,-0.0546955398488789,0.0114328828360885
1772639525033171200,5.152171142578125,0.1063216091245412,-0.0399642730545252,0.0136627242473885
1772639525043215400,5.16221533203125,0.0999807156652212,-0.0369189140092581,0.0050233080547302
1772639525053260000,5.172260009765625,0.1032172133684158,-0.0377672014016658,0.0099619700333103
1772639525063305200,5.18230517578125,0.110374683907628,-0.0378131594352424,0.0165779541069641
1772639525073350100,5.19235009765625,0.1152910975217819,-0.0370483125425875,0.0026825170822441
1772639525083394600,5.20239453125,0.1092792898863554,-0.0230915372520685,0.0041780528696253
1772639525093439200,5.212439208984375,0.0872317087292671,-0.0250499047782272,-0.0063621554430574
1772639525103484400,5.222484375,0.0837234083473682,-0.0221020878233015,-0.0031807854605838
1772639525113529300,5.232529296875,0.0906833104878664,-0.0106929511889815,-0.0021969620550051
1772639525123574500,5.242574462890625,0.0820569364398717,-0.0088125442698597,0.0187996487444266
1772639525133619500,5.252619384765625,0.0616062690854072,-0.033012335024774,0.004204977409169
1772639525143663400,5.262663330078125,0.0444628265827894,-0.0305737097010016,0.0058946840617805
1772639525153708500,5.27270849609375,0.0264466928988695,-0.0298396232727915,0.0296156417911872
1772639525163753500,5.28275341796875,0.0213180978387594,-0.0324758900605142,0.0503204665698111
1772639525173798400,5.29279833984375,0.0056178398817777,-0.0393689375098794,0.0375388360058888
1772639525183843300,5.30284326171875,0.0154302088439464,-0.0523893817983567,0.0310971125205978
1772639525193888500,5.312888427734375,0.0273784207910299,-0.0465107720885425,0.0342055999299511
1772639525203933400,5.322933349609375,0.0480441922008991,-0.0301934782117605,0.0277853941567242
1772639525213978600,5.332978515625,0.0799655171185731,-0.0440091645311564,0.0122475967524573
1772639525224023300,5.343023193359375,0.1015618473768234,-0.0350946942567825,-0.0110834118112921
1772639525234068500,5.353068359375,0.1386924313753843,-0.0158386435143649,-0.0426256012182682
1772639525244112400,5.3631123046875,0.1735112313002348,-0.0124721627559512,-0.0385370897956192
1772639525254157600,5.373157470703125,0.1681423977434635,-0.0062364101715385,-0.0317877616658806
1772639525264202200,5.3832021484375,0.183065241587162,0.0156938282161951,-0.0455028736876323
1772639525274247400,5.393247314453125,0.1681651940971613,0.0240145703811198,-0.0752495214473456
1772639525284292400,5.403292236328125,0.121624392196536,0.0401581151261925,-0.0996468075357377
1772639525294337500,5.413337646484375,0.1430009422242641,0.0415086529523134,-0.1078043950282037
1772639525304382200,5.42338232421875,0.1796960574150085,0.0427815954975783,-0.0875539629535749
1772639525314427400,5.433427490234375,0.1935094787120819,0.0347827787633985,-0.0512170500833541
1772639525324472300,5.443472412109375,0.1620908426195383,0.0251930395759642,-0.0328630262145772
1772639525334517500,5.453517578125,0.1250742403894662,0.0138648592233657,-0.0320678937815129
1772639525344561400,5.4635615234375,0.1031517469167709,0.0093516926478594,-0.0169449973210692
1772639525354606300,5.4736064453125,0.089331895878911,-0.0055046618308871,0.0092074984041973
1772639525364651500,5.483651611328125,0.0836497585892677,-0.0299134922266006,0.0169650902610272
1772639525374696400,5.493696533203125,0.0844452928811311,-0.0410456385504454,0.0101549353221431
1772639525384741600,5.50374169921875,0.0921305866867303,-0.048567485422641,0.0044318815002217
1772639525394786300,5.513786376953125,0.100533088850975,-0.0573983690667897,0.0064681365681812
1772639525404831500,5.52383154296875,0.104975455212593,-0.0676941376317292,0.0187279352150857
1772639525414876400,5.53387646484375,0.0895820712476968,-0.0755551533304154,0.0251120467616245
1772639525424921600,5.543921630859375,0.0778577311843633,-0.0594238104797899,0.0327832024440169
1772639525434966300,5.55396630859375,0.017510522249341,-0.0534476586796343,0.050996612265706
1772639525445010400,5.564010498046875,-0.023448680126667,-0.0428876131553202,0.0598811988584697
1772639525455055400,5.574055419921875,-0.0140115742176771,-0.0443370082460343,0.0500647382430732
1772639525465100500,5.5841005859375,-0.0136018243730068,-0.0441731959864497,0.039103308843635
1772639525475145200,5.594145263671875,-0.014019173002243,-0.0389388755295425,-0.012826273423247
1772639525485190400,5.6041904296875,-0.0213151752293109,-0.0370510890215635,-0.0243774123441427
1772639525495235300,5.6142353515625,-0.0242874690383672,-0.0449905767839401,-0.0316405717475339
1772639525505280500,5.624280517578125,0.0055126259416341,-0.0399389924827963,-0.0506887153603136
1772639525515325400,5.634325439453125,0.0266401696443557,-0.0244852566327899,-0.0289563010996207
1772639525525370400,5.644370361328125,0.0488520014524459,-0.0359925198793411,-0.0459807568650692
1772639525535415300,5.654415283203125,0.0941506943374872,-0.0324301512226462,-0.0242814411563798
1772639525545459500,5.66445947265625,0.1375350780338048,-0.0285300750441849,-0.0171310214124619
1772639525555504400,5.67450439453125,0.1578694255322217,-0.0276710470620542,-0.0202020263556391
1772639525565549300,5.68454931640625,0.1635065546363592,-0.0434674588698893,-0.0180597170973196
1772639525575594500,5.694594482421875,0.1618809992611408,-0.0340231925677508,0.0053576911082491
1772639525585639400,5.704639404296875,0.1498480316400527,-0.0414393871083855,-0.0036189576821401
1772639525595684600,5.7146845703125,0.101676413667202,-0.0333790494453161,0.0041954058632254
1772639525605729300,5.724729248046875,0.0508960745006799,-0.0267347160600125,0.0309750935761258
1772639525615774500,5.7347744140625,0.0140314479619264,-0.0097573508393019,0.0444100369496271
1772639525625819400,5.7448193359375,-0.01171206510365,-0.0184779790420085,0.0523834635142236
1772639525635864600,5.754864501953125,-0.0128226566940546,-0.0076947192210704,0.0450554221810773
1772639525645908500,5.764908447265625,-0.0109597854316234,0.0027321283776313,0.0636654666375368
1772639525655953400,5.774953369140625,-0.0096995562374591,0.0092452365987002,0.0431126906154677
1772639525665998300,5.784998291015625,0.0040682723522186,-0.0020799480792134,0.0418547995088621
1772639525676043500,5.79504345703125,0.0591483545392751,0.0009421031557023,0.022772863224335
1772639525686088400,5.80508837890625,0.0716524468034505,-0.0217936063960194,-0.0056666474595665
1772639525696133400,5.81513330078125,0.0818202050745487,-0.0393684991184622,-0.0080876275287941
1772639525706178300,5.82517822265625,0.0911328078210353,-0.0546555000994354,-0.0450112542457878
1772639525716223500,5.835223388671875,0.0994563995301723,-0.0601839811973273,-0.0285336552407592
1772639525726268400,5.845268310546875,0.1369546477973461,-0.0607657266080379,-0.0039553500296548
1772639525736312300,5.855312255859375,0.1186953530073165,-0.0425296665631234,0.0003816562613472
1772639525746357500,5.865357421875,0.093304306641221,-0.0504476000808179,0.0198192010505124
1772639525756402400,5.87540234375,0.0993669676810503,-0.0576246521033346,-0.0058851855810731
1772639525766447600,5.885447509765625,0.1313496673971414,-0.0399554321609437,0.0110121001407504
1772639525776492300,5.8954921875,0.1449281108945608,-0.0539035857535898,-0.0071940031573176
1772639525786537500,5.905537353515625,0.1773024402767419,-0.0496412521339952,-0.0451640701873227
1772639525796582400,5.91558251953125,0.1534942791879177,-0.0349411841955035,-0.0422132210250943
1772639525806627600,5.925627685546875,0.1026993269741535,-0.0382824574474245,0.0145421739630401
1772639525816672300,5.93567236328125,0.0577308889567852,-0.0216010064333677,0.0268801158800721
1772639525826717400,5.945717529296875,0.0116015904664993,0.0044685237161815,0.0150547996602952
1772639525836761600,5.95576171875,-0.006633738926053,0.0165757256172597,-0.0278111496524885
1772639525846806500,5.965806640625,0.019214988079667,0.0137987351845949,-0.0100524613283574
1772639525856851500,5.9758515625,0.0774625943869352,0.0080641370553523,0.0005170096114277
1772639525866896400,5.985896484375,0.1304874976098537,-8.43903478235e-05,0.0141373925544321
1772639525876941600,5.995941650390625,0.1440945826798677,-0.0276988118518143,0.0230306008450686
1772639525886986500,6.005986572265625,0.1688420704454183,-0.034530995959416,0.0119101814916357
1772639525897031400,6.016031494140625,0.14384791444242,-0.0316986220777034,-0.0307718991542235
1772639525907076400,6.026076416015625,0.1218348200768232,-0.0224667564172297,-0.0195602943859994
1772639525917121500,6.03612158203125,0.102528646582365,-0.022399974791333,-0.0120635454224422
1772639525927166500,6.04616650390625,0.1197714578062295,-0.027014921240881,-0.0108755412142723
1772639525937210400,6.05621044921875,0.1321276660323143,-0.027313319665566,-0.0008072247296571
1772639525947255300,6.06625537109375,0.0949456441074609,-0.0455743680212646,-0.0150622523143887
1772639525957300500,6.076300537109375,0.0807645585417747,-0.0383420056149363,-0.0330519363828003
1772639525967345400,6.086345458984375,0.0677232906609773,-0.0288615720208734,-0.0395427231742069
1772639525977390600,6.096390625,0.0583650952070951,-0.0488547779314219,-0.0298940203411504
1772639525987435300,6.106435302734375,0.0561883356899023,-0.0351945013694465,-0.0275719340691342
1772639525997480400,6.11648046875,0.0613882424205541,-0.0330990634601563,0.0013266089612618
1772639526007525400,6.126525390625,0.0397340444952249,-0.0269866449944674,-0.0070524757947772
1772639526017570600,6.136570556640625,0.063771922686696,-0.019908815562725,-0.031358503403142
1772639526027615500,6.146615478515625,0.097276717403531,-0.0270480928581207,-0.0434512749200686
1772639526037659400,6.156659423828125,0.1175882685482501,-0.0394276819597929,-0.0462297631900757
1772639526047704600,6.16670458984375,0.1056774660021066,-0.0390815719358623,-0.0500523536855354
1772639526057749500,6.17674951171875,0.1077642091482877,-0.0405836470618844,-0.0357144335903227
1772639526067794400,6.18679443359375,0.0774620098650455,-0.0334373555038124,-0.0188577356072142
1772639526077839400,6.19683935546875,0.0529758033841848,-0.0385013608951121,-0.0052184287680312
1772639526087884800,6.206884765625,0.0641378333896398,-0.0277740690451115,0.0052620487140491
1772639526097930000,6.216929931640625,0.0892722746461629,-0.0431551780503243,0.0272221342507749
1772639526107975000,6.226974853515625,0.1092149924784898,-0.0470178448278456,0.0227491535551846
1772639526118019800,6.237019775390625,0.1064198088020086,-0.0323505831804126,0.0156238682525232
1772639526128064800,6.247064697265625,0.0956926630824804,-0.0331677447821944,0.0185203934116289
1772639526138109000,6.25710888671875,0.0926157398551702,-0.0348958837490528,0.010459873085469
1772639526148154000,6.267154052734375,0.0985135657221078,-0.0428574372127652,0.0242382230691611
1772639526158198800,6.27719873046875,0.1139683244854211,-0.043342225055024,0.0178529790114611
1772639526168244000,6.287243896484375,0.1388286249756813,-0.0387093045573681,0.018684388334304
1772639526178289000,6.297288818359375,0.1501724412888288,-0.0474604009635746,0.0184336649762466
1772639526188334000,6.307333984375,0.1359019238740205,-0.0461566979538649,-0.0082182316385209
1772639526198379000,6.31737890625,0.1140834752976894,-0.0296508957676589,-0.011054952901788
1772639526208424000,6.327423828125,0.0865256062865257,-0.0273304899960756,0.0060287587702274
1772639526218468900,6.33746875,0.0626812048405408,-0.0039884120490401,-0.0020988354427739
1772639526228514000,6.34751416015625,0.0596668254554271,0.0014288637593388,-0.0122867597190663
1772639526238558000,6.357557861328125,0.0587982259273529,0.0094978231202811,-0.0003343099882826
1772639526248603000,6.367602783203125,0.0647363838046789,0.0100005119454115,0.0023925576923415
1772639526258647800,6.377647705078125,0.0460205774188041,-0.0127114514045417,0.0039718262404203
1772639526268693000,6.38769287109375,0.0386830741375684,-0.0361556745517998,0.0050782531123608
1772639526278738000,6.397738037109375,0.0397322909295558,-0.0191711489379405,0.0013831249214708
1772639526288782800,6.407782958984375,0.0861386527955532,-0.0305498173687607,-0.0024895152607932
1772639526298827800,6.417827880859375,0.1035398694515228,-0.0471440284907817,0.0002506137602031
1772639526308873000,6.427873046875,0.1276648414045572,-0.0541892708271741,0.0165868680657818
1772639526318918000,6.43791796875,0.1767635110944509,-0.0748291771434247,0.0157249540068209
1772639526328961800,6.4479619140625,0.2011322286754846,-0.0677937986139208,-0.0067081558691337
1772639526339007000,6.458007080078125,0.1966694040477275,-0.0774064802855253,-0.0329085093241184
1772639526349052000,6.468052001953125,0.1479249546229839,-0.0645570086497813,-0.026942477059178
1772639526359097000,6.47809716796875,0.1224631811082363,-0.0455580744735896,-0.0100288977896794
1772639526369142000,6.48814208984375,0.0687391897052526,-0.0462758673541247,0.0094924528254196
1772639526379187000,6.49818701171875,0.0357300695508718,-0.0453860058423131,0.011215075366944
1772639526389231900,6.50823193359375,0.0202618667840957,-0.0332532311085611,-0.0069755746336653
1772639526399277000,6.518277099609375,-0.0046042789250612,-0.042905221877247,-0.0382277681181207
1772639526409322000,6.528322021484375,-0.0240431388884782,-0.0451732398744672,-0.0197909978693351
1772639526419367000,6.538366943359375,-0.007797522008419,-0.045283714511618,0.0158379128620028
1772639526429410800,6.548410888671875,0.0025374095231294,-0.0380639193259179,0.0537352434493601
1772639526439456000,6.5584560546875,0.0034954409003257,-0.0550409192204475,0.0351650926118716
1772639526449501000,6.5685009765625,0.01331599316895,-0.0671959788512438,0.0041438948716968
1772639526459545900,6.5785458984375,0.0532248097091913,-0.0644320670958608,-0.0268179738966748
1772639526469590800,6.5885908203125,0.0873024358779192,-0.0522230122555047,-0.0286609714148566
1772639526479636000,6.598635986328125,0.0962222399145364,-0.0552210250277072,-0.0376850760761648
1772639526489681000,6.608680908203125,0.1401145731329917,-0.0559868217684328,-0.0379985990047454
1772639526499725800,6.618725830078125,0.1594178240180015,-0.0404345209147781,-0.0274100580383092
1772639526509770800,6.628770751953125,0.161759418708086,-0.0475592582281678,-0.0098565368974581
1772639526519816000,6.63881591796875,0.1624029773086309,-0.0500625462859869,-0.0136191043013706
1772639526529860000,6.648860107421875,0.168247611683607,-0.0387080624483525,-0.0010278086777776
1772639526539904800,6.65890478515625,0.1180927109390497,-0.0162313691589981,0.0192029323156923
1772639526549950000,6.668949951171875,0.0716793348103761,0.0024548458062112,0.0163413688721135
1772639526559995000,6.678994873046875,0.021404607078433,0.0074690937716513,0.009907098040916
1772639526570040000,6.6890400390625,0.0057686465293169,-0.0024758155290037,0.0084997885262593
1772639526580085000,6.6990849609375,0.0270236160039901,0.0054812078900635,0.0235635752106085
1772639526590130000,6.7091298828125,0.0660199938744306,0.0016341770730912,0.0228645966283977
1772639526600174800,6.7191748046875,0.092785835725069,-0.0173782741717994,0.0073877356311306
1772639526610220000,6.729219970703125,0.1112625726580619,-0.0382831880997866,0.0167380765721201
1772639526620265000,6.739264892578125,0.1335433780491352,-0.0489654717642813,0.0124721262233331
1772639526630308900,6.749308837890625,0.1535199981510639,-0.0504821599375456,0.0052138987233862
1772639526640353800,6.759353759765625,0.1594096407115459,-0.0646004094000905,0.0101397377530112
1772639526650399000,6.76939892578125,0.1455477040976285,-0.0615985972356051,0.0007294833183288
1772639526660444000,6.77944384765625,0.1363239486783742,-0.0540749237325042,0.0009448796346783
1772639526670488800,6.78948876953125,0.1012216556370258,-0.0386043098129332,0.0029741204399615
1772639526680533800,6.79953369140625,0.0754150142073631,-0.0342966757468879,-0.0134444418542087
1772639526690579000,6.809578857421875,0.0809030902296304,-0.0454596556004136,-0.0341061946760863
1772639526700624000,6.819623779296875,0.0747369688153266,-0.0367852776922285,-0.0593633855294436
1772639526710669000,6.8296689453125,0.0546563038170337,-0.0367534212492406,-0.0759779818523675
1772639526720713700,6.839713623046875,0.060036243289709,-0.0279131852548569,-0.0790580468848347
1772639526730758000,6.8497578125,0.0487836123913526,-0.040839302323386,-0.0714074590664357
1772639526740803000,6.859802978515625,0.0529004000604152,-0.050817090980336,-0.0882141804279759
1772639526750848000,6.869847900390625,0.021210545811057,-0.0307357683949172,-0.0674149553641676
1772639526760893000,6.879892822265625,0.0205003517150878,-0.0256644564799964,-0.0525321512699127
1772639526770937900,6.889937744140625,0.0394546430319547,-0.0210503137480467,-0.0482575792232528
1772639526780983000,6.899983154296875,0.0390372944027185,-0.033046967946738,-0.0293933408100157
1772639526791028000,6.910028076171875,0.0701058018833398,-0.0345274157628417,-0.0347476343847811
1772639526801073000,6.920072998046875,0.0729465782672166,-0.0433250547245144,-0.0162715185062959
1772639526811117800,6.930117919921875,0.1025765773773193,-0.048349166496843,-0.0154201623739674
1772639526821163000,6.9401630859375,0.1260568216860294,-0.0368166957437992,-0.0297258607000112
1772639526831207000,6.95020703125,0.1600999610632658,-0.051228813586384,-0.0103516634706407
1772639526841251800,6.960251953125,0.1397533386051654,-0.0404027375370264,0.0056684740904718
1772639526851297000,6.970297119140625,0.1238274551987648,-0.0327286227125674,0.0126150418253615
1772639526861342000,6.980342041015625,0.1247638592660427,-0.0323716259684413,0.0376791577920317
1772639526871387000,6.990386962890625,0.0906657748311758,-0.0271227655295282,0.0251303130706772
1772639526881432000,7.00043212890625,0.0654272886782884,-0.0177341749373823,0.0393620328450575
1772639526891477000,7.01047705078125,0.049959670433402,-0.0232305073313415,0.0364296326549723
1772639526901522000,7.02052197265625,0.0691366645902395,-0.0272418618645519,0.0082236749986186
1772639526911566800,7.03056689453125,0.0927741452872753,-0.0084859426639974,0.0133584075385704
1772639526921612000,7.040612060546875,0.085391049298644,0.0045905426606535,0.0250937073873355
1772639526931656000,7.050656005859375,0.1095873329222202,-0.0217556124731898,0.0476954518284648
1772639526941700900,7.060700927734375,0.154070033249259,-0.0220442932214587,0.1385198147548362
1772639526951746000,7.07074609375,0.1362824476242065,0.0206290195960551,0.1610312140313908
1772639526961791000,7.080791015625,0.1878320175975561,-0.0049088878948241,0.1142238701490685
1772639526971836000,7.0908359375,0.253047709351778,-0.0723531424187123,0.0008489449795335
1772639526981880800,7.100880859375,0.2660468916565179,-0.1132969280298799,-0.0663186114948242
1772639526991926000,7.110926025390625,0.2545014152914285,-0.110633554039523,-0.0905460209090262
1772639527001971000,7.120970947265625,0.1971183168590068,-0.0933399624764919,-0.0719245417430996
1772639527012015900,7.131015869140625,0.0670610273599624,-0.0749953274905681,-0.0685764003589749
1772639527022060800,7.141060791015625,-0.1434808346956968,0.0158952690724283,-0.0489415063668042
1772639527032105000,7.15110498046875,-0.2330173132359981,-0.0154339351709932,0.0177299371536821
1772639532788041000,0.063041015625,0.3283487417906522,-0.049488691920787,0.0966653075069189
1772639532798085600,0.073085693359375,0.3378840473771095,-0.0519029134556651,0.0981651176106184
1772639532808130800,0.083130859375,0.306136909982562,-0.0418909302681684,0.066751376888901
1772639532818174700,0.0931748046875,0.2690402282536029,-0.0165670308541506,0.0097177494812756
1772639532828220000,0.103219970703125,0.2185024656713008,-0.0125008043285459,-0.0832772720150649
1772639532838264600,0.1132646484375,0.1266927815020084,-0.003377002152428,-0.2061397546391934
1772639532848309800,0.123309814453125,0.0879208600372076,0.0270993115887045,-0.3582786006301641
1772639532858354700,0.133354736328125,0.0152478380143642,0.0260165578532963,-0.4183314297284931
1772639532868399900,0.14339990234375,-0.0559679709374904,0.0304389774054288,-0.4263306848540902
1772639532878444500,0.153444580078125,-0.1002262148588895,0.0183433198116719,-0.3718321288820356
1772639532888489700,0.16348974609375,-0.0949655178517103,0.0257261235393583,-0.2583809601385146
1772639532898534700,0.17353466796875,-0.0398328286945819,0.0108000648252666,-0.173849231082946
1772639532908579800,0.183579833984375,0.0081236852228641,-0.0122477063503116,-0.1015774102721363
1772639532918623700,0.193623779296875,0.0271165549844503,-0.0066284051638096,-0.0494861346375197
1772639532928668700,0.203668701171875,0.0565688594400882,-0.0106324531733989,-0.0243988204583525
1772639532938713900,0.2137138671875,0.0746194799154996,-0.0318174261517822,-0.0125415747303515
1772639532948758800,0.2237587890625,0.1517658479601144,-0.0344352074347436,-0.0186267398629337
1772639532958804000,0.233803955078125,0.2215945864677429,-0.0372018226038664,-0.0101377284590154
1772639532968848600,0.2438486328125,0.2244996602594852,-0.0697558924671262,0.0478516653034836
1772639532978893800,0.253893798828125,0.2237520567625761,-0.0759605192609131,0.0729536655951291
1772639532988938800,0.263938720703125,0.202453832668066,-0.067637585138902,0.0773915019121021
1772639532998984000,0.27398388671875,0.1519143165200948,-0.0565153756871819,0.0965410235401243
1772639533009028600,0.284028564453125,0.0892290200263261,-0.0464687595777213,0.0653358840677887
1772639533019072800,0.29407275390625,0.0781850634425878,-0.0249115922860801,0.066410381431505
1772639533029117700,0.30411767578125,0.0999842227965593,-0.0008724719855934,0.0702211718913167
1772639533039163000,0.314162841796875,0.1244002866506576,0.0027199995484203,0.0690376611951738
1772639533049207800,0.324207763671875,0.0864250685214996,0.0189158590026199,0.0538436722598969
1772639533059252700,0.334252685546875,0.1242985798418521,0.0388394337430596,0.0162714089084416
1772639533069297700,0.344297607421875,0.1685772820293903,0.0605458002470433,-0.0113552144899964
1772639533079342800,0.3543427734375,0.1873614774763584,0.0492432657923549,-0.0307571034438908
1772639533089387800,0.3643876953125,0.157475457778573,0.0663745794657617,-0.0473256686680018
1772639533099432700,0.3744326171875,0.1625660589158535,0.0631458266776055,-0.0611585253179073
1772639533109477600,0.3844775390625,0.1514624810993671,0.0502026854090392,-0.0724987979670986
1772639533119521500,0.394521484375,0.1041401734322309,0.0432091001946479,-0.0786019006151706
1772639533129566700,0.404566650390625,0.0910842925041914,0.0417803095005452,-0.0921148045957088
1772639533139611600,0.414611572265625,0.1018400797963142,0.0282615603011101,-0.0851949787372723
1772639533149656800,0.42465673828125,0.0924076500624418,0.0226092336278408,-0.0858601281151175
1772639533159701500,0.434701416015625,0.0918003318190574,-0.0016735592354089,-0.0952006783144548
1772639533169746700,0.44474658203125,0.1070762268841266,-0.0076753569334745,-0.0740362732000649
1772639533179791600,0.45479150390625,0.0991378351002931,-0.036914383964613,-0.0772401472752913
1772639533189836800,0.4648369140625,0.0910118117898702,-0.0513842233438044,-0.0899091112449765
1772639533199881700,0.4748818359375,0.0916594620436429,-0.0567108251940459,-0.0918653964119032
1772639533209926700,0.4849267578125,0.0593400777190923,-0.0512515368748456,-0.0808053289435803
1772639533219970800,0.494970703125,0.029506080469489,-0.0588320551317185,-0.0759411204406991
1772639533230015700,0.505015625,0.0143295541256666,-0.0562926728472113,-0.0460787373468279
1772639533240061000,0.51506103515625,0.0265606746673583,-0.0483747393295168,-0.0097243618851527
1772639533250105600,0.525105712890625,0.0751835435390472,-0.0574011455457657,0.0191776517439633
1772639533260150800,0.53515087890625,0.1208183365106582,-0.0401774043485522,0.0215045237889513
1772639533270195700,0.54519580078125,0.1374836401075124,-0.0282557150822132,0.047550307736732
1772639533280241000,0.555240966796875,0.1006155064374208,-0.0481196685899049,0.0351283773306757
1772639533290285600,0.56528564453125,0.0437859502345323,-0.0366325713485479,0.0330839024236425
1772639533300330800,0.575330810546875,0.0526385342538356,0.0162795922148972,0.0668039107937365
1772639533310375700,0.585375732421875,0.0644143122434616,0.0363277431830763,0.0884782381916418
1772639533320419800,0.595419921875,0.0495551812857389,0.0266459417980164,0.0913068492136895
1772639533330464500,0.605464599609375,0.0347691155642271,0.0068465048938989,0.1174280364852398
1772639533340509700,0.615509765625,0.0500695605486631,0.0302153247173875,0.1290393811607733
1772639533350554600,0.6255546875,0.0512637387692928,0.026519319743663,0.107796869308874
1772639533360599800,0.635599853515625,0.0803933871418237,0.0034437107130885,0.0824591240325942
1772639533370644700,0.645644775390625,0.1126677632808685,-0.0155814538829028,0.0948660760652273
1772639533380689700,0.655689697265625,0.1366021810978651,-0.0394968747384846,0.1062689290892332
1772639533390734600,0.665734619140625,0.1177770691186189,-0.0842897369932383,0.0990710534743964
1772639533400779800,0.67577978515625,0.0932902781158685,-0.1010654421620071,0.0903274462549015
1772639533410824700,0.68582470703125,0.0721101274430751,-0.1236133009914308,0.0773753910275176
1772639533420868600,0.69586865234375,0.0546767620831727,-0.1588972342099994,0.087591774213314
1772639533430913800,0.705913818359375,0.0104530049532651,-0.1838905134301632,0.0841809063239023
1772639533440958700,0.715958740234375,-0.0089010993361473,-0.1660973017819225,0.0667045786051079
1772639533451004000,0.72600390625,-0.0220791453391313,-0.1560846610073,0.0588324204578995
1772639533461048600,0.736048583984375,-0.0075543609023094,-0.1627139429539442,0.0659112362703308
1772639533471093800,0.74609375,0.0025151976913213,-0.1345104695156216,0.0556678554797545
1772639533481138700,0.756138671875,-0.0038625206470489,-0.1349595284573733,0.0417804190983995
1772639533491183900,0.766183837890625,-0.0228027834385633,-0.106301077793166,0.040429296750389
1772639533501228800,0.776228759765625,0.015438392150402,-0.0846277367759495,0.0398017759691923
1772639533511273700,0.786273681640625,0.0788724611848592,-0.0850119137879461,0.0401516488527879
1772639533521317600,0.796317626953125,0.1254255380451679,-0.0785623723223805,0.0471594817882403
1772639533531362800,0.80636279296875,0.1414554663479328,-0.055344359146431,0.0504675103576853
1772639533541407500,0.816407470703125,0.1486228737592697,-0.0481019868027418,0.0346903877722099
1772639533551452700,0.82645263671875,0.187615744498372,-0.0372941039972007,-0.011760580420494
1772639533561497600,0.83649755859375,0.2427133623421192,-0.0288952550947666,-0.0397217330029234
1772639533571542800,0.846542724609375,0.3040338002234697,-0.055232057878375,-0.0232668207537382
1772639533581587700,0.856587646484375,0.2948936314344406,-0.0645690644137561,-0.0342598874004557
1772639533591632600,0.866632568359375,0.1798918722480535,-0.0764911920715123,-0.0525427822617813
1772639533601677600,0.876677490234375,0.0545399839609861,-0.0725485188603401,-0.0416626014050096
1772639533611722800,0.88672265625,-0.0182990422785282,-0.0678526161290705,-0.05464461337924
1772639533621767000,0.896766845703125,-0.07182137362957,-0.0608903759010136,-0.0393230160089209
1772639533631811600,0.9068115234375,-0.088580200728774,-0.0600544365335255,-0.0309724632276222
1772639533641856800,0.916856689453125,-0.0902414119392633,-0.0612440847095102,-0.0275702901013195
1772639533651901700,0.926901611328125,-0.0247656079441308,-0.059564534124732,-0.0397024072479456
1772639533661947000,0.93694677734375,0.0342716874361038,-0.0790503750350326,-0.0405439361060038
1772639533671991600,0.946991455078125,0.0993155297547578,-0.1094217670969665,-0.0442702996853739
1772639533682036700,0.95703662109375,0.1717360383212566,-0.1117252947989851,-0.0717644558105617
1772639533692081700,0.96708154296875,0.2254296345859766,-0.1255332362033426,-0.0873974937502294
1772639533702126800,0.977126953125,0.2175748294323682,-0.1377242439303547,-0.074936363844946
1772639533712171800,0.987171875,0.1957768391221761,-0.1063070691425353,-0.0601378405006602
1772639533722215700,0.997215576171875,0.1289770930469036,-0.0986792046125978,-0.0806380460852757
1772639533732260600,1.007260498046875,0.0817570767104625,-0.0762593560770154,-0.0615851897647604
1772639533742305800,1.017305908203125,0.0185462950378656,-0.0467295294057577,-0.0462616561656817
1772639533752350700,1.027350830078125,0.015272387933731,-0.0308816796716302,-0.0400839539114385
1772639533762395600,1.037395751953125,0.0082318217724561,-0.0260503139924257,-0.0677059011347591
1772639533772440600,1.047440673828125,-0.0082967037022113,-0.0247301713045686,-0.090108579339832
1772639533782485800,1.05748583984375,-6.31283640861e-05,-0.0250656138040125,-0.1043506013125181
1772639533792530700,1.06753076171875,0.0389046079337596,-0.0168934863295406,-0.1061397132189944
1772639533802575600,1.07757568359375,0.0957166284799575,-0.0487697299964726,-0.0975042425490915
1772639533812620500,1.08762060546875,0.1567301923692226,-0.0659871145181357,-0.071201013241522
1772639533822664700,1.097664794921875,0.2061643776237964,-0.0910988324861973,-0.0457596614602953
1772639533832710000,1.1077099609375,0.2484767481744289,-0.0934731604021042,-0.0338205826677382
1772639533842754600,1.117754638671875,0.2728793680250644,-0.1144431754555553,-0.0549610954498872
1772639533852799700,1.1277998046875,0.2557341719567775,-0.1127499616716057,-0.0699150650842115
1772639533862844700,1.1378447265625,0.2025970405310392,-0.0978448726803064,-0.087284023438394
1772639533872889900,1.147889892578125,0.1928121440976858,-0.0891348389368504,-0.0608067527381703
1772639533882934800,1.157934814453125,0.2029378167927265,-0.0764243373803794,-0.0383248352844268
1772639533892979700,1.167979736328125,0.1512660817444324,-0.0860336580511182,-0.0104334965351969
1772639533903024600,1.178024658203125,0.1039239003330469,-0.0829334270134568,0.0089580902203917
1772639533913069800,1.18806982421875,0.0550391656547784,-0.0788457923736423,0.0050629459453746
1772639533923113500,1.198113525390625,-0.0067249243408441,-0.0530501837946474,-0.0275085499767214
1772639533933158700,1.20815869140625,-0.0645581046283245,-0.0443217376116663,-0.0477539405500516
1772639533943203600,1.21820361328125,-0.1110994910508394,-0.0425989324070513,-0.0408791228771209
1772639533953248800,1.228248779296875,-0.1121773494154214,-0.0602872223760932,-0.0649504649467766
1772639533963293700,1.238293701171875,-0.0808054750740528,-0.0610532383125275,-0.069925294217281
1772639533973338600,1.248338623046875,-0.070952189579606,-0.0646949558157473,-0.0915915844392031
1772639533983383600,1.258383544921875,-0.0317827932298183,-0.0624647125456482,-0.1255674672665074
1772639533993428700,1.2684287109375,0.0212882872223854,-0.0745592010956257,-0.1395228543175384
1772639534003473700,1.2784736328125,0.0508621722310781,-0.0773121530655771,-0.1035278502201661
1772639534013518800,1.288518798828125,0.0630845249444246,-0.0670467065736651,-0.0744485437953844
1772639534023562800,1.298562744140625,0.0773906981945037,-0.0613852467458695,-0.0618911139087751
1772639534033607700,1.308607666015625,0.0885287628024816,-0.049327510009706,-0.0823527775812894
1772639534043652900,1.31865283203125,0.0831950005590915,-0.0237062350843101,-0.0684667294394224
1772639534053697500,1.328697509765625,0.1065863975405693,-0.0205120421528816,-0.0863313988886773
1772639534063742700,1.33874267578125,0.1464203952789306,-0.0040695144612342,-0.0642518882233649
1772639534073787600,1.34878759765625,0.1431394739121198,0.0077872198101133,-0.0474024236986413
1772639534083832800,1.358832763671875,0.1037350997626781,0.0030165713422,-0.0335540406860411
1772639534093877200,1.368877197265625,0.0883791251987218,0.0145129478685557,-0.0153886347245424
1772639534103922400,1.37892236328125,0.0881447319209575,0.0256437059529125,0.0243807002797722
1772639534113966300,1.38896630859375,0.0918511852234602,0.0245673819582909,0.041396936206147
1772639534124011300,1.39901123046875,0.1084796639412641,0.0416495227277278,0.0520400203714147
1772639534134056400,1.409056396484375,0.0935591581851243,0.0364175403583794,0.0533694788768887
1772639534144101400,1.419101318359375,0.1135205807179212,0.0303693462353199,0.043077107845433
1772639534154146600,1.429146484375,0.1389963827580213,0.0422387938577681,0.0379496087638661
1772639534164191200,1.439191162109375,0.1446913795292377,0.0158140205297619,0.018276793914102
1772639534174236400,1.449236328125,0.130740595588088,-0.030022797819972,0.0160356273911893
1772639534184281300,1.45928125,0.117504681918025,-0.0292925107840448,0.0217177281482145
1772639534194326500,1.469326416015625,0.1006909097611904,-0.0360684346597641,0.0254957853822037
1772639534204371200,1.47937109375,0.0725496879041194,-0.0452634023759514,0.0233718520307913
1772639534214416400,1.48941650390625,0.0475765746891498,-0.0631575171153992,0.0146232763752341
1772639534224460300,1.499460205078125,0.020983166795969,-0.0688243107054382,0.0026184388700872
1772639534234505500,1.50950537109375,0.0227946001321077,-0.0727398767139762,-0.0119038613487035
1772639534244550100,1.519550048828125,0.0485088871031999,-0.0705461660619825,-0.0210238275999203
1772639534254595300,1.52959521484375,0.0604459931343793,-0.0726565823446959,-0.0072505556501448
1772639534264640300,1.53964013671875,0.0795382316172123,-0.0703022743035107,0.0266636235851794
1772639534274685400,1.549685546875,0.0525403345763683,-0.0633445641200989,0.0248750962005928
1772639534284730400,1.55973046875,0.0433376219451427,-0.0577231440417468,0.0183407990610227
1772639534294775300,1.569775390625,0.0259334826797246,-0.0519783167794346,0.0112579281279817
1772639534304820200,1.5798203125,0.030755788269639,-0.0297915463473647,0.0357863663153722
1772639534314865400,1.589865478515625,0.0366045142978429,-0.0384092256322503,0.0725055930340662
1772639534324909300,1.599909423828125,0.0530365936607122,-0.0451854417689144,0.0780437918083742
1772639534334954200,1.609954345703125,0.0669867930799722,-0.027891046488285,0.0576811680635437
1772639534344999400,1.61999951171875,0.083755557051301,-0.0349181686460971,0.047484804752469
1772639534355044400,1.63004443359375,0.0935305166125297,-0.0316860548570752,0.0532366828100755
1772639534365089500,1.640089599609375,0.150824767717719,-0.0462800320725888,0.0555615090284496
1772639534375134200,1.65013427734375,0.1799164221674203,-0.0227750186488032,0.0586084024436771
1772639534385179400,1.660179443359375,0.1375911921352147,-0.0202381205823272,0.0647344475759193
1772639534395224300,1.670224365234375,0.1214046119660139,-0.033866979092732,0.0391819635704159
1772639534405269500,1.68026953125,0.0982587141782045,-0.0317024214699864,0.0252083467429503
1772639534415313200,1.690313232421875,0.0978080478012561,-0.0324769860390573,0.0032230902323499
1772639534425358300,1.7003583984375,0.0802729756325483,-0.0304624313462525,0.0194136524569243
1772639534435403300,1.7104033203125,0.0699310298383235,-0.0378336907666176,0.0249984303193166
1772639534445448400,1.720448486328125,0.0609621259629726,-0.0307903481263667,0.0244483221558853
1772639534455493000,1.7304931640625,0.050694414448738,-0.0352003465883433,0.0230949713181704
1772639534465538300,1.740538330078125,0.1145066691458225,-0.0524576977942138,-0.0141658149313181
1772639534475583200,1.750583251953125,0.0428448699921369,-0.0558022589817643,-0.01566365227364
1772639534485628400,1.76062841796875,0.0386789824843406,-0.0593328442607074,-0.0367965662712231
1772639534495673300,1.77067333984375,0.0592348637789487,-0.0579588524937629,-0.0018348872769623
1772639534505718300,1.78071826171875,0.0636754765748977,-0.0535988306533545,0.0174693865213543
1772639534515762400,1.790762451171875,0.0457031820327043,-0.0619838702261447,0.008930800354667
1772639534525807400,1.800807373046875,0.0580044452011585,-0.0574927693519741,0.0014919555908069
1772639534535852500,1.8108525390625,0.0486111784338951,-0.0486200923927128,-0.002671374633722
1772639534545897200,1.820897216796875,0.0868324802786111,-0.0519972406756132,-0.0227243844401091
1772639534555942400,1.8309423828125,0.1331242758542299,-0.0438380457479506,-0.031039281386137
1772639534565987300,1.8409873046875,0.1353811148703098,-0.0482836269799619,-0.0244537655159831
1772639534576032500,1.851032470703125,0.0998398458898067,-0.0434160209435969,-0.0283156285759061
1772639534586077200,1.8610771484375,0.0846066209226846,-0.027754487561807,-0.036062845169194
1772639534596122400,1.871122314453125,0.0835807850062847,-0.0097454412057995,-0.0361209685645997
1772639534606167300,1.881167236328125,0.0800514418363571,-0.0023415216248482,-0.0079920947324484
1772639534616211500,1.89121142578125,0.0602291355133056,0.0383062767144292,0.0459894516281783
1772639534626256100,1.901256103515625,0.0687099636107683,0.0149321231286972,0.0204115043878555
1772639534636301300,1.91130126953125,0.1133054766625165,-0.0109404231440275,-0.0234735223069787
1772639534646346200,1.92134619140625,0.1899965021550655,-0.0021574702948331,-0.0156740640698
1772639534656391400,1.931391357421875,0.1848217298656702,-0.0188292036324739,-0.014834325310029
1772639534666436400,1.941436279296875,0.1709066017597913,-0.0299347542103379,-0.032795367805846
1772639534676481300,1.951481201171875,0.177774149441719,-0.0211092773936688,-0.0128174325296655
1772639534686526200,1.961526123046875,0.1390834765195846,-0.0470405681163072,0.073020191492699
1772639534696571400,1.9715712890625,0.1080336737394332,-0.0669615125082433,0.0526107329314574
1772639534706616300,1.9816162109375,0.0787111331433057,-0.0488334428824484,0.0297657543189823
1772639534716660200,1.99166015625,0.0580021071135997,-0.0566336683046072,0.0498821847504004
1772639534726705400,2.001705322265625,0.0496083727777004,-0.0611260112877935,0.0357571036882698
1772639534736750300,2.011750244140625,0.0289572144150733,-0.0755648710068315,0.0057219578433781
1772639534746795500,2.02179541015625,0.0297229380905628,-0.0621209406092762,-0.0015650573596358
1772639534756840200,2.031840087890625,0.0530880315870046,-0.0576856615755707,-0.0109527711689472
1772639534766885400,2.041885498046875,0.054167058995366,-0.0708130003046244,0.0033136545926332
1772639534776930300,2.051930419921875,0.0582470217853784,-0.0532489943023771,0.0023133549762889
1772639534786975500,2.0619755859375,0.0593541062444448,-0.0579535187315195,-0.0167472462592646
1772639534797020400,2.0720205078125,0.0495212790161371,-0.0613050941817462,-0.0316598609698936
1772639534807065300,2.0820654296875,0.0435614938288927,-0.0575246988601982,-0.0339560821482911
1772639534817109200,2.092109130859375,0.0678477938234806,-0.0537464224305003,-0.0294046293890103
1772639534827154400,2.102154541015625,0.0798889447510242,-0.0432986781742423,-0.0309516761679202
1772639534837199000,2.11219921875,0.073553896510601,-0.0503474276419729,-0.0325279125086963
1772639534847244300,2.122244384765625,0.0781540837824344,-0.0401192444205284,-0.0359482788788154
1772639534857289200,2.132289306640625,0.0902495952457189,-0.0255717366952449,-0.030242541517876
1772639534867334400,2.14233447265625,0.1050309847921133,-0.0068933397103101,-0.0148276033082976
1772639534877379300,2.15237939453125,0.0856798031121492,0.0011943243511021,-0.0086321096690371
1772639534887424300,2.16242431640625,0.0727677145689725,-0.0018502309765666,0.0031637247279286
1772639534897469200,2.17246923828125,0.0735077192813158,0.0112900402992963,0.0087482103293761
1772639534907514400,2.182514404296875,0.1085667577028274,0.0096407387223094,0.0277451717441901
1772639534917558500,2.19255859375,0.1439718330830335,-0.005303951627016,0.0171081154609099
1772639534927603200,2.202603271484375,0.1690209341436624,-0.0095195965606719,0.0059310340167954
1772639534937648400,2.2126484375,0.2068587896287441,-0.0028290128808468,-0.0259793311154469
1772639534947693300,2.222693359375,0.184700733834505,-0.012058613518998,-0.024101992936246
1772639534957738500,2.232738525390625,0.1700309879690408,-0.0152639854315668,-0.0166617234002798
1772639534967783200,2.242783203125,0.1157692364275455,-0.0107148707598447,0.0019555545145645
1772639534977828400,2.252828369140625,0.0556780480802059,-0.0044909547436982,0.0505958129124715
1772639534987873300,2.262873291015625,-0.0050660512179136,0.0073484630666673,0.0594223491750657
1772639534997918500,2.27291845703125,-0.0555184736043214,0.0117639414213597,0.0272185905868187
1772639535007963400,2.28296337890625,-0.0159679689824581,0.0281799464322626,0.0574176582891494
1772639535018007300,2.29300732421875,0.0053700026005506,-0.0237863145831972,0.072168981490843
1772639535028052200,2.30305224609375,-0.046328620454669,-0.0364936012692749,-0.0255404647741466
1772639535038097400,2.313097412109375,-0.0329717107534408,-0.0270701585594564,0.009976765743643
1772639535048142300,2.323142333984375,0.0383311919599771,-0.0434713313274085,0.0035842882275581
1772639535058187300,2.333187255859375,0.0538964253604412,-0.0483680173277854,0.0092416198695078
1772639535068232200,2.343232177734375,0.0677256287485361,-0.047782837850973,0.0126101829871535
1772639535078277400,2.35327734375,0.1080839426219463,-0.0571300004541873,0.0111174602113664
1772639535088322300,2.363322265625,0.1259831719279289,-0.0525419420115649,-0.012226371301338
1772639535098367200,2.3733671875,0.1589315018057823,-0.0595912029359489,-0.0306402355985715
1772639535108412200,2.383412109375,0.1542085649371147,-0.0759999744884669,-0.0252359288696199
1772639535118457300,2.393457275390625,0.1460907249331474,-0.0720416653167456,-0.0079768971633166
1772639535128501500,2.40350146484375,0.1135235033273696,-0.0571169217769056,-0.0117174353985115
1772639535138546200,2.413546142578125,0.0960696797013282,-0.0561064295601099,0.0122347372708842
1772639535148591400,2.42359130859375,0.0725245534628629,-0.0403488153927028,0.0249385533582419
1772639535158636300,2.43363623046875,0.0766109459936618,-0.0174698979780077,0.0176949389055371
1772639535168681500,2.443681396484375,0.108623456326127,-0.0248168997399508,0.0081112276000902
1772639535178726400,2.453726318359375,0.1195791501045226,-0.0169706432189792,0.0027864889133721
1772639535188771300,2.463771240234375,0.1475917771458625,-0.0179469409052282,0.0212019606458023
1772639535198816300,2.473816162109375,0.1743710629999637,-0.0156956548471003,0.0099896617578342
1772639535208861400,2.483861328125,0.1851940703094005,-0.0261667069137096,-0.0131206897925585
1772639535218906400,2.49390625,0.1571755980491638,-0.0218394182991236,-0.0282969604080542
1772639535228950300,2.5039501953125,0.1202361527085304,-0.0216091897398233,-0.0086583766214549
1772639535238995200,2.5139951171875,0.0847369693040847,-0.0225155639950186,0.0036429596122354
1772639535249040400,2.524040283203125,0.0516524458259344,-0.0164196582727134,0.0114795715220272
1772639535259085300,2.534085205078125,0.0097954178273677,-0.0139727035120129,0.0183026224751025
1772639535269130200,2.544130126953125,-0.0087573069512844,-0.0114387280549854,0.018147176185064
1772639535279175200,2.554175048828125,-0.0031067338436841,-0.0341517143182456,0.0091604078594595
1772639535289220400,2.564220458984375,0.0005360065728425,-0.0553872484400868,-0.0090014909707009
1772639535299265300,2.574265380859375,0.0275771582335233,-0.050458048409596,-0.0025697043575346
1772639535309310500,2.584310546875,-0.010645312654972,-0.0694995796184986,-0.0150360584272071
1772639535319355100,2.594355224609375,-0.0253852011471986,-0.0812147865273058,-0.0233575677771121
1772639535329399300,2.6043994140625,0.014077040669322,-0.0720097358085215,-0.0152480206774547
1772639535339444500,2.614444580078125,0.0393821623176336,-0.0866352041408419,-0.0304573167797178
1772639535349489200,2.6244892578125,0.0506780478358268,-0.0811384333554655,-0.0134430901473388
1772639535359534300,2.634534423828125,0.0506008909463882,-0.0739663497690111,-0.0165191000591963
1772639535369579300,2.644579345703125,0.0749088182508945,-0.06585552402772,-0.0536150876684114
1772639535379624400,2.65462451171875,0.0827419960945844,-0.0656696460667997,-0.0814213054174557
1772639535389669400,2.66466943359375,0.0896212342143058,-0.0559429095614701,-0.065817383974418
1772639535399714300,2.67471435546875,0.0922539208054542,-0.0547580106258392,-0.0640207098159939
1772639535409759200,2.68475927734375,0.0897656111210584,-0.0529831099078059,-0.0682630600934848
1772639535419804400,2.694804443359375,0.0875584564656019,-0.0306423910230398,-0.0626665552606806
1772639535429848300,2.704848388671875,0.1190244388312101,-0.0188783034712076,-0.0308744096806272
1772639535439893200,2.714893310546875,0.141688106060028,-0.0188717275999486,-0.0257911881322041
1772639535449938200,2.724938232421875,0.1420639536350965,-0.0164048990949988,-0.0218852302022278
1772639535459983400,2.7349833984375,0.1437631587684154,-0.0060954673308879,-0.0040410190191119
1772639535470028300,2.7450283203125,0.1316220545977354,0.0026956688247621,0.0072969155425205
1772639535480073200,2.7550732421875,0.0959235492289066,-0.00842515238747,0.0048365533109754
1772639535490118100,2.7651181640625,0.0784837541282176,-0.013776231091842,-0.0010207213498651
1772639535500163300,2.775163330078125,0.1010819549053907,-0.0200122028719633,-0.0022676892036572
1772639535510208300,2.785208251953125,0.1222726269721984,-0.0247051829937845,0.0166529190393164
1772639535520253400,2.79525341796875,0.1196849485665559,-0.0322106632530689,0.0130342536181211
1772639535530297300,2.80529736328125,0.1236217034935951,-0.0410919619102031,0.0183350999725982
1772639535540342300,2.81534228515625,0.1127794069617986,-0.0480743681434541,-0.003947824310325
1772639535550387500,2.825387451171875,0.068037178915739,-0.0430019602499902,-0.0281462268257513
1772639535560432400,2.835432373046875,0.052151042997837,-0.0284991684492677,-0.0245457181157544
1772639535570477300,2.845477294921875,0.0542605824977159,-0.0220600753124803,-0.0104699195554479
1772639535580522200,2.855522216796875,0.0694686730235815,-0.025906229346618,2.7728257142e-05
1772639535590567400,2.8655673828125,0.0832604670107364,-0.0206763658691197,-0.001861446490325
1772639535600612400,2.8756123046875,0.0813777220040559,-0.0235456376951187,-0.0201762343272566
1772639535610657300,2.8856572265625,0.1040185928791761,-0.0323386735469102,-0.0509255928561091
1772639535620702200,2.8957021484375,0.1100122803360223,-0.0490453320674598,-0.0413027551166713
1772639535630746400,2.905746337890625,0.1121966386377811,-0.0614553163073956,-0.0206545193634927
1772639535640791300,2.915791259765625,0.0959089361816644,-0.0523695080541074,0.0051995414044708
1772639535650836200,2.925836181640625,0.0691214670211076,-0.0388357074160128,0.0477164580838754
1772639535660881400,2.93588134765625,0.0387736750304698,-0.04095781413652,0.0551064587373286
1772639535670926300,2.94592626953125,0.0225526080697774,-0.0427097723703831,0.0496479010704904
1772639535680971300,2.95597119140625,0.0297591784477233,-0.0401493472978472,0.0303346402481198
1772639535691016400,2.966016357421875,0.0196785139381885,-0.0334645357716828,0.0195771724555641
1772639535701061400,2.976061279296875,0.0335901349127292,-0.0414020507726818,0.0269364491771906
1772639535711106300,2.986106201171875,0.0660480509251356,-0.0341483533173799,0.0284319118993356
1772639535721151200,2.996151123046875,0.0929793124705553,-0.0327705621581524,0.039646731537953
1772639535731196400,3.006196533203125,0.1227402444839477,-0.0409262499544769,0.0249023130010813
1772639535741240300,3.016240234375,0.14185235671103,-0.0356377150923013,0.0212684500107541
1772639535751285200,3.02628515625,0.1369640001475811,-0.0455641388881951,0.0208551199695095
1772639535761330400,3.036330322265625,0.1249848085403442,-0.042193347280845,0.0200885560438036
1772639535771375400,3.046375244140625,0.0854278741776943,-0.0323800284706056,0.0010628434585407
1772639535781420300,3.056420166015625,0.0829617763251066,-0.0343051513142883,4.73097404465e-05
1772639535791465200,3.06646533203125,0.0607569587796926,-0.0327116715777665,0.0148595693491399
1772639535801510400,3.076510498046875,0.0541401709884405,-0.0266102128975093,0.0229538458144292
1772639535811555300,3.086555419921875,0.0629910014420747,-0.032664033043757,0.0498717364216223
1772639535821600500,3.0966005859375,0.0702571930527687,-0.0326456936694681,0.0550730679243803
1772639535831645200,3.106645263671875,0.0845674579560756,-0.0368354735095053,0.0436414637299254
1772639535841689300,3.116689453125,0.1031289505630731,-0.0323667305976152,-0.0188673436857759
1772639535851734300,3.126734375,0.0447965885818004,-0.0461662694998085,-0.014208046637848
1772639535861779200,3.136779296875,0.0301619140297174,-0.0491502537466585,0.0193193252369761
1772639535871824400,3.146824462890625,0.0085924717783927,-0.0426929673660546,0.0212438270261511
1772639535881869300,3.156869384765625,0.013951952984929,-0.0401244320522993,0.0381240885479375
1772639535891914200,3.166914306640625,0.0643365708321332,-0.030352395100519,0.0363759662389755
1772639535901959400,3.17695947265625,0.0767594145536422,-0.0504131132893264,0.006337057534419
1772639535912004400,3.18700439453125,0.0912140563637018,-0.0506755636177957,-0.0090383889149874
1772639535922049300,3.19704931640625,0.0978267525017261,-0.049917730987817,-0.0254306111915037
1772639535932094200,3.20709423828125,0.0876210003077983,-0.0479061719696968,0.0025419761003926
1772639535942138400,3.217138427734375,0.0956610989004373,-0.057867740144208,0.0237475534753873
1772639535952183300,3.227183349609375,0.0984697265803813,-0.0310214534685015,0.0018352891357615
1772639535962228200,3.237228271484375,0.0972235259115695,-0.0151287416793406,-0.0049112625150009
1772639535972273400,3.2472734375,0.100298111051321,-0.0175472009979188,-0.0090617332579568
1772639535982318300,3.257318359375,0.1056160912036895,-0.015427286234498,-0.011089951149933
1772639535992363300,3.26736328125,0.1082253969192504,-0.0199742089491337,0.0132350734198465
1772639536002408200,3.277408203125,0.0901625014841556,-0.0228804517846554,0.0215605282925069
1772639536012453400,3.287453369140625,0.0429430696696042,-0.0319792656499892,0.0265676523974165
1772639536022498300,3.297498291015625,0.0261421569943428,-0.0229512519985437,0.0301450359601527
1772639536032543500,3.30754345703125,0.0393318934351205,-0.0301409443069249,0.0195402745112776
1772639536042588200,3.317588134765625,0.0745762252956628,-0.021872151524946,-0.0016736323006451
1772639536052632300,3.32763232421875,0.1089390981465578,-0.0422399629015475,-0.0097073011524975
1772639536062677500,3.337677490234375,0.1425187116652727,-0.0443475296400487,-0.0289261251570656
1772639536072722400,3.347722412109375,0.1619406204938888,-0.0388700480770319,-0.0338774274215102
1772639536082767400,3.357767333984375,0.1607856052398681,-0.0366182505622506,-0.0164272570572793
1772639536092812300,3.367812255859375,0.1369751060634851,-0.0526405800804495,-0.0137817475171759
1772639536102857200,3.377857177734375,0.0674894819051027,-0.0638432343572378,-0.0138568951126188
1772639536112902100,3.387902099609375,0.0390571681469678,-0.0510506074752658,-0.0171675174979493
1772639536122947000,3.397947021484375,0.0194002815186977,-0.0414187827117741,-0.0044302009997889
1772639536132992000,3.407991943359375,-0.0010357727885246,-0.0344873029481619,0.0060985360708087
1772639536143037200,3.418037109375,0.0342944837898015,-0.0257640443969517,-0.0199014359738677
1772639536153081000,3.4280810546875,0.0517272646278142,-0.0394930022809654,-0.0478148038918152
1772639536163126000,3.4381259765625,0.084831661850214,-0.0387752094004303,-0.0551469734108075
1772639536173171000,3.4481708984375,0.10210895986557,-0.0499522908445447,-0.0609357494127005
1772639536183216000,3.458216064453125,0.1032441013753414,-0.0593709843140095,-0.0678309888191521
1772639536193261000,3.468260986328125,0.0960427916944026,-0.0494863538332283,-0.0697247666765004
1772639536203306000,3.478305908203125,0.0813210233807563,-0.0497674357969313,-0.0444503689600154
1772639536213351000,3.488350830078125,0.0714162999600172,-0.045429625788331,-0.0311273615283891
1772639536223396000,3.49839599609375,0.0419815311610698,-0.039559418580681,-0.016973017839156
1772639536233441000,3.50844091796875,0.0317868848830461,-0.0198746940974146,-0.0425886302087456
1772639536243486200,3.518486328125,0.0260153157442808,-0.0086633450575172,-0.0443027406502515
1772639536253530000,3.528530029296875,0.0506681109637022,-0.024470716650784,-0.0454395991930738
1772639536263575000,3.538574951171875,0.0924175869345664,-0.0259927385862916,-0.03155117643103
1772639536273620200,3.5486201171875,0.1177086800575256,-0.0380303093172609,-0.0233543894393369
1772639536283665200,3.5586650390625,0.1338455758661031,-0.0404286756958812,-0.0038471769474446
1772639536293710000,3.5687099609375,0.1556207698225974,-0.0396094682674854,0.0163104622771963
1772639536303755000,3.578755126953125,0.1516103651374578,-0.0378963807392865,0.003911437822692
1772639536313800200,3.58880029296875,0.1339192256242036,-0.0254725871697068,-0.0135786626931279
1772639536323845000,3.59884521484375,0.1258884793817997,-0.0217918528303503,-0.0294782060818746
1772639536333890000,3.60889013671875,0.1196142214179039,-0.0185527247786521,-0.004019537839666
1772639536343935000,3.61893505859375,0.1024000517666339,-0.0299993438791483,-0.0045915655739605
1772639536353980200,3.628980224609375,0.1079535942405462,-0.0438857573471963,-0.0092447616746649
1772639536364024000,3.639024169921875,0.0958826326966285,-0.0370508698258549,0.0035554639918729
1772639536374069000,3.649069091796875,0.1309825876504183,-0.030502471095696,-0.005088372647576
1772639536384114000,3.659114013671875,0.1554687941312789,-0.0405191304583102,-0.0034190511958673
1772639536394159000,3.6691591796875,0.1526923151552677,-0.0347743762612342,-0.0040907033797353
1772639536404204000,3.6792041015625,0.1287473759442567,-0.0446627330690622,-0.0090796707734465
1772639536414249200,3.689249267578125,0.0737549720406532,-0.029786797107011,-0.0100314550729468
1772639536424294000,3.6992939453125,0.0580745878279209,-0.032457112294808,-0.0127106842195615
1772639536434339000,3.709339111328125,0.021747721427679,-0.0218025203548371,-0.0045287294708192
1772639536444384000,3.719384033203125,-0.007338672325015,-0.0050571372590959,-0.0172167999997735
1772639536454429200,3.72942919921875,-0.0026718495577573,-0.014788549939543,-0.0230446293704211
1772639536464473000,3.73947314453125,0.057169747942686,-0.0228715378258377,-0.0010235708940774
1772639536474518000,3.74951806640625,0.0927571941524744,-0.0487245026152581,-0.0255919392330572
1772639536484563200,3.759563232421875,0.1285498075455427,-0.0461669270869344,-0.0405580011639744
1772639536494608100,3.769608154296875,0.1409393335193395,-0.0447828523173928,-0.0240644739374518
1772639536504653000,3.779653076171875,0.0921212343364954,-0.0628236820511519,0.0100631653854623
1772639536514698000,3.789697998046875,0.0623293226629495,-0.0794423700273036,-0.0129518725642934
1772639536524743200,3.7997431640625,0.0557721561044454,-0.0637203386299312,-0.0340869054537266
1772639536534788000,3.8097880859375,0.068145315465331,-0.0620999708864837,-0.0309395108060911
1772639536544833300,3.819833251953125,0.1214303309291601,-0.0777495215695351,-0.0126081371605396
1772639536554878000,3.8298779296875,0.097509941637516,-0.0762925276942551,0.0192674123866483
1772639536564922000,3.839922119140625,0.0729442401796579,-0.0719213268727064,-0.0081918550882488
1772639536574967000,3.849967041015625,0.0574392125338315,-0.0652451370444148,0.0012679375765845
1772639536585012000,3.860011962890625,0.0607417612105607,-0.0718468003317713,0.050166919975914
1772639536595057000,3.870056884765625,0.0342512291699647,-0.0758839468933641,0.0579759132264181
1772639536605102000,3.88010205078125,-0.0197463184773921,-0.0801166160270571,0.0330424379020929
1772639536615147000,3.89014697265625,-0.0694727646768093,-0.0787745537683367,0.0654438744869083
1772639536625192200,3.900192138671875,-0.052990416431427,-0.0636070144485682,0.071804751288332
1772639536635236900,3.91023681640625,-0.0180874453544616,-0.0577121842563152,0.0731464116882532
1772639536645282000,3.920281982421875,-0.0020317980885505,-0.0736252081811428,0.0654977966312319
1772639536655327000,3.930326904296875,0.064682023268938,-0.0727452104762196,0.0056268269058316
1772639536665371100,3.94037109375,0.12486205894351,-0.0722097884252667,-0.0080608491197228
1772639536675416000,3.950416015625,0.1564934610038995,-0.0807994106594473,0.0062737830398604
1772639536685461000,3.9604609375,0.1817781243860721,-0.0850025614377111,0.0083987393045797
1772639536695506200,3.970506103515625,0.1877203739166259,-0.0886442058756947,0.0148278590366244
1772639536705551000,3.980551025390625,0.1849941638231277,-0.075112085738033,0.0201968752564862
1772639536715596000,3.990595947265625,0.1699853952616453,-0.0628784079130738,0.0404682039886713
1772639536725641000,4.000640869140625,0.1254816521465778,-0.0595220101572573,0.018879143721424
1772639536735686100,4.01068603515625,0.1117863042712211,-0.050784503884986,0.0082909315485507
1772639536745731000,4.02073095703125,0.0820540138304233,-0.0517613860931247,0.0148061221288517
1772639536755776300,4.0307763671875,0.0539671525090932,-0.0494436837352812,0.0129235597852617
1772639536765820000,4.04081982421875,0.0199339500039815,-0.0400493940547108,0.0080683748390525
1772639536775865000,4.050864990234375,0.0010638298392295,-0.0262910639457404,0.0024713220169767
1772639536785910000,4.060909912109375,-0.0020282909572124,-0.0194596104905009,0.0392354473233222
1772639536795955200,4.070955078125,0.0217184953331947,-0.0224034088574349,0.0546996680347248
1772639536805999900,4.080999755859375,0.0426449635058641,-0.0260713567804545,0.0375572119127959
1772639536816045000,4.091045166015625,0.0647720396399497,-0.0213544843263924,0.0279941050039604
1772639536826090000,4.101090087890625,0.0883610050201416,-0.0278120629679411,0.0147561455072835
1772639536836135200,4.11113525390625,0.1192407119303941,-0.0358627560198307,0.0023004954947158
1772639536846179800,4.121179931640625,0.1526513986229896,-0.0425583812009543,0.0154461370654404
1772639536856225000,4.13122509765625,0.168393157634139,-0.032818931344524,0.0234531371060758
1772639536866270000,4.14127001953125,0.1710667607575655,-0.0557188915472477,0.0179634536486119
1772639536876314000,4.151314208984375,0.1826765345305204,-0.0519098546531051,0.0118528618138283
1772639536886359000,4.161359130859375,0.1785170767635107,-0.0645707449141889,0.0116840445855632
1772639536896404000,4.171404052734375,0.1645937653511762,-0.0663369508691132,0.0095313235310837
1772639536906449200,4.18144921875,0.1566314081698656,-0.0523629321828484,0.0150072707241401
1772639536916494000,4.191494140625,0.1384638833165168,-0.0395784155420958,0.0129201257191598
1772639536926539300,4.201539306640625,0.1469423733264207,-0.0378496189881116,-0.0038985783411189
1772639536936584000,4.211583984375,0.1733873126596212,-0.0531452416669577,-0.0192387708140537
1772639536946629000,4.221629150390625,0.1968365773081779,-0.0738672733087092,-0.0027370602810755
1772639536956674000,4.231674072265625,0.218310157969594,-0.0713726800139993,0.0088270477192476
1772639536966719200,4.24171923828125,0.167277889868617,-0.0848802502322942,0.0305279708631336
1772639536976764000,4.251763916015625,0.1251519818007946,-0.0814545866325497,0.0254786515843123
1772639536986808000,4.26180810546875,0.1060293481796979,-0.0867661370441317,0.027615846276097
1772639536996853000,4.27185302734375,0.0664046092778444,-0.0752663995169103,0.0224525817614048
1772639537006898200,4.281898193359375,0.0288958396166563,-0.0846852391168475,0.0061901598770171
1772639537016943000,4.291943115234375,0.0249725286930799,-0.0733089087735861,0.0089398604439571
1772639537026988000,4.301988037109375,0.0344347690433263,-0.0633937370240688,0.0310483780080452
1772639537037033000,4.312032958984375,0.0524608395993709,-0.0568395661402493,0.0025639322038739
1772639537047078100,4.322078125,0.0474485643953084,-0.0549659542880952,-0.0221033299323171
1772639537057123000,4.332123046875,0.0502098458021879,-0.0499082325071096,-0.0561383590683341
1772639537067168000,4.34216796875,0.0807961227238178,-0.0551604539468884,-0.0664269307075068
1772639537077213000,4.352212890625,0.0841536164581775,-0.047307694619894,-0.0746944083152338
1772639537087257000,4.362257080078125,0.0785182409197092,-0.059502501739189,-0.0855114608079194
1772639537097302800,4.372302734375,0.1104489181876182,-0.0445021356798708,-0.0762108042275533
1772639537107347700,4.38234765625,0.1185971533298492,-0.0477653752595186,-0.095700152269192
1772639537117393000,4.392392822265625,0.1649158369123935,-0.0462157346647232,-0.1017944505563005
1772639537127437600,4.4024375,0.2260205862164497,-0.0512850007530301,-0.1094592130305245
1772639537137482800,4.412482666015625,0.2357148817569017,-0.0343134807512164,-0.1262352469928562
1772639537147527700,4.422527587890625,0.2315291205048561,-0.0379399276200681,-0.1190404401179403
1772639537157572900,4.43257275390625,0.1970037505686283,-0.0483246896427124,-0.0968452671837061
1772639537167617500,4.442617431640625,0.1567366221100092,-0.0614124270137399,-0.0706810810206458
1772639537177662700,4.452662841796875,0.1208031389415264,-0.0527917520541697,-0.0389508947608992
1772639537187706600,4.46270654296875,0.0784597887307405,-0.0571273701056838,-0.009143274061568
1772639537197751800,4.472751708984375,0.0277782337635755,-0.0701692225083708,0.0120387397747486
1772639537207796500,4.48279638671875,-0.0206412214905023,-0.1040578289110213,0.0245888631377369
1772639537217841700,4.492841552734375,-0.0146750065624713,-0.104733536215499,0.0393260847488418
1772639537227886600,4.502886474609375,-0.0334849209725856,-0.1278804569166153,0.0744732763778418
1772639537237931800,4.512931884765625,-0.0383154098689556,-0.1458588158734142,0.0917937924804166
1772639537247976400,4.5229765625,-0.0539069467544555,-0.1624930667448788,0.062089303361997
1772639537258021600,4.533021728515625,-0.038062896412611,-0.1653214220385998,0.0228058521784842
1772639537268066600,4.543066650390625,-0.0120306295335292,-0.1611349301341921,0.0263296058578416
1772639537278111700,4.55311181640625,-0.0123234750002622,-0.1617008203886449,0.0322673984089866
1772639537288156700,4.56315673828125,0.0197328744739294,-0.152410648669675,0.0627712212115526
1772639537298200600,4.57320068359375,0.0308925663918256,-0.1261276218999177,0.0548531780960038
1772639537308245800,4.583245849609375,0.0340068990200757,-0.0946162660226225,0.0196643758149817
1772639537318290700,4.593290771484375,0.0593324789345264,-0.0806872555218636,-0.0008454743808135
1772639537328336000,4.6033359375,0.0699129096597433,-0.0629139176178723,0.0069542030520737
1772639537338380500,4.613380615234375,0.0842588303983211,-0.0224264244068413,0.0189202794494107
1772639537348425700,4.62342578125,0.1235813714832067,-0.0122253483880311,0.0039572497257962
1772639537358470700,4.633470703125,0.1649661057949066,-0.0198600810501724,-0.0388751991761848
1772639537368515800,4.643515869140625,0.182636202520132,-0.0085292703490704,-0.0641130642745643
1772639537378560500,4.653560546875,0.1803057137459516,-0.0047170916497707,-0.0745611738570034
1772639537388605700,4.663605712890625,0.1711474247783422,-0.0013842939652502,-0.0547242179540917
1772639537398649600,4.673649658203125,0.1418646316707134,0.0134541595306247,-0.0201886554174125
1772639537408694800,4.68369482421875,0.1056745433926582,0.0034616847611963,-0.0235864811621606
1772639537418739500,4.693739501953125,0.0588899958640336,-0.0097211104821413,-0.0324164880234748
1772639537428784600,4.70378466796875,0.0536211155503988,-0.0330760479107499,-0.0352582142554223
1772639537438829600,4.71382958984375,0.0785170718759298,-0.0448281527638435,-0.0196527219098061
1772639537448874800,4.723874755859375,0.0861234552264213,-0.0738273796897381,-0.0055205169871449
1772639537458919700,4.733919677734375,0.0555804329246282,-0.0959890887457877,0.0204047823861241
1772639537468964600,4.743964599609375,0.0525397500544786,-0.1073812011800706,0.0364143620206043
1772639537479009500,4.754009521484375,0.0702992786288261,-0.1090530068498104,0.0515635254334658
1772639537489054700,4.7640546875,0.0714542938828468,-0.1188965746678411,0.0369180737590417
1772639537499099000,4.774098876953125,0.0432733245372772,-0.1059150741502642,0.0459041479649022
1772639537509143600,4.7841435546875,0.0077542673885822,-0.0885378228917717,0.0432782199081033
1772639537519188700,4.794188720703125,-0.0105406832367181,-0.0903582432519644,0.0431414417859166
1772639537529233700,4.804233642578125,-0.012922609937191,-0.0740657184902578,0.0459714410474523
1772639537539278800,4.81427880859375,-0.0130108727425336,-0.0662931117273867,0.0553115528553724
1772639537549323500,4.824323486328125,0.0065717796057462,-0.0474475414820015,0.0409200028767809
1772639537559368700,4.83436865234375,0.032937808483839,-0.033170375130698,0.0202411527896299
1772639537569413600,4.84441357421875,0.0976239234060049,-0.0360603244185447,0.0352103199930861
1772639537579458800,4.854458740234375,0.1293780750632286,-0.0005862754553556,0.0405525578038767
1772639537589503700,4.864503662109375,0.1348959617018699,0.0146975837204605,0.0204829987214878
1772639537599548700,4.874548583984375,0.1397808111339807,0.0014866583611816,-0.0104918391263112
1772639537609592600,4.884592529296875,0.1438572667926549,0.0019265110831707,-0.0149547368193045
1772639537619637800,4.8946376953125,0.120000005865097,0.0190019298508763,-0.0478925453031435
1772639537629682700,4.9046826171875,0.0727495943903923,0.0091496672697365,-0.079212725989893
1772639537639727600,4.9147275390625,0.0623299071848392,0.0003115501672029,-0.0590424464793875
1772639537649772500,4.9247724609375,0.0895522606313228,-0.0213771345496177,-0.056314044428803
1772639537659817700,4.934817626953125,0.1298982995450496,-0.0259016993019729,-0.0833233761791139
1772639537669862700,4.944862548828125,0.1355810213565826,-0.0360171428639441,-0.1191329772396013
1772639537679907600,4.954907470703125,0.1231482407629489,-0.0651025137033313,-0.1716789013065397
1772639537689952500,4.964952392578125,0.1693120260447263,-0.0687703154958784,-0.1881806849047541
1772639537699997700,4.974997802734375,0.1757277383059263,-0.0758918379388749,-0.2070450329158455
1772639537710042600,4.985042724609375,0.1762456247001886,-0.0865939222823828,-0.1893176165128126
1772639537720086500,4.99508642578125,0.179269940957427,-0.0893445361647754,-0.1783630187129601
1772639537730131700,5.005131591796875,0.1638666201204061,-0.0822990746326744,-0.1844071211827918
1772639537740176600,5.0151767578125,0.1165612635880708,-0.0678228055126965,-0.1838893443863838
1772639537750221800,5.025221923828125,0.0773053579986095,-0.0537974950306117,-0.1923780269967392
1772639537760266500,5.0352666015625,0.0526981554865837,-0.0316422887805849,-0.1757166323900222
1772639537770311700,5.045311767578125,0.026598668590188,-0.0300711670063436,-0.1303840007027611
1772639537780356600,5.055356689453125,0.0190980837017297,-0.0320754925660788,-0.0792637985900044
1772639537790401800,5.06540185546875,0.0134293904155492,-0.0271928350910544,-0.0353737303938716
1772639537800446700,5.07544677734375,0.0028594810843467,-0.0261532629102468,0.0001763064149767
1772639537810491600,5.08549169921875,0.0133078098624944,-0.0214001500990241,0.0241204784410074
1772639537820535600,5.09553564453125,0.03026888153553,-0.0266494489293545,0.054272747859545
1772639537830580700,5.105580810546875,0.0691325729370117,-0.0334316564153879,0.0596102729625999
1772639537840625700,5.115625732421875,0.1009890159249305,-0.0255208832908421,0.0649669411575421
1772639537850670600,5.125670654296875,0.1217576631873846,-0.047138913924247,0.0631274873033165
1772639537860715500,5.135715576171875,0.1300502752363681,-0.0557568854700773,0.0612633373992517
1772639537870760700,5.1457607421875,0.1237391923934221,-0.0717671592243015,0.0731228481495752
1772639537880805600,5.1558056640625,0.1034194579422473,-0.0805438284631818,0.0675684654254466
1772639537890850600,5.1658505859375,0.0956084919303655,-0.0740151573467999,0.0797753648413345
1772639537900895500,5.1758955078125,0.0805944626718759,-0.0700734339836984,0.0668868398368358
1772639537910940700,5.185940673828125,0.0494400304734706,-0.0581739565491676,0.0474541538858786
1772639537920985600,5.195985595703125,0.0391600439995527,-0.059895884970948,0.0569810569701716
1772639537931029500,5.206029541015625,0.0560404516518115,-0.0669317749571055,0.077014412228018
1772639537941074700,5.21607470703125,0.0918295579135417,-0.0594279751982539,0.0947619215710088
1772639537951119600,5.22611962890625,0.0863023189246654,-0.0522881133809685,0.0860540797846391
1772639537961164800,5.236164794921875,0.1096048685789108,-0.0697764968637377,0.0730144193390384
1772639537971209700,5.246209716796875,0.1177384906738996,-0.0733642922226339,0.0565518352400511
1772639537981254700,5.256254638671875,0.1241840135514736,-0.0586514378678053,0.0378737305160611
1772639537991299600,5.266299560546875,0.1117722757458686,-0.0363138607881963,0.0482839192409068
1772639538001344800,5.2763447265625,0.093695936307311,-0.0344021819479763,0.0399536055300384
1772639538011389700,5.2863896484375,0.0964326677948236,-0.0224608381330966,0.0504524589190259
1772639538021434600,5.2964345703125,0.0866173762232065,-0.0186680217213928,0.0546701862119138
1772639538031478500,5.306478515625,0.0772509974628686,-0.0287782045863568,0.0458510295381769
1772639538041523700,5.316523681640625,0.0749012194663286,-0.0403653281360864,0.0559496315632015
1772639538051568600,5.326568603515625,0.0640320349276065,-0.0391900007463991,0.0669383873609825
1772639538061613600,5.336613525390625,0.0389712434291839,-0.0383331647213548,0.0621606515651568
1772639538071658500,5.346658447265625,0.0468663805931806,-0.0352441857300698,0.0693409184580668
1772639538081703700,5.35670361328125,0.0570154341638088,-0.0439442826014012,0.064251559429802
1772639538091748600,5.36674853515625,0.0591156213134527,-0.0507842846892774,0.0415668494129553
1772639538101793800,5.376793701171875,0.0399807127326726,-0.0612668079979717,0.0236044552102684
1772639538111838700,5.386838623046875,0.0723246469765901,-0.0651194648381322,0.0113078316843137
1772639538121884000,5.3968837890625,0.0801005416750907,-0.0655276803128421,0.0145939041502773
1772639538131928600,5.406928466796875,0.0643617052733898,-0.0674734075531363,-0.0090201591385528
1772639538141972700,5.41697265625,0.0596697480648756,-0.0498818559568375,-0.0131743196759372
1772639538152018000,5.427017822265625,0.0628998160272836,-0.0425836617726832,-0.0106709220202639
1772639538162062800,5.437062744140625,0.0694289255350828,-0.0289929433155804,-9.06374255195e-05
1772639538172107800,5.447107666015625,0.0898883607178926,-0.0157394209235906,-0.0069657108267769
1772639538182152700,5.457152587890625,0.1096206506699323,-0.0279657922249287,-0.0261853020163252
1772639538192198000,5.467197998046875,0.1151198326081037,-0.0175766462881118,-0.02274827677235
1772639538202242800,5.477242919921875,0.1006716205388307,-0.0140088708039373,-0.0316135010775178
1772639538212288000,5.4872880859375,0.1053442885249853,-0.0001885813746601,-0.0324779358871281
1772639538222332700,5.497332763671875,0.1154167697280645,0.0118827454954385,-0.0309152896802872
1772639538232377900,5.5073779296875,0.0893254661381244,-0.0023844839837402,-0.0269376912862062
1772639538242421800,5.517421875,0.0961930138200521,0.0094593177407979,-0.0134523328997194
1772639538252466700,5.527466796875,0.0987327614307403,0.011949088729918,-0.0103227661697193
1772639538262511600,5.53751171875,0.0870318022429943,0.0035649990051984,-0.0536341576950624
1772639538272556800,5.547556884765625,0.1074509054154157,0.0034532091937959,-0.0599618263466283
1772639538282601700,5.557601806640625,0.1221346798062324,-0.0036919133204966,-0.0521943341502919
1772639538292647000,5.56764697265625,0.1083311953812837,-0.0039580899760127,-0.0507594425089657
1772639538302691600,5.577691650390625,0.0816354961574077,-0.0231295311748981,-0.0470107209673151
1772639538312736800,5.58773681640625,0.086709730681777,-0.0191270906005054,-0.036994426930882
1772639538322781700,5.59778173828125,0.0648860214084386,-0.0108916886314749,-0.0192523609479889
1772639538332827000,5.607826904296875,0.0577764816641807,-0.003636237610504,-0.0263000509697943
1772639538342871800,5.617871826171875,0.0489087000757455,-0.0160730367921292,-0.0381720558755099
1772639538352915700,5.627915771484375,0.0618856705486774,-0.0475803740814328,-0.0486268143944442
