time,seconds_elapsed,z,y,x
1772642982139294700,0.092294677734375,0.0005598319694399,0.0017263416666537,-0.0011909753084182
1772642982149339600,0.102339599609375,0.0005766099784523,-0.0005450684111565,-0.0012911101803183
1772642982159383600,0.112383544921875,0.0003979118773713,0.0009015605319291,0.0002599149011075
1772642982169428500,0.122428466796875,-0.00029131420888,-0.0002225597854703,0.0001131747849285
1772642982179473700,0.1324736328125,0.000470066210255,0.0003702316898852,-0.0006084670312702
1772642982189517800,0.142517822265625,0.0017187364865094,-0.0001839415635913,-0.0006200526840984
1772642982199562500,0.1525625,-4.50751977041e-05,0.0012067614588886,0.0003794315271079
1772642982209607700,0.162607666015625,0.0009155364241451,0.0006967044901102,1.48997642099e-05
1772642982219651600,0.172651611328125,-0.0008192466339096,0.0009345246944576,-6.55273906886e-05
1772642982229696800,0.18269677734375,0.000429309438914,-0.0007200071122497,-0.0004460634663701
1772642982239741400,0.192741455078125,0.0010247922036796,0.0003087720833718,0.0020613027736544
1772642982249785600,0.20278564453125,0.0020041419193148,0.0002829977311193,0.0013097682967782
1772642982259830800,0.212830810546875,0.0004168979357928,0.0006340024992823,0.0013630311004817
1772642982269875700,0.222875732421875,8.81305895745e-05,0.0012986995279788,-0.001808242406696
1772642982279919600,0.232919677734375,0.0009422064758837,-0.0002328844275325,0.0003193565644323
1772642982289964800,0.24296484375,-0.0011712781852111,0.0006488882936537,0.0004956577904522
1772642982300009700,0.253009765625,0.0014561964198946,0.0001053370069712,0.0004128334112465
1772642982310053600,0.2630537109375,0.000738370232284,0.0004198560491204,0.0003443388268351
1772642982320098600,0.2730986328125,-0.0012214499292895,0.0009940336458384,-3.06339934468e-05
1772642982330143700,0.283143798828125,0.0006815497763454,0.0002029568422585,0.000735864508897
1772642982340187600,0.293187744140625,-0.0007733351085335,-0.000956317409873,-0.0004428508691489
1772642982350232600,0.303232666015625,0.0009148037061095,0.0002392635215073,-0.0018833712674677
1772642982360277800,0.31327783203125,0.00072225718759,0.0005689628887921,-0.0004013222642242
1772642982370321700,0.32332177734375,-0.0008748329128138,-0.0008977625984698,-0.0007516876794397
1772642982380366600,0.33336669921875,-0.0003914692206308,0.000580291962251,-0.0021770121529698
1772642982390411500,0.34341162109375,0.0005369401769712,-7.48108141124e-05,-0.0003978433087468
1772642982400455700,0.35345556640625,-0.0008297940948978,0.0002833842299878,-0.0001150155439972
1772642982410488600,0.363488525390625,0.0002120910212397,0.0005946480669081,0.0014420757070183
1772642982420533800,0.37353369140625,-5.55566512048e-05,-0.0004916554316878,0.0005776137113571
1772642982430577700,0.38357763671875,0.0004850926343351,0.0013650697655975,0.0002569425851106
1772642982440622800,0.393622802734375,0.0005577970296144,-0.000146274222061,-0.0006123133935034
1772642982450667500,0.40366748046875,0.0003318098606541,0.0002688551321625,0.0002674250863492
1772642982460711700,0.413711669921875,0.0004500541836023,1.61211937665e-05,0.0004679611884057
1772642982470756900,0.4237568359375,0.0002016482176259,0.0005891150794923,0.0001001679338514
1772642982480801500,0.433801513671875,0.0019705197773873,-0.0002263449132442,-0.0006234128959476
1772642982490845700,0.443845703125,-0.0005915838992223,-0.0009112211409956,0.0022023948840796
1772642982500890600,0.453890625,-0.0001708044437691,0.000943937106058,-0.0004474506713449
1772642982510934500,0.4639345703125,-0.0001995583297684,-0.0002823022659868,-0.000234299339354
1772642982520979700,0.473979736328125,0.0002358685014769,0.0002348837442696,0.0004426762461662
1772642982531024600,0.484024658203125,-2.67083523795e-05,-6.93078618496e-05,-0.0006768708117306
1772642982541069800,0.49406982421875,-0.0007225922890938,-0.0002290974371135,0.0008643008768558
1772642982551113700,0.50411376953125,0.000163581338711,0.0003840767312794,-8.97818244993e-05
1772642982561158700,0.51415869140625,-0.0013251256896182,0.0005654378328472,-0.0004578307271003
1772642982571202800,0.524202880859375,0.0011906316503882,0.0004664026200771,-0.0017875828780233
1772642982581247700,0.534247802734375,-0.0013372409157454,-0.0004236258100718,6.09173439443e-05
1772642982591292700,0.544292724609375,-0.0003128461539745,-0.0004016102757304,-0.0005342280492186
1772642982601336800,0.5543369140625,0.000811806647107,-0.0011835142504423,0.0004106615670025
1772642982611381800,0.5643818359375,-3.44981672242e-05,0.0010605242568999,-0.0013956478796899
1772642982621426700,0.5744267578125,0.0002733633155003,-0.0003011499065905,-0.0019426615908741
1772642982631470600,0.584470703125,0.000736876623705,-0.0005679100286215,0.0003150957636535
1772642982641515800,0.594515869140625,0.0004069110145792,0.0005583406891673,-0.0003634779714047
1772642982651560700,0.604560791015625,-4.82709147036e-05,0.0004032857250422,0.0013336422853171
1772642982661604600,0.6146044921875,-0.0003827639156952,0.0002000865060836,0.0004332275129854
1772642982671649800,0.62464990234375,-0.0004591688048094,0.000749199418351,0.0005264109931886
1772642982681694700,0.63469482421875,-0.0013452024431899,-0.0003842418082058,-0.000136449933052
1772642982691740000,0.644739990234375,0.0010250662453472,0.0002900073304772,0.0001652385108172
1772642982701783600,0.654783447265625,0.0012620876077562,-0.0005552798975259,-0.0003836392425
1772642982711828700,0.664828857421875,-0.0001380194444209,0.0002099401317536,-0.0004983465187251
1772642982721873000,0.674872802734375,-0.0003910197410732,-0.0010071245487779,-0.0008171265944838
1772642982731917600,0.68491748046875,-0.0001016971655189,-0.0003088458906859,0.0002258261665701
1772642982741962800,0.694962646484375,-0.0008700191392563,0.0006738603115081,0.0002577845007181
1772642982752007700,0.705007568359375,0.0006310890894383,0.0008763156365603,0.0005804691463708
1772642982762051600,0.715051513671875,-0.0002394983312115,-0.0023863231763243,0.0004800679162144
1772642982772096500,0.725096435546875,-0.0001050482969731,-0.0005665745120495,0.00011987099424
1772642982782140700,0.735140625,0.0015106915961951,6.00670464336e-05,-7.66701996326e-05
1772642982792185900,0.745185791015625,-0.0001830966211855,0.0004052554722875,-0.0016258270479738
1772642982802230500,0.75523046875,-0.0002414197660982,-0.0011889126617461,0.000359559431672
1772642982812275700,0.765275634765625,-0.00026745791547,0.0004609706811606,-0.0001448304392397
1772642982822319900,0.77531982421875,0.0006521316245198,0.0008010563906282,0.0011643795296549
1772642982832364800,0.78536474609375,0.0012362418929114,-0.0006791853811591,-0.0002054865472018
1772642982842408700,0.79540869140625,0.0003683175891637,0.000219098990783,-0.000994580797851
1772642982852453600,0.80545361328125,0.000632087001577,-0.0001264996826648,-0.0002037086524069
1772642982862498800,0.815498779296875,-0.0005168007337488,0.000434894580394,0.0004817890003323
1772642982872543500,0.82554345703125,0.0008693269919604,0.0001857546158134,0.0001124469563364
1772642982882587600,0.835587646484375,-0.0003357533132657,-0.001405217917636,0.0004384177736937
1772642982892632800,0.8456328125,0.0010181886609643,-0.0005951635539531,-0.0004776320420205
1772642982902677800,0.855677734375,-0.0006745164282619,-0.0004974254406988,-0.0002368823625147
1772642982912721700,0.8657216796875,-0.0002588527277112,-0.0005078632384538,9.4585120677e-06
1772642982922766600,0.8757666015625,0.0001669867197051,0.0009036120027303,0.0003751101903617
1772642982932811800,0.885811767578125,-0.0003965033683925,-0.0003526690416038,0.0006166058592498
1772642982942855700,0.895855712890625,0.0008242896292358,-0.001070125028491,-0.0010217707604169
1772642982952900600,0.905900634765625,0.0006201399955898,0.0008128406479954,0.000739503186196
1772642982962945800,0.91594580078125,-0.0003226189874112,0.0009039207361638,0.0001128613948822
1772642982972989700,0.92598974609375,-0.0009682989912107,0.0011407071724534,-7.82064162194e-05
1772642982983034600,0.93603466796875,0.0006924482295289,7.11816828697e-05,0.000245367642492
1772642982993079600,0.94607958984375,-0.0002482323907315,-0.0008498397655785,0.0018698824569582
1772642983003123700,0.956123779296875,0.000854316400364,0.0012346161529421,-0.0006159120239317
1772642983013168600,0.966168701171875,-0.0020350525155663,-0.0004884270019829,0.0017923363484442
1772642983023213600,0.976213623046875,-0.0013879043981432,0.0006721788085997,0.0003124177455902
1772642983033257700,0.9862578125,-0.0002191775711253,4.82345931231e-05,-0.0003445819020271
1772642983043302700,0.996302734375,0.0026559708639979,0.0007968491408973,0.0004682149738073
1772642983053347600,1.00634765625,0.0008438747609034,0.0002503700088709,-5.91790303587e-05
1772642983063391700,1.016391845703125,-0.0001116674393415,0.0004692820366472,0.0015373858623206
1772642983073436700,1.026436767578125,-0.0005975264357402,-0.0002530114725232,0.000173766631633
1772642983083481900,1.03648193359375,-0.0003937946166843,0.0015254474710673,0.0009657908231019
1772642983093525800,1.04652587890625,-0.0011384435929358,0.0001061963848769,-0.0018035708926618
1772642983103570700,1.05657080078125,0.0019252568017691,0.0003892905078828,0.0012686518020927
1772642983113616000,1.066615966796875,-0.0004494235618039,-0.0002996572293341,-3.6372803151e-06
1772642983123659500,1.076659423828125,0.0005564524326473,0.0015784041024744,0.0009721447713673
1772642983133704700,1.08670458984375,0.0001154271885752,0.0009756498038768,-0.0003899182192981
1772642983143749600,1.09674951171875,0.0007218290120363,-0.0005484775174409,-0.0024024695158004
1772642983153793500,1.10679345703125,-8.30380013212e-05,-0.0001784900669008,0.0006011193618178
1772642983163838700,1.116838623046875,0.0005918070673942,-0.0001425377558916,0.0018144557252526
1772642983173883600,1.126883544921875,-0.000797581160441,0.0007800082676112,1.90935097634e-05
1772642983183927800,1.136927734375,-0.0004670828348025,-0.0006200151983648,-0.0007960996590554
1772642983193972500,1.146972412109375,0.0015549329109489,-0.0002806740812957,0.000690387096256
1772642983204017700,1.157017578125,0.002364533720538,-0.0006402009166777,-0.0002861940301954
1772642983214061800,1.167061767578125,0.0004883364308625,0.0010033112484961,0.0010056956671178
1772642983224106800,1.177106689453125,0.0003794131334871,-0.0002630220260471,0.0014110286720097
1772642983234151700,1.187151611328125,-0.0005236978176981,0.0002424651756882,-0.0010886560194194
1772642983244195600,1.197195556640625,5.3142895922e-05,0.0015700510703027,0.0016493401490151
1772642983254240800,1.20724072265625,0.0007333562243729,0.0012180369812995,-0.0011385194957256
1772642983264285700,1.21728564453125,0.0006768971215933,0.0003519770689308,-0.0004437007009983
1772642983274329600,1.22732958984375,0.0005640300223603,-0.0003709907177835,-0.0012466385960578
1772642983284374800,1.237374755859375,0.0008348735282197,-0.0005163995083421,-0.0009704688563942
1772642983294419700,1.247419677734375,0.0012910544173792,-0.0001368329394608,0.0001771980896592
1772642983304463600,1.257463623046875,-0.0001081704394891,0.0002104430459439,-0.0003956477157771
1772642983314508800,1.2675087890625,-0.0008878726512193,-0.0006238899659365,-0.0018172417767345
1772642983324553700,1.2775537109375,0.0002109475899487,-0.0002526452299207,-0.0016329507343471
1772642983334597600,1.28759765625,-0.0003770278999581,-0.0006835784297436,0.0004205210134387
1772642983344642600,1.297642578125,-0.0003847510088235,-0.0008747933898121,-0.0005134497769176
1772642983354687700,1.307687744140625,3.37414676323e-05,0.0009042508900165,-0.0019995844922959
1772642983364732000,1.31773193359375,-0.0004450948908925,0.0002608310896903,-0.0004437658935785
1772642983374776600,1.327776611328125,-0.0005823675310239,-0.0006504063494503,-0.0005503431893885
1772642983384821800,1.33782177734375,-0.0009866354521363,-1.2845499441e-05,-0.000515189487487
1772642983394865700,1.34786572265625,9.10422531887e-05,-0.0013303458690643,-0.0007757833227515
1772642983404910800,1.357910888671875,-0.0015864829765632,0.0007352016400545,-0.0006969533860683
1772642983414955300,1.367955322265625,0.0013622239930555,0.0008577045518904,-0.000727379694581
1772642983424999400,1.37799951171875,-0.0014628573553636,0.0007956528570502,-0.0007899641059339
1772642983435044400,1.38804443359375,9.24230553209e-05,-0.0002892308402806,0.0017132014036178
1772642983445089300,1.39808935546875,-0.0012322332477197,-0.0019438525196164,-0.0014884509146213
1772642983455133400,1.408133544921875,-0.0005983799928799,0.0005434409249573,0.0001404685899615
1772642983465178400,1.418178466796875,0.0006306688301265,-0.0003726861905306,0.0004491289146244
1772642983475223300,1.428223388671875,-0.0021191104315221,-0.0007665615994483,0.0001094182953238
1772642983485267500,1.438267333984375,-0.0005233442643657,0.0003098880406469,-7.51386396586e-05
1772642983495312400,1.4483125,-0.0008022504625841,0.0015462371520698,-0.0007176343351602
1772642983505357600,1.458357666015625,0.000421472126618,7.48406164348e-05,-1.42934732139e-05
1772642983515401500,1.4684013671875,0.001341245486401,0.0004345525521785,-0.0013275067321956
1772642983525446400,1.4784462890625,-0.0008278991444967,0.000423101009801,-0.0004167058505117
1772642983535491600,1.48849169921875,-0.0004793064435943,0.0012648622505366,-0.0004090252332389
1772642983545535200,1.49853515625,-0.0005107317119836,0.0007037343457341,0.0017137806862592
1772642983555580400,1.508580322265625,0.0011821532389149,0.0002308983821421,0.0012077679857611
1772642983565625300,1.518625244140625,0.0019067992689087,0.0011371721047908,0.0006186766549944
1772642983575669200,1.528669189453125,0.0002398920478299,0.0005855921190232,-0.000473687890917
1772642983585714400,1.53871435546875,-0.00046211713925,2.659461461e-05,-0.000794066581875
1772642983595759400,1.54875927734375,0.0003266795538365,-0.0012461526785045,-0.000399459619075
1772642983605803500,1.558803466796875,7.82065326347e-05,0.0002135259564965,0.0001363684423267
1772642983615848200,1.56884814453125,0.0007959683425724,-0.0008120734710246,-0.0010022670030593
1772642983625893400,1.578893310546875,7.71811464801e-05,-0.0010152726899832,-0.0010339589789509
1772642983635937500,1.5889375,-0.0004032859578728,0.0005923670250922,5.06406649947e-05
1772642983645982500,1.598982421875,-0.0009284613188356,0.000890641240403,-0.000721676275134
1772642983656027400,1.60902734375,0.0014880642993375,0.0016515830066055,-0.0003045927733182
1772642983666071300,1.6190712890625,0.0005562241422012,0.0010345284827053,-0.0003067231737077
1772642983676116500,1.629116455078125,-0.000537444720976,0.0006879498250782,0.0029702894389629
1772642983686161200,1.6391611328125,0.000831420184113,0.0001254901289939,0.0006293705664575
1772642983696205300,1.649205322265625,-0.0001725164474919,-4.36925329267e-05,-0.0013041235506534
1772642983706250500,1.65925048828125,-0.0010644091526046,-0.0001110704615712,1.49402767419e-05
1772642983716295400,1.66929541015625,-0.0008916517253965,-0.0002706896048039,-0.0005562817677855
1772642983726339300,1.67933935546875,0.0015382164856418,0.0013437184970825,-0.0008649420924484
1772642983736384500,1.689384521484375,-0.0005208307411521,0.0005119713023304,0.0001095822080969
1772642983746429400,1.699429443359375,0.0007164740236476,-0.0005751312710344,-0.0002616625279188
1772642983756473300,1.709473388671875,-0.0014602052979171,-0.0004044566303491,-0.0001433929428458
1772642983766518300,1.719518310546875,0.0004969517467543,-0.000319501850754,-5.28455711901e-05
1772642983776563500,1.7295634765625,-0.0010762719903141,-0.0001808069646358,-0.0008168220520019
1772642983786607600,1.739607666015625,0.0011943390127271,-9.95805021375e-05,0.0008870684541761
1772642983796652300,1.74965234375,0.0006329882889986,-7.90723133832e-05,0.000173486303538
1772642983806697500,1.759697509765625,-0.0010376126738265,0.0007632854394614,-0.0004859124310314
1772642983816741400,1.769741455078125,0.0015221717767417,-5.5877957493e-05,0.0005833893083035
1772642983826786300,1.779786376953125,-0.000508222146891,-0.001519551500678,-0.0002469844184815
1772642983836831200,1.789831298828125,0.001312683452852,7.93267972767e-05,0.0007970966398715
1772642983846875400,1.79987548828125,-0.0003219647333025,-0.001198191428557,-0.0001762886531651
1772642983856920600,1.809920654296875,0.0014416752383112,0.0002265197690576,-0.0004924964159727
1772642983866965200,1.81996533203125,-0.0006454441463574,-1.05015933513e-05,0.0002585151232779
1772642983877009400,1.830009521484375,-0.0005840429803356,0.0008888181764632,0.0006315796636044
1772642983887054300,1.840054443359375,-0.000250615295954,3.84708400815e-05,0.0009799213148653
1772642983897099500,1.850099609375,-0.0004195666406303,-0.0013299956917762,-0.0002174898982048
1772642983907143400,1.860143310546875,0.0010182741098105,-0.0009417068213224,-0.001221768092364
1772642983917188400,1.870188232421875,-0.0002220266032963,-0.0001409647520631,-0.0001950562000274
1772642983927233500,1.880233642578125,-0.001178367761895,9.04637854546e-05,-0.0005194288678467
1772642983937277400,1.89027734375,0.000693368492648,0.0005084497388452,0.0011791782453656
1772642983947322400,1.900322265625,0.0012622198555618,-3.64331062883e-05,-0.0003225784748792
1772642983957367300,1.9103671875,-0.0003868358908221,0.0003060211893171,0.0016059903427958
1772642983967411200,1.9204111328125,-0.0007655374356545,0.0005880498792976,-0.0002749999985098
1772642983977456400,1.930456298828125,-0.0002204730408266,0.0012805920559912,0.0002480293624103
1772642983987501300,1.940501220703125,-0.0005174154648557,0.0016377218998968,-0.0002164258621633
1772642983997545500,1.95054541015625,0.0005648267688229,-0.0014250115491449,-0.0002549514174461
1772642984007590400,1.96059033203125,0.0001035673776641,0.0003332074265927,-0.0012786705046892
1772642984017635300,1.97063525390625,-0.0001344429329037,0.0005681982729583,-0.0012743552215397
1772642984027679500,1.980679443359375,0.0004804809577763,-0.0014414230827242,0.0017999978736042
1772642984037724400,1.990724365234375,-0.0003174254670739,-0.0004998263902962,0.0008559329435229
1772642984047769300,2.000769287109375,-0.0008636397542431,9.35259740799e-05,-1.59856863319e-05
1772642984057813500,2.0108134765625,-0.0003776984522119,-0.0001681975554674,0.0008232616819441
1772642984067858400,2.0208583984375,0.0007560091326013,0.0003556462470442,0.0007556173950433
1772642984077903600,2.030903564453125,0.000282609835267,-0.0013069862034171,0.0016205464489758
1772642984087947300,2.040947265625,-0.0003267214633524,0.000576933613047,-0.0007749670185148
1772642984097992400,2.050992431640625,6.23897649347e-05,-0.0018173684366047,0.0002605603076517
1772642984108037400,2.061037353515625,-0.0010140599915757,0.0016079891938716,0.0009340737015008
1772642984118081300,2.071081298828125,0.0004634546348825,-0.0004348633810877,0.0003553740680217
1772642984128126500,2.08112646484375,-0.0001184459542855,0.0003022998571395,-0.0008899201638996
1772642984138171400,2.09117138671875,0.000524200615473,0.0008252698462456,0.0006278455257415
1772642984148215300,2.10121533203125,-0.0003626320976763,0.0006284622941166,-0.0007383562624454
1772642984158260200,2.11126025390625,-0.001178456004709,-0.0007918907795101,-0.0005778418853878
1772642984168305400,2.121305419921875,0.0010663224384188,0.0003263705875724,-0.0001216423697769
1772642984178349600,2.131349609375,-0.0005441131070256,3.40638216584e-05,-0.0001375018619
1772642984188394200,2.141394287109375,0.0011967952596023,-0.0001441016793251,-0.0001284470781683
1772642984198439400,2.151439453125,0.0009374882793053,0.0006116067524999,-0.0003595408052206
1772642984208483600,2.161483642578125,0.0004248296609148,-0.0007362188771367,4.23300080001e-05
1772642984218528500,2.171528564453125,0.0006049518706277,0.0010647100862115,-0.0018782187253236
1772642984228573400,2.181573486328125,0.0010699398117139,0.001028224825859,0.0007354072295129
1772642984238617300,2.191617431640625,0.0003478858852759,8.48141498863e-05,0.0015736017376184
1772642984248662500,2.20166259765625,0.0005263176281005,0.0004387483932077,0.0008806474506855
1772642984258707200,2.211707275390625,-2.44729453697e-05,-0.0001711507793515,6.7176297307e-05
1772642984268751400,2.22175146484375,0.0011531767668202,0.0005630827508866,-0.0003227107226848
1772642984278796500,2.231796630859375,0.0002760798670351,0.0004963667597621,-4.31225635111e-05
1772642984288841500,2.241841552734375,-0.0009713447652757,-0.0005515869706869,0.0015973844565451
1772642984298885400,2.251885498046875,0.0007503508822992,-0.0004743111785501,0.0005588140338659
1772642984308930300,2.261930419921875,-0.0002328882692381,0.0003704435657709,-0.0001940615475177
1772642984318975500,2.2719755859375,0.0007380698807537,-0.0002314408775418,0.0022524590604007
1772642984329019400,2.282019287109375,0.0013556571211665,-0.0004245198797434,0.0010143555700778
1772642984339064300,2.292064208984375,-0.000420459662564,-0.0001030892599374,0.0002127294428646
1772642984349109500,2.302109619140625,-0.0010929077398031,-0.0009414521045982,0.0005919635295867
1772642984359153400,2.3121533203125,-0.0011155775282531,-0.0004416494630277,0.0013837269507348
1772642984369198300,2.3221982421875,0.0012908546486869,-0.0016709645278751,4.01623547077e-05
1772642984379243300,2.3322431640625,-0.0015657972544431,-0.0007429702673107,-0.0003999113105237
1772642984389287400,2.342287353515625,-0.0015647319378331,-0.0008620137814432,0.0025250385515391
1772642984399332400,2.352332275390625,-1.65388919413e-05,0.0008742536883801,0.0003726370632648
1772642984409377300,2.362377197265625,0.000563231180422,0.0014995639212429,-0.0006521469913423
1772642984419421200,2.372421142578125,0.0001906373072415,-0.0005703582428395,-0.0015618177130818
1772642984429466400,2.38246630859375,0.0001738594146445,-4.83787152916e-05,0.0010792394168674
1772642984439511300,2.39251123046875,-0.0006095858989283,0.0002801590599119,-0.0012153768911957
1772642984449555200,2.40255517578125,-0.0007203733548521,-0.0016471704002469,0.0009263372048735
1772642984459600100,2.41260009765625,-0.0002476467052474,-0.0002407941501587,-9.147496894e-05
1772642984469645300,2.422645263671875,-0.0006061082240194,-3.546429798e-05,0.0008635343983769
1772642984479689500,2.432689453125,0.0003428317140787,0.0004219317343086,0.0013487134128808
1772642984489734100,2.442734130859375,-0.0002920660190284,0.0001114071346819,0.0002163373865187
1772642984499779300,2.452779296875,-0.000894468743354,-0.0011312249116599,-0.0004380014725029
1772642984509823200,2.4628232421875,0.0020906685385853,0.0001681314315646,0.0018062442541122
1772642984519868400,2.472868408203125,0.000133539433591,0.000285203801468,-0.0006170556880533
1772642984529913000,2.4829130859375,-0.0018031112849712,0.0003371355123817,0.0011363695375621
1772642984539958300,2.492958251953125,0.0006784934084862,0.0004130669403821,-0.0006799418479204
1772642984550002400,2.50300244140625,0.0003735614009201,-0.0001435338053852,0.0003863875754177
1772642984560047400,2.51304736328125,-0.000310510280542,-0.0005824042018502,0.000228582881391
1772642984570091300,2.52309130859375,-0.0003123745555058,-0.0011600435245782,-0.0017546731978654
1772642984580136200,2.53313623046875,0.0014092666096985,-0.0009585032239556,-0.0004939055070281
1772642984590181400,2.543181396484375,0.000269167474471,0.0004111607559025,0.0009191678836941
1772642984600225300,2.553225341796875,0.0015564213972538,-0.0006584655493497,0.0002092937938868
1772642984610270200,2.563270263671875,-0.0009264436666853,-8.3881895989e-06,0.0001858579926192
1772642984620315400,2.5733154296875,-0.0008589315693825,0.0002703296486288,0.0002879463136196
1772642984630360300,2.5833603515625,-0.0005100574344396,-0.0001576403155922,0.0015505510382354
1772642984640404200,2.593404296875,-0.001730901771225,-0.002266863361001,-0.0008205990307033
1772642984650449200,2.60344921875,-0.0008326175739057,-0.001776575576514,0.0013325670734047
1772642984660494300,2.613494384765625,0.0004695596871897,-0.0014963401481509,-0.0008151144720613
1772642984670538200,2.623538330078125,9.53857088461e-05,-0.0003977864980697,-8.35442915558e-05
1772642984680583200,2.633583251953125,-6.1343889683e-06,-0.0011376473121345,0.0007402724586427
1772642984690628400,2.64362841796875,-0.0002183882752433,-0.0013493685983121,-0.0007718703709542
1772642984700672500,2.653672607421875,-0.000568545772694,-0.0007904458325356,-0.0014354437589645
1772642984710717200,2.66371728515625,-0.0016489902045577,1.22310593724e-05,-1.38483010232e-05
1772642984720762400,2.673762451171875,-0.0013614245690405,0.0003409499768167,0.0021406367886811
1772642984730806300,2.68380615234375,-0.0008964366279542,0.0005816996563225,-0.0009464994072914
1772642984740851200,2.693851318359375,-0.0013796876883134,-0.0002236899454146,0.0001891562715172
1772642984750896000,2.703896240234375,-0.0006007130723446,0.0005627416539937,0.000642692670226
1772642984760940300,2.713940185546875,-0.0011415706248953,-0.0001499548088759,0.0005148663185536
1772642984770985500,2.7239853515625,0.0011777762556448,0.0026671369560062,-0.0005434737540781
1772642984781030100,2.734030029296875,0.001738496706821,0.0005377971101552,-0.0010742335580289
1772642984791074300,2.74407421875,0.0005384761607274,0.0004690876230597,9.86228697001e-05
1772642984801119200,2.754119140625,-4.7982903197e-06,0.0001830977853387,-0.0019133077003061
1772642984811164400,2.764164306640625,-0.0003824344603344,-2.2582244127e-06,-0.0009460477158427
1772642984821208300,2.774208251953125,0.0004151974571868,1.29383988678e-05,-0.0014411276206374
1772642984831253200,2.784253173828125,0.0001470171846449,0.0010033680591732,-0.001743662636727
1772642984841298400,2.79429833984375,9.61459008976e-05,0.0008036610670387,-0.0013315859250724
1772642984851342000,2.804342041015625,0.0005161265144124,-0.0010680085979402,-0.0003965497016906
1772642984861387300,2.81438720703125,-4.76908171549e-05,-0.0001742315944284,0.0005934033542871
1772642984871432200,2.82443212890625,0.0002929274924099,-0.0001808896195143,-0.0005629411898553
1772642984881476000,2.83447607421875,-0.0011111635249108,-0.0004703451413661,-9.67183150351e-05
1772642984891521300,2.844521240234375,-0.0008472442277707,0.0005267423111945,-0.0005241557955741
1772642984901566200,2.854566162109375,0.0006809897022321,-0.0006029999349266,-0.001966627780348
1772642984911610400,2.8646103515625,8.57730628922e-05,0.0005192561075091,-0.0004230593331158
1772642984921655300,2.8746552734375,-0.0004053331213071,-0.0005129356868565,-0.0009501976892352
1772642984931700200,2.8847001953125,4.04800521209e-05,0.0012141242623329,4.92865219712e-05
1772642984941744400,2.894744384765625,-0.0002679646713659,-4.01991419494e-05,0.0015542153269052
1772642984951789300,2.904789306640625,-0.0003262879326939,0.0002279812470078,0.0002119820564985
1772642984961834200,2.914834228515625,-0.0001044274540618,8.13528895378e-05,-0.0010181977413594
1772642984971878400,2.92487841796875,-0.000150233739987,0.0005812281742691,8.54162499308e-05
1772642984981923300,2.93492333984375,-0.0015813260106369,0.0002374476753175,-0.0014055627398192
1772642984991968300,2.94496826171875,-0.000790100893937,-0.0010344781912863,-0.000523523427546
1772642985002012200,2.95501220703125,-0.0004758487921208,-0.0001706541515886,-0.0001559071242809
1772642985012057300,2.965057373046875,-0.0019472453277558,0.0001955304760485,-0.001990558579564
1772642985022102300,2.975102294921875,0.0004737188573926,0.0003631957806646,-0.0004512211307883
1772642985032146200,2.985146240234375,-0.0002115125535055,0.0002817031927406,0.0015187188982963
1772642985042191400,2.99519140625,0.0010564178228378,-0.000221483875066,-0.0015775938518345
1772642985052236300,3.005236328125,0.0003030094085261,0.0006501688621938,-0.0024108965881168
1772642985062280200,3.0152802734375,-0.0008201239979825,0.0009407675825059,-0.0003847614862024
1772642985072325000,3.0253251953125,6.622867658734322e-07,0.000853948527947,0.0001625181175768
1772642985082370300,3.035370361328125,0.0006097685545682,-0.0006249244324862,-0.0003397231921553
1772642985092414500,3.04541455078125,0.0011610428337007,0.0004555201157927,-0.0003272066824138
1772642985102459100,3.055459228515625,-0.0013348538195714,0.0001041821669787,-0.0002352758310735
1772642985112504300,3.06550439453125,-0.0007574804476462,-0.0008425714913755,-0.0007029268890619
1772642985122548200,3.07554833984375,-0.0006947755464352,0.000850356882438,-0.0007150433957576
1772642985132593200,3.08559326171875,0.0003180246567353,-4.2514875531e-06,-0.0005512591451406
1772642985142638000,3.09563818359375,0.0018490293296054,-0.0005029458552598,-0.0009133494459092
1772642985152682200,3.10568212890625,-0.0004751114174723,0.0003862837329506,0.0009133126586675
1772642985162727400,3.1157275390625,-0.0016398032894358,-0.0025620823726058,-0.0012084920890629
1772642985172772000,3.125772216796875,-0.000714354799129,0.000270455610007,0.0003071124665439
1772642985182816300,3.135816162109375,0.0002124609891325,-0.0002025938592851,-0.0004257946275174
1772642985192861400,3.145861328125,-0.0004208387108519,-0.0007283017039299,0.0008661048486828
1772642985202906400,3.15590625,-0.0001145241549238,-0.0006005759350955,-0.0010405522771179
1772642985212950300,3.1659501953125,-0.0016575596528127,0.0012196947354823,0.0007411027327179
1772642985222995200,3.1759951171875,0.0010263873264193,-0.0009516382124274,-0.0013632732443511
1772642985233040400,3.186040283203125,0.0016775301191955,0.0004723537713289,0.0002657822333276
1772642985243084300,3.196084228515625,0.001473662443459,-0.0011894532945007,0.0008403793908655
1772642985253129200,3.206129150390625,0.0007772459648549,-0.0001580112148076,-0.0013077263720333
1772642985263174400,3.21617431640625,0.0003948569064959,-0.0020554948132485,3.35667282342e-05
1772642985273218000,3.226218017578125,-2.2194115445e-05,-0.0013215278740972,-0.0003304872661828
1772642985283263200,3.23626318359375,-0.0007523911190219,-0.0019426536746323,-0.000607768073678
1772642985293308200,3.24630810546875,-0.0007374774431809,7.7886506915e-05,0.0006612283177673
1772642985303352300,3.256352294921875,0.0007860246114432,0.00055748433806,-0.0002338862977921
1772642985313397200,3.266397216796875,-0.0010361103340983,-0.0003104398492723,-0.0005795643664896
1772642985323442200,3.276442138671875,0.0011463921982795,0.0002311265561729,-0.0005523329600691
1772642985333486300,3.286486328125,-0.0003601580392569,-0.0017004641704261,-0.0005422132089734
1772642985343531300,3.29653125,-0.0003464814508333,-0.0005145554896444,-0.0018421248532831
1772642985353576200,3.306576171875,0.0001589864259585,0.0001365875359624,-0.0014146878384053
1772642985363620400,3.316620361328125,0.0005861395038664,-0.0001232498325407,-0.0013362513855099
1772642985373665300,3.326665283203125,-0.0016101695364341,0.0001675672829151,-0.0004171947948634
1772642985383710500,3.33671044921875,-0.0009149860707111,0.0005028145387768,-0.0009626490063965
1772642985393754400,3.34675439453125,-0.0006545289652422,0.0019707488827407,-0.0009541269391775
1772642985403799300,3.35679931640625,-0.0002321384381502,-0.0013433054555207,0.001474468037486
1772642985413844700,3.3668447265625,-0.0010095151374116,-0.001268737250939,-0.0002339500933885
1772642985423889000,3.376888916015625,-5.72567805647e-05,8.09715129435e-05,-0.0001240707933902
1772642985433934000,3.38693408203125,0.0012681984808295,0.0002202547620981,-0.0015304861590266
1772642985443978800,3.396978759765625,-0.0005675855791196,-0.0005855979397892,0.0004394412972033
1772642985454023000,3.40702294921875,-0.0002003356348723,-0.0012761554680764,0.0014493116177618
1772642985464067800,3.41706787109375,-0.0013029678957536,-0.0004071183502674,-0.0009908196516335
1772642985474113000,3.427113037109375,0.0011412813328206,-0.0010273684747517,0.0007926994003355
1772642985484157000,3.437156982421875,0.0004955939948558,-0.0001139279920607,-0.0007936027832329
1772642985494201900,3.447201904296875,4.2856670916e-05,0.0004360147286206,-0.0002452582120895
1772642985504247000,3.4572470703125,-0.0004556373460218,-3.68924811482e-05,0.0002833451144397
1772642985514290700,3.467290771484375,-0.0002372581511735,0.0001287562772631,0.0014817672781646
1772642985524335900,3.4773359375,0.0006715550553053,-0.0005585576873272,-0.0001193061470985
1772642985534380800,3.487380859375,0.0012619777116924,0.0002936536911875,0.0004479470662772
1772642985544425000,3.497425048828125,-0.0003959364257752,0.0012067020870745,-0.0004921904765069
1772642985554470000,3.507469970703125,0.0001478811027482,0.0011534388177096,0.000971483066678
1772642985564514800,3.517514892578125,0.0002811136655509,0.0004534001927822,-0.0007938826456665
1772642985574559000,3.52755908203125,-0.0001732215750962,0.0004739065188914,0.0011510238982737
1772642985584604000,3.53760400390625,0.0004116226918995,0.0001064711250364,-0.0005820384249091
1772642985594648800,3.54764892578125,7.73959327489e-05,0.0002478850074112,-0.0001170504838228
1772642985604693000,3.55769287109375,-0.0004704729071818,-0.0001882608048617,0.0001328699290752
1772642985614738000,3.567738037109375,-0.0001905746757984,0.0013446547091007,-0.0009204102680087
1772642985624782800,3.577782958984375,0.0004448374966159,-0.0002431771717965,0.0004432122223079
1772642985634827000,3.587826904296875,-0.0011211012024432,-0.000206691911444,-0.0016359174624085
1772642985644872000,3.597871826171875,0.000210661208257,0.0004056827165186,0.0009640525095164
1772642985654917000,3.607917236328125,-0.0002162435557693,2.7464702725e-06,0.0002945340238511
1772642985664960800,3.617960693359375,3.33490315824e-05,0.0006795527879148,-0.0005017989315092
1772642985675006000,3.628005859375,0.0006765024736523,0.0002638334408402,-0.000440546311438
1772642985685051000,3.63805078125,-0.0001025856472551,-0.000419286545366,-0.0001170122995972
1772642985695094800,3.6480947265625,5.77366445213e-05,-0.0013189022429287,0.0020175115205347
1772642985705140000,3.658139892578125,-3.38429817929e-05,-0.0002501532435417,0.0007957685738801
1772642985715185000,3.668184814453125,-0.00122933590319,-6.63951504975e-05,-0.000559780281037
1772642985725228800,3.678228759765625,0.0015503135509788,-0.0004400771576911,-0.0004924261011183
1772642985735273700,3.688273681640625,0.0005481659900397,0.0007245233282446,0.0009291693568229
1772642985745319000,3.69831884765625,0.0017440399387851,-0.0005965470336377,0.0009114127606153
1772642985755363000,3.708363037109375,0.0003717129584401,-0.000473775435239,-0.0004356144927442
1772642985765407700,3.71840771484375,0.0013028306420892,0.0005421924870461,0.0016771461814641
1772642985775453000,3.728452880859375,-0.0005203694454394,0.0009278182405978,0.0009524999186396
1772642985785496800,3.738496826171875,-0.0012116194702684,-0.0003673597238957,0.0013195816427469
1772642985795542000,3.7485419921875,-0.0008808549027889,-0.0004440587945282,-0.0020655621774494
1772642985805586700,3.758586669921875,-0.000932905182708,-0.0014831586740911,-0.0005499897524714
1772642985815630800,3.768630859375,-0.0005099952104501,-0.0006937975995242,-0.0001395964063704
1772642985825676000,3.778676025390625,0.0008743525249883,-0.0007916684262454,-0.0001495904289186
1772642985835721000,3.788720947265625,0.0003039034781977,-0.0005077756941318,-0.0005330857820808
1772642985845764900,3.798764892578125,0.000267797964625,-0.0007038419134914,0.0008426695130765
1772642985855810000,3.80881005859375,0.0002054800279438,-0.0002702791243791,-7.58548267185e-05
1772642985865855000,3.81885498046875,-0.0002438807860016,0.0001594284549355,-0.0013728607445955
1772642985875900000,3.82889990234375,0.0009971521794795,0.0008768839761614,-0.001114800106734
1772642985885943800,3.83894384765625,0.001809784444049,-0.0003645913675427,0.0006032646633684
1772642985895989000,3.848989013671875,-0.0009298094082623,0.0003097211010754,-0.0003791754133999
1772642985906034000,3.859033935546875,0.0003155717859044,-0.0001104639377444,0.0001859338954091
1772642985916077800,3.869077880859375,-0.0002234521089121,-0.000156802823767,0.0002477192319929
1772642985926123000,3.879123046875,3.44516010954e-05,0.0012608631514012,-0.0001548957079648
1772642985936168000,3.88916796875,-0.0012718288926407,0.0009181143250316,-0.0007346658967435
1772642985946211800,3.8992119140625,0.0009592205751687,0.0010081785731017,0.0004163524135947
1772642985956256800,3.9092568359375,-0.0006722318939864,0.0001274712849408,0.000989198219031
1772642985966302000,3.919302001953125,0.0010963971726596,0.0012091870885342,-0.000782361254096
1772642985976346000,3.92934619140625,0.0005573733942583,0.000690403394401,-0.0002622460015118
1772642985986390800,3.939390869140625,-0.0001704400638118,-4.97479923069e-05,9.14903357625e-05
1772642985996436000,3.94943603515625,-0.0004250383353792,-0.000240164110437,-0.0005380809307098
1772642986006480000,3.95947998046875,0.001804277068004,0.0012246728874742,2.81785614788e-05
1772642986016524800,3.96952490234375,0.0016655263025313,-0.0005103766452521,0.0001176609657704
1772642986026569700,3.97956982421875,-0.0005959323607385,0.0011699839960783,0.0007256176322698
1772642986036614000,3.98961376953125,0.0008104830048978,-0.0001642596907913,-0.0007729427888989
1772642986046659000,3.9996591796875,-0.0005291554844006,0.0006092255935072,0.0004171780310571
1772642986056703700,4.009703857421875,0.0001781800528988,-7.54729844629e-05,-0.0006419611163437
1772642986066748000,4.019747802734375,-0.0005166243063285,-0.0004346256610006,0.0004779305309057
1772642986076792800,4.029792724609375,-0.0007664288277737,-0.0012170623522251,-0.000700784381479
1772642986086838000,4.039838134765625,2.0628911443e-05,-0.0002441967371851,0.0002764533273875
1772642986096882000,4.0498818359375,0.0016134654870256,-0.0005549876950681,0.0004516895860433
1772642986106926800,4.0599267578125,6.8437308073e-05,-0.0018644479569047,-0.0018752999603748
1772642986116972000,4.069971923828125,-0.0001520725199952,-0.0008559089619666,8.79829749464e-05
1772642986127016000,4.080015869140625,-0.0006328565650619,0.0002865099813789,0.0007315496914088
1772642986137060900,4.090060791015625,0.0002180234296247,0.0003719974774867,0.0004354063421487
1772642986147106000,4.10010595703125,0.0005974904634058,-0.0002156659029424,-0.0009576585143804
1772642986157149700,4.110149658203125,0.0006701948586851,-0.0012471082154661,-0.0014964160509407
1772642986167195000,4.12019482421875,-0.0004488374106585,-0.0003584884107112,-6.0168094933e-05
1772642986177239800,4.13023974609375,0.0011093780631199,-0.0014258832670748,0.0009323921985924
1772642986187284000,4.140283935546875,0.0005406114505603,0.0011402152013033,0.0001350478269159
1772642986197329000,4.150328857421875,-0.0002623316831886,0.0002230224199593,0.0010229456238448
1772642986207373800,4.160373779296875,0.0021353240590542,-0.0001705083996057,-0.0001887353137135
1772642986217418000,4.17041796875,0.0008341034408658,-0.0001747694332152,0.0005265898071229
1772642986227463000,4.180462890625,0.0005039741517975,0.0014789984561502,0.0008902801200747
1772642986237507800,4.1905078125,0.0015175731386989,0.0002739180345088,-0.0016570333391427
1772642986247552000,4.200552001953125,-0.0004152517649345,-0.0011144410818815,-0.0009999256581068
1772642986257597000,4.210596923828125,0.0003850280772894,-0.0005221539177,0.0015159626491367
1772642986267641900,4.220641845703125,0.0013267816975712,0.0011428927537053,0.0018881089054048
1772642986277685800,4.230685791015625,0.000299600418657,-0.0012177333701401,-0.0001188493333756
1772642986287731000,4.24073095703125,0.0008448682492598,4.36450354754e-05,0.0002754754386842
1772642986297775900,4.25077587890625,0.0008264925563707,-6.98056537657e-05,-0.000223334878683
1772642986307819800,4.26081982421875,0.0008614726830273,0.0016297290567308,-0.0005996935069561
1772642986317865000,4.270864990234375,-0.0002906107110902,0.0003676570486277,-0.0002348404377698
1772642986327910000,4.280909912109375,0.0001956012565642,-0.0001692955847829,-0.0009798440150916
1772642986337953800,4.290953857421875,-0.0002765771932899,0.0006549528334289,0.0003306972794234
1772642986347999000,4.3009990234375,0.0008764883968979,0.0003265764098614,0.0001634587533771
1772642986358044000,4.3110439453125,0.000968633685261,8.98214057087e-05,0.0006545460782945
1772642986368088000,4.321088134765625,0.0016285204328596,-4.86189965158e-05,0.000471138395369
1772642986378132700,4.3311328125,0.0003177126636728,-3.5569537431e-05,0.0006868545897305
1772642986388178000,4.341177978515625,0.00160653446801,-0.0005468593444675,-1.92723236978e-05
1772642986398222000,4.35122216796875,0.0015287701971828,0.0006715368945151,-0.0004499056376516
1772642986408266800,4.361266845703125,0.0005316463066264,0.0005385756958276,0.0006807497702538
1772642986418312000,4.37131201171875,-0.000292069511488,3.4705735743e-05,0.0013627856969833
1772642986428355600,4.38135546875,-0.0003727738512679,0.0002708474639803,-5.72088174521e-05
1772642986438400800,4.39140087890625,0.0002277690218761,0.0003438179846853,-0.0007147435098886
1772642986448445700,4.40144580078125,0.0005451492033898,0.0007186376024037,5.41885383427e-05
1772642986458489600,4.411489501953125,-0.0003842940786853,-0.0007255945820361,-0.0011333147995173
1772642986468534800,4.42153466796875,0.0006871923105791,0.0006273223552852,0.0001878417097032
1772642986478579700,4.431579833984375,-0.000747186189983,0.0003820452839136,-0.0003562420606613
1772642986488623900,4.441623779296875,-0.0009923799661919,-0.0014369238633662,-0.0005115130916237
1772642986498668500,4.45166845703125,-0.0003715971251949,-0.0005660702008754,-0.000675297807902
1772642986508713700,4.461713623046875,0.0002095833187922,0.0002001172397285,-0.000550297088921
1772642986518758000,4.4717578125,-0.0008074779179878,-0.0006345175206661,-0.0002514906227588
1772642986528802800,4.481802734375,0.000679712393321,4.349113442e-05,0.000375126954168
1772642986538847700,4.49184765625,-0.0002984666498377,0.0001795787829905,0.0008337232284247
1772642986548892000,4.501891845703125,-0.0017264768248423,0.0003643091768026,0.0005770316347479
1772642986558936800,4.511936767578125,0.0003806161694228,-0.0006844438612461,-0.001973211299628
1772642986568981800,4.521981689453125,-0.0007562157115899,0.0005895548965781,0.0010078623890876
1772642986579025700,4.532025634765625,0.0011932181660085,-0.0009785140864551,0.0007348884828388
1772642986589070800,4.54207080078125,0.0001376118743792,-0.000171773135662,-2.04923562705e-05
1772642986599115800,4.55211572265625,0.000566380796954,0.0006586005911231,0.0013622208498418
1772642986609159700,4.56215966796875,-0.0002998310374096,-0.0009864275343716,0.0006115860305726
1772642986619204900,4.572204833984375,0.001399265602231,0.0010109432041645,0.0002177045680582
1772642986629249800,4.582249755859375,0.0009383929427713,0.0001496542245149,-0.0002532950602471
1772642986639293700,4.592293701171875,-0.0012581823393702,-0.0011305273510515,0.0009611062705516
1772642986649338600,4.602338623046875,0.0002002423861995,-0.0008621127344667,0.0001250556670129
1772642986659383800,4.6123837890625,-0.0008748757536523,5.98737969994e-05,7.09937885403e-05
1772642986669428000,4.622427978515625,0.0002844973932951,-2.41321977227e-05,-0.0017272676341235
1772642986679472600,4.63247265625,-0.0009509430965408,-0.0012782146222889,-0.0004814406856894
1772642986689517800,4.642517822265625,-0.0005523468717001,-0.0008802500087767,9.3993730843e-05
1772642986699561700,4.652561767578125,0.0009744433918967,-0.0007984905969351,0.000241532921791
1772642986709607000,4.66260693359375,-0.0003402957227081,-0.0002851644530892,0.0002353098243474
1772642986719651600,4.672651611328125,0.0007089896826073,0.0004860870540142,7.33896158635e-05
1772642986729695700,4.68269580078125,-0.0018708797870203,-0.0006605433300137,0.0008366829715669
1772642986739741000,4.692740966796875,-8.62956512719e-05,0.00056903809309,-0.0017031738534569
1772642986749785600,4.70278564453125,0.0006697154603898,3.02873086184e-05,-0.0014675795100629
1772642986759829800,4.712829833984375,0.0014963606372475,0.0004566595889627,0.0003409730270504
1772642986769874700,4.722874755859375,-0.001728315022774,0.0003547600936144,-0.0003683720715343
1772642986779920000,4.732919921875,0.0006991561967879,-0.0016316915862262,0.0003344365395605
1772642986789963800,4.7429638671875,-0.0009468949283473,9.86391678452e-05,0.0012165512889623
1772642986800008700,4.7530087890625,-0.0002374288160353,-0.0002129506319761,0.0005345158278942
1772642986810054000,4.763053955078125,-0.0021259346976876,6.08896370977e-05,0.0009749582968652
1772642986820097800,4.773097900390625,-0.0008377636549994,0.0001687475014477,0.0016940119676291
1772642986830142700,4.783142822265625,0.0014524463331326,-9.30111855268e-05,0.0007293969392776
1772642986840188000,4.79318798828125,-7.7649019658e-06,0.0004579967353492,-0.0002655596472322
1772642986850231800,4.803231689453125,-0.0014096916420385,-0.0005306983366608,0.0005388464778661
1772642986860276700,4.81327685546875,0.0007309571374207,-0.0002763667143881,0.000493838917464
1772642986870321700,4.82332177734375,0.0004520484944805,0.001244050450623,0.0006898827850818
1772642986880365800,4.83336572265625,-0.0006459727883338,-0.0011120482813566,0.0011484790593385
1772642986890410800,4.84341064453125,-0.0010935326572507,-0.0004117139615118,-0.0005558589473366
1772642986900455700,4.85345556640625,0.0004995702765882,-0.0003158403560519,0.0008998247794806
1772642986910499800,4.863499755859375,0.0002690749242901,8.49354546517e-05,-0.0003101639449596
1772642986920544800,4.873544677734375,0.0003758677048608,0.00101730809547,-0.0010590450838208
1772642986930589700,4.883589599609375,-0.0002371690934523,-0.0003702556714415,-0.0004507079720497
1772642986940633900,4.8936337890625,-0.0004901693901047,0.0003061869647353,0.0003596916794776
1772642986950678800,4.9036787109375,-0.0006257101777009,-0.0002871381584554,0.0005045677535235
1772642986960724000,4.913723876953125,6.7906221374e-06,0.0011467076838016,0.0003905845806002
1772642986970767600,4.923767578125,-0.0002359952777624,0.0009930788073688,0.0021269638091325
1772642986980812800,4.933812744140625,-0.0004423902137205,-0.000150482635945,-0.0004118275828659
1772642986990857700,4.943857666015625,-0.0001762590836733,0.0002621687017381,0.0011633583344519
1772642987000901600,4.953901611328125,0.0010242938296869,-0.0003048183862119,-0.0008843461982905
1772642987010946800,4.96394677734375,-0.00015265122056,0.000111244386062,-0.0019657337106764
1772642987020991700,4.97399169921875,0.0010194058995693,0.0006199080962687,0.000351483002305
1772642987031035600,4.98403564453125,-0.0006848736666142,0.0019740755669772,-0.000570950563997
1772642987041080800,4.994080810546875,-0.0004963219398632,-9.41352918744e-05,0.0001129489392042
1772642987051125800,5.004125732421875,-0.0015793851343914,0.0009905581828206,0.0011822083033621
1772642987061170000,5.014169921875,0.0002648539375513,0.0005761703941971,-0.0003363261930644
1772642987071214600,5.024214599609375,0.0010170999448746,-0.000625355169177,0.0015464122407138
1772642987081259800,5.034259765625,-0.0020037235226482,-0.000102843157947,0.0001570414751768
1772642987091304000,5.044303955078125,6.85061095282e-05,0.0011162778828293,0.0007807342335581
1772642987101348900,5.054348876953125,-0.0001959458459168,-0.0003902723547071,-3.034248948e-06
1772642987111393800,5.064393798828125,-5.49154356122e-05,-0.0013133543543517,-0.0009360671974718
1772642987121437700,5.074437744140625,-0.0003742284607142,-0.0009820568375289,0.0013651703484356
1772642987131483000,5.08448291015625,-0.0010114361066371,-1.36245507746e-05,0.0003697746433317
1772642987141527800,5.09452783203125,-0.0006945199565961,-0.0001747459173202,-8.00332054495e-05
1772642987151571700,5.10457177734375,-0.0001848260872066,-0.0005250682588666,-0.0009798821993172
1772642987161617000,5.114616943359375,-0.0013590137241408,-0.0004707395564764,-0.0010089105926454
1772642987171661800,5.124661865234375,0.0010054865851998,0.0004764155019074,0.0013816966675221
1772642987181705700,5.134705810546875,-0.0002363453386351,0.0014002660755068,0.0005968632176518
1772642987191750700,5.144750732421875,0.0002498967805877,-0.0005107433535158,-0.0005816654302179
1772642987201795800,5.1547958984375,0.0002610820811241,0.0012149852700531,-0.0014131045900285
1772642987211839700,5.16483984375,-0.0013021616032347,-0.0003104070201516,-0.0014527114108204
1772642987221884700,5.174884765625,-0.0007796494173817,-0.001415085978806,-0.0011030384339392
1772642987231929900,5.184929931640625,0.0006157404277473,0.0001471797004342,-0.0002235127612948
1772642987241973800,5.194973876953125,-0.0003547153901308,-0.0002365820109844,-0.0011452329345047
1772642987252018700,5.205018798828125,-9.28281806409e-05,0.0004707840271294,0.0003686742857098
1772642987262063600,5.215063720703125,9.35931457206e-05,-0.0004765021149069,-0.0006148312240839
1772642987272107800,5.225107666015625,0.0002943294821307,0.0011532937642186,-0.0006038011051714
1772642987282153000,5.235153076171875,0.0014836973277851,-8.69403593242e-05,0.0019877208396792
1772642987292197600,5.24519775390625,-4.41842712461e-05,-0.0003266895655542,0.0009545357897877
1772642987302241800,5.25524169921875,-0.0006212912267073,0.0005295167211443,-0.0008857087232172
1772642987312287000,5.265286865234375,-0.0001576705835759,-0.000403432874009,-0.0002759560011327
1772642987322331600,5.27533154296875,0.0020519541576504,-3.6926940083e-06,0.0004281839355826
1772642987332375800,5.285375732421875,0.0017808827105909,0.0001436297316104,0.0003118962049484
1772642987342420700,5.295420654296875,-0.0009880058933049,-0.0004792835097759,-0.0001357812434434
1772642987352466000,5.3054658203125,-0.001974361250177,0.001400908222422,-0.0006875954568386
1772642987362509800,5.315509765625,-0.0015096395509317,-0.0008049882017076,-0.0009829397313296
1772642987372554800,5.3255546875,3.89171764254e-05,-0.0012865939643234,0.0018387208692729
1772642987382600000,5.335599853515625,0.0014056514482945,0.0004937290214002,-0.0003115157596766
1772642987392643600,5.3456435546875,0.0015034131938591,-0.0006011612713336,-0.0009441473521292
1772642987402688800,5.355688720703125,0.000315643264912,-7.43877608329e-05,0.0014495020732283
1772642987412733200,5.365733154296875,-0.0028076379094272,0.0005097973626106,-0.0001255082897841
1772642987422776800,5.37577685546875,0.0005285040242597,0.0004011404234915,-0.0012879781424999
1772642987432822000,5.385822021484375,0.0002477844245731,-0.0003684069961309,0.0010788277722895
1772642987442867000,5.395866943359375,0.0009537884034216,-0.0012104981578886,0.0005656369030475
1772642987452911000,5.4059111328125,0.000229561002925,-0.0003541847690939,-0.001363692805171
1772642987462956000,5.4159560546875,0.0001581882825121,0.0019185568671673,0.0005282168276607
1772642987473001000,5.4260009765625,0.0005547025939449,-0.0008497005328536,0.0001486167311668
1772642987483045000,5.436045166015625,0.0013065129751339,-0.0002933661453425,-6.65667466819e-05
1772642987493089800,5.44608984375,0.0001292728120461,-0.001864725491032,-0.0002349219284951
1772642987503135000,5.456135009765625,0.0009391400963068,0.0009776665829122,-0.0017784903757274
1772642987513179100,5.46617919921875,0.0003076824359595,-0.0002480444964021,0.0002257344312965
1772642987523224000,5.47622412109375,-6.83558173477e-05,-0.0014720333274453,-0.0007633636705577
1772642987533269000,5.48626904296875,0.001360279857181,-0.000174612738192,-0.0011494741775095
1772642987543313200,5.496313232421875,-0.0009103312040679,0.0014459209050983,-0.0003084475174546
1772642987553358000,5.506358154296875,-0.0003153005382046,-0.0011712030973285,-0.0011020968668162
1772642987563403000,5.516403076171875,0.0003904371988028,0.000348130473867,2.17570923268e-05
1772642987573447000,5.526447021484375,-0.0010139597579836,0.0011102892458438,0.0010902662761509
1772642987583492000,5.5364921875,-0.0008320658816955,2.31869053095e-05,-0.0003369217738509
1772642987593537000,5.546537109375,-0.0007797110592946,-0.0003603699151426,0.0010144226253032
1772642987603581000,5.556580810546875,0.0002551933284848,-0.0005915325600653,0.0001861792989075
1772642987613626000,5.566626220703125,0.0009069865336641,-0.0002158053684979,-0.0001798546873033
1772642987623671000,5.576671142578125,0.0006806178716942,-0.0008823948446661,-0.0008078282698988
1772642987633715000,5.58671484375,0.0004115232732146,-3.29823233187e-05,-0.0001034224405884
1772642987643759900,5.596759765625,-0.0016108812997117,-0.0005890503525733,7.90040940046e-05
1772642987653805000,5.60680517578125,-0.0006777140661142,0.0006472580134868,0.0020453333854675
1772642987663849200,5.61684912109375,-0.0008633363759145,-0.0009045659098774,0.0006841919384896
1772642987673894000,5.626893798828125,-0.0009366006124764,-1.23435165733e-05,0.0003279978409409
1772642987683939000,5.63693896484375,-0.0006348644383251,0.0001945840194821,0.0001698061823844
1772642987693983000,5.64698291015625,-0.0002500652335584,0.000585100846365,0.0005444237031042
1772642987704028200,5.657028076171875,0.0011129404883831,-0.000799210043624,0.0008032829500734
1772642987714072800,5.66707275390625,4.99908346682e-05,0.0014030376914888,0.0016924990341067
1772642987724117000,5.677116943359375,0.0004561229143291,-0.0011754347942769,0.000613385811448
1772642987734162200,5.687162109375,0.0003825440071523,-0.0005597306881099,0.0011127879843115
1772642987744206800,5.697206787109375,-0.0006129455869086,-0.0003442808520048,-0.0007956330664455
1772642987754251000,5.7072509765625,-0.0007128818542696,5.17615117132e-05,0.0001163478009402
1772642987764296000,5.7172958984375,-0.0022857447620481,0.0005644198972731,-0.0004096268676221
1772642987774341000,5.727341064453125,-0.0006487290957011,-0.0004314240068197,1.27898529171e-05
1772642987784385000,5.737385009765625,0.0011774003505706,0.0015489025972783,-0.00053182663396
1772642987794430000,5.747429931640625,0.0003921203315258,-0.0006995913572609,-0.0008256323635578
1772642987804475100,5.75747509765625,0.0004104960244148,-0.0008340813219547,-0.0007204376161098
1772642987814519000,5.76751904296875,0.0012032955419272,-0.0007927247788757,0.0002449657768011
1772642987824564000,5.77756396484375,0.0001265795435756,-0.0004451826680451,0.0006116828881204
1772642987834609200,5.787609130859375,-7.45388679206e-05,0.0007467085961252,-0.0006544687785208
1772642987844653000,5.797653076171875,-0.0008990535279735,0.0005437757354229,0.0004803040064871
1772642987854698000,5.807697998046875,0.000331784482114,-0.0004700494464486,0.0004045749083161
1772642987864743000,5.817742919921875,-0.0003755511716008,-0.000234626000747,0.0001790048554539
1772642987874787000,5.827787109375,-0.001426595612429,-6.34430907666e-05,-0.0005541979335248
1772642987884832000,5.83783203125,0.0003286938881501,0.0014020942617207,0.0009643365629017
1772642987894877000,5.847876953125,-0.0002023807028308,0.0004802462644875,0.0011128918267786
1772642987904921000,5.857921142578125,0.000874867895618,0.0011252639815211,-0.0003172256983816
1772642987914966000,5.867966064453125,-0.0002329307608306,1.76094472408e-05,0.0004835254512727
1772642987925011000,5.878010986328125,7.8659155406e-05,0.0016053861472755,-0.0005159592255949
1772642987935055000,5.88805517578125,0.0002439861418679,-0.0002255903091281,-0.0004901685751974
1772642987945100000,5.89810009765625,0.0001427859533578,1.30287371575e-05,0.0013332981616258
1772642987955145200,5.908145263671875,-0.0009552058763802,5.36816660314e-05,-0.0005311137065291
1772642987965188900,5.91818896484375,-0.0018942365422844,0.0002142703160643,0.0005349498242139
1772642987975234000,5.928234130859375,-0.0009444731404073,0.0003726680297404,0.0010184030979871
1772642987985279000,5.938279052734375,-0.0016336992848664,-0.0001588989980518,-0.0007965411059558
1772642987995323000,5.948322998046875,-6.05501700192e-05,0.0002745923120528,-0.0009128581732511
1772642988005368000,5.9583681640625,6.08899863436e-05,0.0007654128130525,0.0005281781777739
1772642988015413000,5.9684130859375,0.0001448878319934,0.0008739007171243,4.6360772103e-05
1772642988025457000,5.978456787109375,-0.0001896051689982,-0.0003436964470893,0.0009318618103861
1772642988035502000,5.988502197265625,-0.0006538513698615,0.0003435651306062,0.0002794656902551
1772642988045547000,5.998547119140625,0.0001797180157154,0.0013401198666542,-0.0007751462981104
1772642988055591200,6.008591064453125,-0.0001195912482216,0.0009431217331439,-0.000344262458384
1772642988065635800,6.0186357421875,0.000945673091337,-0.0011117730755358,-0.0011107199825346
1772642988075681000,6.028680908203125,0.0019500794587656,0.000241677975282,1.2274831533e-06
1772642988085725200,6.03872509765625,0.0027551529929041,-0.0001889553386718,-4.03178855776e-05
1772642988095770000,6.04877001953125,0.0002563333837315,0.0012835646048188,0.0002219178713858
1772642988105815000,6.05881494140625,-0.0004025326343253,0.0018473557429388,0.0015550963580608
1772642988115859000,6.06885888671875,0.0010924467351287,0.0005324520170688,0.0005039791576564
1772642988125904100,6.078904052734375,-0.0005904047284275,0.0008946419693529,0.0006469907239079
1772642988135949000,6.088948974609375,-0.0006166241364553,-0.0002206829376518,-0.0008493736386299
1772642988145993000,6.098992919921875,0.0006584973307326,-0.0007032477296888,-0.0008323295041918
1772642988156038100,6.1090380859375,0.0012994298012927,0.0007369185332208,-0.0009839260019361
1772642988166083000,6.1190830078125,-0.0003924764459952,0.0004301224835216,0.0005617728456854
1772642988176127000,6.129126953125,-0.001617508358322,0.0005575458053499,-0.001111963763833
1772642988186172000,6.139171875,0.00077294500079,0.0001602021511644,0.0001833979040384
1772642988196217000,6.149217041015625,-0.0011318533215671,-0.0009672080632299,0.0002327412366867
1772642988206261000,6.159260986328125,-0.0011654091067612,-0.0007355131674557,0.001067642122507
1772642988216306000,6.169305908203125,-0.0011241794563829,-0.0001627588644623,-0.0003892760723829
1772642988226351000,6.17935107421875,-0.0006791651831008,-0.0010226937010884,-0.0003810203634202
1772642988236395000,6.18939501953125,-0.0001919654896482,0.0006825439631938,0.0004301420412957
1772642988246440000,6.19943994140625,-0.0007341851014643,0.0009696327615529,0.0006605051457881
1772642988256484900,6.20948486328125,-0.0014841869706287,-0.0002163618337363,0.000585698056966
1772642988266529000,6.219529052734375,0.0003059898735955,-0.0001476523466408,-0.0016881092451512
1772642988276574200,6.22957421875,-0.0005342256044968,0.0016803366597741,-0.0011066407896578
1772642988286619000,6.239618896484375,-0.0010490147396922,-0.0007926744874566,-0.0006131567060947
1772642988296663000,6.2496630859375,0.0001740589505061,0.0001225783489644,0.0002739038318395
1772642988306708200,6.259708251953125,0.0004933719756081,-0.0004199077375233,0.0009599342010915
1772642988316753000,6.2697529296875,0.0005726708332076,0.0008755652233958,-0.0004182280972599
1772642988326797000,6.279797119140625,0.001603846787475,0.0004462637007236,0.0011327969841659
1772642988336842000,6.289842041015625,0.000771741149947,0.0001254742965102,0.0002759266644716
1772642988346887200,6.29988720703125,0.0011349963024258,-0.0003126156516373,-0.0004308759234845
1772642988356931000,6.30993115234375,0.0003952506231144,0.0001514998730272,0.0008413917385041
1772642988366976000,6.31997607421875,-0.0010934564052149,0.0005821329541504,0.0010890653356909
1772642988377021200,6.330021240234375,0.0002729562111198,0.0010938050691038,-0.0007246183231472
1772642988387064800,6.34006494140625,-0.000575793266762,0.0016781026497483,0.0008868603035807
1772642988397110000,6.350110107421875,0.0004547256976366,-0.0002158319111913,-0.0011296495795249
1772642988407155000,6.360155029296875,0.0006339563988149,-0.0001750853843986,0.0009393603540956
1772642988417200000,6.3702001953125,-0.001253233407624,0.0002141464501619,0.0008645383641123
1772642988427245000,6.3802451171875,-0.0008913098718039,1.41430646181e-05,0.0002930238842964
1772642988437290200,6.390290283203125,-0.0012541104806587,-0.0006007265765219,0.0011062202975153
1772642988447334100,6.400334228515625,-0.0014764844672754,0.0007228646427392,-8.44788737595e-05
1772642988457379000,6.410379150390625,-0.0003837076947093,0.0004836106672883,-0.0006875218823552
1772642988467424300,6.42042431640625,-0.0012028960045427,-5.24835195392e-05,0.0005622995086014
1772642988477468200,6.43046826171875,-0.0006945109926164,0.0006863481830805,-0.0002930238842964
1772642988487513000,6.44051318359375,-0.0001213987125083,-0.0012013001833111,-0.0024765501730144
1772642988497558000,6.45055810546875,0.0008513956563547,-0.0008337711915373,0.0001456560567021
1772642988507602200,6.460602294921875,-0.0006644755485467,-0.0005863634869456,-0.0001456937752664
1772642988517647400,6.4706474609375,-0.0001158273080363,0.0002251039259135,-0.0009267395362257
1772642988527692000,6.480692138671875,-5.03135379403e-05,-0.0002531998325139,0.0009228261187672
1772642988537736200,6.490736083984375,-0.0001213744981214,-0.0006493404507637,-0.0012230803258717
1772642988547781000,6.500781005859375,-0.0005714487051591,-0.0017172680236399,0.0012872153893113
1772642988557826000,6.510825927734375,0.0002787227276712,-0.0005171000957489,-0.0003975071012973
1772642988567870200,6.5208701171875,0.0013538408093154,-0.0004004538059234,-0.0003322595730423
1772642988577915100,6.5309150390625,-9.49907116591e-05,-0.0008933055214583,-0.0009956737048923
1772642988587960300,6.540960205078125,-0.0005181670421734,3.9599603042e-05,-0.000922436825931
1772642988598004200,6.551004150390625,0.0004799810703843,0.0001987409777939,-0.0003947429358959
1772642988608049200,6.561049072265625,-0.0013253757497295,-0.0001866184175014,-0.0001603849232196
1772642988618094000,6.571093994140625,0.0005431703757494,0.000167409190908,-0.0023330911062657
1772642988628138000,6.581137939453125,-0.0006051847012713,0.0002097534015774,0.0005079694092273
1772642988638183200,6.59118310546875,-0.0004856419982388,4.82650939375e-05,0.0011278428137302
1772642988648227300,6.601227294921875,0.0007330204825848,0.0009564030915498,0.000575769226998
1772642988658272300,6.611272216796875,0.0001642345450818,0.000374401686713,-0.0004089227877557
1772642988668317200,6.621317138671875,0.00038261373993,0.0002740004565566,0.0008424967527389
1772642988678362000,6.631362060546875,0.0001640254631638,0.0001605451107025,-0.0021068407222628
1772642988688406300,6.64140625,-0.0002138771815225,-0.000146517297253,0.0008484693244099
1772642988698451000,6.651450927734375,0.0016510495916008,0.0013137909118086,0.0006837570108473
1772642988708496100,6.66149609375,-0.0001393934944644,0.0012943497858941,0.0005311579443514
1772642988718540300,6.671540283203125,7.76295782998e-05,0.0005322757642716,-0.0001764828339219
1772642988728585200,6.681585205078125,0.0010163937695324,-0.0001446998212486,-0.0014465446583926
1772642988738630100,6.691630126953125,-0.0001632925122976,0.0003363313153386,0.0010914034210145
1772642988748674000,6.701674072265625,0.0021880124695599,0.0005435252096503,-0.0014180932193994
1772642988758719200,6.71171923828125,-0.0014838393544778,0.0001682539004832,0.0009431531652808
1772642988768763100,6.72176318359375,-0.0006537321023643,-0.0013588026631623,-0.0012752600014209
1772642988778808000,6.73180810546875,1.6803387552e-06,0.0009008115157485,0.0004571308381855
1772642988788853200,6.741853271484375,0.0013172819744795,0.0002605877816677,-0.0001229057088494
1772642988798897200,6.751897216796875,-0.0007368618971668,-0.0009763056878,-0.0011994843371212
1772642988808942000,6.761942138671875,-0.0006756091606803,0.0001012091524899,0.001106547191739
1772642988818987000,6.771987060546875,0.0006983669009059,1.51752028614e-05,-0.0018252981826663
1772642988829031200,6.78203125,0.0005404413677752,0.0001243648584932,3.35881486535e-05
1772642988839076000,6.792076171875,0.0009835240198299,-4.5484630391e-05,-0.0010473052971065
1772642988849121000,6.80212109375,-0.0009683067910373,0.0009183133952319,-0.0008089523762464
1772642988859166200,6.812166259765625,0.0015692028682678,-0.0010650029871612,-0.0006210342980921
1772642988869210400,6.82221044921875,0.0005713163409382,-0.0002711147535592,-0.0020444937981665
1772642988879255000,6.832255126953125,-0.0002123814774677,0.0004025725647807,0.0005369712598621
1772642988889299200,6.84229931640625,2.41072848439e-05,-9.30416863411e-05,-0.0001096441410481
1772642988899344100,6.85234423828125,0.0009577131131663,-0.0014363399241119,-0.0001886789686977
1772642988909389300,6.862389404296875,0.0005534453084692,0.0006790088955312,0.0004805736243724
1772642988919433200,6.87243310546875,-0.0012134502176195,-0.0004951886367052,-0.0004393593408167
1772642988929478100,6.88247802734375,0.0007088194834068,0.0001708676572889,-0.0001882230862975
1772642988939523300,6.8925234375,-0.0003945828648284,0.0002171888481825,-0.0008911900222301
1772642988949567000,6.90256689453125,-0.0008968550828285,-0.0008787016849964,0.0011210944503545
1772642988959612200,6.912612060546875,0.0006542003247886,0.001007241429761,0.000673999544233
1772642988969657000,6.922656982421875,-0.0002238439628854,-0.0028016115538775,-0.00039206398651
1772642988979701000,6.932700927734375,-0.0002264797221869,0.0006662812083959,6.83292746543e-05
1772642988989746200,6.94274609375,-0.0010754955001175,-7.8338664025e-05,1.4835968613e-06
1772642988999791000,6.952791015625,-0.0005318343755789,-0.000204840907827,-0.000136244110763
1772642989009835300,6.962835205078125,0.000653272261843,-0.0007326796185225,-0.0010944497771561
1772642989019880000,6.9728798828125,-0.0008257291628979,0.0002479131799191,-0.0015246248804032
1772642989029925000,6.982925048828125,0.001265651313588,-0.0003760657273232,0.0005571683868765
1772642989039969300,6.99296923828125,-0.0005239908350631,-0.0005565253086388,-7.31498003005e-05
1772642989050014200,7.00301416015625,-0.0007932364242151,0.0003904949408024,0.0003228620626032
1772642989060059100,7.01305908203125,0.0002023557899519,-0.0001564333215355,-0.0014511323533952
1772642989070103300,7.023103271484375,0.0007192752091214,0.000880335457623,0.001188326627016
1772642989080148200,7.033148193359375,-0.0001854114234447,-0.0006793858483433,0.0005646320059895
1772642989090193200,7.043193115234375,0.0001442878274247,0.0009177117608487,-3.19159589707e-05
1772642989100237000,7.053237060546875,0.0021198289468884,0.0005608964711427,0.0002114190720021
1772642989110282200,7.0632822265625,-0.0006341460975818,-0.0006702826358377,0.0012159636244177
1772642989120327200,7.0733271484375,0.0006515892455354,-0.0001309933140873,0.0006416449323296
1772642989130371000,7.08337109375,0.0007128418656066,0.0001236048992723,0.0003779921680688
1772642989140416300,7.093416259765625,-0.0005087902536615,-0.000169288367033,-0.0007216590456664
1772642989150461200,7.103461181640625,0.0001535379560664,-0.0011397441849112,0.0004101847298443
1772642989160505000,7.113505126953125,-6.17562327533e-05,0.0008032859768718,-0.0003310055471956
1772642989170550000,7.123550048828125,-0.0002551017096266,-0.0005381484515964,0.0003853845410048
1772642989180595200,7.13359521484375,-0.0008227102225646,-0.0003409343771636,-0.0004439032636582
1772642989190639400,7.143639404296875,-0.0012791759800165,0.0013027684763073,0.0006328127346932
1772642989200684000,7.15368408203125,-0.0006467459606938,0.000660078600049,-0.0012083225883543
1772642989210729200,7.163729248046875,7.52370106056e-05,0.0008142755832523,-0.0005971272476017
1772642989220773000,7.173773193359375,0.0002682821359485,0.0008315541781485,-0.0011668144725263
1772642989230818000,7.183818115234375,0.0001090250443667,-0.0007117476779967,-0.001111420802772
1772642989240863000,7.193863037109375,0.0002962667495012,4.60401643067e-05,-1.78264454007e-05
1772642989250907100,7.2039072265625,0.0010763065656647,0.0002433804329484,-0.0013941479846835
1772642989260952300,7.213952392578125,0.000108630862087,-0.0001013281289488,-0.0013861297629773
1772642989270997000,7.2239970703125,9.10540111362e-05,-0.0016209275927394,-7.2126276791e-05
1772642989281041200,7.234041259765625,-0.0007644788129255,-0.0002620012965053,0.0019172453321516
1772642989291086000,7.244086181640625,-0.0009897821582853,-0.0008718653116375,-0.0006164857186377
1772642989301131300,7.25413134765625,-0.0005528926849365,0.0002627465873956,-1.41230411827e-05
1772642989311175200,7.264175048828125,-0.0009582258644513,0.0012276098132133,0.0002942713908851
1772642989321220000,7.27422021484375,-0.0007389735546894,0.0019847622606903,-0.0013331160880625
1772642989331265300,7.284265380859375,-0.0007490935968235,0.0014521300327032,-0.0005751801654696
1772642989341309200,7.29430908203125,0.0003142554778605,0.0005866999272257,0.0011125491000711
1772642989351354000,7.30435400390625,-0.0005691150436177,0.0016967053525149,-0.0006525940261781
1772642989361399300,7.3143994140625,0.0004687497857958,0.0004630284383893,-0.0023631458170711
1772642989371443000,7.32444287109375,9.43093327805e-05,0.000595920253545,0.0008379742503166
1772642989381488000,7.334488037109375,0.0003693982725962,5.89543487876e-05,0.0003746068105101
1772642989391533000,7.344532958984375,-0.0002095728414133,1.1017313227e-05,-0.0016059861518442
1772642989401577200,7.3545771484375,0.0002556256949901,-0.0004917739424854,-0.0002697673626244
1772642989411622100,7.3646220703125,-0.0008711577975191,0.0004973241593688,-0.001060726121068
1772642989421666300,7.374666259765625,0.0004920250503346,-0.0008862765971571,-0.0001230794005095
1772642989431710500,7.38471044921875,-0.000849675387144,3.65085434168e-05,-0.0007047136314213
1772642989441755400,7.39475537109375,0.0003579250769689,-0.0004972636234015,-9.230338037e-06
1772642989451800300,7.40480029296875,0.0001840206095948,0.0007016914896667,0.001308768056333
1772642989461844500,7.414844482421875,-0.0009918266441673,0.0012723561376333,0.0003850874491035
1772642989471889400,7.424889404296875,0.0012273854808881,-0.0005777420010417,-0.0002450165338814
1772642989481934300,7.434934326171875,-0.0014655514387413,0.0008786197286099,5.9216748923e-05
1772642989491978500,7.444978515625,-0.0011009647278115,0.0007651690393686,0.00086828507483
1772642989502023400,7.4550234375,0.0001473389565944,0.0006044898182153,-2.05393880605e-05
1772642989512068600,7.465068603515625,-0.0003370899939909,0.0010793316178023,-0.0004767389036715
1772642989522112300,7.4751123046875,-0.0013636568328365,-0.0003088370431214,0.0004708836786448
1772642989532157400,7.485157470703125,0.0010957723716273,-0.0001740809530019,-0.0012119677849113
1772642989542202400,7.495202392578125,-0.0001825813669711,-0.0007351965177804,8.29086638987e-05
1772642989552246300,7.505246337890625,-0.0010739413555711,-0.0006664867978543,-7.47507438063e-05
1772642989562291500,7.51529150390625,-0.0004929198767058,-0.0007020535413175,0.0017010564915835
1772642989572336400,7.52533642578125,-0.0006226158002391,0.0008806628175079,-0.0004220153205096
1772642989582380300,7.53538037109375,0.0005353016313165,0.000650678994134,-0.0009114439599215
1772642989592425500,7.545425537109375,-0.0018950991798192,0.0004187177401036,0.0007983054965734
1772642989602470400,7.555470458984375,0.0009294871706515,-0.0007752676028758,-0.0007754615508019
1772642989612514600,7.5655146484375,-0.0003006269689649,0.0007243582513183,-0.000229247380048
1772642989622559200,7.575559326171875,-0.0010478741023689,0.0003041208256036,-0.0003728317096829
1772642989632604400,7.5856044921875,0.001012613531202,0.0010966777335852,0.0009265248663723
1772642989642648600,7.595648681640625,-0.0006933621480129,0.0002625649794936,0.0012231240980327
1772642989652693500,7.605693603515625,-0.0002483478747308,-0.0007078906055539,0.0008074045181274
1772642989662738400,7.615738525390625,0.0006687571294605,0.0009220123756676,-0.0005122814327478
1772642989672782300,7.6257822265625,-4.63016331195e-05,-0.0004340689629316,0.0002874662168323
1772642989682827500,7.63582763671875,0.0008401900995522,0.0016032620333135,-0.0007247892208397
1772642989692872200,7.6458720703125,0.0001696060644462,0.0007816769648343,0.0002621784806251
1772642989702916400,7.655916259765625,0.0016367726493626,-0.0018424792215228,-0.0006195618771016
1772642989712961500,7.66596142578125,-0.0008748544496484,0.0007005734369158,0.0002606129273772
1772642989723006500,7.67600634765625,-0.0009260505903512,0.0008443787228316,0.0013825590722262
1772642989733050400,7.68605029296875,-0.0001872896682471,0.0002046874724328,-0.0004803221672773
1772642989743095300,7.69609521484375,-0.0002934584626927,0.0008986920583993,0.0017269300296902
1772642989753140500,7.706140380859375,5.48829557374e-05,0.0007892360445111,-0.0002147806808352
1772642989763184400,7.716184326171875,0.000184110016562,0.0013488447293639,-0.0005149315111339
1772642989773229300,7.726229248046875,0.00010314991232,-0.0002434593625366,0.0016867038793861
1772642989783274500,7.7362744140625,-0.0006682020612061,-0.0003078342415392,-0.0003395830281078
1772642989793318400,7.746318359375,-2.29181023314e-05,0.0006543656345456,-0.0007238769903779
1772642989803363300,7.75636328125,-0.000445925456006,-0.001363759394735,-0.0018461649306118
1772642989813408300,7.766408203125,0.0007735360413789,-0.0001237916294485,-0.0002836878411471
1772642989823452400,7.776452392578125,-0.0006314951460808,-0.0005562778096646,-0.0010628500021994
1772642989833497300,7.786497314453125,-0.0004722381127066,-0.0001370962709188,0.0018748831935226
1772642989843542300,7.796542236328125,0.0005680738249793,-0.0003303380217403,-0.0005294396542012
1772642989853586400,7.80658642578125,0.0008762015495449,-0.0006975878495723,-0.000180831644684
1772642989863631400,7.81663134765625,0.000553052406758,0.0004548707511276,0.0006282101385295
1772642989873676300,7.82667626953125,-0.0006991659174673,0.000711865723133,2.71345488727e-05
1772642989883720400,7.836720458984375,-7.00695673003e-05,-0.0018803740385919,-7.49845057725e-05
1772642989893765400,7.846765380859375,-0.0018703665118664,0.0013140877708792,0.0011130515486001
1772642989903810600,7.856810546875,0.0002059387043118,0.0005118444096297,0.0002722516655921
1772642989913854500,7.8668544921875,-1.69678824022e-05,0.0001493880990892,-0.0006044609472155
1772642989923899400,7.8768994140625,0.0009082807227969,-0.0015322393737733,0.0002044914290308
1772642989933944600,7.886944580078125,-0.0001841479679569,0.0004811105318367,-0.0011816839687526
1772642989943988200,7.89698828125,-0.0005500343977473,-0.0012221194338053,0.0014228713698685
1772638987537979400,0.0589794921875,0.0002339640632271,-0.0027887923642992,0.0014098761603236
1772638987548024300,0.0690244140625,0.001187109388411,-0.0004398841410875,0.0002490044571459
1772638987558070500,0.079070556640625,-0.0009683438693173,0.000226171221584,0.0009126337245106
1772638987568116500,0.089116455078125,-0.000699364580214,-0.0012359041720628,-0.000103096012026
1772638987578161400,0.099161376953125,-4.40671574324e-05,0.00033815857023,-0.0001344941556453
1772638987588207400,0.109207275390625,0.0012409080518409,-0.0005188467912375,0.0010578031651675
1772638987598253600,0.119253662109375,-0.0009104316122829,-6.52857124805e-05,0.001414165366441
1772638987608298500,0.129298583984375,0.0011050488101318,0.0001280598808079,-0.0003275419585406
1772638987618344400,0.139344482421875,0.0002452563494443,-0.0001577166840434,0.0011654417030513
1772638987628390700,0.149390625,-4.87565994262e-05,-0.0014818403869867,0.0016336254775524
1772638987638435300,0.159435302734375,0.0007489281706511,0.000244916183874,0.0017653591930866
1772638987648481300,0.169481201171875,-0.0001512201270088,0.0011557172983884,0.0008779936470091
1772638987658527500,0.179527587890625,-0.0005288124084472,-0.0007150811143219,0.000143120996654
1772638987668572400,0.189572509765625,-0.0013216354418545,-0.0002279891632497,0.0012254300527274
1772638987678618400,0.199618408203125,-0.0002077964600175,0.000136736780405,-0.0003553992137312
1772638987688664300,0.209664306640625,-0.0004972820170223,-0.0014803349040448,-0.0008422248065471
1772638987698709500,0.21970947265625,-0.0012424889719113,-0.0010105581022799,-0.0005066241137683
1772638987708755500,0.22975537109375,-6.88339350745e-05,5.8701261878e-05,-0.0007601571269333
1772638987718800600,0.239800537109375,0.0001130239106714,0.0007648658938705,0.0006933906115591
1772638987728846600,0.2498466796875,0.0003034399123862,0.000147811602801,0.0004566353745758
1772638987738892500,0.259892578125,0.0006179773481562,0.000164053402841,-0.0004272423684597
1772638987748937500,0.2699375,-0.0011354477610439,-0.0002260999754071,-0.0003249770961701
1772638987758983400,0.2799833984375,0.0005681097973138,-0.0017601302824914,-0.0006950465030968
1772638987769029400,0.290029296875,-0.0015802620910108,0.0002731932327151,0.0012487946078181
1772638987779074300,0.30007421875,-5.84962544962e-05,0.0019457198213785,0.0020345794036984
1772638987789120500,0.31012060546875,0.0004264654126018,5.86039386689e-05,-0.0005667963996529
1772638987799166500,0.32016650390625,-0.0015033956151455,8.19163396954e-05,-0.0006238585337996
1772638987809211400,0.33021142578125,0.0001909073907881,-0.0006714919582009,-0.0005554156377911
1772638987819257600,0.340257568359375,0.0010707853361964,0.0013502771034836,-0.0004843454807996
1772638987829303600,0.350303466796875,0.0003139150794595,6.42365776002e-05,0.0014853286556899
1772638987839348500,0.360348388671875,0.0009787785820662,-0.0007138475775718,0.0006954739801585
1772638987849394400,0.37039453125,-0.0005927528254687,-0.0005852170288562,0.0008336920291185
1772638987859440600,0.380440673828125,-0.0001323288306593,-0.0001342990435659,0.0008419705554842
1772638987869485300,0.3904853515625,-0.0002745416713878,0.0010556012857705,0.0003998856991529
1772638987879531300,0.40053125,-4.35056863352e-05,-0.0001178192906081,0.0004159994423389
1772638987889577500,0.410577392578125,0.0005407917778939,-0.00083420984447,0.0004412997514009
1772638987899622400,0.420622314453125,0.0006079224403947,-0.0008381865918636,0.0005153906531631
1772638987909668400,0.43066845703125,-0.0012086199130862,0.000370888505131,0.0013162028044462
1772638987919714600,0.440714599609375,0.0007354866247624,-0.0005973023362457,-0.0003195875324308
1772638987929759500,0.450759521484375,-0.0007012886926531,0.0010192363988608,0.0004540607333183
1772638987939805400,0.460805419921875,-0.0009052942041307,-0.0011251745745539,0.0010719285346567
1772638987949851400,0.470851318359375,-0.0005478980019688,0.0006780519615858,-0.0004745693877339
1772638987959896600,0.480896484375,-0.0015389111358672,-0.0012123836204409,0.0006736801005899
1772638987969942500,0.490942626953125,-0.0010773852700367,0.0002092118375003,8.61869193613e-05
1772638987979987500,0.500987548828125,-0.0009597475873306,0.0005015498027205,-0.0005012722685933
1772638987990033400,0.511033447265625,-0.0008633411489427,-0.0010665194131433,0.0019597550854086
1772638988000079400,0.521079345703125,-0.0008568132761865,-4.38704155385e-05,0.0004084203392267
1772638988010124500,0.53112451171875,0.0001967332791537,-0.0018116766586899,0.0021290886215865
1772638988020170500,0.54117041015625,-0.0005971281789243,-0.0006010732613503,0.000217817723751
1772638988030216400,0.551216552734375,-0.001661060960032,-0.0013270508497953,0.0001152860932052
1772638988040261600,0.56126171875,0.0007119688671082,-0.0004234286025166,0.0008140681311488
1772638988050307600,0.5713076171875,0.000747388927266,0.0004564800765365,-0.0007324293255805
1772638988060353500,0.581353515625,0.0005742239300161,0.0003122477792203,0.0012071025557816
1772638988070398500,0.5913984375,-0.0005040899850428,-0.0016888515092432,4.46327030658e-05
1772638988080444700,0.601444580078125,0.0009095463901758,-0.0003442233428359,-0.0003602742217481
1772638988090490600,0.61149072265625,-0.0017083410639315,0.0018281172960996,0.0008232346735894
1772638988100535300,0.621535400390625,0.0010283822193741,-0.0003231330774724,-0.0004082359373569
1772638988110581500,0.63158154296875,-0.0001370169920846,-0.000763087067753,-0.0005784118548035
1772638988120627500,0.64162744140625,0.0010143506806343,0.0010908178519457,0.0004382138140499
1772638988130672400,0.65167236328125,-0.000770233629737,0.0006282266695052,-0.0015604882501065
1772638988140718300,0.66171826171875,0.000307586742565,-0.0009286105632781,0.000726225785911
1772638988150764500,0.6717646484375,0.000862322980538,-0.0017696367576718,-3.89004126191e-05
1772638988160809500,0.6818095703125,0.0006971270777285,-0.0009071370586752,0.0009819520637392
1772638988170855400,0.69185546875,-0.0009369885083287,-0.0012277816422283,-6.0806050896e-06
1772638988180900600,0.701900634765625,0.0004259970737621,0.0008800325449556,0.0004753153771162
1772638988190946600,0.711946533203125,-0.0011340827913954,0.0007218406535685,0.0012263269163668
1772638988200992500,0.721992431640625,-0.0019385010236874,0.0001231585629284,-0.0001791901886463
1772638988211037400,0.732037353515625,-0.0010482062352821,0.0003729627933353,-0.0004771975800395
1772638988221083400,0.74208349609375,-0.0004225290613248,-0.0009519425220787,0.0001970562152564
1772638988231129300,0.75212939453125,-0.0002483583521097,-0.0002587214112281,-0.0007281256839632
1772638988241174500,0.762174560546875,0.0009911359520629,-6.9495290517e-06,-0.0011188792996108
1772638988251220500,0.772220458984375,-0.0001766602508723,-0.0016767517663538,0.000970902852714
1772638988261266400,0.782266357421875,0.0006368194008246,-0.0009078490547835,-0.0005545248277485
1772638988271311600,0.7923115234375,0.0022917077876627,0.0009446458425372,0.0006313808262348
1772638988281357600,0.802357666015625,-0.0009415462263859,0.001190499169752,-0.0002787173725664
1772638988291403500,0.812403564453125,0.0007586159044876,-0.0005890247412025,0.0012043970637023
1772638988301448700,0.82244873046875,0.0004303334280848,0.000465142307803,0.0003126170486211
1772638988311494700,0.83249462890625,8.4921484813e-05,0.0005532929208129,0.000783197581768
1772638988321540600,0.84254052734375,0.0006819944828748,0.0008262386545538,0.0008794176392257
1772638988331585300,0.852585205078125,-7.88706820458e-05,0.0007748396601527,-0.0006881188601255
1772638988341631500,0.862631591796875,0.0005434195045381,0.0008611343801021,0.0003328495658934
1772638988351677400,0.872677490234375,0.0012728592846542,0.0008989511989057,0.0009722746908664
1772638988361722400,0.882722412109375,0.0010452984133735,-0.0011810339055955,-1.56685709953e-05
1772638988371768600,0.8927685546875,0.0010133403120562,1.60569325089e-05,0.0002008462324738
1772638988381814500,0.902814453125,0.0003720379900187,-0.0005330583080649,0.0005617518909275
1772638988391859500,0.912859375,0.0016740575665608,0.0003423225134611,-0.001449467614293
1772638988401905700,0.92290576171875,-0.0011077700182795,0.0004064184613525,-0.0007571247406303
1772638988411950600,0.93295068359375,-0.0015754210762679,0.0014370619319379,-0.0008535310626029
1772638988421996500,0.94299658203125,0.0001073605380952,-0.0004294482059776,-0.0006985832005739
1772638988432042500,0.95304248046875,0.0012695639161393,-0.0001141298562288,0.0013547139242291
1772638988442087400,0.96308740234375,-0.0009267357527278,0.0003668169956654,-0.0008518085815012
1772638988452133400,0.97313330078125,0.0007004557410255,0.0006067678332328,-0.0003378186374902
1772638988462179300,0.983179443359375,-0.0011783251538872,0.000438415678218,-0.0014321780763566
1772638988472224500,0.993224609375,0.0007748370990157,0.0001920731738209,0.0003763739950954
1772638988482270500,1.0032705078125,0.0014323467621579,-0.0001516491174697,-0.0002437490038573
1772638988492316400,1.01331640625,-0.0010135003831237,-0.0001766830682754,-0.0006088684312999
1772638988502361600,1.023361572265625,0.0023876090999692,5.00464811921e-05,0.0005162502638995
1772638988512407600,1.033407470703125,0.0004786553326994,-0.0005081524141132,0.0002035950310528
1772638988522453500,1.04345361328125,0.000494179315865,0.0002192477695643,4.78150323033e-05
1772638988532499500,1.05349951171875,-0.0007508486160077,-0.0004406836815178,-0.0011071981862187
1772638988542545700,1.063545654296875,9.50726680457e-05,-6.7967921495e-06,0.0006477669812738
1772638988552591400,1.07359130859375,0.0012687277048826,-0.0011096117086708,-0.0006212294101715
1772638988562636300,1.08363623046875,0.0013573480537161,-0.0005754181183874,-0.0001386669464409
1772638988572682500,1.0936826171875,0.0003285688580945,-0.0011605150066316,-0.0005064494907855
1772638988582727400,1.1037275390625,-0.0003962510963901,0.0012581192422658,0.0003092689439654
1772638988592773400,1.1137734375,0.00163787137717,-0.0009096940048038,-0.0002848822623491
1772638988602819300,1.1238193359375,-0.0002064091386273,0.0001577255316078,-0.0010062446817755
1772638988612864500,1.133864501953125,0.001315587433055,0.0006978146266192,-7.09425657987e-05
1772638988622910500,1.143910400390625,0.0002427018480375,0.0012809080071747,0.0004831333644688
1772638988632956400,1.153956298828125,0.0001079458743333,-0.0008197934366762,0.0006791418418288
1772638988643001600,1.164001708984375,-0.0004927449626848,0.0010096454061567,-0.0002580704167485
1772638988653047300,1.17404736328125,0.0007211237680166,0.0003294742200523,0.0014064055867493
1772638988663093200,1.18409326171875,-0.0011239253217354,0.0011205447372049,0.0016817725263535
1772638988673138400,1.194138427734375,-0.0005862331017851,-0.0003053117543458,0.0001307479105889
1772638988683184400,1.204184326171875,-3.94299859181e-05,-0.0003865309990942,-0.0004455121234059
1772638988693230300,1.214230224609375,7.96132953837e-05,-9.41157341003e-05,-0.0018346169963479
1772638988703275500,1.224275634765625,0.0009182909270748,-0.001562659163028,0.0003365436568856
1772638988713321500,1.234321533203125,0.0012924649054184,-0.0012231064029037,0.0006324211135506
1772638988723367400,1.244367431640625,0.0001502847298979,-0.0003495323471724,0.0006904886104166
1772638988733412600,1.25441259765625,-0.0006276245694607,0.0012632783036679,-0.0015225978568196
1772638988743458600,1.26445849609375,-0.0004951460286974,0.0005516274832189,-0.0013172337785363
1772638988753504500,1.27450439453125,0.0001184461871162,1.73971056938e-05,-0.0006061694584786
1772638988763549400,1.284549560546875,0.0010704024462029,-0.000898627564311,-0.00060072587803
1772638988773595400,1.294595458984375,0.0008895738283172,-0.0008709304966032,-0.0005900734104216
1772638988783640300,1.304640380859375,-0.0008067628950811,-0.0006230282597243,0.0002247863449156
1772638988793686300,1.314686279296875,-0.000974542053882,-0.0002086400054395,0.0005680676549673
1772638988803732500,1.324732421875,-0.001790284179151,0.0001709950156509,0.0002610506489872
1772638988813777400,1.33477734375,2.75896163657e-05,0.0006394449155777,0.0008259071037173
1772638988823823400,1.3448232421875,0.0012036280240863,-0.0005714739672839,0.0003561656922101
1772638988833869600,1.35486962890625,1.05317449197e-05,-0.0010588327422738,-0.0013032504357397
1772638988843914500,1.36491455078125,-0.0003770194016396,0.0004089958965778,-0.0003177407197654
1772638988853960400,1.37496044921875,-0.0003551815170794,-6.565824151039125e-08,0.0001179524697363
1772638988864006400,1.38500634765625,-0.000545336632058,-0.0004499624483287,0.000250699929893
1772638988874051300,1.39505126953125,2.69766896963e-05,0.0001367316581308,-2.30730511248e-05
1772638988884097300,1.40509716796875,0.000690316199325,0.0007565922569483,0.0003697192296385
1772638988894143200,1.415143310546875,0.0002285240916535,-0.0013952418230473,0.0006466880440711
1772638988904188400,1.4251884765625,-0.0005135800456628,0.0006620783824473,0.0010456698946654
1772638988914234400,1.435234375,0.0006872392259538,-0.0004202304407954,0.0011844206601381
1772638988924280300,1.4452802734375,-0.0005070510087534,0.0005404613912105,0.0009844442829489
1772638988934325500,1.455325439453125,-0.0004503256641328,0.0004038412589579,0.0004171910695731
1772638988944371500,1.465371337890625,-0.0010275904787704,0.0001265220344066,-0.000827117357403
1772638988954416600,1.475416748046875,-0.0018366588046774,-7.50795006752e-05,-0.0005922261625528
1772638988964462600,1.485462646484375,0.0001076238695532,-0.0003834753297269,-0.0006687412969768
1772638988974508500,1.495508544921875,5.83553919568e-05,-0.0016189157031476,-5.62141649425e-05
1772638988984553200,1.50555322265625,0.0003972506383433,-0.0001534139737486,0.0019370433874428
1772638988994599400,1.515599365234375,1.02934427559e-05,0.0021054791286587,0.0010041380301117
1772638989004645400,1.525645263671875,-0.0001289618667215,0.0008668629452586,-0.0001850724220275
1772638989014690300,1.535690185546875,4.38772840425e-05,0.0008546125609427,-0.0020745848305523
1772638989024736500,1.545736572265625,-4.51422529295e-05,0.0019132082816213,-0.0002872222103178
1772638989034782500,1.555782470703125,0.0007801713654771,0.0003158440813422,-0.0001103882677853
1772638989044827400,1.565827392578125,0.0008763789664953,0.0014904085546731,-0.0009241364896297
1772638989054873300,1.575873291015625,-0.0007574703777208,-0.000142375472933,-0.0013174857012927
1772638989064919600,1.58591943359375,-0.0001928318524733,0.0017988707404583,0.0002803825773298
1772638989074964500,1.595964599609375,0.0003360719420015,-0.0002048918977379,0.0009032958187162
1772638989085010400,1.606010498046875,0.000571621232666,-0.0001363307237625,-0.0001524467952549
1772638989095056600,1.616056640625,0.0001463145017623,0.0001776558347046,-0.000327150337398
1772638989105101300,1.626101318359375,0.000703738303855,0.0013873458374291,0.0007336065173149
1772638989115147300,1.636147216796875,-0.000354335643351,-0.000562887173146,-0.0008831983432173
1772638989125192400,1.6461923828125,0.0004360047169029,-0.0014960914850234,-0.0008428427390754
1772638989135238400,1.65623828125,-0.0002742602955549,0.0002485453151166,-0.0016833366826176
1772638989145284400,1.666284423828125,-0.0008081179694272,-0.0009140209294855,0.0010897102765738
1772638989155329500,1.67632958984375,-0.0009878813289105,0.0010410055983811,0.0003408291377127
1772638989165375500,1.68637548828125,-8.8257715106e-05,-0.0002360292710363,0.0012941174209117
1772638989175421400,1.69642138671875,6.43413513898e-05,0.0010470817796885,-0.0024383030831813
1772638989185466600,1.706466552734375,3.69835179299e-05,0.0012722346000373,0.0002650106325745
1772638989195512600,1.7165126953125,-0.0005989792989566,-0.0003059548325836,0.0013819402083754
1772638989205558500,1.72655859375,0.0003271898021921,-0.0006546950899064,0.0009672418236732
1772638989215603500,1.736603515625,-0.0021415604278445,0.0006771518383175,0.0008916081860661
1772638989225649400,1.7466494140625,-0.001174944685772,0.0007092191372066,0.0004055243916809
1772638989235695400,1.7566953125,-0.0008247389341704,0.001789663452655,-2.16467306017e-05
1772638989245740300,1.766740234375,-0.0005667631048709,0.001204949337989,0.0014591049402952
1772638989255786500,1.776786376953125,0.0008407174609601,-0.0003338251262903,0.000146965496242
1772638989265832400,1.78683251953125,-0.000875556259416,0.0001251408830285,0.0019088475964963
1772638989275877400,1.79687744140625,-0.0004627662710845,-0.0002088192850351,0.0011969846673309
1772638989285923600,1.806923583984375,-0.0006163609214127,0.0009710185695439,-0.0004635495133697
1772638989295968500,1.816968505859375,0.0031458865851163,0.000303098000586,5.20385801792e-05
1772638989306014500,1.827014404296875,0.000245297094807,0.0005898817908018,-0.0008211703971028
1772638989316060400,1.837060302734375,0.0012767394073307,0.000944881234318,-0.0024052187800407
1772638989326105300,1.847105224609375,0.0001688185147941,-0.001873031258583,-0.0011328323744237
1772638989336151300,1.8571513671875,0.0020221122540533,0.0006516454741358,0.0007324460893869
1772638989346197200,1.867197265625,0.001406461931765,0.000574180856347,0.0002362332306802
1772638989356242400,1.877242431640625,-0.0002606769558042,0.0007512809243053,0.0012080208398401
1772638989366288400,1.887288330078125,0.0008551857899874,-0.0003033322282135,0.0017355112358927
1772638989376334300,1.897334228515625,-0.0012766746804118,-0.0004311637021601,0.0005309637635946
1772638989386379500,1.907379638671875,0.0007225073641166,0.0007366484496742,-0.0002454100176692
1772638989396425500,1.917425537109375,4.39339783042e-05,-0.0005909372121095,0.0008028103038668
1772638989406471400,1.927471435546875,0.0026152359787374,0.0008363670203834,0.0009406022727489
1772638989416516600,1.9375166015625,0.001763823442161,-0.0002001351676881,0.0019278363324701
1772638989426562600,1.9475625,0.0012748070294037,-0.001025266945362,-0.0020001172088086
1772638989436608500,1.9576083984375,0.0006897106068208,0.0005353456363081,-0.0002863723784685
1772638989446653400,1.9676533203125,-0.0001417874591425,-0.0002168351784348,0.0002063931897282
1772638989456699400,1.977699462890625,0.0012861994327977,-0.0017084716819226,-0.0009709899313747
1772638989466744300,1.987744384765625,0.0007019023178145,0.0006568019744008,-0.001056533306837
1772638989476790500,1.99779052734375,-6.80175144225e-05,-7.6568685472e-06,0.0007424321956932
1772638989486836500,2.00783642578125,0.000448599923402,-0.0004413430579006,0.0011232895776629
1772638989496881400,2.01788134765625,-0.0008425005362369,-7.40932300686e-05,-0.0001004328951239
1772638989506927600,2.027927734375,0.0003163539804518,0.0004315578844398,-0.000113352201879
1772638989516973600,2.0379736328125,-9.77675663307e-05,0.0005162465386092,0.0020009316504001
1772638989527018500,2.0480185546875,-0.0025165358092635,0.0001571867614984,0.0003985972143709
1772638989537064200,2.058064208984375,0.0002997568808495,0.0008820993825793,-0.0011114152148365
1772638989547110100,2.068110107421875,-0.0002475517103448,-0.0004279012791812,-0.0001393118873238
1772638989557155000,2.078155029296875,-0.0007631396874785,-0.0001043272204697,0.0009318115189671
1772638989567201000,2.088200927734375,0.00061714311596,-0.0009246855042874,-0.0001784665510058
1772638989577247200,2.098247314453125,0.0007023642538115,-0.0006450535729527,-0.0004594298079609
1772638989587292000,2.1082919921875,0.0007119318470358,-0.0005824915133416,0.0005639656446874
1772638989597337900,2.118337890625,0.0010786491911858,0.0005970227066427,0.0005658296868205
1772638989607384000,2.128384033203125,-0.0008361029322259,-0.0012136320583522,-0.0010216459631919
1772638989617429000,2.138428955078125,-0.0003719138912856,7.05444253981e-05,0.0004918281920254
1772638989627475000,2.148474853515625,0.0011881480459123,0.0008693104609847,0.0011288030073046
1772638989637520100,2.15852001953125,0.000240062829107,-0.0005541490390896,-0.0005963928997516
1772638989647566000,2.168566162109375,0.0001348431687802,9.82210040092e-05,-0.0006733196787536
1772638989657612000,2.178612060546875,0.0020720264874398,0.0002976916730403,-0.0016091549769043
1772638989667657200,2.1886572265625,-0.0009688824648037,0.0002600802108645,-0.0004760865122079
1772638989677703200,2.198703125,-0.0001888425322249,0.0005503648426383,0.0001739910803735
1772638989687749000,2.2087490234375,-0.001123969326727,0.0012929220683872,-0.0001117307692766
1772638989697794000,2.2187939453125,0.0012281346134841,5.8161094784e-06,0.0004400759935379
1772638989707840000,2.228840087890625,-0.0009488752111792,-0.0001353360712528,0.0009746323339641
1772638989717886000,2.238885986328125,-0.0009960131719708,-0.0003300132229924,-0.0006413734517991
1772638989727931100,2.24893115234375,-0.00012351362966,-2.73087061941e-05,0.0001333313994109
1772638989737977000,2.25897705078125,-0.0016191449249163,-0.0009564855135977,-2.53929756581e-05
1772638989748023000,2.26902294921875,0.0008760555647313,0.0003122945781797,-9.2979054898e-05
1772638989758068000,2.27906787109375,1.55882444232e-05,-0.0006509707309305,0.0008100988343358
1772638989768114200,2.2891142578125,0.0013399126473814,0.0001711822114884,0.0004334114491939
1772638989778159000,2.2991591796875,-0.0003043229226022,0.0013773278333246,0.000249387230724
1772638989788205000,2.309205078125,-0.0007111242739483,-0.0011011874303221,-0.0014837854541838
1772638989798251300,2.319251220703125,-0.0018461635336279,-0.0004596319049596,-0.0004326356574892
1772638989808296000,2.3292958984375,-0.0011684140190482,0.000303341075778,-0.0010863291099667
1772638989818342000,2.339341796875,-0.0006935723358765,0.0004362328909337,7.4314884841e-06
1772638989828388000,2.34938818359375,-3.03458655253e-05,0.0007490280549973,-5.88414259254e-05
1772638989838433000,2.35943310546875,0.0013824611669406,5.36767765879e-05,-0.0011605909094214
1772638989848479000,2.36947900390625,-0.001391913043335,-0.0001555792987346,-0.0007812269032001
1772638989858525000,2.37952490234375,-0.0001399610191583,-0.0012815641239285,-0.0004549897275865
1772638989868570000,2.389570068359375,-0.0019090117421001,0.0001682299189269,-0.0008024205453693
1772638989878616000,2.399615966796875,-0.0003310887841507,-0.0001377672888338,-0.0008982946164906
1772638989888662000,2.409662109375,0.0004932779120281,-0.0001208973117172,0.0003208750858902
1772638989898707200,2.419707275390625,-9.31501854211e-05,0.0002111990470439,0.0001706727780401
1772638989908753200,2.429753173828125,0.0005816277116537,-0.0013288995251059,0.000976481474936
1772638989918798000,2.439798095703125,-0.0005496829980984,0.0007584861014038,0.0002129529602825
1772638989928844000,2.449843994140625,0.000933670788072,0.0006786116864532,-0.0006054248660802
1772638989938890000,2.459889892578125,0.0004827977390959,0.0009284161496907,0.0006603756919503
1772638989948935000,2.469934814453125,0.0007974456530064,0.0015380936674773,-0.0022148322314023
1772638989958981000,2.479981201171875,0.0017545856535434,1.52983702719e-05,-0.0002491530030965
1772638989969027000,2.490027099609375,-0.0005124704912304,0.0009738449007272,0.001506445929408
1772638989979072000,2.500072021484375,0.0001533197937533,0.0003120494075119,0.0001751314848661
1772638989989118200,2.5101181640625,0.0008908583549782,0.0005013574846088,-0.0001333584077656
1772638989999164200,2.5201640625,0.0003113545244559,-0.0007926723919808,0.0003028670325875
1772638990009209000,2.530208984375,-0.0004988756263628,0.0004294461105018,0.0003553540445864
1772638990019255000,2.540255126953125,-2.45666597038e-05,0.0008307844400405,-0.0006305482238531
1772638990029301200,2.55030126953125,-0.0012712283059954,-0.0008577802218496,0.0002360767684876
1772638990039346000,2.560345947265625,-0.0002933156210929,0.0002847157884389,-0.0013538310304284
1772638990049391900,2.570391845703125,0.0003986848751083,-4.09302301704e-05,-0.0020361123606562
1772638990059437000,2.58043701171875,-0.0003102485788986,-0.0010601221583783,-0.0007668496109545
1772638990069483000,2.59048291015625,-0.0003431726945564,0.0003993248101323,-0.0002148691564798
1772638990079529000,2.600529052734375,0.0006035809637978,-0.0004648710601031,-0.000767208635807
1772638990089574100,2.61057421875,-0.0002146752085536,0.0006151867564767,-0.0009309677407145
1772638990099620000,2.6206201171875,-0.0004674091469496,0.000982702942565,-0.0012638629414141
1772638990109666000,2.630666015625,0.0002210172824561,-0.0005835443735122,-0.0010052346624433
1772638990119711200,2.640711181640625,0.0005722881760448,0.0005634792614728,0.000444590114057
1772638990129757200,2.650757080078125,6.49556750431e-05,-0.0004772329702973,0.000401556957513
1772638990139803100,2.66080322265625,-0.0002077519893646,-0.0001488649286329,-0.0010115164332091
1772638990149848000,2.67084814453125,-7.76811502873e-05,0.0017644423060119,0.0006947163492441
1772638990159894000,2.68089404296875,-0.0002049802569672,-0.0001493054442107,0.0003085578791797
1772638990169940000,2.69093994140625,0.0003715178463608,0.0009310136083513,0.0001888549886643
1772638990179985200,2.700985107421875,-0.001145418616943,7.05462880432e-05,0.0008642328903079
1772638990190031000,2.711031005859375,0.0009528613882139,0.0002815439365804,-2.74190679192e-05
1772638990200077000,2.7210771484375,-0.0012823296710848,-0.0002391040325164,0.0006389040499925
1772638990210122000,2.7311220703125,-0.0005161571316421,0.0005599788855761,0.0007932898588478
1772638990220168200,2.741168212890625,-2.34722392633e-05,-0.0008986345492303,0.0007370971143245
1772638990230213000,2.751213134765625,0.0003271618625149,-0.0001441403292119,0.0002310057170689
1772638990240259000,2.761259033203125,-0.0001783061306923,0.0001629223115742,0.0008933339267969
1772638990250305300,2.77130517578125,0.000260631670244,-0.0010742014274001,0.0013103857636451
1772638990260350000,2.781349853515625,0.0010936682811006,0.0005117109976708,-3.26461158692e-05
1772638990270396000,2.79139599609375,0.0006184651283547,-0.0002343878149986,0.0004505701363086
1772638990280442000,2.801442138671875,-0.001459333114326,0.0011256884317845,-0.0001912512816488
1772638990290487000,2.811487060546875,-0.0006828206824138,1.16056762635e-05,0.000512218568474
1772638990300533000,2.821532958984375,0.0002444919664412,0.0008821932133287,0.0007588271982967
1772638990310579000,2.831578857421875,-0.0002146472688764,-8.62809829413e-05,0.0013751504011452
1772638990320624000,2.8416240234375,0.0008620687294751,0.0003046710044145,-0.0006243507377803
1772638990330670000,2.851670166015625,-0.0002636089920997,0.0026024761609733,-0.0003256681375205
1772638990340716000,2.861716064453125,0.0012160432524979,-0.000210887286812,0.001471965573728
1772638990350761200,2.87176123046875,-0.0005917459493502,-0.0004833815619349,-0.0007550050504505
1772638990360807200,2.88180712890625,0.000823191483505,0.0009541930630803,0.0001893518492579
1772638990370852000,2.89185205078125,-0.0002856379142031,0.000406940234825,0.0004604277200996
1772638990380898000,2.90189794921875,-6.83239195495e-05,0.0001057367771863,0.0024364935234189
1772638990390944000,2.911944091796875,0.0003063639160245,-0.0011251042596995,7.19740055501e-05
1772638990400989000,2.921989013671875,0.0001766680506989,0.0001761163584887,1.68466940522e-05
1772638990411035100,2.93203515625,-9.31122340261e-05,-0.0007401714101433,-0.0004693563096225
1772638990421081000,2.9420810546875,-0.0007876646122895,0.000160776078701,0.0007090922445058
1772638990431126000,2.9521259765625,-0.0008977105608209,0.001109845470637,-0.0004008458927273
1772638990441172200,2.962172119140625,0.0004799426533281,-0.0003775297664105,0.0013741510920226
1772638990451218200,2.97221826171875,0.0001672863727435,-0.0009335600771009,-0.0013921782374382
1772638990461263000,2.98226318359375,-0.0001347160432487,-0.0001223608851432,0.000935957301408
1772638990471309000,2.99230908203125,0.0011428032303228,0.0003931622486561,0.0007668221369385
1772638990481355000,3.00235498046875,-0.0008439149241894,-0.0015062042511999,0.0012560444884002
1772638990491400000,3.01239990234375,-0.000546843628399,-0.0010577458888292,0.0008281809277832
1772638990501446000,3.02244580078125,0.0004073668969795,-0.0018489710055291,0.0001703803427517
1772638990511491000,3.032490966796875,-1.88099220395e-05,-5.99911436438e-05,-0.0014028693549335
1772638990521537000,3.042537109375,0.000942058628425,0.000633229734376,0.0006333836354315
1772638990531583000,3.0525830078125,0.0002830480225384,-0.0004116636700928,-0.001342037692666
1772638990541627400,3.06262744140625,0.0001051488798111,-0.0007890337146818,-6.9956295192e-06
1772638990551673300,3.07267333984375,0.0002792623126879,-0.000145788770169,-0.0010166927240788
1772638990561719300,3.08271923828125,-0.0004914564779028,-0.0011647138744592,0.0003881244920194
1772638990571764200,3.09276416015625,-0.0004571464378386,0.0007423120550811,0.0006419066339731
1772638990581810200,3.10281005859375,0.0004587145522236,6.90650194883e-05,0.0020896010100841
1772638990591856000,3.112856201171875,0.000141090946272,-0.0009130225516855,0.0001794742420315
1772638990601901300,3.1229013671875,0.00132806180045,-0.0011396575719118,0.0010114456526935
1772638990611947300,3.132947265625,-0.0009471499943174,-0.0007023597136139,0.0005006087012588
1772638990621993200,3.1429931640625,7.55038345232e-05,-0.0002283169887959,0.0008582714945077
1772638990632038400,3.153038330078125,-6.68661668896e-05,0.0002009843010455,0.000215864740312
1772638990642084400,3.16308447265625,-0.0001190641196444,0.0007424049545079,0.0004038838669657
1772638990652129500,3.173129638671875,0.0004913705633953,-0.002172328531742,0.0002941391430795
1772638990662175500,3.183175537109375,-0.000784816336818,-0.0004415400326251,-0.0001141233369708
1772638990672221400,3.193221435546875,0.0015008945483714,-0.0008374415338039,0.0011887913569808
1772638990682266000,3.20326611328125,0.0009983561467379,4.35323454439e-05,-0.0013044602237641
1772638990692312300,3.213312255859375,0.000873893382959,0.000578689854592,-0.0002799094654619
1772638990702358300,3.223358154296875,-0.0001050847349688,0.0001091747544705,0.0001017213799059
1772638990712403200,3.2334033203125,0.0002964349696412,-0.0006502955220639,-0.0010469895787537
1772638990722449400,3.243449462890625,0.001688469084911,-0.0007272609509527,0.0009280107915401
1772638990732495400,3.253495361328125,-1.28739047795e-05,-0.0009519648738205,0.000514012761414
1772638990742540300,3.263540283203125,-0.0007066273828968,-0.0014438508078455,-0.0011419407092034
1772638990752586200,3.273586181640625,0.0003764533903449,-2.87103466689e-05,-0.0005549704656004
1772638990762632400,3.283632568359375,0.0015557010192424,0.0003651708830147,0.0002692779526114
1772638990772677400,3.293677490234375,0.001181045663543,-0.0009300159290432,-0.0001063183881342
1772638990782723300,3.303723388671875,0.000518184970133,-0.0003036404959857,0.0001799711026251
1772638990792768300,3.313768310546875,0.0002971774665638,1.19865871965e-05,-0.0006119841709733
1772638990802814200,3.323814208984375,8.51899385452e-05,-0.0010458207689225,-0.0005541932769119
1772638990812860200,3.333860107421875,-0.0007580702658742,0.0010289305355399,0.0026262183673679
1772638990822905300,3.3439052734375,-0.0002773696323856,0.0002590105868875,-6.83679245412e-05
1772638990832951300,3.353951416015625,0.0003326905425637,-0.0009829802438616,-0.0008376985788345
1772638990842997200,3.363997314453125,0.0003476040437817,-0.0014477018266916,-0.0003285021521151
1772638990853042400,3.37404248046875,0.000196021865122,-0.0007667490281164,0.0003366195596754
1772638990863088400,3.38408837890625,0.0007190668256953,0.0004340703599154,0.0005392860621213
1772638990873134300,3.39413427734375,-0.0005211078096181,0.0009347510058432,0.0001933062449097
1772638990883179500,3.404179443359375,0.0011905058054253,-0.0001891027204692,-4.69107180833e-05
1772638990893225500,3.4142255859375,0.0009046492632478,-0.0012640641070902,-0.0005387053824961
1772638990903271200,3.424271240234375,0.0008492555934935,-0.0005372874438762,0.0010165804997086
1772638990913316400,3.43431640625,0.0005277583841234,-3.22493724524e-05,-0.000429505482316
1772638990923362300,3.4443623046875,0.0002420013770461,-0.0004644803702831,-0.0002215127460658
1772638990933407200,3.4544072265625,-0.0008758445037528,0.0006827129982411,0.001106830779463
1772638990943453200,3.464453125,0.0005662572802975,-0.000655791722238,5.96758909523e-05
1772638990953499400,3.47449951171875,0.0003525430802255,0.0003069203812628,0.0002856869250535
1772638990963544300,3.48454443359375,0.0003722505643963,-0.0007317126728594,0.0002739690244197
1772638990973590300,3.49459033203125,0.000407920917496,-0.0011825701221823,0.0006502345204353
1772638990983636500,3.504636474609375,-0.0004746506456285,-1.7248094081e-06,0.0002387762069702
1772638990993681400,3.514681396484375,-0.0008632655953988,-0.0005619376897811,3.69655899703e-05
1772638991003727000,3.52472705078125,-0.000148739432916,0.0009613903239369,-5.911104381e-06
1772638991013773300,3.534773193359375,-8.43653688207e-05,0.000114619731903,-0.0002329717390239
1772638991023818200,3.544818359375,0.0012211161665618,0.0004094315227121,0.0005063218995928
1772638991033864200,3.5548642578125,0.0003603575751185,0.0001271734945476,-0.0008914712816476
1772638991043910100,3.56491015625,0.0001092215534299,0.0001338315196335,0.0007540960796177
1772638991053955300,3.574955322265625,-0.0014965729787945,0.0002915705554187,-0.0011810129508376
1772638991064001300,3.585001220703125,-0.0001005439553409,-0.0005499883554875,-0.0005650236271321
1772638991074046500,3.59504638671875,-0.0011370977154001,-0.0006830636411905,-0.0003842748701572
1772638991084092400,3.605092529296875,0.0007763835601508,0.0008415959309786,-5.21787442266e-05
1772638991094138400,3.615138427734375,-0.0011255777208134,-0.0001331488601863,-6.88056461513e-05
1772638991104183300,3.625183349609375,-0.000110913417302,-3.19490209221e-05,-0.0001955721527338
1772638991114229200,3.635229248046875,0.0015869501512497,8.14092345535e-05,-0.0012023006565868
1772638991124275200,3.645275146484375,0.0001397884916514,0.0008297574240714,0.0004746918566524
1772638991134320400,3.6553203125,0.0006681329105049,-0.0016015050932765,4.97163273394e-05
1772638991144366300,3.665366455078125,-0.0008237698348239,0.0004195678047835,0.0007988633587956
1772638991154412300,3.675412353515625,-0.0010354164987802,0.000300180632621,0.0001453440636396
1772638991164457200,3.685457275390625,6.12733419984e-05,0.0006194938905537,0.000596750061959
1772638991174503400,3.69550341796875,-1.02864578366e-05,0.0010224836878478,5.39305619895e-05
1772638991184549400,3.70554931640625,0.0010845388751477,0.0006309989839792,-0.0010534119792282
1772638991194594300,3.71559423828125,-0.0003198257181793,0.0007457670290023,4.02899459004e-05
1772638991204640500,3.725640625,0.0003701993264257,0.0002277824096381,0.0001313700340688
1772638991214686500,3.7356865234375,0.0005217930302023,0.0009639230556786,-0.0010020299814641
1772638991224731100,3.745731201171875,0.0003809118643403,0.000377494841814,-0.0011769994162023
1772638991234777000,3.755777099609375,0.000993289751932,0.0019326179753988,-9.31206159293e-05
1772638991244822300,3.765822265625,-0.0008022135589271,0.0002894476056098,-0.0008601113222539
1772638991254868200,3.7758681640625,0.0001888393890112,-0.0006409799680113,0.000975155737251
1772638991264914200,3.7859140625,2.77180224657e-05,0.0014994025696069,0.0005956552922725
1772638991274959400,3.79595947265625,0.0006982353515923,-0.0001090797595679,-0.0014900830574333
1772638991285005300,3.80600537109375,-0.000674890470691,0.0011577857658267,0.00043351855129
1772638991295051300,3.81605126953125,-0.0011566387256607,0.0008208383806049,0.0002954914234578
1772638991305096400,3.826096435546875,0.0005520454142242,-0.0006209970451891,9.22922044992e-05
1772638991315142400,3.836142333984375,0.0007673248182982,-0.0006158077158033,-0.0002104844897985
1772638991325188400,3.846188232421875,-0.0002302952343598,-0.0003681336529552,0.0005706208758056
1772638991335233300,3.8562333984375,-0.0006289244629442,0.001510206842795,0.0005853339098393
1772638991345279200,3.866279296875,-0.000941845937632,-0.000975854229182,1.67489051818e-05
1772638991355324200,3.87632421875,-0.0017500186804682,0.0003396780230104,-0.0002099177800118
1772638991365370400,3.886370361328125,-0.0001704979222267,0.0014214541297405,-0.0014437604695558
1772638991375416300,3.896416259765625,-0.0017796363681554,0.0003248550929129,0.0009713140316307
1772638991385461200,3.906461181640625,-0.000462436932139,0.0006236615590751,0.0001204339787364
1772638991395507500,3.916507568359375,-5.33210113644e-05,0.0006435057148337,-0.0006651026196777
1772638991405553400,3.926553466796875,6.38579949736e-05,0.0009500356391072,-0.0014296961016952
1772638991415598300,3.936598388671875,-0.0006403861334547,0.0005097207613289,-0.0016028410755097
1772638991425644300,3.946644287109375,0.000360429752618,-0.0006468901410698,0.0005900054238736
1772638991435690500,3.9566904296875,-0.0010108256246894,-0.0002878210507333,-0.0002028150483965
1772638991445735200,3.966735107421875,0.0014925457071512,-0.0002782335504889,-0.000345560722053
1772638991455781000,3.976781005859375,0.001639992929995,0.000658257631585,-0.0009997189044952
1772638991465826300,3.986826416015625,-0.0019752483349293,-0.0002163243480026,0.0006610285490751
1772638991475872300,3.996872314453125,-0.0008188395295292,0.0011299569159746,-0.0011147400364279
1772638991485918200,4.006918212890625,0.0004799840971827,-1.81319192051e-05,0.0004032617434859
1772638991495963400,4.01696337890625,-0.0018159325700253,7.40415416657e-05,-0.0010513989254832
1772638991506009300,4.02700927734375,0.000604880740866,-0.0003083883784711,-0.0008862828835844
1772638991516055300,4.03705517578125,-0.0012136995792388,0.0009017770644277,-0.0022062472999095
1772638991526100500,4.0471005859375,0.0013626425061374,0.0006578315515071,-0.0003976952284574
1772638991536146700,4.057146728515625,0.0004057341720908,-0.0007067597471177,0.0008918088860809
1772638991546192600,4.067192626953125,0.0006161238998174,0.0008525212761014,-0.0006344486027956
1772638991556237600,4.077237548828125,-0.0007407496450468,-0.0002023493871092,0.0007385541684925
1772638991566283500,4.087283447265625,0.0010022893548011,0.0013409524690359,-0.0002745119854807
1772638991576329500,4.09732958984375,-0.0015493826940655,0.0010235579684376,0.0017717075534164
1772638991586374400,4.10737451171875,0.0006170987617224,0.0010472601279616,0.0009908685460686
1772638991596420600,4.117420654296875,-0.0018950769444927,-0.0001985160633921,0.0003631920553743
1772638991606466600,4.127466552734375,0.0012858025729656,2.8918031603e-05,0.0002982108853757
1772638991616511500,4.137511474609375,-6.62787351757e-05,0.000859455903992,0.0006122621707618
1772638991626557700,4.1475576171875,-0.0004079623613506,-0.0002673277631402,-0.0004058643244206
1772638991636602600,4.1576025390625,-0.0006751053733751,-0.0011172844097018,-0.0003268811851739
1772638991646648600,4.167648681640625,0.0008418310899287,0.0003306760918349,0.0005144113674759
1772638991656694500,4.177694580078125,0.0007058472838252,-0.0005800416693091,-0.0005614212714135
1772638991666739500,4.187739501953125,-0.0001825832296162,-0.0010652695782482,-0.0015832763165235
1772638991676785400,4.197785400390625,6.36442564427e-05,0.0010657296516001,0.0014243437908589
1772638991686831400,4.207831298828125,-0.0018993717385455,-0.0011923643760383,0.0007268618792295
1772638991696876500,4.21787646484375,-0.0005838013021275,0.0011047089938074,0.0005836221389472
1772638991706922500,4.227922607421875,-0.0002897882368415,-0.0016942732036113,0.0018542162142693
1772638991716968400,4.237968505859375,-0.0002071387134492,0.0005189853254705,0.0001181405968964
1772638991727013600,4.248013671875,0.0001129731535911,-0.0002035303041338,4.75668348371e-05
1772638991737059600,4.2580595703125,0.0005270871333777,-0.0008993363007903,-0.0025750063359737
1772638991747104800,4.268104736328125,-0.0018412620993331,-3.75374220311e-05,-0.0007842970080673
1772638991757150700,4.278150634765625,0.0003639482893049,0.0002374018076807,-0.0001744572073221
1772638991767196700,4.28819677734375,-0.0004746810300275,-0.0003580809570848,0.0012599215842783
1772638991777241300,4.298241455078125,-0.0004574616905301,-0.0013819560408592,0.00050502223894
1772638991787287600,4.30828759765625,-0.0003946110373362,0.0015216886531561,-7.55470246076e-05
1772638991797333500,4.31833349609375,-0.0015778061933815,-0.0006353803910315,0.0001048245467245
1772638991807378400,4.32837841796875,-0.0003740573301911,-0.0002401671372354,-0.0008043786510825
1772638991817424600,4.338424560546875,-0.0007155555067583,-0.0016193259507417,0.0005355747416615
1772638991827470600,4.348470703125,0.0004831333644688,0.0012829871848225,-0.0006250306032598
1772638991837515500,4.358515625,0.0007798848673701,0.000625982414931,-7.21397809684e-05
1772638991847561500,4.3685615234375,9.75830480456e-05,0.0008430299349129,0.0013728914782404
1772638991857607700,4.378607666015625,-0.00130834011361,-0.000175449065864,-0.0002060229890048
1772638991867652600,4.388652587890625,-9.50039830058e-05,0.0009859555866569,0.0008323434740304
1772638991877698600,4.398698486328125,-9.14805568754e-05,4.51426021754e-05,0.001133298035711
1772638991887743500,4.408743408203125,-0.000448610400781,0.0006504792254418,-0.0013556922785937
1772638991897789400,4.41878955078125,-0.0006375699304044,-0.0004050987772643,-0.0009661535732448
1772638991907835400,4.42883544921875,-0.0003012127708643,-0.0001973723992705,-0.001698256470263
1772638991917880600,4.438880615234375,-0.0002580555155873,1.1236406862e-06,0.0002201623283326
1772638991927926500,4.448926513671875,0.0005435559432953,-0.0009506898932158,0.0011562635190784
1772638991937972500,4.458972412109375,0.0004919811617583,-0.0004383418709039,0.0003424915485084
1772638991948017700,4.469017578125,0.0003034293185919,0.0008261268958449,0.000333969015628
1772638991958063600,4.479063720703125,-0.0010458208853378,-0.0003715087659657,0.0002401550300419
1772638991968109600,4.489109619140625,-0.0001613851636648,0.0003155870363116,0.0004470823332667
1772638991978154800,4.49915478515625,-0.0016384635819122,0.0004737409763038,-0.00057660555467
1772638991988200700,4.50920068359375,-9.036809206e-05,0.0004199449904263,-0.0011345376260578
1772638991998245400,4.519245361328125,-0.0011118988040834,0.0005539592821151,-0.0003639026544988
1772638992008291600,4.52929150390625,-0.0004607560113072,0.001028002006933,-0.0012448760680854
1772638992018337500,4.539337646484375,-0.0004348594229668,-0.0001216647215187,-0.0007676035165786
1772638992028382500,4.549382568359375,0.0001550307497382,0.0007790164090692,0.0009141829796135
1772638992038428700,4.5594287109375,-0.0001154064666479,0.0011780213098973,-0.0004459265619516
1772638992048474600,4.569474609375,0.0002105643507093,-0.0001341183669865,-0.000139130745083
1772638992058519600,4.57951953125,0.0005307043902575,-0.0013539716601371,-0.0007376647554337
1772638992068565500,4.5895654296875,-0.0009201857028529,0.0001933251041918,0.0002463734708726
1772638992078611700,4.59961181640625,-0.000482531148009,-0.0004410897381603,0.0006240592338144
1772638992088656600,4.60965673828125,-0.0002028991002589,0.0003895501140505,-0.0007155109196901
1772638992098702600,4.61970263671875,-0.0008816085755825,-0.0009144465439021,0.0011286363005638
1772638992108748800,4.629748779296875,-0.0004491112194955,-0.0005573164671659,0.0008934792131185
1772638992118793500,4.63979345703125,-0.0012991712428629,0.0001136085484176,0.0005764276720583
1772638992128839400,4.64983935546875,-3.57676763087e-05,0.0002156076952815,0.0003535212017595
1772638992138884600,4.659884521484375,-0.0009625868406146,0.0010737704578787,-0.0006199260242283
1772638992148930600,4.6699306640625,0.0001500819344073,-0.0003121383488178,0.0003238981589674
1772638992158976500,4.6799765625,-0.000327970366925,-0.0003275773487985,0.0005921926349401
1772638992169021700,4.690021728515625,-0.0003008061321452,0.0002181041054427,-0.0004056934267282
1772638992179067600,4.700067626953125,-0.0002706230152398,-0.0001567043364048,-0.0014858520589768
1772638992189113600,4.710113525390625,-0.0014035317581146,0.000706159742549,8.8341999799e-05
1772638992199158800,4.72015869140625,-8.80975276231e-05,-0.0007409765385091,-0.0006972141563892
1772638992209204700,4.730204833984375,-0.000517931766808,0.0006614439189434,-0.0009648618288338
1772638992219250700,4.740250732421875,-0.0003147362731397,0.0002534077502787,0.0002660132013261
1772638992229295600,4.750295654296875,0.0003401350695639,-0.0004898803308606,0.0015360745601356
1772638992239341600,4.760341552734375,-0.0015153008280321,-0.0008455086499452,0.0014326707459986
1772638992249386500,4.770386474609375,5.86274545639e-05,-0.0005498980171978,-0.0023242505267262
1772638992259432400,4.780432373046875,-0.001361982896924,-0.0003400379791855,0.0007947157137095
1772638992269478700,4.790478759765625,0.0007496373727917,-0.0008660126477479,0.0016402695327997
1772638992279523600,4.800523681640625,-0.0008236183784902,-0.0002551111392676,-0.0001096073538064
1772638992289569500,4.810569580078125,-0.0010310786310583,-0.0008386098779737,0.0007708338089287
1772638992299615700,4.82061572265625,-0.0002858727239072,0.0003940071910619,0.0007175407372415
1772638992309660700,4.83066064453125,0.0003064142074435,6.27101399004e-05,0.0002022190019488
1772638992319706600,4.84070654296875,-0.0005339600611478,0.0012983023189008,0.001644323579967
1772638992329752300,4.85075244140625,-0.0011161271249875,-0.0010676500387489,-0.0007043182849884
1772638992339797500,4.860797607421875,-0.0004617385566234,-0.0006785322912037,-8.52462835609e-05
1772638992349843500,4.870843505859375,-0.0027291539590805,-7.71903432905e-05,0.0013816226273775
1772638992359889400,4.880889404296875,0.0003418598789721,0.0002105848398059,-5.04381023347e-05
1772638992369934600,4.8909345703125,-0.0009769374737516,0.0002523965667933,1.05486251413e-05
1772638992379980500,4.90098046875,-0.0012800426920875,0.0002699182368814,0.0006087846122682
1772638992390025700,4.911025634765625,-0.0003894816618412,-0.0013748500496149,0.0001704283058643
1772638992400071700,4.92107177734375,0.0026755519211292,0.0007443933282047,0.0004493417218327
1772638992410117600,4.93111767578125,0.0001577995717525,-0.0006545651704072,-0.0013608089648187
