time,seconds_elapsed,z,y,x
1772641305417579800,0.074579833984375,-0.1894896775484085,0.0436541698873043,-0.0875905156135559
1772641305427625700,0.084625732421875,-0.1911678165197372,0.0323503129184246,-0.0846202075481414
1772641305437670700,0.094670654296875,-0.1915366649627685,0.0195221304893493,-0.0816851407289505
1772641305447715600,0.104715576171875,-0.1900537014007568,0.0032825737725943,-0.0733465477824211
1772641305457761500,0.114761474609375,-0.1891945600509643,-0.0039873234927654,-0.0599090382456779
1772641305467806500,0.124806396484375,-0.1888352185487747,-0.0122887985780835,-0.0421045906841754
1772641305477851600,0.1348515625,-0.1867462247610092,-0.0220061391592025,-0.0159619357436895
1772641305487897600,0.144897705078125,-0.1835268884897232,-0.0328302904963493,0.0205448195338249
1772641305497942800,0.15494287109375,-0.180293008685112,-0.0470025688409805,0.0556274354457855
1772641305507987500,0.164987548828125,-0.1878782659769058,-0.0612349025905132,0.0864556655287742
1772641305518033400,0.175033447265625,-0.1974187791347503,-0.064713530242443,0.1086062416434288
1772641305528078600,0.18507861328125,-0.2072161585092544,-0.0692250505089759,0.1233968660235405
1772641305538123500,0.19512353515625,-0.2217953652143478,-0.0782030969858169,0.1303916573524475
1772641305548168700,0.205168701171875,-0.2410095185041427,-0.0930851101875305,0.1248033568263053
1772641305558214700,0.215214599609375,-0.2614063918590545,-0.0965855717658996,0.1029017865657806
1772641305568259800,0.225259765625,-0.2740964889526367,-0.0899743363261222,0.0650472715497016
1772641305578304500,0.235304443359375,-0.283638596534729,-0.0798817574977874,0.0176121108233928
1772641305588350500,0.2453505859375,-0.2848952114582062,-0.0633362010121345,-0.0351855494081974
1772641305598395600,0.255395751953125,-0.2800365388393402,-0.0343689993023872,-0.0802342519164085
1772641305608440600,0.265440673828125,-0.2683973014354706,0.0097348140552639,-0.1127699688076973
1772641305618486500,0.275486572265625,-0.2508989870548248,0.0537789724767208,-0.1381222009658813
1772641305628531700,0.28553173828125,-0.2392052710056305,0.1090215817093849,-0.1460093408823013
1772641305638576400,0.295576416015625,-0.2294144332408905,0.1532039493322372,-0.1466927081346511
1772641305648622600,0.30562255859375,-0.2221182137727737,0.1794078052043914,-0.1482036411762237
1772641305658667500,0.31566748046875,-0.2109518498182296,0.1808222085237503,-0.1437204778194427
1772641305668712700,0.325712646484375,-0.1964664310216903,0.1648789197206497,-0.1242456436157226
1772641305678758700,0.335758544921875,-0.1871893107891082,0.1353133022785186,-0.0910546705126762
1772641305688803600,0.345803466796875,-0.1818974465131759,0.0866936445236206,-0.0464695505797863
1772641305698848800,0.355848876953125,-0.1846980303525924,0.021090930327773,0.0025986596010625
1772641305708893400,0.3658935546875,-0.1928273439407348,-0.0464584864675998,0.050530195236206
1772641305718939600,0.375939697265625,-0.2118633389472961,-0.0882964804768562,0.093631587922573
1772641305728984600,0.385984619140625,-0.2272272855043411,-0.0961112603545188,0.1320135593414306
1772641305739029800,0.39602978515625,-0.2508569657802582,-0.0978937149047851,0.1586616784334182
1772641305749074700,0.40607470703125,-0.2716337740421295,-0.1001235768198967,0.1673648655414581
1772641305759120000,0.416119873046875,-0.2935579717159271,-0.1097349226474762,0.1596757769584655
1772641305769164800,0.426164794921875,-0.3090306222438812,-0.108121782541275,0.1398329585790634
1772641305779210800,0.436210693359375,-0.3137081861495971,-0.0865512415766716,0.1144788563251495
1772641305789255700,0.446255615234375,-0.3049282729625702,-0.0456179268658161,0.0793003588914871
1772641305799300600,0.456300537109375,-0.2845335304737091,0.0100514609366655,0.0416890680789947
1772641305809346600,0.4663466796875,-0.2578579783439636,0.0726972669363021,0.0027704327367246
1772641305819391700,0.476391845703125,-0.2253969609737396,0.1325677931308746,-0.0314988605678081
1772641305829436700,0.486436767578125,-0.1874409765005111,0.1958180069923401,-0.0596816129982471
1772641305839481900,0.49648193359375,-0.1513740420341491,0.256715714931488,-0.0748800039291381
1772641305849527800,0.50652783203125,-0.1204665526747703,0.295644074678421,-0.0782107040286064
1772641305859572700,0.51657275390625,-0.0857269540429115,0.3013916909694671,-0.0706438645720481
1772641305869617700,0.52661767578125,-0.0532963015139102,0.2806009352207184,-0.0458897836506366
1772641305879663600,0.53666357421875,-0.0156890079379081,0.2353500872850418,-0.004163107369095
1772641305889708800,0.546708740234375,0.0175406150519847,0.1859245002269745,0.0490514561533927
1772641305899753700,0.556753662109375,0.0447898134589195,0.1533252745866775,0.1140762642025947
1772641305909800000,0.566800048828125,0.0644916296005249,0.1146893948316574,0.1776775568723678
1772641305919844600,0.5768447265625,0.0829239040613174,0.0780349746346473,0.2265873104333877
1772641305929889800,0.586889892578125,0.0938128679990768,0.057519044727087,0.2637021541595459
1772641305939935700,0.596935791015625,0.109345756471157,0.0420767068862915,0.2845158278942108
1772641305949980700,0.606980712890625,0.1308833956718444,0.0250649638473987,0.2940438389778137
1772641305960025900,0.61702587890625,0.1569544076919555,0.0028398211579769,0.290242999792099
1772641305970071800,0.62707177734375,0.186096653342247,-0.0203138347715139,0.2869352400302887
1772641305980116700,0.63711669921875,0.2104403525590896,-0.0399972572922706,0.2732630968093872
1772641305990161700,0.64716162109375,0.2305497676134109,-0.0531015396118164,0.255324125289917
1772641306000206600,0.65720654296875,0.2399288862943649,-0.0627150163054466,0.2310978770256042
1772641306010252800,0.667252685546875,0.2459855079650879,-0.0567542687058448,0.211651861667633
1772641306020297700,0.677297607421875,0.2518130242824554,-0.0339157953858375,0.1944960504770279
1772641306030343000,0.687343017578125,0.2610108256340027,-0.0175302308052778,0.1786331385374069
1772641306040388900,0.697388916015625,0.2760158777236938,0.000444242497906,0.1693275272846222
1772641306050433500,0.70743359375,0.2981921434402466,0.0152247855439782,0.1715748310089111
1772641306060478700,0.717478759765625,0.3265633285045624,0.010740821249783,0.1920609325170517
1772641306070524700,0.727524658203125,0.3603893518447876,-0.0217765718698501,0.2343551069498062
1772641306080569900,0.73756982421875,0.3947806358337402,-0.0738038197159767,0.2959809303283691
1772641306090614800,0.74761474609375,0.4273153245449066,-0.1026863381266594,0.3790761828422546
1772641306100660700,0.75766064453125,0.4563997089862823,-0.1170626208186149,0.4666481018066406
1772641306110706000,0.767705810546875,0.4759636223316192,-0.146093338727951,0.5261262059211731
1772641306120750600,0.77775048828125,0.4748347103595733,-0.1938544660806656,0.5367093682289124
1772641306130795800,0.787795654296875,0.4630858600139618,-0.235472485423088,0.5054911375045776
1772641306140841700,0.797841796875,0.4458536207675934,-0.3132882118225097,0.4210718274116516
1772641306150886700,0.80788671875,0.4227552711963653,-0.4015970230102539,0.3010348081588745
1772641306160931800,0.817931884765625,0.4002180099487304,-0.469097763299942,0.1622731983661651
1772641306170977800,0.827977783203125,0.3860561549663543,-0.5115988850593567,0.0140302795916795
1772641306181022700,0.838022705078125,0.3690974116325378,-0.4996223747730255,-0.1252354681491851
1772641306191067600,0.848067626953125,0.3661252856254577,-0.4300092160701751,-0.247123897075653
1772641306201113600,0.858113525390625,0.3838954865932464,-0.2717617750167846,-0.3196566998958587
1772641306211158800,0.86815869140625,0.4187425971031189,-0.0893989652395248,-0.3504347503185272
1772641306221203700,0.87820361328125,0.4729485809803009,0.0869755372405052,-0.3301153779029846
1772641306231250000,0.88825,0.5392851829528809,0.2281699478626251,-0.2665381729602813
1772641306241294600,0.898294677734375,0.5914117693901062,0.3408293724060058,-0.1774183958768844
1772641306251339800,0.90833984375,0.6281160116195679,0.4259931445121765,-0.0619666390120983
1772641306261384700,0.918384765625,0.6379779577255249,0.4511767923831939,0.0503681600093841
1772641306271430700,0.9284306640625,0.6239015460014343,0.4256454110145569,0.1537834554910659
1772641306281475800,0.938475830078125,0.5949865579605103,0.3645578026771545,0.2313107401132583
1772641306291520800,0.948520751953125,0.5449129343032837,0.2747467756271362,0.2805024683475494
1772641306301566700,0.958566650390625,0.4849486947059631,0.1890957802534103,0.3090768754482269
1772641306311611600,0.968611572265625,0.4189812242984772,0.1135458946228027,0.3242579102516174
1772641306321656600,0.978656494140625,0.3590430617332458,0.0571145787835121,0.3257705867290497
1772641306331702800,0.988702880859375,0.3093147575855255,0.0235810540616512,0.3137846887111664
1772641306341747700,0.998747802734375,0.266910582780838,-0.0078612910583615,0.283993512392044
1772641306351793000,1.00879296875,0.2325412929058075,-0.0253391489386558,0.2210203856229782
1772641306361838800,1.0188388671875,0.2020467668771743,-0.0422084107995033,0.13248972594738
1772641306371883500,1.028883544921875,0.1834131777286529,-0.0390313267707824,0.0323434621095657
1772641306381928700,1.0389287109375,0.1654251217842102,-0.0123403295874595,-0.0811317041516304
1772641306391973600,1.0489736328125,0.1497603803873062,0.0320880524814128,-0.1938308477401733
1772641306402019800,1.059019775390625,0.1286297887563705,0.0907244682312011,-0.3058929443359375
1772641306412064800,1.069064697265625,0.1047786399722099,0.1383983045816421,-0.428990364074707
1772641306422110000,1.07910986328125,0.0796575769782066,0.164404347538948,-0.554132342338562
1772641306432156000,1.089156005859375,0.0577109903097152,0.1907854825258255,-0.6485888361930847
1772641306442200600,1.09920068359375,0.0404534414410591,0.2243565022945404,-0.713636040687561
1772641306452245800,1.109245849609375,0.0266724117100238,0.2696214318275451,-0.7498874664306641
1772641306462291700,1.119291748046875,0.0125728379935026,0.3388151526451111,-0.7476394772529602
1772641306472337000,1.1293369140625,-0.0129680624231696,0.3938437402248382,-0.7257195115089417
1772641306482381800,1.1393818359375,-0.019975371658802,0.4153346717357635,-0.6847150921821594
1772641306492427800,1.149427734375,0.0056297141127288,0.4160172343254089,-0.6097646355628967
1772641306502472700,1.15947265625,0.0688859149813652,0.3997112214565277,-0.5006408095359802
1772641306512517600,1.169517578125,0.1434196531772613,0.3602113425731659,-0.3697781562805176
1772641306522562800,1.179562744140625,0.2006800174713134,0.3279279470443725,-0.2383338809013366
1772641306532608800,1.18960888671875,0.2420713305473327,0.2974452972412109,-0.1215740442276001
1772641306542653700,1.19965380859375,0.2697860598564148,0.2575719058513641,-0.0157362893223762
1772641306552699000,1.209698974609375,0.2726130783557892,0.2125696241855621,0.0686243176460266
1772641306562744800,1.219744873046875,0.2587478756904602,0.1605772525072097,0.1317460238933563
1772641306572789800,1.229789794921875,0.2398291528224945,0.1057404428720474,0.1737473756074905
1772641306582834700,1.239834716796875,0.2060011476278305,0.0560522451996803,0.1933066993951797
1772641306592880600,1.249880615234375,0.177304983139038,0.0076251216232776,0.1951660066843032
1772641306602925800,1.25992578125,0.1374438405036926,-0.0360275506973266,0.1809615045785904
1772641306612970800,1.269970703125,0.0992518365383148,-0.0450338907539844,0.153212085366249
1772641306623015700,1.280015625,0.0693519935011863,-0.0174427442252635,0.1132806465029716
1772641306633061600,1.2900615234375,0.0487357005476951,0.0275964997708797,0.0642469599843025
1772641306643106800,1.30010693359375,0.0321452729403972,0.071185790002346,0.0118340849876403
1772641306653151700,1.31015185546875,0.0236691366881132,0.1000121086835861,-0.0376356989145278
1772641306663197700,1.32019775390625,0.0184496082365512,0.1056694611907005,-0.0922411531209945
1772641306673243000,1.330242919921875,0.0062880725599825,0.0895247235894203,-0.1399569511413574
1772641306683287600,1.34028759765625,-0.0207051951438188,0.0589676089584827,-0.1841475814580917
1772641306693333500,1.35033349609375,-0.0247475150972604,0.0122624170035123,-0.2104630917310714
1772641306703378700,1.360378662109375,-0.029184341430664,-0.0404231622815132,-0.2267219573259353
1772641306713423600,1.370423583984375,-0.0361151024699211,-0.091783694922924,-0.2362723499536514
1772641306723469800,1.3804697265625,-0.0419317111372947,-0.1429283618927002,-0.2354363948106765
1772641306733514800,1.3905146484375,-0.0504972077906131,-0.1840792000293731,-0.229622945189476
1772641306743560000,1.400559814453125,-0.0564459115266799,-0.2025879025459289,-0.215234950184822
1772641306753605400,1.41060546875,-0.0615973733365535,-0.1874574124813079,-0.1924512237310409
1772641306763651300,1.4206513671875,-0.0626021847128868,-0.1432928889989853,-0.163320243358612
1772641306773696500,1.430696533203125,-0.0541783720254898,-0.0773606747388839,-0.129237487912178
1772641306783741400,1.440741455078125,-0.0431994907557964,0.0014222867321223,-0.1009200885891914
1772641306793787400,1.450787353515625,-0.023286860436201,0.0652754977345466,-0.0664126425981521
1772641306803832300,1.460832275390625,0.0005324515514075,0.121851161122322,-0.0367564745247364
1772641306813877200,1.470877197265625,0.007958410307765,0.1590680330991745,-0.0170759800821542
1772641306823923500,1.48092333984375,-0.0017613290110602,0.1799384355545044,-0.0078750252723693
1772641306833968400,1.490968505859375,-0.0226514302194118,0.1948878169059753,-0.0107805337756872
1772641306844013600,1.501013671875,-0.0471027120947837,0.2040810585021972,-0.0266087651252746
1772641306854059500,1.5110595703125,-0.0667190849781036,0.2152426242828369,-0.0482321940362453
1772641306864104200,1.521104248046875,-0.0846331045031547,0.2249317467212677,-0.0661728456616401
1772641306874149400,1.5311494140625,-0.1013487577438354,0.2279044985771179,-0.0841982513666153
1772641306884194300,1.5411943359375,-0.1121862232685089,0.2074793875217437,-0.1081118434667587
1772641306894240300,1.551240234375,-0.1269096583127975,0.1652116775512695,-0.142169713973999
1772641306904285400,1.561285400390625,-0.1442148834466934,0.126581996679306,-0.1824846416711807
1772641306914330400,1.571330322265625,-0.1565554589033126,0.1090553998947143,-0.2077554166316986
1772641306924376300,1.581376220703125,-0.159855917096138,0.0989076942205429,-0.2247578501701355
1772641306934421200,1.591421142578125,-0.1586825251579284,0.0914684161543846,-0.2330908775329589
1772641306944466400,1.601466552734375,-0.1498938351869583,0.0882124379277229,-0.2314234673976898
1772641306954512400,1.611512451171875,-0.1307180076837539,0.0819767192006111,-0.219834491610527
1772641306964557300,1.621557373046875,-0.1146823167800903,0.0729270279407501,-0.1937272697687149
1772641306974602500,1.6316025390625,-0.1016907393932342,0.0429135374724864,-0.1579068601131439
1772641306984647200,1.641647216796875,-0.102775439620018,-0.0263496898114681,-0.1346239000558853
1772641306994693400,1.651693359375,-0.1186353713274002,-0.1237752363085746,-0.1281223893165588
1772641307004738300,1.66173828125,-0.1545582115650177,-0.2031244039535522,-0.1269367486238479
1772641307014783500,1.671783447265625,-0.2073225229978561,-0.251160979270935,-0.125235229730606
1772641307024829400,1.681829345703125,-0.2672990560531616,-0.2819841504096985,-0.1276203691959381
1772641307034874400,1.691874267578125,-0.3365235030651092,-0.317418485879898,-0.1443629413843155
1772641307044919300,1.701919189453125,-0.3938153088092804,-0.3511492908000946,-0.1752883642911911
1772641307054965200,1.71196533203125,-0.4477449655532837,-0.3828122615814209,-0.2259861379861831
1772641307065010400,1.722010498046875,-0.5053281188011169,-0.4005049765110016,-0.2867059409618377
1772641307075055400,1.732055419921875,-0.5555171966552734,-0.3859853446483612,-0.3312778174877167
1772641307085100300,1.742100341796875,-0.5826180577278137,-0.3408785760402679,-0.3339838683605194
1772641307095146500,1.752146484375,-0.5835888385772705,-0.2912939488887787,-0.2900517284870147
1772641307105191400,1.76219140625,-0.5517379641532898,-0.220196321606636,-0.1815138161182403
1772641307115236400,1.772236328125,-0.4968950748443603,-0.1243721321225166,-0.0102194789797067
1772641307125282300,1.7822822265625,-0.4366378784179687,-0.0125734247267246,0.1893261224031448
1772641307135327200,1.7923271484375,-0.4004557132720947,0.0970356315374374,0.367372065782547
1772641307145372400,1.802372314453125,-0.3601951003074646,0.1638793796300888,0.5499005913734436
1772641307155418400,1.81241845703125,-0.3293659389019012,0.2218795716762542,0.7045992612838745
1772641307165463600,1.822463623046875,-0.3095355033874511,0.2551475167274475,0.8319971561431885
1772641307175508200,1.83250830078125,-0.305166482925415,0.2700630724430084,0.925032675266266
1772641307185553400,1.842553466796875,-0.3210988342761993,0.2252660393714904,0.9733535647392272
1772641307195599400,1.852599365234375,-0.3489593863487243,0.1230989918112754,0.9742774367332458
1772641307205644300,1.862644287109375,-0.3829146921634674,-0.0033622807823121,0.9319986701011658
1772641307215689500,1.872689453125,-0.415107399225235,-0.1259236186742782,0.8570038676261902
1772641307225735400,1.8827353515625,-0.4396433532238006,-0.2180535346269607,0.7649163007736206
1772641307235780400,1.8927802734375,-0.4512490928173065,-0.2616142630577087,0.6629109382629395
1772641307245825300,1.9028251953125,-0.4469781816005707,-0.2555065751075744,0.5559384226799011
1772641307255871200,1.912871337890625,-0.4322149157524109,-0.2114728093147277,0.436271995306015
1772641307265916400,1.92291650390625,-0.4157704412937164,-0.1469380259513855,0.3034273982048034
1772641307275961300,1.93296142578125,-0.4132387936115265,-0.0618465617299079,0.1468185037374496
1772641307286007300,1.94300732421875,-0.4154537320137024,0.0417682491242885,-0.029863316565752
1772641307296052500,1.953052490234375,-0.4122346639633178,0.1368136703968048,-0.2021300196647644
1772641307306097200,1.96309716796875,-0.3960013687610626,0.2192467600107193,-0.3600826561450958
1772641307316142300,1.973142333984375,-0.3688103258609772,0.2788808643817901,-0.4935906529426574
1772641307326188300,1.983188232421875,-0.3437228202819824,0.3038373589515686,-0.6007226705551147
1772641307336233500,1.9932333984375,-0.315429151058197,0.3123759031295776,-0.6634319424629211
1772641307346278400,2.0032783203125,-0.2844249010086059,0.317688375711441,-0.6876288652420044
1772641307356324400,2.013324462890625,-0.2415004223585128,0.3113415241241455,-0.6680495142936707
1772641307366369300,2.023369384765625,-0.1799864619970321,0.2935223281383514,-0.6106141805648804
1772641307376414200,2.033414306640625,-0.1108580827713012,0.2466927021741867,-0.5243005156517029
1772641307386460400,2.04346044921875,-0.0436340346932411,0.17982979118824,-0.4163384139537811
1772641307396505300,2.05350537109375,0.0163853913545608,0.1032523736357688,-0.2957210540771484
1772641307406550500,2.063550537109375,0.0726350843906402,0.0228395611047744,-0.1723146736621856
1772641307416596500,2.073596435546875,0.1095886602997779,-0.0536836422979831,-0.0564946793019771
1772641307426641400,2.083641357421875,0.130288079380989,-0.1143296733498573,0.0288830678910017
1772641307436686300,2.093686279296875,0.1360019147396087,-0.1482310593128204,0.0781304910778999
1772641307446731300,2.103731201171875,0.1359457224607467,-0.1468110531568527,0.094485767185688
1772641307456777200,2.113777099609375,0.1382491290569305,-0.1174718737602233,0.0851134285330772
1772641307466822400,2.123822509765625,0.1425056606531143,-0.0949119701981544,0.0514004714787006
1772641307476867300,2.133867431640625,0.1434357464313507,-0.0767131298780441,0.0071285781450569
1772641307486913500,2.14391357421875,0.1438695788383484,-0.0637701675295829,-0.0493605323135852
1772641307496958200,2.153958251953125,0.1512218862771988,-0.0492745116353035,-0.1058515012264251
1772641307507003400,2.16400341796875,0.1679625213146209,-0.0175759736448526,-0.1538557708263397
1772641307517049300,2.17404931640625,0.1910436004400253,0.0156793240457773,-0.1926266998052597
1772641307527094300,2.18409423828125,0.2137379944324493,0.0496532693505287,-0.2222732752561569
1772641307537139500,2.194139404296875,0.2388456910848617,0.0851005986332893,-0.2415506243705749
1772641307547184400,2.204184326171875,0.2608886659145355,0.1142824590206146,-0.2455874532461166
1772641307557230600,2.214230712890625,0.2825232446193695,0.1348592340946197,-0.2336581349372863
1772641307567275300,2.224275146484375,0.3019856214523315,0.145874872803688,-0.2143283784389495
1772641307577320400,2.234320556640625,0.3149016797542572,0.1433743685483932,-0.1860854923725128
1772641307587366400,2.244366455078125,0.3204916715621948,0.1223369911313057,-0.151810348033905
1772641307597411300,2.254411376953125,0.3216429352760315,0.0848149135708808,-0.1184119209647178
1772641307607456500,2.26445654296875,0.3180287778377533,0.0482182875275611,-0.0770943090319633
1772641307617502500,2.27450244140625,0.3123630285263061,0.0158192701637744,-0.0394743084907531
1772641307627547400,2.28454736328125,0.3024579286575317,-0.0053938729688525,-0.0006962879560887
1772641307637592300,2.29459228515625,0.292041927576065,-0.00995100941509,0.0365286618471145
1772641307647638300,2.30463818359375,0.2862007915973663,-0.0092881489545106,0.0678333193063736
1772641307657683500,2.314683349609375,0.2847270667552948,-0.0093179102987051,0.0850377231836319
1772641307667728400,2.324728271484375,0.2861862182617187,-0.0008365404792129,0.0949180498719215
1772641307677773600,2.334773681640625,0.2824085056781769,0.0073551461100578,0.0935296192765235
1772641307687819500,2.344819580078125,0.2745252847671509,0.0220611207187175,0.0770571678876876
1772641307697864200,2.3548642578125,0.2631109952926636,0.0505515486001968,0.057828739285469
1772641307707909400,2.364909423828125,0.2547484040260315,0.0768758282065391,0.0453552901744842
1772641307717955300,2.374955322265625,0.2491626590490341,0.080973170697689,0.0367470309138298
1772641307728000500,2.38500048828125,0.2447852045297622,0.0817761197686195,0.0337259396910667
1772641307738045400,2.39504541015625,0.2407435178756714,0.0828449800610542,0.0441446118056774
1772641307748091400,2.40509130859375,0.2377788871526718,0.0830998420715332,0.0540526360273361
1772641307758136300,2.41513623046875,0.2330365926027298,0.0872684866189956,0.0736787989735603
1772641307768181200,2.42518115234375,0.2293225526809692,0.0802878066897392,0.0912985429167747
1772641307778226200,2.43522607421875,0.2284952700138092,0.0664260610938072,0.1093169823288917
1772641307788272000,2.445272216796875,0.235956385731697,0.0525278188288211,0.1345126181840896
1772641307798317300,2.4553173828125,0.2491201609373092,0.0476699471473693,0.1742177605628967
1772641307808362200,2.4653623046875,0.2726627886295318,0.062636911869049,0.2308437526226043
1772641307818408200,2.475408203125,0.2947313189506531,0.0712475106120109,0.2775575816631317
1772641307828453400,2.485453369140625,0.3082796037197113,0.0581660605967044,0.2944356501102447
1772641307838498300,2.495498291015625,0.3260971307754516,0.0628257244825363,0.2734233736991882
1772641307848544000,2.5055439453125,0.3440236747264862,0.0982854515314102,0.2248055040836334
1772641307858589200,2.515589111328125,0.3618799149990082,0.1355743110179901,0.138604536652565
1772641307868634000,2.525634033203125,0.376275897026062,0.1833799034357071,0.0354880131781101
1772641307878680300,2.535680419921875,0.39081671833992,0.2515816688537597,-0.0585089139640331
1772641307888725200,2.545725341796875,0.4020877480506897,0.2949443161487579,-0.1375603228807449
1772641307898770400,2.5557705078125,0.4109873175621032,0.3180160224437713,-0.189316987991333
1772641307908815000,2.565815185546875,0.4162254929542541,0.3298340439796448,-0.2042171061038971
1772641307918861000,2.575861083984375,0.4200046360492706,0.3422190248966217,-0.1909802109003067
1772641307928906200,2.58590625,0.4225378334522247,0.3522250354290008,-0.1474873274564743
1772641307938951200,2.595951171875,0.4261898994445801,0.3605600595474243,-0.0758591443300247
1772641307948997400,2.605997314453125,0.4253299534320831,0.3488022089004516,0.0113734975457191
1772641307959042300,2.616042236328125,0.4196163415908813,0.3146571516990661,0.1008942574262619
1772641307969087200,2.626087158203125,0.4113531112670898,0.2796725332736969,0.1914401352405548
1772641307979133200,2.63613330078125,0.3970333039760589,0.2425391674041748,0.2591994404792785
1772641307989178000,2.64617822265625,0.3718275725841522,0.1934933215379715,0.2932730317115783
1772641307999223300,2.656223388671875,0.3313844501972198,0.1354507356882095,0.3027262389659881
1772641308009268200,2.666268310546875,0.2859937846660614,0.0873377993702888,0.2970150709152221
1772641308019314200,2.676314208984375,0.2364147454500198,0.0451208986341953,0.2868677079677582
1772641308029359400,2.686359375,0.1842426210641861,0.0130891958251595,0.285647988319397
1772641308039404000,2.696404052734375,0.1348683387041092,-0.0085871387273073,0.296121746301651
1772641308049450200,2.7064501953125,0.0844855830073356,-0.0420569479465484,0.3158176839351654
1772641308059495200,2.7164951171875,0.028379026800394,-0.0842769667506218,0.3253357708454132
1772641308069540400,2.726540283203125,-0.0328081622719764,-0.1274510771036148,0.3230635821819305
1772641308079586300,2.73658642578125,-0.0822337120771408,-0.1555529534816742,0.3145956397056579
1772641308089631200,2.74663134765625,-0.1247361600399017,-0.18455770611763,0.3003541231155395
1772641308099676200,2.75667626953125,-0.151547372341156,-0.2189164608716964,0.2808648645877838
1772641308109722000,2.76672216796875,-0.1737069934606552,-0.2639015316963196,0.2559512555599212
1772641308119767300,2.776767333984375,-0.1868147552013397,-0.2956816852092743,0.2222445756196975
1772641308129812200,2.786812255859375,-0.1917658448219299,-0.3030072450637817,0.1790936440229416
1772641308139857400,2.796857421875,-0.1914841383695602,-0.2849074602127075,0.119672767817974
1772641308149903400,2.8069033203125,-0.1876739412546157,-0.2450181096792221,0.0455354191362857
1772641308159948300,2.8169482421875,-0.1788249313831329,-0.1848093718290329,-0.0409469567239284
1772641308169993200,2.8269931640625,-0.1659868955612182,-0.1193760335445404,-0.1331296116113662
1772641308180039200,2.8370390625,-0.1500084549188614,-0.0578385032713413,-0.2284694463014602
1772641308190084000,2.847083984375,-0.1286839842796325,-0.0140888933092355,-0.3151521384716034
1772641308200129300,2.85712939453125,-0.1070724204182624,0.0132802780717611,-0.3865578174591064
1772641308210175200,2.86717529296875,-0.0834357962012291,0.0236253272742033,-0.4293428063392639
1772641308220220400,2.877220458984375,-0.0557554103434085,0.0354059524834156,-0.4393826723098755
1772641308230265000,2.88726513671875,-0.0277197826653718,0.0367441922426223,-0.4174044132232666
1772641308240311000,2.89731103515625,0.0092233810573816,0.0164712127298116,-0.3789948523044586
1772641308250356200,2.907356201171875,0.0456445030868053,-0.0151658104732632,-0.3262975513935089
1772641308260401200,2.917401123046875,0.0729010924696922,-0.0494297705590724,-0.2737176120281219
1772641308270446300,2.9274462890625,0.0855455175042152,-0.0612826980650424,-0.228513091802597
1772641308280492300,2.9374921875,0.0839133337140083,-0.0518025159835815,-0.1840745508670807
1772641308290537200,2.947537109375,0.0786687731742858,-0.0521969348192215,-0.1538524627685547
1772641308300582100,2.95758203125,0.0725131183862686,-0.0607704482972621,-0.1333203613758087
1772641308310628000,2.967628173828125,0.0656703859567642,-0.076375775039196,-0.1220954060554504
1772641308320673300,2.97767333984375,0.055704515427351,-0.0937018319964408,-0.1133861914277076
1772641308330718200,2.98771826171875,0.0393854603171348,-0.1051467657089233,-0.1130349189043045
1772641308340764200,2.99776416015625,0.0177833996713161,-0.1073342189192771,-0.1224196553230285
1772641308350809300,3.007809326171875,-0.0070479144342243,-0.1123524084687233,-0.1381309628486633
1772641308360854300,3.017854248046875,-0.0288643706589937,-0.1351605951786041,-0.1629277467727661
1772641308370899200,3.027899169921875,-0.0526226982474327,-0.1567084938287735,-0.1834836304187774
1772641308380945200,3.037945068359375,-0.0781464129686355,-0.1601723432540893,-0.1932217478752136
1772641308390990300,3.047990234375,-0.0962649583816528,-0.1483915746212005,-0.1892978549003601
1772641308401035300,3.05803515625,-0.1088604405522346,-0.1204472929239273,-0.1697019338607788
1772641308411081200,3.068081298828125,-0.1149015575647354,-0.0962636619806289,-0.137570634484291
1772641308421126100,3.078126220703125,-0.1170117557048797,-0.0911446586251258,-0.1011032834649086
1772641308431171000,3.088171142578125,-0.1151757761836052,-0.0988324061036109,-0.0687165856361389
1772641308441217300,3.09821728515625,-0.1122961193323135,-0.1055906489491462,-0.0294402316212654
1772641308451262200,3.10826220703125,-0.114087626338005,-0.1172068193554878,0.0042647337540984
1772641308461307400,3.118307373046875,-0.1142354384064674,-0.1268374770879745,0.0391142442822456
1772641308471352300,3.128352294921875,-0.1201710924506187,-0.1460111737251281,0.0766333863139152
1772641308481398300,3.138398193359375,-0.1266918778419494,-0.1767377257347107,0.112967662513256
1772641308491443200,3.148443115234375,-0.1333950459957122,-0.2037869244813919,0.1530104130506515
1772641308501488000,3.158488037109375,-0.1457948684692382,-0.2343458980321884,0.1782300621271133
1772641308511534300,3.168534423828125,-0.1602837890386581,-0.2598163783550262,0.1863143593072891
1772641308521579300,3.178579345703125,-0.1799948066473007,-0.272741824388504,0.1728605180978775
1772641308531624200,3.188624267578125,-0.2025347352027893,-0.2705966532230377,0.1387345045804977
1772641308541670400,3.19867041015625,-0.2266110628843307,-0.2597963213920593,0.0868052691221237
1772641308551715000,3.208715087890625,-0.240958571434021,-0.2411435544490814,0.0280447453260421
1772641308561760300,3.21876025390625,-0.2395657449960708,-0.2122573107481002,-0.0306902080774307
1772641308571806200,3.22880615234375,-0.2253985553979873,-0.1704543381929397,-0.0841155052185058
1772641308581851100,3.23885107421875,-0.2065906971693039,-0.1327612847089767,-0.126529574394226
1772641308591896300,3.248896240234375,-0.1823207736015319,-0.1033109873533248,-0.1503898948431015
1772641308601941200,3.258941162109375,-0.1642245948314666,-0.0949565842747688,-0.1639520823955536
1772641308611987500,3.268987548828125,-0.1554612070322036,-0.1099475175142288,-0.1588071286678314
1772641308622032100,3.2790322265625,-0.1551129817962646,-0.1343733668327331,-0.1433988362550735
1772641308632077300,3.289077392578125,-0.1669896095991134,-0.1591287851333618,-0.1275820583105087
1772641308642123300,3.299123291015625,-0.1745403558015823,-0.1735774278640747,-0.1063633188605308
1772641308652168200,3.309168212890625,-0.1782397478818893,-0.176768958568573,-0.0832787752151489
1772641308662213400,3.31921337890625,-0.1740467250347137,-0.1728099733591079,-0.0541027821600437
1772641308672259300,3.32925927734375,-0.1620340049266815,-0.1656918823719024,-0.0192273557186126
1772641308682304300,3.33930419921875,-0.1434310227632522,-0.1618916094303131,0.0153527669608592
1772641308692349200,3.34934912109375,-0.1245569288730621,-0.1677918434143066,0.0444645807147026
1772641308702394400,3.359394287109375,-0.1008076295256614,-0.1790636628866195,0.0644761770963668
1772641308712440300,3.3694404296875,-0.0774674192070961,-0.1941675096750259,0.0769525617361068
1772641308722485200,3.3794853515625,-0.0584489032626152,-0.2043560296297073,0.0866031646728515
1772641308732530400,3.389530517578125,-0.0362823493778705,-0.2131900042295456,0.0953519195318222
1772641308742576000,3.399576171875,-0.0146781550720334,-0.2137078046798706,0.1111396700143814
1772641308752620800,3.409620849609375,0.0107403863221406,-0.216628760099411,0.1321304440498352
1772641308762665700,3.419665771484375,0.037849087268114,-0.2099827080965042,0.1621516793966293
1772641308772711700,3.429711669921875,0.0616825148463249,-0.2078979760408401,0.188189148902893
1772641308782756600,3.439756591796875,0.0796980559825897,-0.2049611806869506,0.2216584980487823
1772641308792801500,3.449801513671875,0.0882718414068222,-0.1970129758119583,0.2566119432449341
1772641308802847700,3.45984765625,0.093418188393116,-0.2189695388078689,0.2766182124614715
1772641308812892700,3.469892578125,0.087891861796379,-0.2626264691352844,0.2702114582061767
1772641308822937600,3.4799375,0.0582071989774704,-0.3046399652957916,0.2355056703090667
1772641308832982500,3.489982421875,0.0309540070593357,-0.3073891401290893,0.1782136261463165
1772641308843028500,3.500028564453125,0.0110723227262496,-0.3058507144451141,0.093923233449459
1772641308853073700,3.51007373046875,-0.005784154869616,-0.316471129655838,-0.0214939061552286
1772641308863118600,3.52011865234375,-0.0351910069584846,-0.3257428407669067,-0.161890223622322
1772641308873164500,3.53016455078125,-0.0731975138187408,-0.2891750037670135,-0.2986634969711303
1772641308883209700,3.540209716796875,-0.1065804436802864,-0.2076882570981979,-0.402637243270874
1772641308893254700,3.550254638671875,-0.1185468286275863,-0.0887829065322876,-0.4425806701183319
1772641308903300900,3.56030078125,-0.1072975471615791,0.0454647801816463,-0.4191226065158844
1772641308913345500,3.570345458984375,-0.0714998692274093,0.1438371539115905,-0.3448781967163086
1772641308923390700,3.580390625,-0.0287477876991033,0.1930388659238815,-0.2393001765012741
1772641308933435600,3.590435546875,0.0101399570703506,0.2004019767045974,-0.1100066378712654
1772641308943481600,3.600481689453125,0.035433892160654,0.1860787570476532,0.0313009917736053
1772641308953526800,3.61052685546875,0.0422617048025131,0.1461393237113952,0.1692929416894912
1772641308963571500,3.620571533203125,0.0354354605078697,0.0904794558882713,0.3053482174873352
1772641308973617700,3.63061767578125,0.0149871762841939,0.0402399897575378,0.4295500516891479
1772641308983662600,3.64066259765625,-0.0138756856322288,-0.000491592567414,0.5371020436286926
1772641308993707800,3.650707763671875,-0.0417224951088428,-0.0366352163255214,0.6227998733520508
1772641309003753700,3.660753662109375,-0.0635826140642166,-0.0879135802388191,0.6663782596588135
1772641309013798700,3.670798583984375,-0.0789692923426628,-0.1519146710634231,0.6606606841087341
1772641309023843800,3.68084375,-0.0940611064434051,-0.2154975086450576,0.6096314191818237
1772641309033889800,3.690889892578125,-0.1036069393157959,-0.2608135938644409,0.5249210596084595
1772641309043934500,3.7009345703125,-0.1056444644927978,-0.2775529026985168,0.4222329556941986
1772641309053979600,3.710979736328125,-0.107180044054985,-0.2498634755611419,0.312698483467102
1772641309064024600,3.721024658203125,-0.1080997884273529,-0.179907351732254,0.2025889158248901
1772641309074070800,3.73107080078125,-0.1160293444991111,-0.0943133607506752,0.0902514606714248
1772641309084115700,3.74111572265625,-0.1210932210087776,0.0032203213777393,-0.0139973619952797
1772641309094160600,3.75116064453125,-0.1300025582313537,0.1023010984063148,-0.1269944906234741
1772641309104206600,3.76120654296875,-0.1455216854810714,0.2010703533887863,-0.244965061545372
1772641309114251500,3.77125146484375,-0.1578718274831771,0.2930215895175934,-0.3564806878566742
1772641309124296700,3.781296630859375,-0.1648739427328109,0.3555870354175567,-0.4581494331359863
1772641309134342700,3.7913427734375,-0.1599638760089874,0.3790939450263977,-0.5394623875617981
1772641309144387800,3.801387939453125,-0.1476823389530182,0.3634021282196045,-0.586302638053894
1772641309154432800,3.811432861328125,-0.1193220689892768,0.3286430835723877,-0.5832852721214294
1772641309164477700,3.821477783203125,-0.0665113925933837,0.2831185460090637,-0.5226773023605347
1772641309174523600,3.831523681640625,0.0073543149046599,0.2458100616931915,-0.4074098467826843
1772641309184568600,3.841568603515625,0.084364503622055,0.2143147736787796,-0.2511601150035858
1772641309194613800,3.85161376953125,0.1320161819458007,0.1628638356924057,-0.0876606702804565
1772641309204659700,3.86165966796875,0.1399688869714737,0.1016790494322776,0.0548687055706977
1772641309214704600,3.87170458984375,0.1134922578930854,0.0334070511162281,0.1735876351594925
1772641309224749600,3.88174951171875,0.0748207047581672,-0.0476031079888343,0.2537486255168915
1772641309234795500,3.89179541015625,0.0289373695850372,-0.1309006512165069,0.3054328262805938
1772641309244840700,3.9018408203125,-0.0116312662139534,-0.2136193066835403,0.3302969336509704
1772641309254885600,3.9118857421875,-0.0512468554079532,-0.2769527733325958,0.3255490660667419
1772641309264931600,3.921931640625,-0.0881282687187194,-0.2945010364055633,0.2554074823856354
1772641309274976800,3.931976806640625,-0.0868773832917213,-0.2806025445461273,0.1742295622825622
1772641309285021400,3.942021484375,-0.0656591802835464,-0.2335328310728073,0.0971361547708511
1772641309295066600,3.952066650390625,-0.042729090899229,-0.1881693452596664,0.0119546791538596
1772641309305112600,3.962112548828125,-0.0207698456943035,-0.1143597736954689,-0.0647613257169723
1772641309315157800,3.97215771484375,-0.0071144867688417,-0.0368545949459075,-0.1379151493310928
1772641309325202700,3.98220263671875,-0.0041582048870623,0.0267512798309326,-0.2054236084222793
1772641309335248600,3.99224853515625,-0.0057451827451586,0.0813205167651176,-0.2557594776153564
1772641309345293800,4.0022939453125,-0.0037636389024555,0.1197641119360923,-0.2933533787727356
1772641309355338500,4.01233837890625,0.0106515195220708,0.1379037052392959,-0.3109350204467773
1772641309365384700,4.022384765625,0.0329421758651733,0.1489105969667434,-0.3078436851501465
1772641309375429600,4.0324296875,0.0566621497273445,0.1527982801198959,-0.2820448279380798
1772641309385474600,4.042474609375,0.0821665376424789,0.1469995975494384,-0.2480382174253463
1772641309395520800,4.052520751953125,0.1104549020528793,0.1262343972921371,-0.1977699697017669
1772641309405565700,4.062565673828125,0.1405147612094879,0.1008676588535308,-0.1436432749032974
1772641309415610600,4.072610595703125,0.1601601094007492,0.0791650265455246,-0.0861677303910255
1772641309425655600,4.082655517578125,0.1735669076442718,0.0601356700062751,-0.0269638393074274
1772641309435701500,4.092701416015625,0.1837463080883026,0.0299399476498365,0.0306690968573093
1772641309445746700,4.10274658203125,0.1984489113092422,-0.005134813953191,0.0756140872836113
1772641309455791600,4.11279150390625,0.211784154176712,-0.0127165671437978,0.1062846481800079
1772641309465837800,4.122837890625,0.2155689746141433,0.0108497478067874,0.1239156723022461
1772641309475882800,4.1328828125,0.2192622423171997,0.0469968318939209,0.1258920133113861
1772641309485927700,4.142927734375,0.2156777679920196,0.0800454691052436,0.1163374260067939
1772641309495973600,4.1529736328125,0.2070113122463226,0.1012719273567199,0.0988194197416305
1772641309506018600,4.1630185546875,0.1965296566486358,0.1230380684137344,0.06919477134943
1772641309516063700,4.173063720703125,0.1856748759746551,0.1423113644123077,0.0432862043380737
1772641309526108700,4.183108642578125,0.1763327121734619,0.1583096981048584,0.0249683372676372
1772641309536154600,4.193154541015625,0.1595137864351272,0.1721346974372863,0.0117225740104913
1772641309546199600,4.203199462890625,0.1416908949613571,0.1746407449245453,0.0053318627178668
1772641309556244700,4.21324462890625,0.1218809559941291,0.1633673161268234,0.0120424963533878
1772641309566290700,4.223290771484375,0.1062377914786338,0.1482682526111602,0.0281886309385299
1772641309576335600,4.233335693359375,0.0954394713044166,0.1329444199800491,0.0500891394913196
1772641309586380800,4.243380859375,0.0907540470361709,0.1202331632375717,0.0781244561076164
1772641309596426800,4.2534267578125,0.0943881943821907,0.1049404963850975,0.1040729656815528
1772641309606471400,4.263471435546875,0.105958454310894,0.0952471196651458,0.126470535993576
1772641309616516600,4.2735166015625,0.1295569986104965,0.0924494639039039,0.140667051076889
1772641309626561500,4.2835615234375,0.1655018925666809,0.0922989323735237,0.1422272771596908
1772641309636607700,4.293607666015625,0.208231508731842,0.1099556908011436,0.1288779228925705
1772641309646652700,4.303652587890625,0.257122278213501,0.1512970030307769,0.1119086369872093
1772641309656697900,4.31369775390625,0.3018588721752167,0.2005481719970703,0.0829896330833435
1772641309666743800,4.323743896484375,0.3480307757854461,0.2462253123521804,0.0595535486936569
1772641309676788500,4.33378857421875,0.3894349336624145,0.276274561882019,0.0310508031398057
1772641309686833700,4.343833740234375,0.41494882106781,0.2703893184661865,0.00401381123811
1772641309696879600,4.353879638671875,0.4208253622055053,0.2206864655017852,-0.026031706482172
1772641309706924800,4.3639248046875,0.4072500467300415,0.1425259560346603,-0.0448014996945858
1772641309716969700,4.3739697265625,0.3846819102764129,0.0598204135894775,-0.0532873943448066
1772641309727015700,4.384015625,0.3499320745468139,-0.0141873005777597,-0.0509940758347511
1772641309737060600,4.394060546875,0.3045856356620788,-0.0757790207862854,-0.0421385318040847
1772641309747105500,4.40410546875,0.2497869879007339,-0.1221878007054328,-0.0408451817929744
1772641309757151200,4.414151123046875,0.2055289894342422,-0.1506604552268982,-0.0413461215794086
1772641309767197200,4.424197265625,0.1840828955173492,-0.1590494811534881,-0.0468896441161632
1772641309777241900,4.434241943359375,0.1834378838539123,-0.1358597427606582,-0.0537145286798477
1772641309787287000,4.444287109375,0.2004902958869934,-0.0914585813879966,-0.0606740526854991
1772641309797333000,4.4543330078125,0.2289608120918274,-0.0131770949810743,-0.0615872479975223
1772641309807378200,4.464378173828125,0.269898384809494,0.0745927691459655,-0.0565624423325061
1772641309817423000,4.474423095703125,0.3122972249984741,0.1483103930950164,-0.0407805480062961
1772641309827469000,4.484468994140625,0.347415566444397,0.1934028416872024,-0.0202344879508018
1772641309837514000,4.494513916015625,0.3708958625793457,0.1977866739034652,0.0051923072896897
1772641309847559000,4.504558837890625,0.3877706527709961,0.1793186515569687,0.045479692518711
1772641309857604000,4.51460400390625,0.4005189538002014,0.1422282755374908,0.0913819447159767
1772641309867650000,4.524650146484375,0.411263644695282,0.0994747504591941,0.1497924029827118
1772641309877695000,4.534695068359375,0.4186877310276031,0.0556100942194461,0.2131876200437545
1772641309887740200,4.544740234375,0.417356789112091,0.0189417600631713,0.2756910622119903
1772641309897786000,4.5547861328125,0.4076735377311706,-0.0167456641793251,0.3279041945934295
1772641309907831000,4.5648310546875,0.3919818699359894,-0.049754548817873,0.3651065528392792
1772641309917876000,4.5748759765625,0.373740017414093,-0.0689258426427841,0.3830173909664154
1772641309927922000,4.584921875,0.3520877957344055,-0.0761592537164688,0.3868326246738434
1772641309937967000,4.594967041015625,0.3329769372940063,-0.0742809250950813,0.3776052892208099
1772641309948012000,4.605011962890625,0.3173919320106506,-0.072245605289936,0.3591677844524383
1772641309958058200,4.615058349609375,0.3000523447990417,-0.0728219151496887,0.3261147439479828
1772641309968103000,4.62510302734375,0.2795204222202301,-0.0734747201204299,0.2747244834899902
1772641309978148000,4.635148193359375,0.2482567727565765,-0.0701798573136329,0.208498328924179
1772641309988193000,4.645193115234375,0.2101932615041732,-0.0577452965080738,0.1296983212232589
1772641309998239000,4.655239013671875,0.1652090102434158,-0.0380067452788353,0.0433384031057357
1772641310008284200,4.6652841796875,0.1168012991547584,-0.0096887554973363,-0.0410680547356605
1772641310018329000,4.6753291015625,0.071266308426857,0.0269539449363946,-0.116082914173603
1772641310028375000,4.685375,0.0327500775456428,0.0637489110231399,-0.187629759311676
1772641310038420000,4.695419921875,0.005050538573414,0.0996962562203407,-0.2501594424247741
1772641310048465000,4.70546484375,-0.0116234607994556,0.1254809200763702,-0.3193965554237366
1772641310058511000,4.715510986328125,-0.0090452544391155,0.1229842081665992,-0.3873380422592163
1772641310068556000,4.72555615234375,0.0057328063994646,0.1149482429027557,-0.4494537711143493
1772641310078601200,4.735601318359375,0.0337015874683856,0.1125822961330413,-0.5023310780525208
1772641310088647200,4.745647216796875,0.0633837282657623,0.1297838687896728,-0.5440694689750671
1772641310098691800,4.75569189453125,0.0964498072862625,0.1630800366401672,-0.5742521286010742
1772641310108737000,4.765737060546875,0.1306682229042053,0.1844443082809448,-0.5941051244735718
1772641310118782000,4.775781982421875,0.1594759076833725,0.1855503171682357,-0.6033082008361816
1772641310128828200,4.785828125,0.1750833094120025,0.1947283595800399,-0.5957764387130737
1772641310138873000,4.795873046875,0.1819441467523574,0.1951259672641754,-0.5777090191841125
1772641310148918000,4.80591796875,0.1755585074424743,0.1807943731546402,-0.5425068140029907
1772641310158964000,4.8159638671875,0.1572785675525665,0.1576946526765823,-0.4974205493927002
1772641310169009000,4.8260087890625,0.1355868279933929,0.1373622864484787,-0.4295859634876251
1772641310179054000,4.83605419921875,0.1109262257814407,0.1091407611966133,-0.3485454320907593
1772641310189100000,4.84610009765625,0.0836046412587165,0.0775976106524467,-0.2610672116279602
1772641310199145000,4.85614501953125,0.0595874562859535,0.0393615439534187,-0.1769275367259979
1772641310209190100,4.866190185546875,0.0294817481189966,-0.0087451925501227,-0.1001310795545578
1772641310219234800,4.87623486328125,-0.0025443602353334,-0.0528591237962245,-0.0382370874285697
1772641310229281000,4.886281005859375,-0.0345235951244831,-0.0925653949379921,0.0060425838455557
1772641310239326000,4.896325927734375,-0.066467672586441,-0.1205022260546684,0.0388476699590683
1772641310249371100,4.90637109375,-0.0932939648628234,-0.1404775232076645,0.0528212748467922
1772641310259417000,4.9164169921875,-0.1177849248051643,-0.156537726521492,0.0549659207463264
1772641310269462000,4.9264619140625,-0.1409649848937988,-0.1628422886133194,0.052469041198492
1772641310279507000,4.9365068359375,-0.1561969369649887,-0.1658319532871246,0.041560735553503
1772641310289553000,4.946552978515625,-0.1673436611890792,-0.1617174297571182,0.0255813878029584
1772641310299598000,4.95659814453125,-0.176852211356163,-0.1608311235904693,0.0092860385775566
1772641310309643000,4.96664306640625,-0.1788414269685745,-0.1504459232091903,-0.0080436095595359
1772641310319688200,4.976688232421875,-0.1811503916978836,-0.1307326704263687,-0.0199359562247991
1772641310329734100,4.986734130859375,-0.1856252551078796,-0.0993082523345947,-0.0247220620512962
1772641310339779000,4.996779052734375,-0.2011416405439376,-0.0558603778481483,-0.0224738232791423
1772641310349824000,5.006823974609375,-0.223013773560524,-0.0312418453395366,-0.0192802138626575
1772641310359870000,5.016869873046875,-0.2435265034437179,0.01994464173913,-0.0035316101275384
1772641310369915100,5.0269150390625,-0.2652369141578674,0.0622954256832599,0.0151125825941562
1772641310379960000,5.0369599609375,-0.2847419083118438,0.0899206548929214,0.0434789769351482
1772641310390006000,5.047006103515625,-0.2913418710231781,0.0867596939206123,0.0776218473911285
1772641310400051200,5.05705126953125,-0.2884105443954468,0.041684091091156,0.1071275398135185
1772641310410095900,5.067095947265625,-0.2858438193798065,-0.0135563965886831,0.1296670585870742
1772641310420141800,5.077141845703125,-0.2802919447422027,-0.0550194159150123,0.1457333713769912
1772641310430187000,5.08718701171875,-0.270367830991745,-0.0774045512080192,0.1448342055082321
1772641310440232000,5.09723193359375,-0.2552088499069214,-0.078786201775074,0.1362260729074478
1772641310450277000,5.107277099609375,-0.2358833253383636,-0.0573281086981296,0.1230709701776504
1772641310460323000,5.117322998046875,-0.214295208454132,-0.0272743366658687,0.10222028195858
1772641310470368300,5.1273681640625,-0.1887985467910766,0.0037236572243273,0.080635517835617
1772641310480413000,5.137412841796875,-0.1623789370059967,0.0172373354434967,0.0569424405694007
1772641310490459000,5.147458984375,-0.141565054655075,0.0168403275310993,0.0367054119706153
1772641310500504000,5.157504150390625,-0.1270801275968551,0.0069544063881039,0.0170885678380727
1772641310510549000,5.167549072265625,-0.1113699898123741,-0.0131647111847996,0.0044746291823685
1772641310520595200,5.17759521484375,-0.0911664515733718,-0.0326428040862083,0.0120633067563176
1772641310530640100,5.18764013671875,-0.0688397884368896,-0.0447413474321365,0.0392526127398014
1772641310540685000,5.19768505859375,-0.0437834374606609,-0.0473208837211132,0.093309462070465
1772641310550730000,5.20772998046875,-0.0138014499098062,-0.049328576773405,0.1581411808729171
1772641310560776000,5.21777587890625,0.0086724339053034,-0.0516742877662181,0.2325142174959182
1772641310570821000,5.227821044921875,0.0218976642936468,-0.0611538775265216,0.3023697137832641
1772641310580866000,5.237865966796875,0.0291004497557878,-0.0992839485406875,0.3609525859355926
1772641310590912000,5.247912109375,0.0309775881469249,-0.1570857167243957,0.4204313158988952
1772641310600957000,5.25795703125,0.0244853347539901,-0.2111223191022873,0.4627004861831665
1772641310611001900,5.268001953125,-0.0029269913211464,-0.2674990594387054,0.4798166453838348
1772641310621048000,5.278048095703125,-0.0434262156486511,-0.3184333443641662,0.4768136739730835
1772641310631093000,5.288093017578125,-0.0899488031864166,-0.3422992527484894,0.4506944715976715
1772641310641138200,5.29813818359375,-0.1310573518276214,-0.352555364370346,0.4058060944080353
1772641310651183000,5.30818310546875,-0.1649055927991867,-0.3617598414421081,0.3332233130931854
1772641310661229000,5.31822900390625,-0.1939649432897567,-0.3576471209526062,0.2308742851018905
1772641310671274000,5.32827392578125,-0.2164733856916427,-0.318950742483139,0.1052397266030311
1772641310681319000,5.33831884765625,-0.2327274531126022,-0.2470440417528152,-0.0276046004146337
1772641310691365000,5.348365234375,-0.2415797263383865,-0.128352552652359,-0.1440207213163375
1772641310701410000,5.35841015625,-0.214738517999649,-0.0302052143961191,-0.2254175692796707
1772641310711455200,5.368455322265625,-0.1537997722625732,0.0589140765368938,-0.258899062871933
1772641310721501200,5.378501220703125,-0.077321246266365,0.1169241145253181,-0.2410700023174286
1772641310731545900,5.3885458984375,0.0041171628981828,0.1532534956932068,-0.1720280051231384
1772641310741591000,5.398591064453125,0.0673794895410537,0.1714610010385513,-0.0615273304283618
1772641310751637000,5.408636962890625,0.0924123972654342,0.1699847429990768,0.0742639377713203
1772641310761682400,5.418682373046875,0.0768472850322723,0.1751515418291092,0.219455748796463
1772641310771727600,5.4287275390625,0.0342695862054824,0.1718686521053314,0.3587242066860199
1772641310781772300,5.438772216796875,-0.0285123046487569,0.1638224422931671,0.4837265908718109
1772641310791818500,5.448818603515625,-0.0857539996504783,0.1397273689508438,0.5877893567085266
1772641310801863400,5.458863525390625,-0.1440764218568802,0.0836494490504264,0.6546993851661682
1772641310811908600,5.46890869140625,-0.2034307420253753,0.0167644917964935,0.691114068031311
1772641310821954600,5.47895458984375,-0.2550910115242004,-0.0583046935498714,0.6971892714500427
1772641310831999500,5.48899951171875,-0.2922919690608978,-0.1425836086273193,0.6644942760467529
1772641310842044700,5.499044677734375,-0.3135815262794494,-0.2034168690443039,0.6077165007591248
1772641310852090600,5.509090576171875,-0.3211990296840668,-0.2342602163553238,0.5390681028366089
1772641310862135300,5.51913525390625,-0.3252047002315521,-0.2469286024570465,0.460187703371048
1772641310872180500,5.529180419921875,-0.3346466720104217,-0.2265992909669876,0.3704204857349396
1772641310882225400,5.539225341796875,-0.3432286977767944,-0.1732079684734344,0.2654253542423248
1772641310892271600,5.549271728515625,-0.3567514717578888,-0.100378580391407,0.136678010225296
1772641310902316500,5.559316650390625,-0.3770841658115387,-0.0165489241480827,-0.0207651387900114
1772641310912361500,5.569361572265625,-0.4013993144035339,0.0837001875042915,-0.1977211236953735
1772641310922407400,5.579407470703125,-0.4221586585044861,0.185869961977005,-0.387123554944992
1772641310932452400,5.589452392578125,-0.4325589537620544,0.2647250890731811,-0.5662620067596436
1772641310942497500,5.59949755859375,-0.4233990311622619,0.3048791885375976,-0.7157981991767883
1772641310952543500,5.60954345703125,-0.3999968767166137,0.3090325593948364,-0.8200963735580444
1772641310962588700,5.619588623046875,-0.3638548552989959,0.2940597534179687,-0.8721723556518555
1772641310972633600,5.629633544921875,-0.3200004994869232,0.2938314974308014,-0.854789674282074
1772641310982679600,5.639679443359375,-0.2572729289531708,0.2895355522632599,-0.7741113901138306
1772641310992724500,5.649724365234375,-0.1855358630418777,0.2606623768806457,-0.6536495685577393
1772641311002769400,5.659769287109375,-0.126994788646698,0.2219437360763549,-0.509985625743866
1772641311012814600,5.669814697265625,-0.0983186438679695,0.1633747071027755,-0.3703147172927856
1772641311022860500,5.679860595703125,-0.0953430905938148,0.1168753802776336,-0.2506104409694671
1772641311032905500,5.689905517578125,-0.1055831536650657,0.0728350132703781,-0.153836652636528
1772641311042950400,5.699950439453125,-0.120848923921585,0.0374559871852397,-0.0933527871966362
1772641311052996400,5.709996337890625,-0.1348508447408676,0.0317144133150577,-0.0682180672883987
1772641311063041500,5.72004150390625,-0.1570214033126831,0.0042305900715291,-0.0857837498188018
1772641311073086500,5.73008642578125,-0.1908096075057983,-0.0493195876479148,-0.1336450427770614
1772641311083132400,5.74013232421875,-0.2261217832565307,-0.0823462456464767,-0.1867916285991668
1772641311093177600,5.750177490234375,-0.2488313913345337,-0.0895565599203109,-0.2361874431371688
1772641311103222300,5.76022216796875,-0.2663920223712921,-0.0560505278408527,-0.2723307907581329
1772641311113267500,5.770267333984375,-0.2742420434951782,0.0057877404615283,-0.2944274842739105
1772641311123313400,5.7803134765625,-0.2773422300815582,0.0687560513615608,-0.3062236905097961
1772641311133358600,5.790358642578125,-0.2724387049674988,0.1115497201681137,-0.3084544837474823
1772641311143403500,5.800403564453125,-0.2644353806972503,0.1424328088760376,-0.3033612072467804
1772641311153449500,5.810449462890625,-0.2510723769664764,0.1632103323936462,-0.2840124070644378
1772641311163494700,5.82049462890625,-0.2290549576282501,0.1773629039525985,-0.2604199945926666
1772641311173539300,5.830539306640625,-0.1964131444692611,0.1941302269697189,-0.2315638959407806
1772641311183585300,5.840585205078125,-0.1536515653133392,0.2031724452972412,-0.2030526250600814
1772641311193630500,5.85063037109375,-0.1022884622216224,0.2146824449300766,-0.1813340783119201
1772641311203675400,5.86067529296875,-0.0511499121785163,0.2202399224042892,-0.1623169779777526
1772641311213721600,5.8707216796875,-0.0051230965182185,0.2261665910482406,-0.1413413137197494
1772641311223766500,5.8807666015625,0.0323582328855991,0.231989324092865,-0.1159685850143432
1772641311233811500,5.8908115234375,0.0558420419692993,0.220459833741188,-0.0850843712687492
1772641311243856400,5.9008564453125,0.0766019150614738,0.1941512674093246,-0.0479583106935024
1772641311253902300,5.91090234375,0.0950763002038002,0.1629428714513778,-0.0042298366315662
1772641311263947500,5.920947509765625,0.1177746877074241,0.1305423080921173,0.0386318787932395
1772641311273992400,5.930992431640625,0.1405886262655258,0.1014289781451225,0.070742554962635
1772641311284038700,5.94103857421875,0.1605234593153,0.0845722332596778,0.0933804884552955
1772641311294083600,5.95108349609375,0.1728820651769638,0.0829966366291046,0.1037675067782402
1772641311304128500,5.96112841796875,0.1772941201925277,0.0844797566533088,0.1036862805485725
1772641311314174500,5.971174560546875,0.183574765920639,0.0896629393100738,0.1066255643963813
1772641311324219400,5.981219482421875,0.1896640807390213,0.0899154022336006,0.1043349802494049
1772641311334264600,5.9912646484375,0.2021678686141967,0.0889795050024986,0.1054726466536521
1772641311344309500,6.0013095703125,0.2201697677373886,0.0963860228657722,0.1062513589859008
1772641311354355500,6.01135546875,0.2452207654714584,0.1140515580773353,0.1143637970089912
1772641311364400400,6.021400390625,0.2752870619297027,0.1205701828002929,0.1241991221904754
1772641311374445300,6.0314453125,0.3030224144458771,0.1130889654159545,0.138919249176979
1772641311384491500,6.041491455078125,0.3311589956283569,0.1029396578669548,0.1554167419672012
1772641311394536400,6.051536376953125,0.3640232682228088,0.1014254465699195,0.1686570197343826
1772641311404581600,6.06158154296875,0.3903286159038543,0.126688465476036,0.1859284192323684
1772641311414627600,6.071627685546875,0.4222798943519592,0.1663097143173217,0.2066514790058136
1772641311424672500,6.081672607421875,0.4557204246520996,0.2022445350885391,0.2323163747787475
1772641311434717400,6.091717529296875,0.496406614780426,0.2145149856805801,0.2591305375099182
1772641311444762400,6.101762451171875,0.533980667591095,0.1843110024929046,0.2882894873619079
1772641311454808600,6.11180859375,0.5594090223312378,0.1206255778670311,0.3143737614154815
1772641311464853500,6.121853515625,0.56284099817276,0.0375173762440681,0.3344286978244781
1772641311474898700,6.131898681640625,0.5487823486328125,-0.0424160659313201,0.3495645523071289
1772641311484944600,6.141944580078125,0.5223417282104492,-0.1085634008049964,0.3664852082729339
1772641311494989300,6.1519892578125,0.5040289163589478,-0.1541896164417266,0.3854715526103973
1772641311505034500,6.162034423828125,0.4830983579158783,-0.1778379529714584,0.4083789885044098
1772641311515080400,6.17208056640625,0.4655417203903198,-0.1928969174623489,0.4203011691570282
1772641311525125400,6.18212548828125,0.4491725862026214,-0.2108072191476822,0.4137934744358063
1772641311535170600,6.192170654296875,0.4331547021865845,-0.2255795747041702,0.383637934923172
1772641311545216500,6.202216552734375,0.41928631067276,-0.2373331636190414,0.3287381827831268
1772641311555261400,6.212261474609375,0.4016942679882049,-0.2397107034921646,0.2335138469934463
1772641311565306400,6.222306396484375,0.3798534274101257,-0.2175734341144561,0.1144551038742065
1772641311575351600,6.2323515625,0.357517659664154,-0.1741661876440048,-0.0165800265967845
1772641311585397500,6.2423974609375,0.340336263179779,-0.1074883490800857,-0.1322235316038131
1772641311595442400,6.2524423828125,0.3336966931819916,-0.0151753332465887,-0.2109953761100769
1772641311605487600,6.262487548828125,0.3389511108398437,0.0827965065836906,-0.2415788471698761
1772641311615533600,6.272533447265625,0.3577617406845093,0.1601032763719558,-0.2278621345758438
1772641311625578500,6.28257861328125,0.3811927735805511,0.20663882791996,-0.1700180023908615
1772641311635623400,6.29262353515625,0.4062461256980896,0.2170157581567764,-0.0818749517202377
1772641311645669400,6.30266943359375,0.4242685437202453,0.1916227787733078,0.0143732894212007
1772641311655714600,6.312714599609375,0.4360242187976837,0.1427846103906631,0.1084789037704467
1772641311665759500,6.322759521484375,0.4315791428089142,0.0915770754218101,0.1952359080314636
1772641311675804400,6.332804443359375,0.4186465442180633,0.0645049810409545,0.2690659165382385
1772641311685850400,6.342850341796875,0.4018308222293854,0.0604101046919822,0.3261512815952301
1772641311695895600,6.3528955078125,0.3833895921707153,0.0714018419384956,0.3674054741859436
1772641311705940500,6.3629404296875,0.3591691851615906,0.0551789253950119,0.3789587914943695
1772641311715986400,6.372986328125,0.3294221460819244,0.0312068816274404,0.3694512248039245
1772641311726031600,6.383031494140625,0.2996639907360077,-0.0065988209098577,0.3401700258255005
1772641311736076500,6.39307666015625,0.2703319787979126,-0.0594749487936496,0.2913452386856079
1772641311746122500,6.40312255859375,0.2441331297159195,-0.1124154031276702,0.2281585484743118
1772641311756167200,6.413167236328125,0.2157564014196396,-0.1691499799489975,0.1554698050022125
1772641311766212400,6.42321240234375,0.1780545711517334,-0.2213703095912933,0.0769912451505661
1772641311776257000,6.433257080078125,0.1377908885478973,-0.2630127072334289,-0.0081468597054481
1772641311786303000,6.443302978515625,0.0890217423439025,-0.2669834792613983,-0.0952774956822395
1772641311796348200,6.45334814453125,0.0441746786236763,-0.2328139841556549,-0.1858923137187957
1772641311806393000,6.46339306640625,0.002127356827259,-0.1733735501766204,-0.2825703918933868
1772641311816439000,6.47343896484375,-0.0272345840930938,-0.0994437411427497,-0.3820046782493591
1772641311826484200,6.483484130859375,-0.0451906807720661,-0.0228091478347778,-0.4760614037513733
1772641311836529000,6.49352880859375,-0.0467694886028766,0.0611891485750675,-0.5535664558410645
1772641311846575000,6.5035751953125,-0.0276780854910612,0.1285111904144287,-0.6094816327095032
1772641311856620000,6.5136201171875,0.0083155054599046,0.1716267764568328,-0.6421764492988586
1772641311866665200,6.523665283203125,0.0472860746085643,0.1834647953510284,-0.6456068754196167
1772641311876711200,6.533711181640625,0.0922606512904167,0.1659245640039444,-0.6238828301429749
1772641311886756000,6.543756103515625,0.1381072252988815,0.1604091525077819,-0.5638749003410339
1772641311896801000,6.553801025390625,0.1781521290540695,0.176471397280693,-0.4739375114440918
1772641311906846000,6.563845947265625,0.2101031392812729,0.1909709721803665,-0.3789284527301788
1772641311916892200,6.57389208984375,0.2198840379714965,0.1830824315547943,-0.296407401561737
1772641311926937000,6.58393701171875,0.2070944607257843,0.1370078772306442,-0.2363558113574981
1772641311936982300,6.593982177734375,0.1806779652833938,0.081422246992588,-0.1882645934820175
1772641311947028200,6.6040283203125,0.1525254249572754,0.0258721709251403,-0.1432880610227584
1772641311957073200,6.6140732421875,0.1276410073041916,-0.0171209014952182,-0.1074578166007995
1772641311967118000,6.6241181640625,0.0995401367545127,-0.0419871024787426,-0.0730947852134704
1772641311977164000,6.6341640625,0.0708286613225936,-0.0582140088081359,-0.0479048490524292
1772641311987209000,6.644208984375,0.041458785533905,-0.0789816081523895,-0.0283633675426244
1772641311997254100,6.654254150390625,0.0104055581614375,-0.1023419946432113,-0.0090570151805877
1772641312007299000,6.664299072265625,-0.0197028089314699,-0.1303190290927887,0.0080378148704767
1772641312017345300,6.67434521484375,-0.0507742017507553,-0.1524399220943451,0.0253358539193868
1772641312027390000,6.684389892578125,-0.083572894334793,-0.1722397208213806,0.0293050296604633
1772641312037435100,6.69443505859375,-0.1172150149941444,-0.1843321919441223,0.0279704295098781
1772641312047481000,6.704481201171875,-0.1523439735174179,-0.2029431611299514,0.0137323718518018
1772641312057526000,6.714526123046875,-0.1752544343471527,-0.202133759856224,-0.0026621497236192
1772641312067571200,6.7245712890625,-0.1906110197305679,-0.2016741037368774,-0.0242316238582134
1772641312077617200,6.7346171875,-0.2021799683570861,-0.1814960688352584,-0.0440469458699226
1772641312087662300,6.744662353515625,-0.2143759131431579,-0.1482582241296768,-0.0655708834528923
1772641312097707000,6.75470703125,-0.2187311351299286,-0.1261987835168838,-0.0786215215921402
1772641312107752200,6.764752197265625,-0.2163196355104446,-0.114632673561573,-0.0847696959972381
1772641312117798100,6.774798095703125,-0.2113306671380996,-0.1050525605678558,-0.0803188234567642
1772641312127843000,6.784843017578125,-0.2054322957992553,-0.0848279818892479,-0.0644439831376075
1772641312137888300,6.79488818359375,-0.2017544209957122,-0.0538678020238876,-0.0378043092787265
1772641312147934200,6.804934326171875,-0.2002998143434524,-0.0386089533567428,-0.0052445032633841
1772641312157979100,6.814979248046875,-0.2019065916538238,-0.0541069470345974,0.0216816812753677
1772641312168024000,6.825024169921875,-0.2163379788398742,-0.0785539671778678,0.0430181287229061
1772641312178070000,6.835070068359375,-0.2367171198129654,-0.0815925076603889,0.0601104162633419
1772641312188115200,6.845115234375,-0.2550148963928222,-0.0711119025945663,0.0659006610512733
1772641312198160100,6.85516015625,-0.2739777266979217,-0.0510922521352767,0.062878169119358
1772641312208205300,6.865205322265625,-0.2926161289215088,-0.0271056927740573,0.0564804598689079
1772641312218251300,6.875251220703125,-0.3048143982887268,-0.0058394004590809,0.0565006397664547
1772641312228296000,6.8852958984375,-0.3088879585266113,-0.0008150809444487,0.0520102828741073
1772641312238341000,6.895341064453125,-0.3035716712474823,0.0061109219677746,0.0586945116519928
1772641312248387000,6.905386962890625,-0.2887354791164398,0.0140018686652183,0.069586306810379
1772641312258432300,6.915432373046875,-0.2638976275920868,0.01601068302989,0.085670605301857
1772641312268477200,6.925477294921875,-0.2373163551092147,0.0078496932983398,0.1001789718866348
1772641312278523100,6.935523193359375,-0.2115629464387893,-0.0081955790519714,0.1118528097867965
1772641312288568000,6.945568115234375,-0.1925296038389206,-0.0285301450639963,0.1188364177942276
1772641312298613000,6.955613037109375,-0.1793698221445083,-0.0522768944501876,0.1299811154603958
1772641312308658200,6.965658203125,-0.165873184800148,-0.08042623847723,0.1429954618215561
1772641312318704000,6.9757041015625,-0.1533655971288681,-0.0931704640388488,0.1647341400384903
1772641312328749000,6.9857490234375,-0.1406663060188293,-0.0760609880089759,0.1958659589290619
1772641312338794200,6.995794189453125,-0.1261247396469116,-0.0536286458373069,0.2246369272470474
1772641312348840000,7.00583984375,-0.1218437105417251,-0.0492669194936752,0.2325233519077301
1772641312358885000,7.015885009765625,-0.1342095285654068,-0.0739584192633628,0.2143063247203827
1772641312368930000,7.025929931640625,-0.1639336049556732,-0.096111923456192,0.1765030324459076
1772641312378976000,7.03597607421875,-0.200758546590805,-0.0960576608777046,0.1372166872024536
1772641312389021200,7.046021240234375,-0.2426751106977462,-0.0808845683932304,0.0962865650653839
1772641312399066000,7.056066162109375,-0.2798921763896942,-0.0685002654790878,0.0671671405434608
1772641312409112300,7.0661123046875,-0.3135952949523926,-0.0386542230844497,0.0564167574048042
1772641312419157000,7.076156982421875,-0.3385831415653229,0.0039246594533324,0.0606872960925102
1772641312429202200,7.0862021484375,-0.337562084197998,0.0445120334625244,0.0859577655792236
1772641312439247000,7.0962470703125,-0.3122979402542114,0.057805735617876,0.1187241226434707
1772641312449293000,7.10629296875,-0.2781170904636383,0.040758840739727,0.1462273895740509
1772641312459338200,7.116338134765625,-0.2545580267906189,0.0073766484856605,0.1606783419847488
1772641312469383000,7.1263828125,-0.2354516983032226,-0.0367988012731075,0.1552252471446991
1772641312479429000,7.13642919921875,-0.2270958870649337,-0.0601087845861911,0.1402868181467056
1772641312489474000,7.14647412109375,-0.2291172295808792,-0.0542314536869525,0.1195708885788917
1772641312499519200,7.156519287109375,-0.2416465729475021,-0.0288941394537687,0.1026170179247856
1772641312509565200,7.166565185546875,-0.2575472295284271,0.0169958528131246,0.0892096012830734
1772641312519610000,7.176610107421875,-0.2742030024528503,0.0613601244986057,0.0802014917135238
1772641312529655300,7.1866552734375,-0.2873907089233398,0.092679426074028,0.0805756598711013
1772641312539700000,7.196699951171875,-0.301627904176712,0.1126556769013404,0.0924017652869224
1772641312549746000,7.206745849609375,-0.3268019556999206,0.1052334457635879,0.1033172607421875
1772641312559791000,7.216791015625,-0.3412263095378876,0.0571141093969345,0.1188726499676704
1772641312569836000,7.2268359375,-0.3480980694293976,0.012309355661273,0.1373797506093979
1772641312579882200,7.23688232421875,-0.3464809358119964,-0.0295916199684143,0.1489587128162384
1772641312589927200,7.24692724609375,-0.3477728366851806,-0.0490529350936412,0.1534128487110138
1772641312599972000,7.25697216796875,-0.348494678735733,-0.0570696480572223,0.1439867615699768
1772641312610018000,7.26701806640625,-0.3510310649871826,-0.063911572098732,0.1218609660863876
1772641312620063000,7.27706298828125,-0.3551371693611145,-0.0686348229646682,0.097552977502346
1772641312630108200,7.287108154296875,-0.3600483238697052,-0.0711949244141578,0.0755994766950607
1772641312640153000,7.297153076171875,-0.3544371426105499,-0.0701322630047798,0.0452786721289157
1772641312650199300,7.30719921875,-0.3450087606906891,-0.0633300170302391,0.0134656131267547
1772641312660244200,7.317244140625,-0.3306159973144531,-0.046769805252552,-0.0307728610932827
1772641312670289200,7.3272890625,-0.3114071488380432,-0.0177045986056327,-0.0805635824799537
1772641312680335000,7.337335205078125,-0.2844305336475372,0.0072745159268379,-0.1419158428907394
1772641312690380000,7.347380126953125,-0.249397724866867,0.0261174459010362,-0.2154092341661453
1772641312700425200,7.35742529296875,-0.2083125561475753,0.0376308225095272,-0.294654369354248
1772641312710471200,7.36747119140625,-0.16231469810009,0.0390819795429706,-0.3781958520412445
1772641312720516000,7.37751611328125,-0.1289932876825332,0.0729891508817672,-0.4453332722187042
1772641312730561000,7.38756103515625,-0.0979437604546547,0.1155240982770919,-0.4865811169147491
1772641312740607000,7.39760693359375,-0.0704377144575119,0.1537834703922271,-0.5040163397789001
1772641312750652200,7.407652099609375,-0.0528153106570243,0.188781663775444,-0.5010128021240234
1772641312760696800,7.41769677734375,-0.0444055460393428,0.1998957693576812,-0.4666515290737152
1772641312770742000,7.427741943359375,-0.0290833171457052,0.1891658902168274,-0.4027564525604248
1772641312780788000,7.4377880859375,-0.0102513376623392,0.1684259921312332,-0.3194999992847442
1772641312790832600,7.44783251953125,0.0045995134860277,0.1333076804876327,-0.2331118285655975
1772641312800877800,7.4578779296875,0.0152355879545211,0.0722021833062172,-0.1536333709955215
1772641312810923800,7.467923828125,0.0245374776422977,0.0126602929085493,-0.0861054584383964
1772641312820969000,7.477968994140625,0.0284236464649438,-0.0522764958441257,-0.0378786586225032
1772641312831014000,7.488013916015625,0.0281219109892845,-0.0995148494839668,-0.0076155602000653
1772641312841059000,7.49805908203125,0.0295275263488292,-0.1241857632994651,0.0043739425018429
1772641312851105000,7.50810498046875,0.0270390659570693,-0.1291938424110412,-0.0053135715425014
1772641312861149700,7.518149658203125,0.026169192045927,-0.1055757328867912,-0.0250397510826587
1772641312871195000,7.52819482421875,0.0345187336206436,-0.0704062953591346,-0.0511970520019531
1772641312881240800,7.53824072265625,0.0431608706712722,-0.0420663990080356,-0.082274429500103
1772641312891286000,7.5482861328125,0.0509828403592109,-0.0174260344356298,-0.1087795346975326
1772641312901331000,7.5583310546875,0.0611751414835453,0.0063689099624753,-0.1317775696516037
1772641312911377000,7.568376953125,0.0691571682691574,0.0171525813639163,-0.1495400667190551
1772641312921421800,7.578421875,0.0795566439628601,0.0243998412042856,-0.1602366715669632
1772641312931466800,7.588466796875,0.0948565006256103,0.0308116674423217,-0.1683025807142257
1772641312941512700,7.5985126953125,0.1159103214740753,0.0294932052493095,-0.1700764447450637
1772641312951558000,7.608557861328125,0.1379959136247635,0.0265408251434564,-0.1697787046432495
1772641312961602800,7.618602783203125,0.1559095680713653,0.033059112727642,-0.1620147228240966
1772641312971648000,7.62864794921875,0.1704341918230056,0.0709433779120445,-0.1363506466150283
1772641312981693700,7.638693603515625,0.17730213701725,0.0768519937992096,-0.1094944104552269
1772641312991739000,7.64873876953125,0.1822630763053894,0.0725536495447158,-0.0748107284307479
1772641313001783800,7.65878369140625,0.186963602900505,0.0309829153120517,-0.0506097227334976
1772641313011829800,7.668829833984375,0.1758065521717071,-0.0066992160864174,-0.0291536971926689
1772641313021875000,7.678875,0.1634859293699264,-0.0629258751869201,-0.0126924961805343
1772641313031919900,7.688919921875,0.1723153740167617,-0.0957173779606819,-0.0041831647977232
1772641313041966000,7.698966064453125,0.1861665844917297,-0.0902545675635337,0.0051682190969586
1772641313052010800,7.7090107421875,0.1998933255672454,-0.072600208222866,0.0089917192235589
1772641313062056000,7.719055908203125,0.2201797068119049,-0.0403494499623775,0.0069336080923676
1772641313072100900,7.729100830078125,0.2407547533512115,-0.0165943205356597,-0.0119199752807617
1772641313082146800,7.739146728515625,0.2658490836620331,0.0278222076594829,-0.0523748956620693
1772641313092192000,7.74919189453125,0.2895437479019165,0.1084320992231369,-0.095634214580059
1772641313102236700,7.759236572265625,0.305001437664032,0.1754594594240188,-0.1206342503428459
1772641313112283000,7.769282958984375,0.2953235208988189,0.1908634603023529,-0.1223482713103294
1772641313122327800,7.779327880859375,0.2731608152389526,0.1763867139816284,-0.0888646990060806
1772641313132372700,7.789372802734375,0.2665031850337982,0.1731270104646682,-0.0415869317948818
1772641313142419000,7.7994189453125,0.2577127814292907,0.1283257752656936,0.0025274348445236
1772641317411483600,0.061483642578125,0.1386301964521408,0.194982960820198,0.0045625828206539
1772641317421528600,0.071528564453125,0.1422669738531112,0.1918512284755706,0.0082375621423125
1772641317431573500,0.081573486328125,0.1325243413448333,0.1723244041204452,0.0102397268638014
1772641317441618700,0.09161865234375,0.1177580878138542,0.1341487765312194,0.0176041219383478
1772641317451664400,0.101664306640625,0.1126362979412078,0.0937475562095642,0.0241613574326038
1772641317461709600,0.11170947265625,0.1037637665867805,0.0499070025980472,0.0360649526119232
1772641317471754500,0.12175439453125,0.0982811152935028,0.0248069763183593,0.0481802076101303
1772641317481800400,0.131800537109375,0.0927654504776001,0.0155973611399531,0.0534701347351074
1772641317491845600,0.141845703125,0.0896311774849891,0.0084976395592093,0.0459272637963295
1772641317501890600,0.151890625,0.078398548066616,-0.0087863374501466,0.0273775700479745
1772641317511936800,0.161936767578125,0.0698058605194091,-0.0253480039536952,0.0028589109424501
1772641317521981400,0.1719814453125,0.0612392015755176,-0.0335351601243019,-0.022719532251358
1772641317532026600,0.182026611328125,0.0600913800299167,-0.0389504320919513,-0.0533674582839012
1772641317542071600,0.192071533203125,0.0556586124002933,-0.037901684641838,-0.0831044167280197
1772641317552117500,0.202117431640625,0.0567145571112632,-0.0296884942799806,-0.1082494556903839
1772641317562162700,0.21216259765625,0.0589045621454715,-0.0246600452810525,-0.1408133655786514
1772641317572207400,0.222207275390625,0.0571205094456672,-0.0212493352591991,-0.1722501218318939
1772641317582253600,0.232253662109375,0.0529009737074375,-0.0257736481726169,-0.2091428786516189
1772641317592298500,0.242298583984375,0.0459943301975727,-0.0320557802915573,-0.2476218342781067
1772641317602343700,0.25234375,0.0414730831980705,-0.0156251396983861,-0.2831137776374817
1772641317612389600,0.2623896484375,0.0405782610177993,0.0196236595511436,-0.3120985627174377
1772641317622434600,0.2724345703125,0.041323285549879,0.053267378360033,-0.3412210643291473
1772641317632479700,0.282479736328125,0.0375967249274253,0.0607460662722587,-0.3743393421173095
1772641317642525700,0.292525634765625,0.0345534235239028,0.0759859979152679,-0.3948559463024139
1772641317652570400,0.3025703125,0.0279415901750326,0.0954073667526245,-0.4134581387042999
1772641317662615600,0.312615478515625,0.0290640164166688,0.1149758175015449,-0.4257848262786865
1772641317672660500,0.322660400390625,0.0329146794974803,0.1448151916265487,-0.4236708283424377
1772641317682706700,0.332706787109375,0.0388280823826789,0.1735958606004715,-0.4105191230773926
1772641317692751600,0.342751708984375,0.0498213469982147,0.1988096088171005,-0.3793838620185852
1772641317702796500,0.352796630859375,0.0571752488613128,0.2123963832855224,-0.3320547342300415
1772641317712842500,0.362842529296875,0.0680127143859863,0.205048993229866,-0.2735647857189178
1772641317722887400,0.372887451171875,0.075096383690834,0.1681948155164718,-0.212606132030487
1772641317732932600,0.3829326171875,0.0696150660514831,0.1151164248585701,-0.148065760731697
1772641317742977500,0.3929775390625,0.0567423962056636,0.0598856061697006,-0.0858030542731285
1772641317753023700,0.403023681640625,0.0409831404685974,0.0024140560999512,-0.0295799989253282
1772641317763068700,0.413068603515625,0.0251620206981897,-0.0454994812607765,0.0240283571183681
1772641317773113600,0.423113525390625,0.0094003695994615,-0.1028424054384231,0.0642229095101356
1772641317783159600,0.43315966796875,-0.0047784796915948,-0.1650318801403045,0.0915921106934547
1772641317793204500,0.44320458984375,-0.0157890524715185,-0.222513809800148,0.1112353131175041
1772641317803249700,0.453249755859375,-0.0265458300709724,-0.2744776010513305,0.1162486746907234
1772641317813295600,0.463295654296875,-0.043472085148096,-0.307916522026062,0.113818272948265
1772641317823340500,0.473340576171875,-0.0642317160964012,-0.3285323977470398,0.1069584712386131
1772641317833385500,0.483385498046875,-0.0863862931728363,-0.3330248892307281,0.0955470874905586
1772641317843431400,0.493431396484375,-0.1060608774423599,-0.3312394917011261,0.0813830345869064
1772641317853476600,0.5034765625,-0.1272449791431427,-0.3068196177482605,0.0672616213560104
1772641317863521500,0.513521484375,-0.1555530726909637,-0.2804422676563263,0.046949490904808
1772641317873566700,0.523566650390625,-0.1876281946897506,-0.2559745013713836,0.0302669201046228
1772641317883612700,0.53361279296875,-0.2191640585660934,-0.2341711223125457,0.015069730579853
1772641317893657600,0.54365771484375,-0.2459831535816192,-0.2094322144985199,0.0059068584814667
1772641317903702500,0.55370263671875,-0.2685370445251465,-0.1898432821035385,-0.0016857255250215
1772641317913748500,0.56374853515625,-0.2837327718734741,-0.1771892607212066,-0.0034591248258948
1772641317923793700,0.573793701171875,-0.2950515449047088,-0.1593503504991531,0.0005183308385312
1772641317933838600,0.583838623046875,-0.302292138338089,-0.1410602927207946,0.0151763688772916
1772641317943884500,0.593884521484375,-0.3090941905975342,-0.1383401900529861,0.0300508104264736
1772641317953929700,0.6039296875,-0.3180567920207977,-0.1417967081069946,0.0467996969819068
1772641317963974400,0.613974365234375,-0.322382777929306,-0.1500054597854614,0.0662540271878242
1772641317974019600,0.62401953125,-0.3253868222236633,-0.1510198563337326,0.0795352160930633
1772641317984065500,0.6340654296875,-0.3338631689548492,-0.1499428004026413,0.0889850482344627
1772641317994110500,0.6441103515625,-0.342212975025177,-0.1516187340021133,0.0899927914142608
1772641318004155600,0.65415576171875,-0.3497315049171448,-0.145294576883316,0.0906451717019081
1772641318014201600,0.66420166015625,-0.3485330939292907,-0.1395019292831421,0.0894462168216705
1772641318024246500,0.67424658203125,-0.33623206615448,-0.134494736790657,0.0876846387982368
1772641318034291500,0.68429150390625,-0.314818412065506,-0.1247070804238319,0.0897123664617538
1772641318044337400,0.69433740234375,-0.2967636883258819,-0.1204603984951973,0.0970249250531196
1772641318054382600,0.704382568359375,-0.2756648063659668,-0.1110298782587051,0.1113029271364212
1772641318064427500,0.714427490234375,-0.2558102011680603,-0.1174838468432426,0.1272399723529815
1772641318074472700,0.72447265625,-0.2394748777151107,-0.1235244274139404,0.1511061638593673
1772641318084518700,0.7345185546875,-0.2271414995193481,-0.1301647722721099,0.1837388575077057
1772641318094563600,0.7445634765625,-0.2158273309469223,-0.1260062456130981,0.2311210185289383
1772641318104608500,0.7546083984375,-0.2018333971500396,-0.1077351570129394,0.2903591692447662
1772641318114654500,0.764654541015625,-0.199019506573677,-0.1202906295657157,0.3412724137306213
1772641318124699600,0.77469970703125,-0.2057700902223587,-0.1527941077947616,0.3694815635681152
1772641318134744600,0.78474462890625,-0.2148754447698593,-0.1909550726413726,0.3686615824699402
1772641318144790500,0.79479052734375,-0.2361927628517151,-0.2214440107345581,0.3412078619003296
1772641318154835500,0.80483544921875,-0.2589593231678009,-0.23753322660923,0.2890831530094147
1772641318164880600,0.814880615234375,-0.2820441126823425,-0.2465037554502487,0.2060206830501556
1772641318174925600,0.824925537109375,-0.3006566762924194,-0.2431913018226623,0.0903316289186477
1772641318184971500,0.834971435546875,-0.3157313168048858,-0.2152732014656067,-0.0546325594186782
1772641318195016700,0.8450166015625,-0.3366704285144806,-0.1524108797311782,-0.2240085452795028
1772641318205061600,0.8550615234375,-0.3539731204509735,-0.0420639365911483,-0.3858667016029358
1772641318215107600,0.865107666015625,-0.3550988137722015,0.0950007066130638,-0.5152294635772705
1772641318225152500,0.875152587890625,-0.3286755084991455,0.2096870094537735,-0.5905809998512268
1772641318235197400,0.885197509765625,-0.2847360074520111,0.2787885963916778,-0.6071264147758484
1772641318245243600,0.89524365234375,-0.2315213084220886,0.3212388157844543,-0.5639591217041016
1772641318255288600,0.90528857421875,-0.1643260270357132,0.3641902804374695,-0.4492554366588592
1772641318265333800,0.915333740234375,-0.1076472252607345,0.3505600988864898,-0.2947778105735779
1772641318275378400,0.92537841796875,-0.0699128955602645,0.3039284348487854,-0.1145159229636192
1772641318285424400,0.93542431640625,-0.0522607527673244,0.2220412194728851,0.0690457224845886
1772641318295469600,0.945469482421875,-0.0480116792023181,0.1215827912092208,0.249136134982109
1772641318305514500,0.955514404296875,-0.0484487637877464,0.0012951919343322,0.408154159784317
1772641318315560700,0.965560791015625,-0.0512362942099571,-0.1220603063702583,0.5448750257492065
1772641318325605600,0.975605712890625,-0.0590761378407478,-0.2211107760667801,0.6459819078445435
1772641318335650600,0.985650634765625,-0.0605954714119434,-0.2772696614265442,0.7059568166732788
1772641318345696500,0.995696533203125,-0.0620119981467723,-0.3116562664508819,0.7144635915756226
1772641318355741400,1.005741455078125,-0.0749341920018196,-0.3104698359966278,0.6766621470451355
1772641318365786600,1.01578662109375,-0.0871342793107032,-0.28601735830307,0.5992018580436707
1772641318375831600,1.02583154296875,-0.0943250805139541,-0.2343413680791854,0.4929090142250061
1772641318385877500,1.03587744140625,-0.0985232293605804,-0.1537603139877319,0.3566127419471741
1772641318395922700,1.045922607421875,-0.098222829401493,-0.0438548400998115,0.209449365735054
1772641318405967400,1.05596728515625,-0.0931211039423942,0.0757995173335075,0.0504622384905815
1772641318416013600,1.066013671875,-0.0865023508667945,0.1866173893213272,-0.115183986723423
1772641318426058500,1.07605859375,-0.0810965672135353,0.283060073852539,-0.2792779207229614
1772641318436103700,1.086103759765625,-0.0766650661826133,0.3601279556751251,-0.4254268705844879
1772641318446149600,1.096149658203125,-0.0772536695003509,0.413348913192749,-0.5435645580291748
1772641318456194600,1.106194580078125,-0.0766161084175109,0.4503895044326782,-0.6184139847755432
1772641318466239500,1.116239501953125,-0.0675377175211906,0.4700542092323303,-0.6576275825500488
1772641318476284400,1.126284423828125,-0.0350593961775302,0.4606700241565704,-0.6540477871894836
1772641318486330600,1.13633056640625,0.0196245294064283,0.4292084574699402,-0.6216164827346802
1772641318496375600,1.14637548828125,0.0933368355035781,0.3838060796260834,-0.5574250221252441
1772641318506420700,1.156420654296875,0.1733927875757217,0.3433033227920532,-0.473876029253006
1772641318516466700,1.166466796875,0.2520303428173065,0.3032821416854858,-0.3751941919326782
1772641318526511600,1.17651171875,0.3175784647464752,0.2572194933891296,-0.2817187905311584
1772641318536556500,1.186556640625,0.3592755794525146,0.2118232697248459,-0.2034250497817993
1772641318546602500,1.1966025390625,0.3762088418006897,0.1684929728507995,-0.1459488272666931
1772641318556647400,1.2066474609375,0.3802467286586761,0.126073345541954,-0.1021736487746238
1772641318566692600,1.216692626953125,0.3791568875312805,0.0847740396857261,-0.0772011131048202
1772641318576737500,1.226737548828125,0.3800295889377594,0.0462719202041626,-0.0665050595998764
1772641318586783700,1.23678369140625,0.380531907081604,0.0117724621668457,-0.0716969519853591
1772641318596828400,1.246828369140625,0.3755691051483154,-0.0147097446024417,-0.0877403691411018
1772641318606873600,1.25687353515625,0.3653751015663147,-0.0282900631427764,-0.1078270524740219
1772641318616919600,1.26691943359375,0.3480182290077209,-0.0422900356352329,-0.1327414512634277
1772641318626964500,1.276964599609375,0.3285481333732605,-0.0567675121128559,-0.1582310944795608
1772641318637009700,1.287009765625,0.3094319403171539,-0.067999392747879,-0.1822791695594787
1772641318647055600,1.2970556640625,0.2939580380916595,-0.0690070688724517,-0.2025175988674163
1772641318657100800,1.307100830078125,0.2798217236995697,-0.0555554404854774,-0.2192667424678802
1772641318667145500,1.3171455078125,0.2654504179954529,-0.0388226732611656,-0.2350883930921554
1772641318677191400,1.32719140625,0.2521402239799499,-0.0195270050317049,-0.2480662316083908
1772641318687236600,1.337236572265625,0.2410990297794342,-0.0021241120994091,-0.25495445728302
1772641318697281500,1.347281494140625,0.2380318641662597,0.0104931462556123,-0.2496515810489654
1772641318707326700,1.35732666015625,0.2440268546342849,0.0093167703598737,-0.2341055870056152
1772641318717372700,1.36737255859375,0.2512349486351013,-0.0037862481549382,-0.214041605591774
1772641318727417300,1.377417236328125,0.2531942427158355,-0.0221858322620391,-0.1886041760444641
1772641318737462500,1.387462646484375,0.2563170790672302,-0.0383448302745819,-0.1667601317167282
1772641318747508500,1.397508544921875,0.2589623034000397,-0.0465283952653408,-0.1434255540370941
1772641318757553700,1.4075537109375,0.2556168437004089,-0.0588495135307312,-0.1219399645924568
1772641318767599000,1.41759912109375,0.2550653219223022,-0.0749393925070762,-0.1028148233890533
1772641318777644000,1.42764404296875,0.2565886378288269,-0.0882663875818252,-0.0802882090210914
1772641318787690200,1.437690185546875,0.2589108943939209,-0.0929490849375724,-0.0529767274856567
1772641318797735200,1.447735107421875,0.2620600759983063,-0.0788045078516006,-0.023621505126357
1772641318807780400,1.4577802734375,0.2709930837154388,-0.0755930691957473,0.0063028056174516
1772641318817826000,1.467825927734375,0.2753233909606933,-0.0707509070634841,0.0374620556831359
1772641318827871000,1.47787109375,0.2665616273880005,-0.0421667359769344,0.0633030980825424
1772641318837916200,1.487916259765625,0.2610483467578888,0.0033091364894062,0.0808200389146804
1772641318847962000,1.497962158203125,0.2540206909179687,0.0675112977623939,0.082002967596054
1772641318858007300,1.50800732421875,0.2526675164699554,0.1266395896673202,0.0665949806571006
1772641318868052200,1.51805224609375,0.2636286318302154,0.1648078262805938,0.048187855631113
1772641318878097200,1.52809716796875,0.280734121799469,0.1760988235473632,0.0372955277562141
1772641318888143000,1.53814306640625,0.2988831996917724,0.1673298329114914,0.0393626876175403
1772641318898188000,1.54818798828125,0.3278416395187378,0.1429219543933868,0.0539541468024253
1772641318908233200,1.558233154296875,0.3607155978679657,0.1211104020476341,0.0808012410998344
1772641318918279200,1.568279052734375,0.3821782767772674,0.1097019538283348,0.1062568053603172
1772641318928324000,1.578323974609375,0.3927038311958313,0.0923735126852989,0.1272770911455154
1772641318938369000,1.588369140625,0.4014962613582611,0.0926376953721046,0.1494811922311782
1772641318948415000,1.5984150390625,0.4056877195835113,0.1058422401547432,0.1697597503662109
1772641318958460200,1.608460205078125,0.4066246449947357,0.1308905929327011,0.1859664171934127
1772641318968505000,1.618505126953125,0.4069884121417999,0.1592276990413665,0.1919542700052261
1772641318978551000,1.628551025390625,0.4132330119609833,0.1475337594747543,0.1828222870826721
1772641318988596200,1.63859619140625,0.4231333434581756,0.100126564502716,0.1531172096729278
1772641318998641200,1.64864111328125,0.4307036399841308,0.0518096312880516,0.1317410767078399
1772641319008686000,1.65868603515625,0.4309443235397339,-0.0130980648100376,0.126652717590332
1772641319018732000,1.66873193359375,0.4107413291931152,-0.0859967693686485,0.0981289371848106
1772641319028777200,1.678777099609375,0.3887352347373962,-0.1358862370252609,0.0706393420696258
1772641319038822100,1.688822265625,0.3528943955898285,-0.1760501563549041,0.0445837751030921
1772641319048868000,1.6988681640625,0.2997935712337494,-0.1970861405134201,0.0231112986803054
1772641319058913300,1.708913330078125,0.2322797775268554,-0.1611513048410415,0.0085448734462261
1772641319068958000,1.7189580078125,0.1578578054904937,-0.0937629491090774,0.0033526690676808
1772641319079003100,1.729003173828125,0.0986416116356849,0.0194213949143886,0.0214190203696489
1772641319089049000,1.739049072265625,0.0711356028914451,0.1347145587205886,0.062713049352169
1772641319099094300,1.74909423828125,0.0668425858020782,0.2137537151575088,0.1283125728368759
1772641319109139200,1.75913916015625,0.0854053795337677,0.2566969394683838,0.2037301808595657
1772641319119185200,1.76918505859375,0.1178975477814674,0.2625316381454468,0.2796374559402466
1772641319129230300,1.779230224609375,0.1493504345417022,0.2277144789695739,0.3511270582675934
1772641319139275000,1.78927490234375,0.1731143444776535,0.1533414423465728,0.4069890081882477
1772641319149321000,1.799321044921875,0.1778748482465744,0.0723306834697723,0.4526168704032898
1772641319159366100,1.8093662109375,0.1667236685752868,0.0152034843340516,0.4810583591461181
1772641319169411000,1.8194111328125,0.1398041546344757,-0.0204521194100379,0.4937267601490021
1772641319179457300,1.829457275390625,0.1075668483972549,-0.0248548574745655,0.4896801114082336
1772641319189502200,1.839502197265625,0.070269837975502,-0.0197258070111274,0.4781174659729004
1772641319199547100,1.849547119140625,0.0327704027295112,-0.0326983295381069,0.4526531100273132
1772641319209592000,1.859592041015625,-0.0017896825447678,-0.0575462840497493,0.4145722985267639
1772641319219638000,1.869637939453125,-0.0316551700234413,-0.0783266648650169,0.3756951987743377
1772641319229683200,1.87968310546875,-0.0477257780730724,-0.0900451764464378,0.3416218757629394
1772641319239728000,1.88972802734375,-0.049019806087017,-0.0990317463874816,0.3162891268730163
1772641319249774300,1.8997744140625,-0.0438334159553051,-0.1017584949731826,0.2984337508678436
1772641319259819000,1.909819091796875,-0.0410437546670436,-0.1090702041983604,0.2828201949596405
1772641319269864200,1.9198642578125,-0.0376900099217891,-0.1333823204040527,0.2648518085479736
1772641319279909000,1.9299091796875,-0.0379134491086006,-0.1687938421964645,0.2471300810575485
1772641319289955000,1.939955078125,-0.0449101030826568,-0.2175896912813186,0.2230671495199203
1772641319300000300,1.950000244140625,-0.056666363030672,-0.271195650100708,0.192194178700447
1772641319310045200,1.960045166015625,-0.0731317326426506,-0.3001335561275482,0.1456150859594345
1772641319320091100,1.970091064453125,-0.0949725806713104,-0.3057312667369842,0.0866921171545982
1772641319330136000,1.980135986328125,-0.1184611991047859,-0.2852734625339508,0.0083866287022829
1772641319340181000,1.990180908203125,-0.1319152265787124,-0.2409166395664215,-0.0866400152444839
1772641319350227200,2.000227294921875,-0.139620691537857,-0.1757576167583465,-0.1922143250703811
1772641319360272100,2.010272216796875,-0.1353465765714645,-0.0995411500334739,-0.3009703755378723
1772641319370317300,2.0203173828125,-0.118106409907341,-0.0289572533220052,-0.391690045595169
1772641319380362000,2.030362060546875,-0.0874763280153274,0.0178358182311058,-0.4657850563526153
1772641319390408000,2.040407958984375,-0.0467829219996929,0.0718017071485519,-0.5001266002655029
1772641319400453000,2.050453125,0.0199111551046371,0.1160695701837539,-0.5095033645629883
1772641319410498000,2.060498046875,0.0961529836058616,0.1522312462329864,-0.4937626719474792
1772641319420544300,2.070544189453125,0.1657309830188751,0.174043595790863,-0.4699718654155731
1772641319430589200,2.080589111328125,0.2086096256971359,0.1915774494409561,-0.4470340013504028
1772641319440634400,2.09063427734375,0.226085290312767,0.2086246162652969,-0.4249074161052704
1772641319450680300,2.100680419921875,0.2217219769954681,0.2148416936397552,-0.4065723121166229
1772641319460725000,2.11072509765625,0.205310508608818,0.2069853693246841,-0.3938770294189453
1772641319470770200,2.120770263671875,0.180940568447113,0.1860446035861969,-0.3799926936626434
1772641319480816000,2.130816162109375,0.1490199118852615,0.1389916092157364,-0.3653535842895508
1772641319490861000,2.140861083984375,0.1234026178717613,0.0860451608896255,-0.3480386435985565
1772641319500906200,2.15090625,0.1014440581202507,0.044433269649744,-0.3303406238555908
1772641319510951200,2.160951171875,0.0740898475050926,-0.0087187644094228,-0.3142477869987488
1772641319520997000,2.1709970703125,0.0435066409409046,-0.0534609332680702,-0.3001753985881805
1772641319531042000,2.1810419921875,0.0018401534762233,-0.0872122421860694,-0.2842603325843811
1772641319541087200,2.191087158203125,-0.0390984900295734,-0.1163115352392196,-0.2690736651420593
1772641319551133200,2.20113330078125,-0.0835017040371894,-0.1606116890907287,-0.2615077495574951
1772641319561178000,2.21117822265625,-0.1382877230644226,-0.1841351240873336,-0.2508018314838409
1772641319571223300,2.221223388671875,-0.2017659246921539,-0.1735730916261673,-0.2285027354955673
1772641319581268000,2.23126806640625,-0.2603759467601776,-0.1615545004606247,-0.1960396021604538
1772641319591314200,2.241314208984375,-0.3028312623500824,-0.1427991986274719,-0.1669182032346725
1772641319601359000,2.251359130859375,-0.3222773969173431,-0.1358217149972915,-0.1460102647542953
1772641319611404300,2.261404296875,-0.3258503675460815,-0.1280211210250854,-0.1386997401714325
1772641319621450200,2.2714501953125,-0.3220843970775604,-0.1104615703225135,-0.1386818885803222
1772641319631495200,2.2814951171875,-0.3151519298553467,-0.0829320028424263,-0.1369396746158599
1772641319641540000,2.2915400390625,-0.3008963167667389,-0.0586578287184238,-0.1349415034055709
1772641319651586000,2.3015859375,-0.283178448677063,-0.0460964329540729,-0.1285893470048904
1772641319661631200,2.31163134765625,-0.2740547358989715,-0.0364738963544368,-0.1193724051117897
1772641319671676200,2.32167626953125,-0.266429990530014,-0.0345893092453479,-0.1018041893839836
1772641319681722000,2.33172216796875,-0.2615505456924438,-0.0462502278387546,-0.08262250572443
1772641319691767300,2.341767333984375,-0.2632121741771698,-0.0707427859306335,-0.0689013302326202
1772641319701812200,2.351812255859375,-0.2715814411640167,-0.097942978143692,-0.05534478276968
1772641319711857200,2.361857177734375,-0.2880987823009491,-0.1203582063317298,-0.0433008931577205
1772641319721903000,2.371903076171875,-0.3093201816082001,-0.1321538835763931,-0.0277794562280178
1772641319731948000,2.381947998046875,-0.3308902978897095,-0.1423415243625641,-0.0161371603608131
1772641319741993200,2.3919931640625,-0.3555072247982025,-0.1463218927383422,-0.0112089812755584
1772641319752039200,2.4020390625,-0.3806168437004089,-0.1446378529071808,-0.0082856118679046
1772641319762083600,2.41208349609375,-0.4036771655082702,-0.1330949068069458,-0.014256153255701
1772641319772128500,2.42212841796875,-0.4186103940010071,-0.1168847754597663,-0.0175190344452857
1772641319782174500,2.432174560546875,-0.4213366508483886,-0.1133917719125747,-0.0252722948789596
1772641319792219600,2.4422197265625,-0.4188646674156189,-0.1317781805992126,-0.0385430715978145
1772641319802264600,2.4522646484375,-0.4209022521972656,-0.1515454947948455,-0.0554916933178901
1772641319812309500,2.4623095703125,-0.4212813377380371,-0.1577546447515487,-0.0704557746648788
1772641319822355500,2.47235546875,-0.4182072579860687,-0.1498256176710128,-0.076391689479351
1772641319832400600,2.482400634765625,-0.4128766357898712,-0.1332976520061493,-0.0747892782092094
1772641319842445600,2.492445556640625,-0.4070155620574951,-0.11868567019701,-0.070609450340271
1772641319852491500,2.502491455078125,-0.3969271779060364,-0.1092437729239463,-0.0538891181349754
1772641319862536700,2.51253662109375,-0.3788403272628784,-0.0991908758878707,-0.0280314218252897
1772641319872581400,2.522581298828125,-0.3518822789192199,-0.0917654410004615,0.0169323533773422
1772641319882627600,2.532627685546875,-0.3194604218006134,-0.105073258280754,0.0701359212398529
1772641319892672500,2.542672607421875,-0.291015475988388,-0.1188397407531738,0.129777729511261
1772641319902717700,2.5527177734375,-0.2695120573043823,-0.1339659541845321,0.1843533515930175
1772641319912762600,2.5627626953125,-0.2564321756362915,-0.1614370048046112,0.2199031710624694
1772641319922808600,2.57280859375,-0.2621734142303467,-0.2039557099342346,0.2325779497623443
1772641319932853500,2.582853515625,-0.2692974209785461,-0.2517232894897461,0.2287410199642181
1772641319942898400,2.5928984375,-0.2575582265853882,-0.264165312051773,0.2184148877859115
1772641319952944600,2.602944580078125,-0.2347932457923889,-0.2653775215148926,0.1880910247564315
1772641319962989600,2.612989501953125,-0.2189250737428665,-0.2368057966232299,0.136034220457077
1772641319973034500,2.623034423828125,-0.2231242209672927,-0.1669175028800964,0.0568511001765728
1772641319983080700,2.633080810546875,-0.2510104477405548,-0.0783719345927238,-0.0438661910593509
1772641319993125600,2.643125732421875,-0.2772682011127472,0.038900226354599,-0.1447073817253112
1772641320003170600,2.653170654296875,-0.3100120425224304,0.1669505983591079,-0.2237649112939834
1772641320013215500,2.663215576171875,-0.3327262103557586,0.2749527394771576,-0.2517142593860626
1772641320023261400,2.673261474609375,-0.330683559179306,0.3499345779418945,-0.2226506620645523
1772641320033306600,2.683306640625,-0.3110339939594269,0.3857645094394684,-0.1528349220752716
1772641320043351600,2.6933515625,-0.2832835912704468,0.3845141530036926,-0.0445198900997638
1772641320053397800,2.703397705078125,-0.2316100001335144,0.3563600778579712,0.1134401336312294
1772641320063442400,2.7134423828125,-0.1891978234052658,0.2609917223453522,0.2732891738414764
1772641320073487600,2.723487548828125,-0.1707172989845276,0.1636009365320205,0.4352849423885345
1772641320083533600,2.733533447265625,-0.1771743893623352,0.0471108146011829,0.5736979842185974
1772641320093578500,2.74357861328125,-0.1992819458246231,-0.0795031264424324,0.6764200329780579
1772641320103623700,2.753623779296875,-0.2311647832393646,-0.2104070633649826,0.7377305626869202
1772641320113668600,2.763668701171875,-0.2539385855197906,-0.3201673030853271,0.759678840637207
1772641320123714600,2.773714599609375,-0.2645347714424133,-0.4255424737930298,0.7357684373855591
1772641320133759500,2.783759521484375,-0.2590730190277099,-0.5031397342681885,0.6798162460327148
1772641320143804700,2.7938046875,-0.2436895370483398,-0.5360689163208008,0.6034684777259827
1772641320153850600,2.8038505859375,-0.2316108047962188,-0.5149490833282471,0.5097214579582214
1772641320163895600,2.8138955078125,-0.2191296368837356,-0.4431696832180023,0.4035681486129761
1772641320173940700,2.823940673828125,-0.2075069844722747,-0.3473371565341949,0.2841984927654266
1772641320183986700,2.833986572265625,-0.2007825076580047,-0.226994514465332,0.1535760313272476
1772641320194031400,2.84403125,-0.2080501168966293,-0.094269685447216,0.0038144937716424
1772641320204076500,2.85407666015625,-0.229255273938179,0.0365218892693519,-0.1619108319282531
1772641320214121500,2.86412158203125,-0.2626554071903229,0.1553464084863662,-0.3283777832984924
1772641320224167700,2.874167724609375,-0.29055255651474,0.240037590265274,-0.4735293984413147
1772641320234212600,2.884212646484375,-0.2996393740177154,0.2823791205883026,-0.5810188055038452
1772641320244257500,2.894257568359375,-0.2910698652267456,0.3236730396747589,-0.6370794177055359
1772641320254303500,2.904303466796875,-0.2677895128726959,0.3435013890266418,-0.6517629027366638
1772641320264348400,2.914348388671875,-0.228945717215538,0.3423011004924774,-0.6297180652618408
1772641320274393600,2.9243935546875,-0.1893836855888366,0.3180767893791199,-0.5766945481300354
1772641320284439600,2.934439453125,-0.1470772475004196,0.2686645090579986,-0.4970758259296417
1772641320294484700,2.944484619140625,-0.1163019612431526,0.2058669030666351,-0.4078057408332824
1772641320304529700,2.95452978515625,-0.0914360284805297,0.1591854244470596,-0.3018199205398559
1772641320314574600,2.96457470703125,-0.0766868889331817,0.0983825996518135,-0.2009432464838028
1772641320324620500,2.97462060546875,-0.0672840699553489,0.039070539176464,-0.1135974153876304
1772641320334665500,2.98466552734375,-0.0605838671326637,-0.0267851836979389,-0.0584648884832859
1772641320344710700,2.994710693359375,-0.0527046397328376,-0.0826092958450317,-0.0379241928458213
1772641320354756600,3.004756591796875,-0.0478604435920715,-0.1201992109417915,-0.0528973042964935
1772641320364801500,3.014801513671875,-0.0412930883467197,-0.1267154365777969,-0.0915626734495163
1772641320374846500,3.024846435546875,-0.0349579043686389,-0.1013050824403762,-0.1523670554161071
1772641320384892400,3.034892333984375,-0.0300438404083251,-0.0518051721155643,-0.2287196218967437
1772641320394937600,3.0449375,-0.0279494617134332,0.015126846730709,-0.3109844028949737
1772641320404982500,3.054982421875,-0.0253323726356029,0.0551421754062175,-0.3862831592559814
1772641320415028500,3.065028564453125,-0.0189589038491249,0.1055266559123992,-0.4435510635375976
1772641320425073700,3.07507373046875,-0.0003396780230104,0.1505697518587112,-0.4668960571289062
1772641320435118600,3.08511865234375,0.0215792339295148,0.1725408434867859,-0.4686270356178283
1772641320445163500,3.09516357421875,0.0438616350293159,0.1466205567121505,-0.4511822760105133
1772641320455209500,3.10520947265625,0.0742043554782867,0.1381738930940628,-0.4034616649150848
1772641320465254700,3.115254638671875,0.1120380237698555,0.1222748085856437,-0.3373425900936126
1772641320475299600,3.125299560546875,0.1402940452098846,0.102347046136856,-0.260221391916275
1772641320485345500,3.135345458984375,0.1666382998228073,0.1298495084047317,-0.1558209359645843
1772641320495390700,3.145390625,0.185293361544609,0.1250029504299163,-0.0557654052972793
1772641320505435400,3.155435302734375,0.1922101229429245,0.1210438981652259,0.0452456288039684
1772641320515481600,3.165481689453125,0.1909709572792053,0.0985920503735542,0.1344748884439468
1772641320525526500,3.175526611328125,0.1853932291269302,0.0687436014413833,0.212468221783638
1772641320535571500,3.185571533203125,0.1840771287679672,0.0230311751365661,0.2759647667407989
1772641320545616600,3.19561669921875,0.1919398456811905,-0.0384353809058666,0.331358253955841
1772641320555662600,3.20566259765625,0.2104593068361282,-0.0971708595752716,0.3701393604278564
1772641320565707800,3.215707763671875,0.2309334278106689,-0.1379470527172088,0.3914465010166168
1772641320575752400,3.22575244140625,0.2465809881687164,-0.1519408375024795,0.397014170885086
1772641320585798400,3.23579833984375,0.2546202838420868,-0.144316479563713,0.3874909579753876
1772641320595843600,3.245843505859375,0.2595496475696563,-0.1245501562952995,0.3574609756469726
1772641320605888500,3.255888427734375,0.2627617120742798,-0.0855585485696792,0.3202041685581207
1772641320615934700,3.265934814453125,0.2658990621566772,-0.0446058586239814,0.2725354433059692
1772641320625979600,3.275979736328125,0.2710325717926025,-0.0061191865243017,0.2257729917764663
1772641320636024600,3.286024658203125,0.2852846086025238,0.0284677539020776,0.187541201710701
1772641320646069500,3.296069580078125,0.30887171626091,0.0545078739523887,0.1620669960975647
1772641320656115500,3.306115478515625,0.3359041213989258,0.082047626376152,0.151699036359787
1772641320666160600,3.31616064453125,0.3694109618663788,0.1129235178232193,0.1540892273187637
1772641320676205600,3.32620556640625,0.3956438601016998,0.1384689509868621,0.1638814061880111
1772641320686251500,3.33625146484375,0.4208517372608185,0.1152147650718689,0.1667565554380417
1772641320696296400,3.34629638671875,0.4363104104995727,0.054682184010744,0.1713921129703521
1772641320706341600,3.356341552734375,0.4434181153774261,-0.0050887381657958,0.1727215647697448
1772641320716387600,3.3663876953125,0.441268652677536,-0.0634344071149826,0.1658338010311126
1772641320726432500,3.3764326171875,0.4253637194633484,-0.1404815167188644,0.142008364200592
1772641320736477700,3.386477783203125,0.3989546298980713,-0.2187490165233612,0.0937388688325882
1772641320746522600,3.396522705078125,0.3735771179199219,-0.241325169801712,0.033842246979475
1772641320756568600,3.406568603515625,0.3573187291622162,-0.1895561218261718,-0.0172729361802339
1772641320766614300,3.4166142578125,0.3488844931125641,-0.1158930882811546,-0.0710751786828041
1772641320776659200,3.4266591796875,0.3402468860149383,0.0133967902511358,-0.1056148558855056
1772641320786705200,3.436705078125,0.3630073070526123,0.2005211412906646,-0.1063205897808075
1772641320796750000,3.44675,0.4125889837741852,0.3222403228282928,-0.0855540260672569
1772641320806795000,3.456794921875,0.4633562862873077,0.4030355811119079,-0.02818607352674
1772641320816841200,3.46684130859375,0.5172863602638245,0.4270153343677521,0.0513305068016052
1772641320826886100,3.47688623046875,0.5510674715042114,0.4292691648006439,0.1570183187723159
1772641320836931300,3.486931396484375,0.5602403879165649,0.4087865948677063,0.2707243859767914
1772641320846976000,3.49697607421875,0.5434139966964722,0.3764267861843109,0.3805853724479675
1772641320857022000,3.50702197265625,0.5144440531730652,0.3338786959648132,0.4780146479606628
1772641320867067100,3.517067138671875,0.4757917821407318,0.2733969688415527,0.5513290762901306
1772641320877112000,3.527112060546875,0.4270956218242645,0.1972677558660507,0.592533528804779
1772641320887158300,3.537158203125,0.365312397480011,0.1231961920857429,0.5897414684295654
1772641320897203200,3.547203125,0.2986908853054046,0.0448621064424514,0.547710120677948
1772641320907248400,3.557248291015625,0.233374997973442,-0.0245340131223201,0.4838237762451172
1772641320917294300,3.56729443359375,0.1775258630514145,-0.0704693421721458,0.409751832485199
1772641320927339000,3.577339111328125,0.1299165338277816,-0.1078318953514099,0.3395056128501892
1772641320937384200,3.58738427734375,0.0906972885131836,-0.1069343462586402,0.2790096402168274
1772641320947430100,3.59743017578125,0.0573345422744751,-0.083776831626892,0.2230451703071594
1772641320957475000,3.60747509765625,0.0387375392019748,-0.0454747825860977,0.1628965139389038
1772641320967520300,3.617520263671875,0.0257916450500488,-0.0038514365442097,0.0889828875660896
1772641320977565000,3.62756494140625,0.0130655542016029,0.0412351489067077,-0.0054374341852962
1772641320987611100,3.637611083984375,0.0031042662449181,0.0994073674082756,-0.1152922958135604
1772641320997656000,3.647656005859375,-0.0102811343967914,0.165413424372673,-0.2410181611776352
1772641321007701200,3.657701171875,-0.0230925362557172,0.223022922873497,-0.3672032356262207
1772641321017747200,3.667747314453125,-0.0264801979064941,0.2608844637870788,-0.4853179156780243
1772641321027792100,3.677792236328125,-0.0197892729192972,0.2737259566783905,-0.5787237882614136
1772641321037837300,3.68783740234375,0.0027290578000247,0.2784999012947082,-0.6335673332214355
1772641321047882000,3.697882080078125,0.0446757078170776,0.2778764367103576,-0.6503710746765137
1772641321057928200,3.70792822265625,0.1033651530742645,0.2609712779521942,-0.635637104511261
1772641321067973000,3.71797314453125,0.1633320897817611,0.2368172258138656,-0.603054404258728
1772641321078018300,3.728018310546875,0.2150264680385589,0.2358768582344055,-0.5381613373756409
1772641321088064300,3.738064208984375,0.2625540494918823,0.2169652283191681,-0.4661675691604614
1772641321098109200,3.748109130859375,0.2858637869358063,0.184578388929367,-0.3929981589317322
1772641321108154000,3.758154052734375,0.2916087508201599,0.1524188667535781,-0.3301249146461487
1772641321118200000,3.768199951171875,0.2836896777153015,0.1021359860897064,-0.2770030796527862
1772641321128245000,3.778244873046875,0.2665991187095642,0.0449110455811023,-0.2308094799518585
1772641321138290200,3.788290283203125,0.2354080975055694,-0.0147755183279514,-0.1890914440155029
1772641321148336000,3.798336181640625,0.1963778734207153,-0.0695111975073814,-0.1590730845928192
1772641321158381300,3.80838134765625,0.1485276967287063,-0.1245810538530349,-0.1344267725944519
1772641321168426000,3.818426025390625,0.1026035994291305,-0.1710952967405319,-0.1230737045407295
1772641321178471200,3.82847119140625,0.0550759397447109,-0.1925676167011261,-0.1248614192008972
1772641321188517000,3.83851708984375,0.0099135227501392,-0.1803839206695556,-0.1322908401489257
1772641321198562000,3.84856201171875,-0.034963309764862,-0.1584392040967941,-0.1430468559265136
1772641321208607200,3.858607177734375,-0.0796892419457435,-0.1350135058164596,-0.1459456980228424
1772641321218653200,3.868653076171875,-0.1175777316093444,-0.1129270568490028,-0.1434212476015091
1772641321228698400,3.878698486328125,-0.1484938412904739,-0.107599139213562,-0.1343673020601272
1772641321238743000,3.888742919921875,-0.1775484830141067,-0.1105870008468627,-0.1172430962324142
1772641321248789000,3.8987890625,-0.2021853774785995,-0.1121137961745262,-0.0965940132737159
1772641321258834200,3.908834228515625,-0.2234517484903335,-0.1137288659811019,-0.073613166809082
1772641321268879000,3.918879150390625,-0.2419732362031936,-0.118065021932125,-0.0461770221590995
1772641321278924300,3.92892431640625,-0.2575739026069641,-0.1239138543605804,-0.019546516239643
1772641321288970200,3.93897021484375,-0.2678917944431305,-0.1181923225522041,0.0083855157718062
1772641321299015200,3.94901513671875,-0.2722984254360199,-0.102003701031208,0.037710040807724
1772641321309060000,3.95906005859375,-0.2725708782672882,-0.0871339440345764,0.0596821829676628
1772641321319106000,3.96910595703125,-0.2681684792041778,-0.0751499831676483,0.0753922015428543
1772641321329151200,3.979151123046875,-0.2585776448249817,-0.0687432140111923,0.0879801660776138
1772641321339196200,3.989196044921875,-0.2491441965103149,-0.1019957065582275,0.1044193282723426
1772641321349242000,3.9992421875,-0.2558300495147705,-0.152911901473999,0.1205013543367385
1772641321359287300,4.009287353515625,-0.2702875435352325,-0.2069663405418396,0.1416522711515426
1772641321369332000,4.01933203125,-0.2919435501098633,-0.2568050026893616,0.1682766824960708
1772641321379377200,4.029377197265625,-0.3144600391387939,-0.2861384153366089,0.1991182267665863
1772641321389423000,4.039423095703125,-0.3260714411735534,-0.2976762652397156,0.221125528216362
1772641321399468300,4.04946826171875,-0.3351163268089294,-0.2765675783157348,0.2298913598060608
1772641321409513200,4.05951318359375,-0.3444032967090606,-0.2235299348831176,0.2193071544170379
1772641321419559200,4.06955908203125,-0.3401126861572265,-0.1661508083343505,0.1989307850599289
1772641321429604000,4.07960400390625,-0.327066034078598,-0.1147675663232803,0.1669734865427017
1772641321439649000,4.08964892578125,-0.3044354021549225,-0.0784104168415069,0.1374778896570205
1772641321449695200,4.0996953125,-0.2792099416255951,-0.060108907520771,0.1129941195249557
1772641321459740200,4.109740234375,-0.2621341943740845,-0.0606548637151718,0.0960923507809639
1772641321469785000,4.11978515625,-0.2498599588871002,-0.0712997838854789,0.0883753076195716
1772641321479830300,4.129830322265625,-0.2448705285787582,-0.08233492821455,0.0913429111242294
1772641321489876000,4.1398759765625,-0.2461874634027481,-0.101400502026081,0.1034056991338729
1772641321499921200,4.149921142578125,-0.2484306097030639,-0.116178847849369,0.1116455495357513
1772641321509966000,4.159966064453125,-0.249356597661972,-0.1224109083414077,0.1241714656352996
1772641321520012000,4.170011962890625,-0.2443495541810989,-0.1366819888353347,0.1360353827476501
1772641321530057200,4.18005712890625,-0.236980065703392,-0.1478627324104309,0.1478531658649444
1772641321540102100,4.19010205078125,-0.2310955077409744,-0.1666336953639984,0.1478620022535324
1772641321550148400,4.2001484375,-0.2307429015636444,-0.1973508596420288,0.1232160404324531
1772641321560193000,4.210193115234375,-0.2366125136613845,-0.2309541702270507,0.0768549740314483
1772641321570238200,4.22023828125,-0.2475296109914779,-0.2359268218278885,0.0142658930271863
1772641321580283100,4.230283203125,-0.2589820027351379,-0.24415984749794,-0.0573777556419372
1772641321590329000,4.2403291015625,-0.2622909843921661,-0.1837705373764038,-0.1165092512965202
1772641321600374300,4.250374267578125,-0.2681525945663452,-0.1368962377309799,-0.1835844218730926
1772641321610419000,4.2604189453125,-0.2830700278282165,-0.1185686290264129,-0.2606328725814819
1772641321620465200,4.270465087890625,-0.3036259114742279,-0.0920265018939971,-0.3292517066001892
1772641321630510000,4.280510009765625,-0.3195409774780273,-0.0566173754632473,-0.3801665604114532
1772641321640555300,4.29055517578125,-0.3323467969894409,-0.0382811836898326,-0.4064909517765045
1772641321650601200,4.300601318359375,-0.3219799101352691,0.0278347190469503,-0.3774097859859466
1772641321660646100,4.310646240234375,-0.2928505837917328,0.062977135181427,-0.3109900653362274
1772641321670691300,4.32069140625,-0.262422114610672,0.0898936986923217,-0.1984566003084182
1772641321680736000,4.330736083984375,-0.2387512773275375,0.0920070558786392,-0.0675227716565132
1772641321690782000,4.340781982421875,-0.2483692765235901,0.0876352116465568,0.0497836172580719
1772641321700827100,4.3508271484375,-0.2446378320455551,0.0489065200090408,0.1947409957647323
1772641321710872000,4.3608720703125,-0.2331534922122955,0.0032189260236918,0.3368443548679352
1772641321720918300,4.370918212890625,-0.2312304228544235,-0.0513098277151584,0.4600046277046203
1772641321730963200,4.380963134765625,-0.2326213866472244,-0.0887253805994987,0.5735136270523071
1772641321741008100,4.391008056640625,-0.2401997447013855,-0.1169131398200988,0.6595360040664673
1772641321751054000,4.40105419921875,-0.2469609677791595,-0.1441242545843124,0.7118122577667236
1772641321761099000,4.41109912109375,-0.2477263212203979,-0.1813372075557708,0.7225320935249329
1772641321771143700,4.421143798828125,-0.247999832034111,-0.2313465774059295,0.6915105581283569
1772641321781188600,4.431188720703125,-0.2472388744354248,-0.2813741862773895,0.6258414387702942
1772641321791234800,4.44123486328125,-0.2425919324159622,-0.3037348687648773,0.5375288724899292
1772641321801279700,4.45127978515625,-0.234531283378601,-0.290528655052185,0.4456930160522461
1772641321811324700,4.46132470703125,-0.2250914424657821,-0.2284506410360336,0.3591200411319732
1772641321821370600,4.47137060546875,-0.2173658460378646,-0.1556601375341415,0.2719573080539703
1772641321831415600,4.48141552734375,-0.2165503799915313,-0.085616610944271,0.1722778528928756
1772641321841460700,4.491460693359375,-0.2274755835533142,-0.0220553427934646,0.0541262179613113
1772641321851506700,4.501506591796875,-0.2541641891002655,0.0497362911701202,-0.0819930061697959
1772641321861551900,4.5115517578125,-0.2757819592952728,0.1210231855511665,-0.2246083915233612
1772641321871596500,4.521596435546875,-0.278196632862091,0.1864900738000869,-0.3540793061256408
1772641321881641700,4.531641845703125,-0.2567651271820068,0.2347106784582138,-0.4581889808177948
1772641321891687700,4.541687744140625,-0.2140954285860061,0.2655484974384308,-0.5187724232673645
1772641321901732600,4.551732666015625,-0.1604450643062591,0.2692402005195617,-0.5390871167182922
1772641321911777800,4.56177783203125,-0.1042286679148674,0.2596951723098755,-0.5163943767547607
1772641321921823700,4.57182373046875,-0.0584066733717918,0.2461971491575241,-0.4627057015895843
1772641321931868700,4.58186865234375,-0.0207770075649023,0.2231445610523224,-0.3887113928794861
1772641321941913600,4.59191357421875,0.01135547272861,0.2042598277330398,-0.3018448054790497
1772641321951959600,4.60195947265625,0.0386190526187419,0.1690901219844818,-0.2273503392934799
1772641321962004700,4.612004638671875,0.0529995039105415,0.1422013789415359,-0.1606100648641586
1772641321972049700,4.622049560546875,0.0580041147768497,0.1103033646941185,-0.1070323213934898
1772641321982094800,4.6320947265625,0.0537671744823455,0.0830118879675865,-0.0606162659823894
1772641321992140800,4.642140869140625,0.0465201810002327,0.0714934468269348,-0.0178237948566675
1772641322002185500,4.652185546875,0.0385715998709201,0.0652324259281158,0.0107996743172407
1772641322012230700,4.662230712890625,0.0295791681855916,0.0642654299736023,0.029478020966053
1772641322022276600,4.672276611328125,0.0117755187675356,0.0708787888288497,0.0345989316701889
1772641322032321800,4.68232177734375,-0.0093840956687927,0.0830278620123863,0.0278355684131383
1772641322042366700,4.69236669921875,-0.0289515815675258,0.0993395298719406,0.0185626335442066
1772641322052412700,4.70241259765625,-0.0377514623105526,0.1111692935228347,0.0127753177657723
1772641322062457900,4.712457763671875,-0.0355489626526832,0.120809867978096,0.0102713406085968
1772641322072502500,4.72250244140625,-0.0249607693403959,0.1215992346405983,0.0133709944784641
1772641322082547700,4.732547607421875,-0.0090063409879803,0.11149612814188,0.0177216418087482
1772641322092593700,4.74259375,0.0154726365581154,0.0996120348572731,0.0276975780725479
1772641322102638800,4.752638916015625,0.0370166860520839,0.0906662940979003,0.0438660457730293
1772641322112683800,4.762683837890625,0.049844067543745,0.0949976593255996,0.0564319044351577
1772641322122729700,4.772729736328125,0.0573727712035179,0.1071627661585807,0.0606514103710651
1772641322132774700,4.782774658203125,0.0614753738045692,0.1223638206720352,0.0729229897260665
1772641322142819600,4.792819580078125,0.0680352374911308,0.1337349265813827,0.0773283615708351
1772641322152865500,4.802865478515625,0.0784266218543052,0.1450783908367157,0.0799537077546119
1772641322162910700,4.81291064453125,0.0947958007454872,0.1496407240629196,0.0778661593794822
1772641322172955600,4.82295556640625,0.1097936630249023,0.1359225064516067,0.0789082571864128
1772641322183000800,4.833000732421875,0.1223993822932243,0.1137577518820762,0.0830269083380699
1772641322193046800,4.843046875,0.1245296373963356,0.084355391561985,0.0797296464443206
1772641322203091700,4.853091796875,0.1242163702845573,0.0637938529253006,0.0744705125689506
1772641322213136600,4.86313671875,0.1200788840651512,0.0563338100910186,0.0656703636050224
1772641322223182600,4.8731826171875,0.1160649955272674,0.0542845055460929,0.0531663708388805
1772641322233227800,4.883227783203125,0.1106390655040741,0.0688677132129669,0.0420828275382518
1772641322243272700,4.893272705078125,0.1137183606624603,0.0817274451255798,0.0357810296118259
1772641322253319000,4.90331884765625,0.1189378947019577,0.0842478573322296,0.0322925522923469
1772641322263363600,4.913363525390625,0.1280035078525543,0.1038854122161865,0.0248776674270629
1772641322273408800,4.92340869140625,0.1456714421510696,0.1165561974048614,0.0090917814522981
1772641322283453700,4.93345361328125,0.1612671613693237,0.1279131770133972,-0.0202224645763635
1772641322293499600,4.943499755859375,0.174598142504692,0.1371082812547683,-0.0516357831656932
1772641322303544800,4.953544921875,0.1860308200120926,0.1431264877319336,-0.0741277784109115
1772641322313589500,4.963589599609375,0.1988829672336578,0.151662990450859,-0.075293444097042
1772641322323635500,4.973635498046875,0.2212511152029037,0.1614648252725601,-0.0576684214174747
