time,seconds_elapsed,z,y,x
1772641305417579800,0.074579833984375,-0.0968564461648464,-0.0985121044173836,-0.2686320127788931
1772641305427625700,0.084625732421875,-0.0214022689908742,-0.0923314430210739,-0.272900703074038
1772641305437670700,0.094670654296875,0.0540074845194816,-0.0879939983386546,-0.2790047738364897
1772641305447715600,0.104715576171875,0.0777238756716251,-0.0940286753930151,-0.2936085052610375
1772641305457761500,0.114761474609375,0.0806961694806814,-0.0988822529040276,-0.3362825669972226
1772641305467806500,0.124806396484375,0.0604798954039812,-0.094103494194895,-0.3705360246568918
1772641305477851600,0.1348515625,0.0331885683745145,-0.1033582292743027,-0.4020562214277684
1772641305487897600,0.144897705078125,0.0030815994024276,-0.1141978954575955,-0.4153285215854644
1772641305497942800,0.15494287109375,-0.0343827465951442,-0.1538709304805845,-0.4230059243455529
1772641305507987500,0.164987548828125,-0.0495592729389667,-0.20170038395226,-0.452391410642676
1772641305518033400,0.175033447265625,-0.043875966605544,-0.2278139724392443,-0.5128027708550915
1772641305528078600,0.18507861328125,-0.0455529599070549,-0.2369933041948825,-0.5575163938611746
1772641305538123500,0.19512353515625,-0.0066465984076261,-0.2617143423449248,-0.5786752825502306
1772641305548168700,0.205168701171875,0.0669254182815551,-0.2712740517202764,-0.6117577236691489
1772641305558214700,0.215214599609375,0.1458230139076709,-0.2445424044001847,-0.6518363072857261
1772641305568259800,0.225259765625,0.2118126126438379,-0.2172868062712252,-0.673499784496054
1772641305578304500,0.235304443359375,0.2542565006196499,-0.1653321626283228,-0.7049084106512368
1772641305588350500,0.2453505859375,0.2721954774141311,-0.1098407231613993,-0.6734778649251908
1772641305598395600,0.255395751953125,0.2330120525389909,-0.0982804876185953,-0.6541483836203813
1772641305608440600,0.265440673828125,0.1630997274011373,-0.06172923787795,-0.6187885356213897
1772641305618486500,0.275486572265625,0.1081768816024065,-0.0284801714878529,-0.5794972299249842
1772641305628531700,0.28553173828125,0.0290501533955335,-0.039177141264826,-0.5484542222118005
1772641305638576400,0.295576416015625,0.004599018228054,-0.0517636511154472,-0.5356043121846392
1772641305648622600,0.30562255859375,0.0753267514020204,-0.1072289332278072,-0.5107604879051446
1772641305658667500,0.31566748046875,0.1901473088026046,-0.1964735161494463,-0.401593755015172
1772641305668712700,0.325712646484375,0.2718792510718107,-0.2940761775717139,-0.3061508106437511
1772641305678758700,0.335758544921875,0.3024678660809993,-0.3866724820740521,-0.2118163755035027
1772641305688803600,0.345803466796875,0.3498994793415069,-0.4707672079518437,-0.161497425037343
1772641305698848800,0.355848876953125,0.4199672873020172,-0.5680434138987213,-0.1200138425942044
1772641305708893400,0.3658935546875,0.4724252042919397,-0.6595600334055721,-0.1063427249778062
1772641305718939600,0.375939697265625,0.4921697692036628,-0.7363239049386233,-0.1486727773156017
1772641305728984600,0.385984619140625,0.4470709828048944,-0.786810229594633,-0.1741647267729044
1772641305739029800,0.39602978515625,0.4202238924115896,-0.8411644086599349,-0.197097913391795
1772641305749074700,0.40607470703125,0.4967465755999088,-0.8970810878016054,-0.1670223624712787
1772641305759120000,0.416119873046875,0.5735311245948076,-0.9433833317060024,-0.123044999584183
1772641305769164800,0.426164794921875,0.6695528735011815,-0.9464054560061544,-0.0481645580444019
1772641305779210800,0.436210693359375,0.6378180110663175,-0.942958018966019,0.0522323372062761
1772641305789255700,0.446255615234375,0.537826774007082,-0.9598371114440262,0.1608543048282154
1772641305799300600,0.456300537109375,0.4262164108246564,-0.908839768525958,0.2193644893281161
1772641305809346600,0.4663466796875,0.3302677271544933,-0.8319381690226495,0.2435706732911988
1772641305819391700,0.476391845703125,0.2598340084910392,-0.7746059970598668,0.2508699086549691
1772641305829436700,0.486436767578125,0.2075000101417303,-0.7137701278250664,0.2581177608913741
1772641305839481900,0.49648193359375,0.1170376489281654,-0.6837481337226927,0.2351882823332212
1772641305849527800,0.50652783203125,0.0366150356918573,-0.6485165882784872,0.2053195060311816
1772641305859572700,0.51657275390625,0.0066571198016405,-0.6204650905314832,0.1955239968722686
1772641305869617700,0.52661767578125,0.018666706547141,-0.598964402667433,0.2031206077474169
1772641305879663600,0.53666357421875,-0.0277308874905109,-0.5708790026508271,0.2206232206849381
1772641305889708800,0.546708740234375,-0.0926607480406761,-0.555024357849732,0.2033433471200056
1772641305899753700,0.556753662109375,-0.1552630424261093,-0.5745503115747124,0.1417415076145436
1772641305909800000,0.566800048828125,-0.2182978830099105,-0.6306721578996628,0.1386815081225708
1772641305919844600,0.5768447265625,-0.1245551849514245,-0.6330925899796187,0.0825971625301055
1772641305929889800,0.586889892578125,-0.0376537310898303,-0.6576310381043702,0.0155697817114181
1772641305939935700,0.596935791015625,0.044724692389369,-0.6959285469904541,-0.0180546207970939
1772641305949980700,0.606980712890625,0.1526531521886587,-0.7386798934802412,0.0120741946806199
1772641305960025900,0.61702587890625,0.2549608494967222,-0.7440933698963373,0.0172568945481441
1772641305970071800,0.62707177734375,0.3687853815972804,-0.7649671580336987,0.0314809424727223
1772641305980116700,0.63711669921875,0.438216645219922,-0.7961092422071844,0.0365451122608035
1772641305990161700,0.64716162109375,0.4742459899783134,-0.804923101651296,0.0107420510277152
1772641306000206600,0.65720654296875,0.5119733708262443,-0.8172587054807692,-0.0555289401994086
1772641306010252800,0.667252685546875,0.4809148002177477,-0.8398404665797948,-0.1317573805483523
1772641306020297700,0.677297607421875,0.3979278894513845,-0.8316248652897774,-0.1660644224256277
1772641306030343000,0.687343017578125,0.3409393432945012,-0.7999000127922743,-0.1655276121351867
1772641306040388900,0.697388916015625,0.3112929775714874,-0.7494530702985823,-0.190887368313875
1772641306050433500,0.70743359375,0.2282271563500165,-0.686393972056359,-0.1773357945570722
1772641306060478700,0.717478759765625,0.1168517709672451,-0.6303054434791207,-0.1307275443102698
1772641306070524700,0.727524658203125,-0.0279845699906349,-0.5591726366356015,-0.0766717088707257
1772641306080569900,0.73756982421875,-0.222291921082139,-0.4898926180519163,-0.0062606678299605
1772641306090614800,0.74761474609375,-0.4069780418694019,-0.4102691923692822,0.0660577686015516
1772641306100660700,0.75766064453125,-0.6568821924984455,-0.5127756271198392,0.1993743886901065
1772641306110706000,0.767705810546875,-0.7377507959365844,-0.6021070846073329,0.3104194096073508
1772641306120750600,0.77775048828125,-0.588213729941845,-0.6975285295329987,0.3415826096341013
1772641306130795800,0.787795654296875,-0.3779273039519786,-0.8183835447922349,0.353370078061521
1772641306140841700,0.797841796875,-0.2139151378810405,-0.848596312226355,0.3168873635124415
1772641306150886700,0.80788671875,0.0027577742755413,-0.7697156677350402,0.1848682358885184
1772641306160931800,0.817931884765625,-0.0482914449602365,-0.6297260361559689,0.01818167210971
1772641306170977800,0.827977783203125,-0.2231435694754123,-0.4998251062624156,-0.1156995869911275
1772641306181022700,0.838022705078125,-0.4910813894450664,-0.3444070194050669,-0.2401552205582149
1772641306191067600,0.848067626953125,-0.8149731518268585,-0.1218213760733604,-0.3685780955221504
1772641306201113600,0.858113525390625,-1.1804437097877265,0.1063292079091072,-0.4486711845431476
1772641306211158800,0.86815869140625,-1.5288754546642302,0.3798778534978628,-0.5342541031520813
1772641306221203700,0.87820361328125,-1.6651234154969452,0.581335368604958,-0.5681075286434963
1772641306231250000,0.88825,-1.7192951506674288,0.7456849499367177,-0.5735894306533038
1772641306241294600,0.898294677734375,-1.6436469122260808,0.8158386826150119,-0.6395208694614469
1772641306251339800,0.90833984375,-1.445551274767518,0.8387269523799419,-0.6954563994340598
1772641306261384700,0.918384765625,-1.1594763250827789,0.777500330261886,-0.710590913267061
1772641306271430700,0.9284306640625,-0.7302788526207208,0.6255401287734508,-0.7270931352566927
1772641306281475800,0.938475830078125,-0.2766302449911832,0.3792705352544784,-0.6745612031824887
1772641306291520800,0.948520751953125,0.204960262531042,0.2188734909407794,-0.6427639430359006
1772641306301566700,0.958566650390625,0.5968120469391346,0.1635056778535246,-0.6195150232650339
1772641306311611600,0.968611572265625,0.8611725929439067,0.1265676938176155,-0.5602590071002022
1772641306321656600,0.978656494140625,1.107695868963003,0.1420746211595833,-0.4868176675859838
1772641306331702800,0.988702880859375,1.2621025868207216,0.1149870000086724,-0.3003426175553351
1772641306341747700,0.998747802734375,1.4521610482960938,0.1130710833847522,-0.0915529877281747
1772641306351793000,1.00879296875,1.6629244441479445,0.17013050282076,0.0319648900647647
1772641306361838800,1.0188388671875,1.840773996913433,0.1966276107326149,0.1737349753198213
1772641306371883500,1.028883544921875,1.925329179909825,0.2145291781261563,0.3224983352620154
1772641306381928700,1.0389287109375,1.8658394645869727,0.2372910450324416,0.4636476582702249
1772641306391973600,1.0489736328125,1.7439713267624375,0.2756587696105241,0.5358829464629292
1772641306402019800,1.059019775390625,1.5693033266425132,0.3389906934447586,0.5750056541267782
1772641306412064800,1.069064697265625,1.424868552222848,0.3783566352799534,0.6083597152613103
1772641306422110000,1.07910986328125,1.2815619050502776,0.3849462428033351,0.6831508984819055
1772641306432156000,1.089156005859375,1.0447247412651777,0.4326753777056932,0.7441222306646407
1772641306442200600,1.09920068359375,0.6470885282367468,0.478492395376414,0.808266128468886
1772641306452245800,1.109245849609375,0.2565788060873746,0.583818563722819,0.8069610372196883
1772641306462291700,1.119291748046875,-0.1218161153763532,0.7113900277554989,0.7407800075646489
1772641306472337000,1.1293369140625,-0.4532587315291166,0.8526048172153532,0.6395418391842395
1772641306482381800,1.1393818359375,-0.5678729527026415,1.0076648113500326,0.5546241064857691
1772641306492427800,1.149427734375,-0.686163816562295,1.114054078883305,0.6244056448508054
1772641306502472700,1.15947265625,-0.7970189774632453,1.2103265876803546,0.7902506523720919
1772641306512517600,1.169517578125,-0.8221335449755192,1.2909399742484091,0.8225675524786115
1772641306522562800,1.179562744140625,-0.7666472200751304,1.3168927461504936,0.6788353733703494
1772641306532608800,1.18960888671875,-0.6945107891470194,1.0481053966794165,0.5775447441503405
1772641306542653700,1.19965380859375,-0.6670265698939561,0.7404853354670107,0.4822853579185903
1772641306552699000,1.209698974609375,-0.5639578250855207,0.6308086437609046,0.2185442224537953
1772641306562744800,1.219744873046875,-0.401229853606224,0.5480777535822242,-0.0792247269549407
1772641306572789800,1.229789794921875,-0.2145335620403289,0.4289846334289759,-0.2455989459821023
1772641306582834700,1.239834716796875,-0.0238455704897642,0.2300071716345846,-0.3330413565862923
1772641306592880600,1.249880615234375,0.1644283456563949,-0.0122791974671185,-0.3924322877097874
1772641306602925800,1.25992578125,0.3332587256640195,-0.2035604787357151,-0.3898325900727882
1772641306612970800,1.269970703125,0.4713736494123935,-0.3514220857989042,-0.4199803659792989
1772641306623015700,1.280015625,0.5402162994921207,-0.4033476494777947,-0.4677575778070837
1772641306633061600,1.2900615234375,0.6053928282797336,-0.433870286578685,-0.4639958871860057
1772641306643106800,1.30010693359375,0.6759387751460075,-0.4534416868805885,-0.4358757811821997
1772641306653151700,1.31015185546875,0.7446937469422816,-0.473234547913447,-0.3666580141797662
1772641306663197700,1.32019775390625,0.789563400760293,-0.4637429353382438,-0.285411919198744
1772641306673243000,1.330242919921875,0.866237475118041,-0.440888348647207,-0.184688952065166
1772641306683287600,1.34028759765625,0.8550181619673967,-0.4343759710785001,-0.1204191080600023
1772641306693333500,1.35033349609375,0.7968196554988622,-0.4166371930312365,-0.0795316374796442
1772641306703378700,1.360378662109375,0.6246089854031801,-0.4151194819446653,0.0287333790639415
1772641306713423600,1.370423583984375,0.4963140294015407,-0.4238203825335949,0.0898904796097427
1772641306723469800,1.3804697265625,0.3578302723407745,-0.4028094509478658,0.1223046660782769
1772641306733514800,1.3905146484375,0.2263999409228563,-0.3790910139691084,0.1060652780096046
1772641306743560000,1.400559814453125,0.0432493591398,-0.3373476754780858,0.084898900133837
1772641306753605400,1.41060546875,-0.1711222903370857,-0.3225188665933907,0.0457377966883592
1772641306763651300,1.4206513671875,-0.3333423122942447,-0.2958193679772317,0.0451983560494147
1772641306773696500,1.430696533203125,-0.4466179783403873,-0.2977671410441398,0.0495970111334696
1772641306783741400,1.440741455078125,-0.4766998128712177,-0.3122632108431309,0.0740380084994249
1772641306793787400,1.450787353515625,-0.3967459861904382,-0.3469263818148523,0.0404785975185222
1772641306803832300,1.460832275390625,-0.2705103008061647,-0.3971845237381756,0.0313345014730468
1772641306813877200,1.470877197265625,-0.0874409675657749,-0.4822508711270987,0.0332604097680188
1772641306823923500,1.48092333984375,0.1163806463241577,-0.6209511204827577,-0.0529604596845805
1772641306833968400,1.490968505859375,0.2969114009976387,-0.7124522501595318,-0.1272391633383929
1772641306844013600,1.501013671875,0.4684621458798647,-0.767556151613593,-0.2184747008815407
1772641306854059500,1.5110595703125,0.6043453650534153,-0.792959107613191,-0.2624934186923317
1772641306864104200,1.521104248046875,0.6705775403738021,-0.8134678618304431,-0.2559530023392289
1772641306874149400,1.5311494140625,0.7118903784930706,-0.8295921904183924,-0.2107778262360021
1772641306884194300,1.5411943359375,0.7946481566786766,-0.850936007220298,-0.1576725512532517
1772641306894240300,1.551240234375,0.850606775265932,-0.8712602717161179,-0.0902782002856954
1772641306904285400,1.561285400390625,0.8894751428425312,-0.8455841247983277,-0.0885965673416852
1772641306914330400,1.571330322265625,0.7875485538065433,-0.8128621510222553,-0.0762831753440201
1772641306924376300,1.581376220703125,0.6145476101160049,-0.714946258932352,-0.0399321608832105
1772641306934421200,1.591421142578125,0.4449047446817159,-0.6245634657610207,-0.0202073601178824
1772641306944466400,1.601466552734375,0.2429302199631929,-0.5704276056215166,0.0306159779401496
1772641306954512400,1.611512451171875,0.0311462488919496,-0.5040042185779661,0.1110250375751406
1772641306964557300,1.621557373046875,-0.2229863330870866,-0.4942785049859434,0.216063694217056
1772641306974602500,1.6316025390625,-0.4415291307687759,-0.5990841565895825,0.3491835496244952
1772641306984647200,1.641647216796875,-0.5621902308911085,-0.7939160430118442,0.4897435649700462
1772641306994693400,1.651693359375,-0.5797521910667419,-0.8902672430682926,0.5144450216367841
1772641307004738300,1.66173828125,-0.6955734499424695,-0.9329831529185176,0.4840722778679803
1772641307014783500,1.671783447265625,-0.976220529359579,-0.9847719384752214,0.4359061397878453
1772641307024829400,1.681829345703125,-1.2395774512797593,-1.0512236017651857,0.384978428039886
1772641307034874400,1.691874267578125,-1.347372055566311,-0.9988913569815456,0.3398340854663401
1772641307044919300,1.701919189453125,-1.3784031536459922,-0.8295746547617018,0.2577924561934545
1772641307054965200,1.71196533203125,-1.3670651825517417,-0.5758612845754251,0.1647619615249335
1772641307065010400,1.722010498046875,-1.359143741902709,-0.2389282908454537,0.0024469182280823
1772641307075055400,1.732055419921875,-1.4598141933977602,0.1593820220522582,-0.181142822157219
1772641307085100300,1.742100341796875,-1.7296394345492123,0.5532734590617939,-0.248876396750193
1772641307095146500,1.752146484375,-2.02828745008111,0.8395654490306973,-0.2008736142719164
1772641307105191400,1.76219140625,-2.360094807893037,1.077266170842573,-0.0935461434399243
1772641307115236400,1.772236328125,-2.6767443440616128,1.310066553392261,-0.0509729482623282
1772641307125282300,1.7822822265625,-2.8176205492168664,1.482039761470258,-0.0398357330377213
1772641307135327200,1.7923271484375,-2.675796834078431,1.586077643571794,-0.1062372187767177
1772641307145372400,1.802372314453125,-2.1759207282811404,1.6420963217832147,-0.2551762823456898
1772641307155418400,1.81241845703125,-1.6755483633995054,1.6127426553964614,-0.2684894807693548
1772641307165463600,1.822463623046875,-1.0969938576847311,1.4477709966436028,-0.192847580737248
1772641307175508200,1.83250830078125,-0.4719634319990873,1.321308224505186,-0.174310163125582
1772641307185553400,1.842553466796875,0.2440624388635158,1.2084880471415818,-0.177154464907106
1772641307195599400,1.852599365234375,0.9860673851132392,1.0826384384654462,-0.1961839586183428
1772641307205644300,1.862644287109375,1.6299118168622255,0.9851822728417812,-0.2091163044982589
1772641307215689500,1.872689453125,2.03574711843729,0.9192564600568264,-0.2445552273491397
1772641307225735400,1.8827353515625,2.2739713526666163,0.8774353070892393,-0.2590401912322267
1772641307235780400,1.8927802734375,2.3462825556397435,0.8291071833804249,-0.2452634121511131
1772641307245825300,1.9028251953125,2.295340888431668,0.8013284381601959,-0.2322864782107993
1772641307255871200,1.912871337890625,2.227266300114989,0.8019254542052745,-0.2663908645222895
1772641307265916400,1.92291650390625,2.17152044749558,0.8044425515927374,-0.3404956911802291
1772641307275961300,1.93296142578125,2.1278870574742554,0.7388913442738354,-0.3901121011339127
1772641307286007300,1.94300732421875,2.081182004922628,0.7015282666936516,-0.4368386348649859
1772641307296052500,1.953052490234375,1.9833248572826383,0.7067568149968981,-0.4143168603248894
1772641307306097200,1.96309716796875,1.846100160372257,0.7087354215934872,-0.3193830527856945
1772641307316142300,1.973142333984375,1.6331944917947052,0.6882476370990276,-0.1475633365026675
1772641307326188300,1.983188232421875,1.3885802642673253,0.6934991278864443,0.0042144758898764
1772641307336233500,1.9932333984375,1.1540747583001851,0.7369028008051216,0.0983882223093882
1772641307346278400,2.0032783203125,0.8338976325273514,0.8242696071561425,0.1913840840559452
1772641307356324400,2.013324462890625,0.5056979438185691,0.9094496440526098,0.2799066728459671
1772641307366369300,2.023369384765625,0.2174824749737977,0.9824662918813526,0.3856201234769076
1772641307376414200,2.033414306640625,-0.0413420642137527,1.038457862890139,0.4781879690697416
1772641307386460400,2.04346044921875,-0.2152139455199241,1.0587680988606063,0.5061620541989803
1772641307396505300,2.05350537109375,-0.2960726120859384,1.016112613960728,0.4924025550462305
1772641307406550500,2.063550537109375,-0.3354173650026321,0.92370489083305,0.4684588579442352
1772641307416596500,2.073596435546875,-0.3136731507062912,0.8042658067863434,0.4164680835420266
1772641307426641400,2.083641357421875,-0.1900152068555355,0.6311864640973508,0.3196693589137866
1772641307436686300,2.093686279296875,0.0074117375612258,0.4501976634580641,0.2134268794400617
1772641307446731300,2.103731201171875,0.2187181542485952,0.2873990378953516,0.099760935434699
1772641307456777200,2.113777099609375,0.3541752569645643,0.162611286297068,0.026911643529497
1772641307466822400,2.123822509765625,0.5133183556944132,0.0365796721175313,-0.0128519923863932
1772641307476867300,2.133867431640625,0.6964478946894407,-0.0505219074260443,-0.012177855984494
1772641307486913500,2.14391357421875,0.8094295462250709,-0.1251321811217814,-0.0191632578924298
1772641307496958200,2.153958251953125,0.8660907601237297,-0.1795998304989188,-0.0451455846825614
1772641307507003400,2.16400341796875,0.7973509858965874,-0.2091891322724521,-0.0723858756445348
1772641307517049300,2.17404931640625,0.6900456264317035,-0.2419802257619798,-0.0594950490850955
1772641307527094300,2.18409423828125,0.5729547860115766,-0.2536304776757955,-0.0689979867719113
1772641307537139500,2.194139404296875,0.437599390104413,-0.2658051918551325,-0.0981768445810303
1772641307547184400,2.204184326171875,0.315156082740426,-0.3038992140583694,-0.1063824724663048
1772641307557230600,2.214230712890625,0.1838327188283205,-0.2956822975941002,-0.13346673261635
1772641307567275300,2.224275146484375,0.1044979008287191,-0.3031758682198822,-0.1771084886072203
1772641307577320400,2.234320556640625,0.032555531167984,-0.3734063193961978,-0.1906568657599389
1772641307587366400,2.244366455078125,0.0220668703794479,-0.4428710103644058,-0.2125836700815707
1772641307597411300,2.254411376953125,0.0684919369459152,-0.5133247489025816,-0.2524790791509673
1772641307607456500,2.26445654296875,0.0642781186431646,-0.5639577520202845,-0.2712663068052381
1772641307617502500,2.27450244140625,0.0294552270650863,-0.6061242843594402,-0.3004533844534307
1772641307627547400,2.28454736328125,7.01426267623e-05,-0.6303777780629695,-0.3361912719845771
1772641307637592300,2.29459228515625,-0.024388591325283,-0.672011591764912,-0.3520858469372615
1772641307647638300,2.30463818359375,-0.02390928337574,-0.7132036530487239,-0.3070658979283646
1772641307657683500,2.314683349609375,0.0349298590838909,-0.7263451664336025,-0.2728424335481599
1772641307667728400,2.324728271484375,0.0973965443909168,-0.7773594604864716,-0.2318678509399294
1772641307677773600,2.334773681640625,0.1569447119027376,-0.8616566501338034,-0.215937218293175
1772641307687819500,2.344819580078125,0.2431248657524585,-0.9638553341094404,-0.2296247481882572
1772641307697864200,2.3548642578125,0.2654196996688842,-1.0146810467876493,-0.2599168644689023
1772641307707909400,2.364909423828125,0.2498281627833843,-1.0078956974964588,-0.2560141944745555
1772641307717955300,2.374955322265625,0.2354185291588306,-0.9793305511388928,-0.2214848790155723
1772641307728000500,2.38500048828125,0.2075648920714855,-0.9356386358633636,-0.1666333814200013
1772641307738045400,2.39504541015625,0.1208639292180538,-0.9035128744147718,-0.1068164799693971
1772641307748091400,2.40509130859375,0.0613239450126886,-0.8471664255537092,-0.067022083589062
1772641307758136300,2.41513623046875,-0.0122515788078308,-0.8110299671590327,-0.0219999060904607
1772641307768181200,2.42518115234375,-0.107058691227436,-0.742581869354844,0.0331073198318481
1772641307778226200,2.43522607421875,-0.144632927340269,-0.6426072911694646,0.0664575815740972
1772641307788272000,2.445272216796875,-0.236477098301053,-0.5117503026600927,0.0817126895794645
1772641307798317300,2.4553173828125,-0.4049900829225778,-0.3746585114143788,0.1129822360575199
1772641307808362200,2.4653623046875,-0.5968097088515758,-0.2811721262045204,0.1854937473757192
1772641307818408200,2.475408203125,-0.7688140427201986,-0.2459120853181928,0.2756737114513293
1772641307828453400,2.485453369140625,-0.6884007818341255,-0.2318544800017029,0.3670057681715116
1772641307838498300,2.495498291015625,-0.5131465062588453,-0.2038084621474146,0.3876317190276458
1772641307848544000,2.5055439453125,-0.4455366128444671,-0.1000566304456442,0.364099233075045
1772641307858589200,2.515589111328125,-0.4756184473752975,-0.0372928618881851,0.3125859765240922
1772641307868634000,2.525634033203125,-0.5288935259670019,-0.0057231268871575,0.1850911213915795
1772641307878680300,2.535680419921875,-0.693883012637496,0.130286933536455,-0.0134707818718627
1772641307888725200,2.545725341796875,-0.86924191763103,0.3691705815225839,-0.2355855197561904
1772641307898770400,2.5557705078125,-1.0106377627462149,0.5730612420607358,-0.3989703111764043
1772641307908815000,2.565815185546875,-1.158688974097371,0.6785263074211776,-0.5050793004635721
1772641307918861000,2.575861083984375,-1.341360832452774,0.7403808521792292,-0.6067378862131386
1772641307928906200,2.58590625,-1.4477081605404614,0.7909061936713755,-0.7036332761488855
1772641307938951200,2.595951171875,-1.506395327308774,0.813628605350107,-0.8134004226174205
1772641307948997400,2.605997314453125,-1.4898328995645045,0.8017884568873792,-0.8546018362514675
1772641307959042300,2.616042236328125,-1.324281102836132,0.7307000737074762,-0.8928123244412243
1772641307969087200,2.626087158203125,-1.1338654984861611,0.6238271143104881,-0.8930515400245785
1772641307979133200,2.63613330078125,-0.9268740223884582,0.5080258753094822,-0.858734552142024
1772641307989178000,2.64617822265625,-0.594418429800868,0.3653103989630937,-0.8909145279958843
1772641307999223300,2.656223388671875,-0.2134469358474016,0.2753600789248943,-0.9606072920989244
1772641308009268200,2.666268310546875,0.0386024101167917,0.2400209083877503,-1.009428240825981
1772641308019314200,2.676314208984375,0.1761100156217813,0.2352096356485039,-1.018764224448055
1772641308029359400,2.686359375,0.2959749969303608,0.2442828036159277,-0.9889332959383724
1772641308039404000,2.696404052734375,0.3294417977243661,0.2849213226702064,-0.897556450228393
1772641308049450200,2.7064501953125,0.3883119198441505,0.3511546670343726,-0.7813545945372432
1772641308059495200,2.7164951171875,0.565796146428585,0.4263110303055494,-0.6724957220200449
1772641308069540400,2.726540283203125,0.7203022330075503,0.5012872877694666,-0.5706948782555759
1772641308079586300,2.73658642578125,0.8393009528756141,0.5798403808068484,-0.4556843512408435
1772641308089631200,2.74663134765625,0.9162199419051408,0.7011047805845737,-0.3237259773608297
1772641308099676200,2.75667626953125,0.981228128388524,0.8202670204512774,-0.1571452029109001
1772641308109722000,2.76672216796875,1.0257833094298838,0.9325956149056552,-0.0089552406761795
1772641308119767300,2.776767333984375,1.0511521439641711,1.0364661776162682,0.1090127479046583
1772641308129812200,2.786812255859375,1.0264555096030237,1.0735555528216063,0.224123228162527
1772641308139857400,2.796857421875,1.0111047957360744,1.1564515704341232,0.2639965349979698
1772641308149903400,2.8069033203125,1.0078840801239013,1.2122842245541512,0.3072707363180816
1772641308159948300,2.8169482421875,0.9644675477236508,1.207565379338711,0.3385763404902071
1772641308169993200,2.8269931640625,0.903349354416132,1.20339013948068,0.373622665560618
1772641308180039200,2.8370390625,0.8483961134791373,1.2067035018123686,0.4080187100287527
1772641308190084000,2.847083984375,0.7973615072906017,1.2483067011803388,0.4175522620495409
1772641308200129300,2.85712939453125,0.710787385687232,1.2728330935411154,0.4039933269701898
1772641308210175200,2.86717529296875,0.5658405700922012,1.261846566233039,0.4129077241793275
1772641308220220400,2.877220458984375,0.3919441388666629,1.28905971345976,0.4112005549352616
1772641308230265000,2.88726513671875,0.172374920746684,1.2723632840722798,0.4128457648590207
1772641308240311000,2.89731103515625,0.0424555784136056,1.234360447283834,0.4205873919617384
1772641308250356200,2.907356201171875,-0.0366021762102842,1.1652603153117,0.3989101784870028
1772641308260401200,2.917401123046875,-0.1011228714376688,1.0619444638743996,0.3287890329040587
1772641308270446300,2.9274462890625,-0.1176899753570556,0.9327419645737856,0.1892515290066599
1772641308280492300,2.9374921875,-0.1633434730291366,0.7939397892136126,0.0502625989027321
1772641308290537200,2.947537109375,-0.147163907122612,0.6635081865094602,-0.0697405487675219
1772641308300582100,2.95758203125,-0.0665945788919925,0.5397394026953727,-0.1211080401722341
1772641308310628000,2.967628173828125,0.0116477676957845,0.4092035358991474,-0.1300124274440109
1772641308320673300,2.97767333984375,0.0687853669345378,0.2894463258139789,-0.1442794377274811
1772641308330718200,2.98771826171875,0.1328483815222978,0.1696704110283404,-0.1597076738100498
1772641308340764200,2.99776416015625,0.1734668076366186,0.061063467445597,-0.1654428929938003
1772641308350809300,3.007809326171875,0.2231546753913164,-0.0264279151331633,-0.2026331712903454
1772641308360854300,3.017854248046875,0.2750251478821039,-0.06642667497918,-0.2110564970469102
1772641308370899200,3.027899169921875,0.2954699700176715,-0.1137555585175752,-0.208770797262527
1772641308380945200,3.037945068359375,0.1920095955431461,-0.1386450120370835,-0.2196969361528754
1772641308390990300,3.047990234375,0.0359708925694227,-0.1197072334636002,-0.2114689868379384
1772641308401035300,3.05803515625,-0.1004348891735076,-0.0835938636835664,-0.1884337828829884
1772641308411081200,3.068081298828125,-0.1971323453843593,-0.0497520190320909,-0.1274662866251543
1772641308421126100,3.078126220703125,-0.1836287206888198,-0.0400958635449409,-0.0582299245201051
1772641308431171000,3.088171142578125,-0.0768599523186683,-0.0638492987718433,0.0040426995195448
1772641308441217300,3.09821728515625,-0.0093850834608078,-0.091423826656863,0.0641275677239522
1772641308451262200,3.10826220703125,0.0174573307573795,-0.1021370899815112,0.0775805582107976
1772641308461307400,3.118307373046875,0.066520929133892,-0.1285758918348699,0.0597778480818495
1772641308471352300,3.128352294921875,0.1126660097151994,-0.1578101696256548,0.0479500476440414
1772641308481398300,3.138398193359375,0.2178928093403577,-0.1763188360668718,0.0736460683060809
1772641308491443200,3.148443115234375,0.3021218291223049,-0.243520806267485,0.1259685954133048
1772641308501488000,3.158488037109375,0.4030693439930677,-0.342450989966467,0.1846921486692503
1772641308511534300,3.168534423828125,0.5486556265354157,-0.4500957374535501,0.2096014394003897
1772641308521579300,3.178579345703125,0.6821177560418844,-0.5247323146343231,0.2030335687847808
1772641308531624200,3.188624267578125,0.7986503780573606,-0.572232316955924,0.1475704055642709
1772641308541670400,3.19867041015625,0.8988269085556269,-0.6183660724256187,0.1177561359284445
1772641308551715000,3.208715087890625,0.926337431293726,-0.6443973894566297,0.1732941544834524
1772641308561760300,3.21876025390625,0.8990110329508781,-0.6610550212036818,0.2584123964563943
1772641308571806200,3.22880615234375,0.7867296386390924,-0.6615192777145653,0.3347467722646892
1772641308581851100,3.23885107421875,0.6753197664648294,-0.6576692512229084,0.4014328653650358
1772641308591896300,3.248896240234375,0.5166285031557083,-0.6434925495713949,0.4469046132620424
1772641308601941200,3.258941162109375,0.3562245907098054,-0.6722995418608189,0.4590246381120756
1772641308611987500,3.268987548828125,0.2559785021066665,-0.7394700209446251,0.4697455732865259
1772641308622032100,3.2790322265625,0.1287181498497724,-0.8119578956589102,0.4567804759144783
1772641308632077300,3.289077392578125,0.0419078814029693,-0.8549345022719353,0.4198842121284454
1772641308642123300,3.299123291015625,-0.0511819057047367,-0.8671749751638621,0.3742188778880983
1772641308652168200,3.309168212890625,-0.1365273622959852,-0.8276821920786053,0.3691270711744204
1772641308662213400,3.31921337890625,-0.197259771156311,-0.7859034900132567,0.40439613561742
1772641308672259300,3.32925927734375,-0.2371574817806482,-0.7447899738583713,0.4575444460242986
1772641308682304300,3.33930419921875,-0.2590969263881444,-0.6952541548602282,0.5402837387051433
1772641308692349200,3.34934912109375,-0.2052770733952522,-0.6800640383824705,0.580904247178696
1772641308702394400,3.359394287109375,-0.0892518163800239,-0.641234322315827,0.5765030530776828
1772641308712440300,3.3694404296875,-0.0035989012748003,-0.6118008686911315,0.5770127926981077
1772641308722485200,3.3794853515625,0.0370598568499088,-0.598320478740707,0.5534425685510039
1772641308732530400,3.389530517578125,0.0506809704452753,-0.5892604625158011,0.5168188015634194
1772641308742576000,3.399576171875,-0.0124614221662282,-0.555881413070485,0.475861206622608
1772641308752620800,3.409620849609375,-0.0821054517567157,-0.5297312919653951,0.4656673275295644
1772641308762665700,3.419665771484375,-0.1587356869727373,-0.5345670415587723,0.4395305773627013
1772641308772711700,3.429711669921875,-0.2489712536931037,-0.5447858724299818,0.3889579991953447
1772641308782756600,3.439756591796875,-0.302712780752778,-0.5371645107060671,0.3209512884831055
1772641308792801500,3.449801513671875,-0.4177145399391651,-0.582455824002251,0.3196455396467819
1772641308802847700,3.45984765625,-0.5067489141762256,-0.7855208473712205,0.4076928390752524
1772641308812892700,3.469892578125,-0.4457803584724664,-0.9348807301681488,0.4826680736258625
1772641308822937600,3.4799375,-0.3441191423743963,-0.9829857126455752,0.4051322678722441
1772641308832982500,3.489982421875,-0.3786830907553434,-0.997218966789916,0.2874163543563336
1772641308843028500,3.500028564453125,-0.4125508735656738,-1.027908484890312,0.2714385763659142
1772641308853073700,3.51007373046875,-0.4358505006104707,-1.054483991800621,0.1908028866345062
1772641308863118600,3.52011865234375,-0.3718424310803413,-0.867788065560907,-0.0588242919503711
1772641308873164500,3.53016455078125,-0.4605412897527217,-0.5947359713174403,-0.3601329597925767
1772641308883209700,3.540209716796875,-0.8039590058594942,-0.3353928150832653,-0.5751164210248738
1772641308893254700,3.550254638671875,-1.2242092017561197,-0.0511367513887584,-0.6503085131965577
1772641308903300900,3.56030078125,-1.627204895991087,0.2374336683735251,-0.5993562149966135
1772641308913345500,3.570345458984375,-1.851083794003725,0.457305814962834,-0.4566508216528221
1772641308923390700,3.580390625,-1.8431576771795748,0.6338576560679823,-0.3378206632846966
1772641308933435600,3.590435546875,-1.7005454420119523,0.7682828584529459,-0.2915404120163992
1772641308943481600,3.600481689453125,-1.4605284791469573,0.8397210779838263,-0.2536598864333704
1772641308953526800,3.61052685546875,-1.1858943764090537,0.8394800357695669,-0.2280851723297499
1772641308963571500,3.620571533203125,-0.8346575109839439,0.809207062580809,-0.1707525254429318
1772641308973617700,3.63061767578125,-0.5081517667114734,0.810815520690754,-0.1178969143723137
1772641308983662600,3.64066259765625,-0.1837859570771455,0.8239894750405102,-0.0557150921549648
1772641308993707800,3.650707763671875,0.1727425850152969,0.8321105299148708,0.0433753053407184
1772641309003753700,3.660753662109375,0.565902529412508,0.8319776973154396,0.1782410363011062
1772641309013798700,3.670798583984375,1.0172311696618794,0.8368204611714929,0.3138341864868998
1772641309023843800,3.68084375,1.4074778569608926,0.853928320904076,0.3651323024498298
1772641309033889800,3.690889892578125,1.6725158638358115,0.889142696017772,0.3516986011853441
1772641309043934500,3.7009345703125,1.7906787174016237,0.948235886303708,0.3003858356425538
1772641309053979600,3.710979736328125,1.7235913865566252,0.9776290809832512,0.170547084265016
1772641309064024600,3.721024658203125,1.56108436435163,1.0318662826053795,-0.0388777929920703
1772641309074070800,3.73107080078125,1.406947111085057,1.093861404877901,-0.241123572400026
1772641309084115700,3.74111572265625,1.2632283759802578,1.1078802856191992,-0.3977011314908042
1772641309094160600,3.75116064453125,1.115002977105975,1.0774253799922764,-0.4869046517496928
1772641309104206600,3.76120654296875,1.0114145923376083,1.0389948193110523,-0.5528734634261578
1772641309114251500,3.77125146484375,0.9021884939432144,0.9866122325796634,-0.587788526799716
1772641309124296700,3.781296630859375,0.7930167560845613,0.945464083502814,-0.5333783797634766
1772641309134342700,3.7913427734375,0.6781605428487062,0.9145688867624848,-0.4603435752235352
1772641309144387800,3.801387939453125,0.5178419705986976,0.9140485161501912,-0.3800231071874499
1772641309154432800,3.811432861328125,0.2578933958172798,0.9525660975277424,-0.3010693791936151
1772641309164477700,3.821477783203125,-0.0857908622711896,0.9634316288046538,-0.2592300877811387
1772641309174523600,3.831523681640625,-0.4934405197918415,0.9137205993700772,-0.2278042912954464
1772641309184568600,3.841568603515625,-0.8695786022394895,0.8054747441846877,-0.2429594095250591
1772641309194613800,3.85161376953125,-1.0251175389975309,0.6482532611671835,-0.3225358907934278
1772641309204659700,3.86165966796875,-0.8686123875558376,0.531328205768019,-0.5742172802280634
1772641309214704600,3.87170458984375,-0.6049953533947467,0.3811393248010427,-0.7981969352014362
1772641309224749600,3.88174951171875,-0.3003232552677393,0.1989304808475077,-0.9039810764484107
1772641309234795500,3.89179541015625,0.0243956055879592,0.0476873415872454,-0.8824305580932646
1772641309244840700,3.9018408203125,0.3118985422492027,-0.0439803768280893,-0.7825818713098764
1772641309254885600,3.9118857421875,0.535460044875741,-0.1007446857750415,-0.645583822762221
1772641309264931600,3.921931640625,0.7392582778900861,-0.1800185673676431,-0.5132162104941904
1772641309274976800,3.931976806640625,0.8802934729993342,-0.1678149924200028,-0.3699038642331957
1772641309285021400,3.942021484375,0.7901537678688764,-0.0134433458756655,-0.2047204806921072
1772641309295066600,3.952066650390625,0.7735042463630437,0.0759651223707944,-0.1058718925956636
1772641309305112600,3.962112548828125,0.7153396421641111,0.12651033760719,-0.083815872403793
1772641309315157800,3.97215771484375,0.602195493543148,0.1872138856992125,-0.0902659801249392
1772641309325202700,3.98220263671875,0.5638900205463171,0.271627395202592,-0.1105835226190276
1772641309335248600,3.99224853515625,0.5161445190310477,0.3148884447801858,-0.1406422137362882
1772641309345293800,4.0022939453125,0.4077028490126133,0.3211809690531343,-0.1129606818128377
1772641309355338500,4.01233837890625,0.3292787161171436,0.3483214163698255,-0.0345163646458648
1772641309365384700,4.022384765625,0.2234633029490709,0.3661700845323503,0.0343190885080955
1772641309375429600,4.0324296875,0.0825578716993331,0.3516816865831613,0.0832602112824097
1772641309385474600,4.042474609375,-0.0181640177220106,0.2979941547330468,0.1257217079801484
1772641309395520800,4.052520751953125,-0.0593581978976726,0.2457134209409356,0.1376111024120822
1772641309405565700,4.062565673828125,-0.1009480993926525,0.1979544754222035,0.1538997912488877
1772641309415610600,4.072610595703125,-0.1245318040758371,0.1078822095047682,0.1197624890484847
1772641309425655600,4.082655517578125,-0.1576139894664287,-0.0165410926952958,0.0890307757741771
1772641309435701500,4.092701416015625,-0.1662462087333202,-0.1671876543018967,0.0840587595152668
1772641309445746700,4.10274658203125,-0.0917015476197004,-0.267251591271162,0.075278784074448
1772641309455791600,4.11279150390625,-0.0481862310200929,-0.3664406451020389,0.0198448652147315
1772641309465837800,4.122837890625,-0.0410837055385112,-0.4612921081200242,-0.0906622311672195
1772641309475882800,4.1328828125,0.0098287355750799,-0.5270408838376403,-0.1978690073621459
1772641309485927700,4.142927734375,0.0850578718215227,-0.6042318216763436,-0.2838128865042701
1772641309495973600,4.1529736328125,0.2143009223282337,-0.7051892003539949,-0.2994285897166468
1772641309506018600,4.1630185546875,0.295884980559349,-0.7632775975115597,-0.3105919531626627
1772641309516063700,4.173063720703125,0.344649303728342,-0.8196354445494711,-0.2997695303751155
1772641309526108700,4.183108642578125,0.3072849109739065,-0.8543107443504036,-0.2828497405605391
1772641309536154600,4.193154541015625,0.2654091782748699,-0.8543442812938242,-0.2785338135901838
1772641309546199600,4.203199462890625,0.232583013471961,-0.8315010927796364,-0.312128770808503
1772641309556244700,4.21324462890625,0.2060153245419263,-0.7850398589212447,-0.3178144882947206
1772641309566290700,4.223290771484375,0.1393611244171858,-0.698541286772117,-0.3013631014431827
1772641309576335600,4.233335693359375,0.0651771133095026,-0.6302561244446784,-0.2733498350810259
1772641309586380800,4.243380859375,-0.006574117693305,-0.535899824532494,-0.2169284395539201
1772641309596426800,4.2534267578125,-0.0486602782726287,-0.4452334651794284,-0.1515453918761573
1772641309606471400,4.263471435546875,-0.0667570759773254,-0.3358077525597066,-0.129125232813321
1772641309616516600,4.2735166015625,-0.0612684154331684,-0.2213051750671118,-0.07301323202895
1772641309626561500,4.2835615234375,-0.0373199690908193,-0.1222293723523616,-0.0293624136655009
1772641309636607700,4.293607666015625,-0.0075134443700313,-0.0734855805147439,-0.0125944282955955
1772641309646652700,4.303652587890625,0.0025204583883285,-0.0523592058558017,-0.0503523960780352
1772641309656697900,4.31369775390625,-0.0095551793307065,-0.0243387608341872,-0.0949921044645365
1772641309666743800,4.323743896484375,-0.0025607903987169,-0.0623878479171544,-0.1059703662677667
1772641309676788500,4.33378857421875,-0.0468798245966434,-0.1590858886498957,-0.0802816886619664
1772641309686833700,4.343833740234375,-0.0651081397265195,-0.3327493148371577,-0.0529360558956861
1772641309696879600,4.353879638671875,-0.0179652802795171,-0.5040896318390965,-0.0753007219116203
1772641309706924800,4.3639248046875,-0.025611995640397,-0.5671059869181364,-0.1554256491092965
1772641309716969700,4.3739697265625,-0.143163439309597,-0.5677247764036059,-0.2175481971537694
1772641309727015700,4.384015625,-0.3517179269403219,-0.6093180388994515,-0.2680014963230118
1772641309737060600,4.394060546875,-0.5687666866719723,-0.579677006938681,-0.32504374542851
1772641309747105500,4.40410546875,-0.7024667165875434,-0.4564780589018016,-0.372736822636798
1772641309757151200,4.414151123046875,-0.772250446909666,-0.2797556104701012,-0.4057243154812604
1772641309767197200,4.424197265625,-0.8788198933154344,-0.0336985637232661,-0.3711858668677508
1772641309777241900,4.434241943359375,-1.0149860210835933,0.1865131170187145,-0.2789459197887219
1772641309787287000,4.444287109375,-1.1105892523169516,0.3783065125279128,-0.171005970481038
1772641309797333000,4.4543330078125,-1.1614391495883465,0.6551012273658067,-0.1604820739823393
1772641309807378200,4.464378173828125,-1.215355448693037,0.7706066252253949,-0.0753703850477701
1772641309817423000,4.474423095703125,-1.1977373744159936,0.8564793205611407,0.0117034068731591
1772641309827469000,4.484468994140625,-1.0859060619592666,0.9111076403927058,0.0432696895417757
1772641309837514000,4.494513916015625,-0.8998317016839981,0.93379914547652,0.072454575232882
1772641309847559000,4.504558837890625,-0.720220399942994,0.9449182861883192,0.0619604984837118
1772641309857604000,4.51460400390625,-0.5896516537904739,0.9807261702157556,0.0571500477283727
1772641309867650000,4.524650146484375,-0.4573153134435415,1.0028462320871652,0.0182765747183933
1772641309877695000,4.534695068359375,-0.3541296642571687,0.9956766327187418,0.0216087239489424
1772641309887740200,4.544740234375,-0.2250806750178337,0.947746933742985,0.002555447503319
1772641309897786000,4.5547861328125,-0.0468231259733438,0.8995132833845912,-0.0212198342292103
1772641309907831000,4.5648310546875,0.1793815846383571,0.8698783158384263,-0.0686313362834509
1772641309917876000,4.5748759765625,0.3873819455176591,0.8437350628655403,-0.12200283358749
1772641309927922000,4.584921875,0.61847325912714,0.831997644124925,-0.1351790255601052
1772641309937967000,4.594967041015625,0.7951122670590877,0.7857472765382378,-0.1258159804011695
1772641309948012000,4.605011962890625,0.99167937977612,0.731692226549983,-0.0466108075300697
1772641309958058200,4.615058349609375,1.150723694306612,0.6708201169580221,0.0120267433762783
1772641309968103000,4.62510302734375,1.3332289639234542,0.6279477744370698,0.0495471304100239
1772641309978148000,4.635148193359375,1.4988859745919705,0.595407879229635,0.0218737315606791
1772641309988193000,4.645193115234375,1.6293880852490663,0.5496845311917364,-0.0008413713111425
1772641309998239000,4.655239013671875,1.6723913606733083,0.5349538489192724,-0.0306662399727967
1772641310008284200,4.6652841796875,1.66895671004951,0.5343538371995091,-0.0661137091730255
1772641310018329000,4.6753291015625,1.5613637658149002,0.5389772592164576,-0.0518494845016859
1772641310028375000,4.685375,1.4743372242689132,0.5704913185074925,0.0077065911803103
1772641310038420000,4.695419921875,1.3817068713665008,0.6207749601982534,0.0811547908352222
1772641310048465000,4.70546484375,1.341918466335535,0.6725703216262161,0.1515160470506641
1772641310058511000,4.715510986328125,1.3296645494401451,0.7305003133516759,0.2232000489030033
1772641310068556000,4.72555615234375,1.2909674467772243,0.7783100392095744,0.2947569081111811
1772641310078601200,4.735601318359375,1.1174825189620257,0.7958817170616239,0.3426156790088862
1772641310088647200,4.745647216796875,0.8528490012347698,0.7766118569895625,0.3445329838722944
1772641310098691800,4.75569189453125,0.5674830766022205,0.7362940943222492,0.2841242905410006
1772641310108737000,4.765737060546875,0.3327238881349563,0.6762369543749839,0.2210812666507437
1772641310118782000,4.775781982421875,0.1300397538423538,0.5529986972410231,0.1828529505433514
1772641310128828200,4.785828125,-0.0430967989265918,0.5019475052438676,0.0322882037349976
1772641310138873000,4.795873046875,-0.2260071422129869,0.4437652192577719,-0.1298155348987318
1772641310148918000,4.80591796875,-0.3792500769883394,0.3504736259676516,-0.259484245205298
1772641310158964000,4.8159638671875,-0.4907283382236957,0.2675546658709645,-0.3739699080957099
1772641310169009000,4.8260087890625,-0.6126987673789263,0.1728307016901671,-0.433899074281752
1772641310179054000,4.83605419921875,-0.6931038449585437,0.0934931437442079,-0.4747435642369091
1772641310189100000,4.84610009765625,-0.7287567576199769,0.0012502923220396,-0.4670502332553267
1772641310199145000,4.85614501953125,-0.6791629978895187,-0.0764283194357529,-0.4458724572027102
1772641310209190100,4.866190185546875,-0.5347825840055942,-0.1304549835797399,-0.4302552378866821
1772641310219234800,4.87623486328125,-0.3998153106331825,-0.1942805726824328,-0.431172571927309
1772641310229281000,4.886281005859375,-0.2274900742471218,-0.2503193438338115,-0.3965450933234766
1772641310239326000,4.896325927734375,-0.090163670527935,-0.3083158249242231,-0.3497217846870422
1772641310249371100,4.90637109375,0.0427390715301036,-0.3204213463248684,-0.3180529366930946
1772641310259417000,4.9164169921875,0.1763543457716703,-0.3626495822560042,-0.2219517110760323
1772641310269462000,4.9264619140625,0.2682277428269386,-0.3798181591998785,-0.1549895227143541
1772641310279507000,4.9365068359375,0.3503811253786086,-0.370691726675257,-0.0813005833809264
1772641310289553000,4.946552978515625,0.395183559179306,-0.3645508493000641,-0.0090119666989427
1772641310299598000,4.95659814453125,0.4065273754924535,-0.3636981779934838,0.0573710152689833
1772641310309643000,4.96664306640625,0.3535924886405467,-0.3594221811747178,0.1144841833193786
1772641310319688200,4.976688232421875,0.2246820310890674,-0.3661913099834695,0.1291567513295914
1772641310329734100,4.986734130859375,0.096375969171524,-0.3784165487736463,0.1159312311893794
1772641310339779000,4.996779052734375,-0.0258235925644636,-0.3578108369879424,0.0486551363066304
1772641310349824000,5.006823974609375,-0.0752057553708553,-0.3414444432724267,-0.0156528751512989
1772641310359870000,5.016869873046875,-0.07198913141191,-0.3211382258899509,-0.0323731968710198
1772641310369915100,5.0269150390625,-0.1582481957167387,-0.320332462465018,-0.0099951051179319
1772641310379960000,5.0369599609375,-0.135582190400362,-0.3476989005573093,0.0780250871079042
1772641310390006000,5.047006103515625,-0.0834890150696039,-0.4056517982343211,0.274234983885102
1772641310400051200,5.05705126953125,0.0477449169933795,-0.4722985822375863,0.4705589720286429
1772641310410095900,5.067095947265625,0.1826087299913167,-0.5075395896298811,0.6082201606601476
1772641310420141800,5.077141845703125,0.263985867473483,-0.5168760847086087,0.6668922759898006
1772641310430187000,5.08718701171875,0.2866688239246606,-0.5329828411072493,0.7095552866090089
1772641310440232000,5.09723193359375,0.297703428158164,-0.5452671531409025,0.6932183381836861
1772641310450277000,5.107277099609375,0.2798971378326416,-0.5199105205010622,0.6592724486358463
1772641310460323000,5.117322998046875,0.2374731236010789,-0.5004884655419737,0.6349179787758737
1772641310470368300,5.1273681640625,0.2334375844746828,-0.4650920849248766,0.5954593902211636
1772641310480413000,5.137412841796875,0.250778010854125,-0.4378374366439879,0.5606485544070601
1772641310490459000,5.147458984375,0.2730401115447282,-0.4302103027664125,0.5158731912763789
1772641310500504000,5.157504150390625,0.2638753928363323,-0.4209096096534281,0.4539348041597753
1772641310510549000,5.167549072265625,0.1979652890771627,-0.4211894495081156,0.3956400342425331
1772641310520595200,5.17759521484375,0.0834703103691339,-0.3903889453139156,0.3591104848770424
1772641310530640100,5.18764013671875,-0.1240478199511766,-0.3477349217187613,0.3093084892233833
1772641310540685000,5.19768505859375,-0.3735889824867248,-0.3141793466627597,0.2629245218522846
1772641310550730000,5.20772998046875,-0.5948217499047518,-0.2996189794559031,0.2307467379555106
1772641310560776000,5.21777587890625,-0.7386065359830856,-0.3130302496928721,0.1682626265896484
1772641310570821000,5.227821044921875,-0.7352630707740784,-0.2864493359550834,0.059244133930793
1772641310580866000,5.237865966796875,-0.6486801813423633,-0.308842223418504,0.0013698635810986
1772641310590912000,5.247912109375,-0.5635509978502988,-0.3712855278499424,-0.0111083681560354
1772641310600957000,5.25795703125,-0.5785147582262754,-0.4877773063983768,0.0333446311524836
1772641310611001900,5.268001953125,-0.5914198325067758,-0.670334890724346,0.0536868742629885
1772641310621048000,5.278048095703125,-0.588970685788989,-0.7538220060978085,-0.0315184888709802
1772641310631093000,5.288093017578125,-0.5826449898988009,-0.7479445654317736,-0.0927115557793062
1772641310641138200,5.29813818359375,-0.6437766272097826,-0.8129206032112241,0.0088675623927265
1772641310651183000,5.30818310546875,-0.627082097518444,-0.83201875997819,0.1153263880308717
1772641310661229000,5.31822900390625,-0.4926590140253305,-0.5978154518280178,0.0390822751887608
1772641310671274000,5.32827392578125,-0.3633972588181495,-0.2660931419510394,-0.1169360699835233
1772641310681319000,5.33831884765625,-0.3784294082552194,-0.0354883697494864,-0.2107763649312779
1772641310691365000,5.348365234375,-0.4821440497517585,0.1963002784743905,-0.2807229941975325
1772641310701410000,5.35841015625,-0.7008195339024067,0.42758521495983,-0.2375220407767221
1772641310711455200,5.368455322265625,-0.8160410733193159,0.6581942249450832,-0.1013153618024662
1772641310721501200,5.378501220703125,-1.021461939099431,0.7808872692864388,0.0083864278122782
1772641310731545900,5.3885458984375,-1.1629688433736562,0.8698227862589061,-0.0086037238247692
1772641310741591000,5.398591064453125,-1.2814713041573762,0.8993888532873242,-0.1020165506080724
1772641310751637000,5.408636962890625,-1.2596890959382057,0.8354338291186839,-0.2630813746481202
1772641310761682400,5.418682373046875,-1.1590157218337058,0.7688361814867705,-0.512853879987821
1772641310771727600,5.4287275390625,-0.9708633862406016,0.5979711538463831,-0.6413387325383723
1772641310781772300,5.438772216796875,-0.6292518427729606,0.4927938193861395,-0.7009434525430203
1772641310791818500,5.448818603515625,-0.1952080993235111,0.4522279271766543,-0.6285021203842014
1772641310801863400,5.458863525390625,0.2970230446785688,0.4193509089693427,-0.4973873577214777
1772641310811908600,5.46890869140625,0.7914332862854003,0.4381276517622172,-0.3987046094449237
1772641310821954600,5.47895458984375,1.1852344511955977,0.4256602382466197,-0.2943655707060359
1772641310831999500,5.48899951171875,1.551590559819341,0.4641371222876012,-0.183005656887032
1772641310842044700,5.499044677734375,1.8329735522955652,0.5699354381904006,-0.1317859947214834
1772641310852090600,5.509090576171875,1.9122306288838384,0.6453028138637542,-0.1401928534004371
1772641310862135300,5.51913525390625,1.903383890083432,0.6653177201494574,-0.1699410446632653
1772641310872180500,5.529180419921875,1.874827657684684,0.6255310686841606,-0.239054912899807
1772641310882225400,5.539225341796875,1.7383482261836527,0.6032983402185141,-0.3520574245603755
1772641310892271600,5.549271728515625,1.6974813782662153,0.597357698123157,-0.4793371025722474
1772641310902316500,5.559316650390625,1.7032605461895465,0.5865609942987561,-0.5845940050747245
1772641310912361500,5.569361572265625,1.6671347553193567,0.590863659928739,-0.6692027448892593
1772641310922407400,5.579407470703125,1.5824007086247205,0.62330374802351,-0.7247925301641225
1772641310932452400,5.589452392578125,1.43542034137547,0.7171687572874128,-0.7468209682293235
1772641310942497500,5.59949755859375,1.2442255693465472,0.859829361641407,-0.6819294669281691
1772641310952543500,5.60954345703125,0.9433791669875384,1.043419357755035,-0.6275119403030723
1772641310962588700,5.619588623046875,0.5981815817266702,1.156581772685051,-0.5452910454731434
1772641310972633600,5.629633544921875,0.1143067626595497,1.2227632407315074,-0.451710406108573
1772641310982679600,5.639679443359375,-0.4018482777655124,1.2458556547664106,-0.3621080227252096
1772641310992724500,5.649724365234375,-0.7213204701393843,1.2357805432148277,-0.2743465545007958
1772641311002769400,5.659769287109375,-0.9184516464799642,1.155852654692903,-0.2413349501283839
1772641311012814600,5.669814697265625,-0.935721930232644,1.0112906736969949,-0.3215212703907862
1772641311022860500,5.679860595703125,-0.7802665801048279,0.8086471636757254,-0.4322256246441975
1772641311032905500,5.689905517578125,-0.5449731386303901,0.605557590387389,-0.5172027959123253
1772641311042950400,5.699950439453125,-0.2327618771702051,0.3760022541735321,-0.5169664298731833
1772641311052996400,5.709996337890625,0.0880383489370346,0.123405430394411,-0.4831212972860783
1772641311063041500,5.72004150390625,0.4044575834810733,-0.0713437461804598,-0.4458982126984745
1772641311073086500,5.73008642578125,0.7775427080988884,-0.1987679837621748,-0.4221759032621979
1772641311083132400,5.74013232421875,0.9412415704369544,-0.264475916012749,-0.4254369508847594
1772641311093177600,5.750177490234375,0.8866431342869997,-0.2523362731467932,-0.4453839795660227
1772641311103222300,5.76022216796875,0.7090536937624216,-0.2152273895233869,-0.4229710722278803
1772641311113267500,5.770267333984375,0.4609422717690467,-0.1750163021009415,-0.3944887818481773
1772641311123313400,5.7803134765625,0.2699450681388378,-0.0937856604173779,-0.3843344675805419
1772641311133358600,5.790358642578125,0.1861111851543188,-0.0111993663411587,-0.3482317653249949
1772641311143403500,5.800403564453125,0.1413075823098421,0.0211016786091029,-0.2691708323633298
1772641311153449500,5.810449462890625,0.0479027379035949,0.0568055177401751,-0.205120019670017
1772641311163494700,5.82049462890625,-0.0079506667435169,0.0759422529518604,-0.1245519152821041
1772641311173539300,5.830539306640625,-0.0551554855108261,0.0790698834531009,-0.0236487510097213
1772641311183585300,5.840585205078125,-0.0977460884809494,0.0618595131941139,0.0501535673039965
1772641311193630500,5.85063037109375,-0.0603992313832044,0.0159375738441944,0.1021062199192121
1772641311203675400,5.86067529296875,-0.0568166967213153,-0.062458063609153,0.1357144750105217
1772641311213721600,5.8707216796875,-0.0368324778348207,-0.1488960281448438,0.0775772702751681
1772641311223766500,5.8807666015625,-0.0332476050853729,-0.2424316958565265,0.0154642207114025
1772641311233811500,5.8908115234375,-0.0321329218417406,-0.3585867167312652,-0.0524756718423217
1772641311243856400,5.9008564453125,-0.033592473000288,-0.4687587542062625,-0.1009838282931595
1772641311253902300,5.91090234375,-0.0591571223676204,-0.5484439565461129,-0.1222250249708071
1772641311263947500,5.920947509765625,-0.0896580590933561,-0.604149805948697,-0.1506770663427188
1772641311273992400,5.930992431640625,-0.076118194040656,-0.6595015812166035,-0.1511998115751892
1772641311284038700,5.94103857421875,-0.0349760363131761,-0.7253443188279867,-0.1893249230364337
1772641311294083600,5.95108349609375,-0.020984920361638,-0.7547150824800133,-0.2529164841875433
1772641311304128500,5.96112841796875,-0.0019569792866706,-0.7530097398668527,-0.3209589603329077
1772641311314174500,5.971174560546875,-0.0013747954845428,-0.7396591868411749,-0.35685138083864
1772641311324219400,5.981219482421875,-0.0319546426653861,-0.7194361176975071,-0.352697037638165
1772641311334264600,5.9912646484375,-0.0269219091951847,-0.6884061886616051,-0.3359190309144556
1772641311344309500,6.0013095703125,-0.0756593443572521,-0.6346213339168578,-0.3163559965820983
1772641311354355500,6.01135546875,-0.142165660443902,-0.5518807991269976,-0.2946069599801674
1772641311364400400,6.021400390625,-0.1946048727333545,-0.4821621699303388,-0.2883581652510911
1772641311374445300,6.0314453125,-0.2112391966700554,-0.4383344263806938,-0.2560863098626956
1772641311384491500,6.041491455078125,-0.2023860281288623,-0.4189337064705788,-0.263859355016984
1772641311394536400,6.051536376953125,-0.2225146239221095,-0.3684467242274433,-0.3168806415107101
1772641311404581600,6.06158154296875,-0.2910422167032956,-0.3224142371751368,-0.3789985499126836
1772641311414627600,6.071627685546875,-0.3823836988389492,-0.3044526101574301,-0.4142090160362422
1772641311424672500,6.081672607421875,-0.426467170715332,-0.3003922288507223,-0.4375649398455396
1772641311434717400,6.091717529296875,-0.4295470165520906,-0.2976936374165118,-0.3783038456467911
1772641311444762400,6.101762451171875,-0.3682692487686872,-0.3540480503883212,-0.3034336789058521
1772641311454808600,6.11180859375,-0.3456739706009626,-0.4588831472821533,-0.2166791227016598
1772641311464853500,6.121853515625,-0.32279519931674,-0.5495470954824239,-0.1934954136541113
1772641311474898700,6.131898681640625,-0.3836374982923269,-0.5543720314208418,-0.2583378881817683
1772641311484944600,6.141944580078125,-0.5059709155410528,-0.483478147899732,-0.2799153310764581
1772641311494989300,6.1519892578125,-0.6942991922229528,-0.402273371309787,-0.2305284190297126
1772641311505034500,6.162034423828125,-0.8526122698694467,-0.3344502735361456,-0.1278788860140368
1772641311515080400,6.17208056640625,-0.9416460595846176,-0.2370390430327504,-0.0275571018261834
1772641311525125400,6.18212548828125,-0.888257583746314,-0.1035682187631726,0.0534231818255037
1772641311535170600,6.192170654296875,-0.8068249166846275,0.0101379476547241,0.1091562845611944
1772641311545216500,6.202216552734375,-0.6853793881863355,0.1019024775080382,0.1809336729185655
1772641311555261400,6.212261474609375,-0.5390379033625126,0.212476337249577,0.1967499219380319
1772641311565306400,6.222306396484375,-0.400289942407608,0.3932113823235034,0.1115175337998196
1772641311575351600,6.2323515625,-0.3998632414281368,0.5519587597340345,0.0385289064891636
1772641311585397500,6.2423974609375,-0.5111684841841458,0.7496855638802051,-0.0350440965807065
1772641311595442400,6.2524423828125,-0.7171347088873385,1.008698465246707,-0.0684482439346611
1772641311605487600,6.262487548828125,-0.978428853058815,1.203631985412538,-0.0502797692332416
1772641311615533600,6.272533447265625,-1.1516928315997124,1.3499348917916416,0.0332431846385821
1772641311625578500,6.28257861328125,-1.205243804523349,1.405883719637245,0.1273610361523926
1772641311635623400,6.29262353515625,-1.171731411021948,1.424648187470436,0.2100150251699611
1772641311645669400,6.30266943359375,-0.9587240356355904,1.4301917930722237,0.2364202900798991
1772641311655714600,6.312714599609375,-0.6631167029738426,1.438089268323779,0.1938181428024545
1772641311665759500,6.322759521484375,-0.3368710709422826,1.3982606774128972,0.1256564607242122
1772641311675804400,6.332804443359375,-0.0093839144170284,1.3037388116754591,0.0432756260922178
1772641311685850400,6.342850341796875,0.2976490676224231,1.1886651562966406,0.0101884357329457
1772641311695895600,6.3528955078125,0.5973194119393825,1.0806631928697228,0.0195175877554342
1772641311705940500,6.3629404296875,0.954275239533186,0.974828344348818,0.0674086717538535
1772641311715986400,6.372986328125,1.3413953192442656,0.8745924848787486,0.1248791562087833
1772641311726031600,6.383031494140625,1.599477515631914,0.7700887388311326,0.2386105301331728
1772641311736076500,6.39307666015625,1.834870910349488,0.7022511741407215,0.3187809952393174
1772641311746122500,6.40312255859375,2.020631382369995,0.6311031697280705,0.4416953176485374
1772641311756167200,6.413167236328125,2.1002695672303435,0.5241479388751089,0.5317858498750254
1772641311766212400,6.42321240234375,2.1135633485674856,0.4590604035452008,0.5412153935320675
1772641311776257000,6.433257080078125,2.0486241356670853,0.3945882236346602,0.5305230633975938
1772641311786303000,6.443302978515625,1.8864117124944924,0.4183250730529427,0.4662980266485363
1772641311796348200,6.45334814453125,1.6396715788543224,0.5069624107964337,0.3588420431992039
1772641311806393000,6.46339306640625,1.4450012396693228,0.5910644431978463,0.3254463714126497
1772641311816439000,6.47343896484375,1.2430121019035576,0.6849331057235598,0.3214351630099117
1772641311826484200,6.483484130859375,1.0618623385488986,0.8149939023539423,0.3506788296835497
1772641311836529000,6.49352880859375,0.8517436703413724,0.9149053521752356,0.3833146960787474
1772641311846575000,6.5035751953125,0.6064321081995964,0.9656700553812086,0.4784468757342547
1772641311856620000,6.5136201171875,0.3789940564006567,0.963969535073638,0.5597854347717016
1772641311866665200,6.523665283203125,0.1812187369376421,0.9559967295635492,0.5960089138627052
1772641311876711200,6.533711181640625,0.0046153848409652,0.9356377590805292,0.5992459595551713
1772641311886756000,6.543756103515625,-0.2413525953829288,0.8614397925127297,0.5787914562758057
1772641311896801000,6.553801025390625,-0.5219827236652373,0.7406839267790317,0.5012265705581754
1772641311906846000,6.563845947265625,-0.730401602217555,0.5906740556407719,0.3683554292147979
1772641311916892200,6.57389208984375,-0.7452081262052058,0.4314540922824293,0.1961891827827319
1772641311926937000,6.58393701171875,-0.5251671989202499,0.2377433919098228,-0.000563552166894
1772641311936982300,6.593982177734375,-0.309079977697134,0.0945602249864488,-0.1589936803217977
1772641311947028200,6.6040283203125,-0.2015671129614114,-0.0562005375843495,-0.2403897782327607
1772641311957073200,6.6140732421875,-0.1632230615198612,-0.1784114244319498,-0.2865261275183409
1772641311967118000,6.6241181640625,-0.1282020170211792,-0.2593304428830743,-0.3379288363669067
1772641311977164000,6.6341640625,-0.1002653778254985,-0.323264789589867,-0.3860833936071023
1772641311987209000,6.644208984375,-0.010203414106369,-0.3819856394320726,-0.4156957839952782
1772641311997254100,6.654254150390625,0.0616501082271337,-0.4313411334272474,-0.3982763375628739
1772641312007299000,6.664299072265625,0.1364355923593044,-0.4671637766323983,-0.3689619072079658
1772641312017345300,6.67434521484375,0.1855623190999031,-0.5128142786297947,-0.3112274015219882
1772641312027390000,6.684389892578125,0.2472112582832574,-0.5479827687751502,-0.2404899141389876
1772641312037435100,6.69443505859375,0.3019774522155523,-0.560517840699479,-0.1933312360683456
1772641312047481000,6.704481201171875,0.3572831598520278,-0.5584777131740003,-0.1182622222870588
1772641312057526000,6.714526123046875,0.4097171114444732,-0.567052430099994,-0.0137492882859893
1772641312067571200,6.7245712890625,0.3885018894582986,-0.5426327860493213,0.10457829085486
1772641312077617200,6.7346171875,0.3933008141726255,-0.460466178689897,0.1528620822316035
1772641312087662300,6.744662353515625,0.3091366763204336,-0.4114799563985317,0.1936645596759393
1772641312097707000,6.75470703125,0.2518155372083187,-0.3813870890170335,0.2313740760736167
1772641312107752200,6.764752197265625,0.2204255426883697,-0.381891531407833,0.2969643915602006
1772641312117798100,6.774798095703125,0.1625175435990095,-0.3887153860785067,0.3730228365039452
1772641312127843000,6.784843017578125,0.0426776967316865,-0.3806367821063846,0.3793448425997048
1772641312137888300,6.79488818359375,-0.090400401893258,-0.3988749610431492,0.3366477105151861
1772641312147934200,6.804934326171875,-0.1461141058087348,-0.446522920468077,0.3078448829442262
1772641312157979100,6.814979248046875,-0.068898764181137,-0.5330768030010163,0.3315167408348992
1772641312168024000,6.825024169921875,0.0566395865887403,-0.6429987747050822,0.3037701808512211
1772641312178070000,6.835070068359375,0.09675649292171,-0.7819874856133013,0.273789669536706
1772641312188115200,6.845115234375,0.0954611924141645,-0.891223228618875,0.2737520957389846
1772641312198160100,6.85516015625,0.1095376485615968,-0.9340876070290804,0.2641300982497632
1772641312208205300,6.865205322265625,0.1041653078734874,-0.9659572748247534,0.2635857987726107
1772641312218251300,6.875251220703125,0.1161462530463934,-0.956299292706698,0.2932275065868161
1772641312228296000,6.8852958984375,0.1224351240575313,-0.9348888404093684,0.3904668693883344
1772641312238341000,6.895341064453125,0.1123936225146055,-0.8692246742352843,0.455905300515145
1772641312248387000,6.905386962890625,0.0281891526520252,-0.7957683198150247,0.5419171485932543
1772641312258432300,6.915432373046875,-0.0284656315058469,-0.7219828065056353,0.5886926725652069
1772641312268477200,6.925477294921875,-0.02629647077322,-0.6558027266986668,0.6044335913261398
1772641312278523100,6.935523193359375,-0.0076192428320646,-0.6215251940436661,0.5990293211298063
1772641312288568000,6.945568115234375,0.0088929160296916,-0.6273809343345463,0.5557913966994732
1772641312298613000,6.955613037109375,-0.0262725053757429,-0.6134015818860381,0.4749435803210362
1772641312308658200,6.965658203125,-0.0767868870824575,-0.5763342723820358,0.4054158705865964
1772641312318704000,6.9757041015625,-0.1669493885666131,-0.5548125417299569,0.3322616043854504
1772641312328749000,6.9857490234375,-0.3491249878376722,-0.5498063309404999,0.2632665950219147
1772641312338794200,6.995794189453125,-0.546778726747632,-0.6069972678016871,0.2713342940075323
1772641312348840000,7.00583984375,-0.5932569848060607,-0.7686389784142375,0.3358551718980074
1772641312358885000,7.015885009765625,-0.5270423451423645,-0.8805558502625673,0.313150478539057
1772641312368930000,7.025929931640625,-0.4803051438868045,-0.8833768259674311,0.1904739834737032
1772641312378976000,7.03597607421875,-0.5555898097127676,-0.8490773737415671,0.0770827556233387
1772641312389021200,7.046021240234375,-0.7280524087429047,-0.7892870680369436,-0.0290409197763074
1772641312399066000,7.056066162109375,-0.8500432961642742,-0.6704176736369729,-0.1148969562381971
1772641312409112300,7.0661123046875,-0.9493903901010752,-0.3914332667350769,-0.2353131873545236
1772641312419157000,7.076156982421875,-1.0611755253285169,-0.071100877335295,-0.3017389307519421
1772641312429202200,7.0862021484375,-1.099838725721836,0.1699333728134632,-0.2468214917806908
1772641312439247000,7.0962470703125,-1.0630097550183537,0.3225303378354758,-0.0647231407306157
1772641312449293000,7.10629296875,-0.8791349506139755,0.450747990817204,0.0913255082483869
1772641312459338200,7.116338134765625,-0.6492495056629181,0.5260049649186432,0.1188452554725576
1772641312469383000,7.1263828125,-0.4226683629542589,0.5793449985053389,0.0527036079798359
1772641312479429000,7.13642919921875,-0.2335001283168792,0.5702905352383851,-0.0432880289160646
1772641312489474000,7.14647412109375,-0.2033563344657421,0.5448803457804023,-0.1637749780478887
1772641312499519200,7.156519287109375,-0.1793044277489185,0.5675265504177659,-0.2955888836896047
1772641312509565200,7.166565185546875,-0.1334387486308813,0.6439339366633444,-0.3986871833860874
1772641312519610000,7.176610107421875,-0.0239192202478647,0.727784624652192,-0.434736036562547
1772641312529655300,7.1866552734375,0.1538292102307081,0.7606894076492637,-0.3683342768289148
1772641312539700000,7.196699951171875,0.3366980524629354,0.8045208044607192,-0.267490368463099
1772641312549746000,7.206745849609375,0.4903507370829582,0.86580112952739,-0.2041040840931236
1772641312559791000,7.216791015625,0.7178168459326029,0.8526625387519597,-0.1522330636130645
1772641312569836000,7.2268359375,0.8816822970092296,0.949906376799196,-0.0694683807626366
1772641312579882200,7.23688232421875,0.9638596449583768,0.9840838100805878,0.022198259940464
1772641312589927200,7.24692724609375,1.0218751960754393,0.946099677992612,0.0737241202446632
1772641312599972000,7.25697216796875,1.0519523544311522,0.9459545704334974,0.0751402706529013
1772641312610018000,7.26701806640625,1.0813245793879032,0.9167594556093216,0.0540996380486525
1772641312620063000,7.27706298828125,1.0884048930376768,0.8797039826735854,0.0582483004270121
1772641312630108200,7.287108154296875,1.0303998633146283,0.8368722644239663,0.0997323851936496
1772641312640153000,7.297153076171875,0.9624000937998294,0.8653305894061922,0.1337089073417708
1772641312650199300,7.30719921875,0.9037713792204856,0.9186420544855296,0.1296834877505898
1772641312660244200,7.317244140625,0.8305079900890588,0.9685542325153946,0.0779682058215141
1772641312670289200,7.3272890625,0.755726597610116,0.9891897549174724,0.0303597564230672
1772641312680335000,7.337335205078125,0.7012006421744823,1.0371668732315302,0.0101709183425642
1772641312690380000,7.347380126953125,0.7175228314220905,1.0818497723057865,-0.019758045447804
1772641312700425200,7.35742529296875,0.6942044996768236,1.1275704899951815,-0.0811809207903221
1772641312710471200,7.36747119140625,0.6049228726804257,1.1077187383819371,-0.0752043853976763
1772641312720516000,7.37751611328125,0.478538134214282,1.2194623725552112,-0.2386055982297286
1772641312730561000,7.38756103515625,0.2170715560853481,1.2705188252493738,-0.4003752826035022
1772641312740607000,7.39760693359375,-0.0828413648158311,1.132781721837446,-0.4387615657515823
1772641312750652200,7.407652099609375,-0.2519540688961744,1.0372886729802937,-0.5284226570522412
1772641312760696800,7.41769677734375,-0.4013981959104538,0.9638500734124332,-0.5812858303748071
1772641312770742000,7.427741943359375,-0.4920218851655721,0.8717700478691607,-0.5536510967351496
1772641312780788000,7.4377880859375,-0.5689782835960387,0.7552757851026952,-0.4491954641455784
1772641312790832600,7.44783251953125,-0.5809142205834389,0.6471969570472836,-0.3952048942282796
1772641312800877800,7.4578779296875,-0.4330933108568191,0.552362006772682,-0.3848270368704572
1772641312810923800,7.467923828125,-0.216588741004467,0.4597613183561712,-0.3355541796574369
1772641312820969000,7.477968994140625,-0.0590402179896831,0.2697411430645734,-0.241635796238482
1772641312831014000,7.488013916015625,0.1357815123647451,0.1126917286783456,-0.1937353964224457
1772641312841059000,7.49805908203125,0.2431476621061563,0.0367367623753845,-0.1832588644631207
1772641312851105000,7.50810498046875,0.3551747893959283,-0.024126944714412,-0.1584611443476751
1772641312861149700,7.518149658203125,0.3810936590284109,-0.0686654668819159,-0.1653669416807592
1772641312871195000,7.52819482421875,0.3921399536997079,-0.0707481183748692,-0.1470606842101551
1772641312881240800,7.53824072265625,0.4331190298199653,-0.0775916275940835,-0.0967756542799063
1772641312891286000,7.5482861328125,0.4597311424136162,-0.0922392346929758,-0.0732643024468794
1772641312901331000,7.5583310546875,0.4610322881400585,-0.0793142866682261,-0.0574467017205432
1772641312911377000,7.568376953125,0.4299561818748712,-0.044459246386215,-0.0600497055594809
1772641312921421800,7.578421875,0.4118237283349037,-0.0165749949648976,-0.0500437867865897
1772641312931466800,7.588466796875,0.3193418439924717,0.0001595014106482,-0.0241194372613914
1772641312941512700,7.5985126953125,0.2687579041808843,0.0384895973920822,0.0017664068843238
1772641312951558000,7.608557861328125,0.2524339613676071,0.0930365956157445,-0.010009681632556
1772641312961602800,7.618602783203125,0.2029810714125633,0.1077338870752602,-0.0785637240292504
1772641312971648000,7.62864794921875,0.0927338132768869,0.0816416336372494,-0.1508832747056148
1772641312981693700,7.638693603515625,-0.0604588526159524,0.00687251611799,-0.1598199568117968
1772641312991739000,7.64873876953125,-0.0014081132322549,-0.0177404585476964,-0.2317841547118499
1772641313001783800,7.65878369140625,0.0868248814940452,-0.0517432659145444,-0.1998363071134314
1772641313011829800,7.668829833984375,0.2227864266008138,-0.0974076503068208,-0.248540899451822
1772641313021875000,7.678875,0.2309621342718601,-0.1464620424635708,-0.328309505758807
1772641313031919900,7.688919921875,0.2586550278395414,-0.1885870006833225,-0.2889331886600703
1772641313041966000,7.698966064453125,0.1583551632225513,-0.1555778805289417,-0.269391672039777
1772641313052010800,7.7090107421875,0.1200835924953222,-0.1387509566295892,-0.3291265212301165
1772641313062056000,7.719055908203125,0.0905453633219003,-0.2104362827893346,-0.2920988313504494
1772641313072100900,7.729100830078125,0.1278892978101968,-0.2554306589655578,-0.2748800037903711
1772641313082146800,7.739146728515625,0.2115899098038673,-0.3162362791925668,-0.2756580754907801
1772641313092192000,7.74919189453125,0.1323117904275655,-0.3564244241308421,-0.3042354054764844
1772641313102236700,7.759236572265625,-0.021494038927555,-0.4138743772543966,-0.3687593703731894
1772641313112283000,7.769282958984375,-0.0641723201811313,-0.4719347173612565,-0.4274512133166194
1772641313122327800,7.779327880859375,-0.1390145029366016,-0.5624389449551701,-0.4725018131921067
1772641313132372700,7.789372802734375,-0.2135322760432958,-0.533604480136931,-0.4494568184955045
1772641313142419000,7.7994189453125,-0.2203530619740486,-0.496216048919782,-0.3842595391808077
1772641317411483600,0.061483642578125,-0.218175717934966,0.0438902143266052,-0.1662446012981236
1772641317421528600,0.071528564453125,-0.0624298604279756,-0.024570523763448,-0.2491133655775338
1772641317431573500,0.081573486328125,0.0824006353110075,-0.0654883712157607,-0.3184755825519562
1772641317441618700,0.09161865234375,0.2083475668817758,-0.1203765110272914,-0.3139049867007881
1772641317451664400,0.101664306640625,0.3151788790941238,-0.1535663945760577,-0.3085089728761464
1772641317461709600,0.11170947265625,0.3835784615814686,-0.1688083873715251,-0.2653365514300763
1772641317471754500,0.12175439453125,0.4525467838674783,-0.1949775054380297,-0.2425418782327324
1772641317481800400,0.131800537109375,0.4867915832966565,-0.2764684785582125,-0.2011967452790588
1772641317491845600,0.141845703125,0.5889034657716751,-0.2929293456241488,-0.197219585276395
1772641317501890600,0.151890625,0.7220838557273149,-0.2872510807920247,-0.1927939508538693
1772641317511936800,0.161936767578125,0.846975725287199,-0.3054275926694274,-0.1501845701180398
1772641317521981400,0.1719814453125,0.8761784388959407,-0.3166473442114889,-0.0828205412235111
1772641317532026600,0.182026611328125,0.9078764764517544,-0.3425644602783024,0.0105975279904901
1772641317542071600,0.192071533203125,0.9233446792185306,-0.3841151988066733,0.103868151557818
1772641317552117500,0.202117431640625,0.8940519492387771,-0.4351848032433539,0.1894499011229723
1772641317562162700,0.21216259765625,0.8512690385669469,-0.4590135687287897,0.2564100984569639
1772641317572207400,0.222207275390625,0.8176724739134311,-0.4977407012037932,0.2939937599852681
1772641317582253600,0.232253662109375,0.7721604305386542,-0.5448016545210034,0.2893256220437586
1772641317592298500,0.242298583984375,0.7311293319702148,-0.5555350838508457,0.3110916828457266
1772641317602343700,0.25234375,0.6441676723539829,-0.5960255727365613,0.3111189361788332
1772641317612389600,0.2623896484375,0.4844412207782268,-0.6072572339121252,0.3198709093678742
1772641317622434600,0.2724345703125,0.3574421498060226,-0.6488057804834098,0.3098978699512779
1772641317632479700,0.282479736328125,0.3071417031109333,-0.6270005567148328,0.2075004485331475
1772641317642525700,0.292525634765625,0.2980611555546522,-0.5021561064932495,0.09617357846722
1772641317652570400,0.3025703125,0.175759887009859,-0.4336830934435129,-0.0244420020129531
1772641317662615600,0.312615478515625,0.066148004168272,-0.4402594030939042,-0.0935694603834301
1772641317672660500,0.322660400390625,-0.0639858576983213,-0.4437826818492263,-0.1175821310684084
1772641317682706700,0.332706787109375,-0.1884463501036167,-0.4248210840087383,-0.1707683623328804
1772641317692751600,0.342751708984375,-0.3194827137678861,-0.4416046071577817,-0.2164254402015358
1772641317702796500,0.352796630859375,-0.4203197540014982,-0.453475150758773,-0.2381003155887126
1772641317712842500,0.362842529296875,-0.4675543833851814,-0.4644939729012549,-0.2504533820096403
1772641317722887400,0.372887451171875,-0.4157791879624128,-0.5443131403516978,-0.2513364484544843
1772641317732932600,0.3829326171875,-0.3303039675116538,-0.6405016241271049,-0.2880714572641998
1772641317742977500,0.3929775390625,-0.2711591201037168,-0.6962153280425817,-0.3515688007932156
1772641317753023700,0.403023681640625,-0.2111854206562042,-0.7566351638223976,-0.4005763581335544
1772641317763068700,0.413068603515625,-0.1294452950805425,-0.8002077635671943,-0.4234538142435252
1772641317773113600,0.423113525390625,-0.0335053792387247,-0.8816703873757272,-0.4250193830598145
1772641317783159600,0.43315966796875,0.0821574742048978,-0.936915523931384,-0.4182474047068506
1772641317793204500,0.44320458984375,0.1710445489257574,-0.9692193453606216,-0.4073325543954968
1772641317803249700,0.453249755859375,0.2334638879597187,-0.9927418213758618,-0.4219932401716709
1772641317813295600,0.463295654296875,0.2741191389530897,-1.0273551618564871,-0.439759929139167
1772641317823340500,0.473340576171875,0.2387438741892576,-1.062361885568872,-0.4778486906453967
1772641317833385500,0.483385498046875,0.1878472151666879,-1.1055752966124563,-0.5229421432819217
1772641317843431400,0.493431396484375,0.1299129125922918,-1.191267301619053,-0.4756993305917829
1772641317853476600,0.5034765625,0.0765180070132017,-1.2091495797902343,-0.4811434944070875
1772641317863521500,0.513521484375,0.0512637387692928,-1.1624626474171875,-0.5363443168969825
1772641317873566700,0.523566650390625,0.0497170938491821,-1.1671139072891323,-0.5368506589839235
1772641317883612700,0.53361279296875,0.0474976642340421,-1.176710295413062,-0.5084561930181458
1772641317893657600,0.54365771484375,0.0422007268697023,-1.1764592432614416,-0.4533785219838842
1772641317903702500,0.55370263671875,0.0327455007821321,-1.1814476991984992,-0.3753959953760728
1772641317913748500,0.56374853515625,0.0640717824161052,-1.1873297429744154,-0.2834696625571697
1772641317923793700,0.573793701171875,0.039325463694334,-1.1720319283384828,-0.1831963206209242
1772641317933838600,0.583838623046875,-0.0176233349740505,-1.145776739423722,-0.1317734457671642
1772641317943884500,0.593884521484375,-0.0005225625693798,-1.1127022989481687,-0.0765841675845906
1772641317953929700,0.6039296875,0.065062547019124,-1.0692268759675323,-0.0406614250058308
1772641317963974400,0.613974365234375,0.1035977371186017,-1.103064263639599,0.0152708900963887
1772641317974019600,0.62401953125,0.1248076984077692,-1.118246562137082,0.0694420042123645
1772641317984065500,0.6340654296875,0.1626671812027692,-1.1026377087906003,0.0996168873215094
1772641317994110500,0.6441103515625,0.218420048084855,-1.0914837159611284,0.1082702224416658
1772641318004155600,0.65415576171875,0.2789192327111959,-1.0872334381055089,0.1588498514043167
1772641318014201600,0.66420166015625,0.2929933507710695,-1.0746830224815755,0.2466707216657698
1772641318024246500,0.67424658203125,0.2932704141467809,-1.0478614318557082,0.3842607082245871
1772641318034291500,0.68429150390625,0.2462017889797687,-1.0203728286884723,0.4943826229475438
1772641318044337400,0.69433740234375,0.1773579698562622,-0.9953375369574874,0.5915868961693719
1772641318054382600,0.704382568359375,0.0771136348187923,-0.9805831084832548,0.6480924445822834
1772641318064427500,0.714427490234375,0.002750760012865,-0.9236403011642396,0.670098524685204
1772641318074472700,0.72447265625,-0.0384013345867395,-0.8808971379809081,0.6594434212885797
1772641318084518700,0.7345185546875,-0.1490875686615705,-0.8370943096768111,0.6375959658134728
1772641318094563600,0.7445634765625,-0.283342894372344,-0.814503050097078,0.6203233439732343
1772641318104608500,0.7546083984375,-0.4914835405051708,-0.8611510386992245,0.716786918362975
1772641318114654500,0.764654541015625,-0.5838181253314018,-0.9991110641468316,0.8595837163172662
1772641318124699600,0.77469970703125,-0.5034399357587099,-1.0963996181186288,0.9009395167954266
1772641318134744600,0.78474462890625,-0.38719372946918,-1.0770251286283137,0.8352022853851317
1772641318144790500,0.79479052734375,-0.2535217566043138,-1.028803022577241,0.7145448385246098
1772641318154835500,0.80483544921875,-0.1977981158167123,-1.0681769285231828,0.6604318478040396
1772641318164880600,0.814880615234375,-0.1469961493402719,-1.0283121703203766,0.606677716991119
1772641318174925600,0.824925537109375,-0.0497141712397336,-0.8551196495804935,0.4429227040190249
1772641318184971500,0.834971435546875,-0.0181289464086294,-0.6307453692663461,0.2296390872408635
1772641318195016700,0.8450166015625,-0.0491238041311502,-0.3794523215621709,-0.0439856740577146
1772641318205061600,0.8550615234375,-0.2080886236846446,-0.0947045288279652,-0.2997051051030867
1772641318215107600,0.865107666015625,-0.4971960729330777,0.2078092952866107,-0.4160443051720038
1772641318225152500,0.875152587890625,-0.8193938908785581,0.4609176487844437,-0.376166504824534
1772641318235197400,0.885197509765625,-1.04472006509006,0.6509704111713915,-0.243415464463178
1772641318245243600,0.89524365234375,-1.204545885387063,0.8200419795237481,-0.1166225470549427
1772641318255288600,0.90528857421875,-1.399362355044484,0.9510434180051088,0.0086720946195535
1772641318265333800,0.915333740234375,-1.5324556512385603,1.1071412307549269,0.0710339313126169
1772641318275378400,0.92537841796875,-1.442313608020544,1.1698341260332614,0.0570522955754771
1772641318285424400,0.93542431640625,-1.2729010442107915,1.189924143381789,0.0314189648861065
1772641318295469600,0.945469482421875,-0.9737538469851016,1.1950362256985156,-0.0050616307711228
1772641318305514500,0.955514404296875,-0.6436708287477493,1.1717349912185222,0.0314522826338186
1772641318315560700,0.965560791015625,-0.2658078222036361,1.1227271416172384,0.1075525756916031
1772641318325605600,0.975605712890625,0.0832043529093265,1.095307950424403,0.1392965712809935
1772641318335650600,0.985650634765625,0.4174117576003074,1.0657745435565709,0.1399981802117079
1772641318345696500,0.995696533203125,0.7417787362784147,1.0240645228132603,0.0960369282091967
1772641318355741400,1.005741455078125,1.0621727196723223,0.989589494824782,0.0014272197915241
1772641318365786600,1.01578662109375,1.31604168227911,0.932550460589677,-0.0679305219371803
1772641318375831600,1.02583154296875,1.5450105969071388,0.9002997575871646,-0.1031779408039525
1772641318385877500,1.03587744140625,1.686428069332242,0.8615233060777187,-0.1262267166265286
1772641318395922700,1.045922607421875,1.7381383828252552,0.8290262270987033,-0.1467198714158497
1772641318405967400,1.05596728515625,1.7524556619912386,0.8070581409186124,-0.1221528182511217
1772641318416013600,1.066013671875,1.8012410279482602,0.8037317729748785,-0.1264260385909117
1772641318426058500,1.07605859375,1.7878262505799531,0.7996203921332955,-0.1334146371029317
1772641318436103700,1.086103759765625,1.7061194427520037,0.8483711251683532,-0.1503073927801102
1772641318446149600,1.096149658203125,1.5516414132237433,0.8801700658153742,-0.1388873511592857
1772641318456194600,1.106194580078125,1.267976447290182,0.8880812773313372,-0.1408842788638547
1772641318466239500,1.116239501953125,0.9330892436414956,0.9402712641000748,-0.0885410012295469
1772641318476284400,1.126284423828125,0.6507084722995757,0.9988434261865912,-0.0021970351202413
1772641318486330600,1.13633056640625,0.4159434386134147,1.0625204371314496,0.1378583917040377
1772641318496375600,1.14637548828125,0.214641698589921,1.0617419270396231,0.2422310952505096
1772641318506420700,1.156420654296875,0.0187666597902774,1.0225773529954254,0.2864473631937057
1772641318516466700,1.166466796875,-0.1692944903880357,0.9428450601108372,0.2683466199662536
1772641318526511600,1.17651171875,-0.2239969714343547,0.7951652393553406,0.1686824594369158
1772641318536556500,1.186556640625,-0.1783399666309356,0.5834119556833058,-0.0143415368244051
1772641318546602500,1.1966025390625,-0.0294160640984773,0.3759654292944818,-0.2287245844781398
1772641318556647400,1.2066474609375,0.1225187106877565,0.159479344946891,-0.4083649661831557
1772641318566692600,1.216692626953125,0.276104759812355,-0.0288350493401288,-0.5308624879524111
1772641318576737500,1.226737548828125,0.4148638266831636,-0.2131630043394863,-0.6010984190214425
1772641318586783700,1.23678369140625,0.5511556266576051,-0.3334062443759292,-0.6350229735203087
1772641318596828400,1.246828369140625,0.6458294680863619,-0.4476973710749298,-0.6742732530865818
1772641318606873600,1.25687353515625,0.6636871963381767,-0.5543303842362016,-0.7466285143971443
1772641318616919600,1.26691943359375,0.6698088940888642,-0.6275473769426345,-0.8045623055148869
1772641318626964500,1.276964599609375,0.7007043830901384,-0.658105085356906,-0.8541418175242841
1772641318637009700,1.287009765625,0.6873913125306368,-0.6555978517763317,-0.8830564349066465
1772641318647055600,1.2970556640625,0.6055442194491625,-0.6197387490183115,-0.8922629469301551
1772641318657100800,1.307100830078125,0.4939408705294132,-0.5745407034961506,-0.8962043780323118
1772641318667145500,1.3171455078125,0.3857452842265367,-0.5404339608307928,-0.8900411061622202
1772641318677191400,1.32719140625,0.3114297556936741,-0.4804335560394451,-0.8726918388891964
1772641318687236600,1.337236572265625,0.2073684927165508,-0.4156361627625301,-0.8258839104849844
1772641318697281500,1.347281494140625,0.125154904410243,-0.3566955326898023,-0.7392652921527624
1772641318707326700,1.35732666015625,0.0528249967366456,-0.3240001546597108,-0.6111928928606212
1772641318717372700,1.36737255859375,0.0163104988098144,-0.3354618982641026,-0.5129189080480486
1772641318727417300,1.377417236328125,-0.003336450946331,-0.329781733735837,-0.4630065838877111
1772641318737462500,1.387462646484375,-0.0203238261044025,-0.3286684387316927,-0.4259282050004229
1772641318747508500,1.397508544921875,-0.0689484485417604,-0.3635889089327305,-0.3991361692626029
1772641318757553700,1.4075537109375,-0.0852975257962942,-0.4149506647164002,-0.3636692806925624
1772641318767599000,1.41759912109375,-0.098666125935316,-0.4313927540166303,-0.3531883282864466
1772641318777644000,1.42764404296875,-0.1332908645927906,-0.4406063168354332,-0.3433411437392235
1772641318787690200,1.437690185546875,-0.1964046156316995,-0.4450189091132953,-0.3290086304714903
1772641318797735200,1.447735107421875,-0.2664040345311165,-0.4353849654579534,-0.3300338453333825
1772641318807780400,1.4577802734375,-0.3000684037238359,-0.4572204747669398,-0.3182324945110827
1772641318817826000,1.467825927734375,-0.278051802226901,-0.4823055969890207,-0.3358934946143999
1772641318827871000,1.47787109375,-0.2807879491925239,-0.5618841606166214,-0.3498628371255472
1772641318837916200,1.487916259765625,-0.2576239312261343,-0.6403088049687444,-0.3641686450494453
1772641318847962000,1.497962158203125,-0.2463227850109338,-0.7036673245489596,-0.3589024316169321
1772641318858007300,1.50800732421875,-0.1470546015292406,-0.7580939112633466,-0.3136888962646946
1772641318868052200,1.51805224609375,-0.0183703539490699,-0.7832910424925387,-0.2482361078189685
1772641318878097200,1.52809716796875,0.0523053567767143,-0.7718798600316047,-0.2004273318091407
1772641318888143000,1.53814306640625,0.0854109230428934,-0.7774114829346537,-0.1878719112165272
1772641318898188000,1.54818798828125,0.0428220736384391,-0.8419599429517984,-0.1233322190277278
1772641318908233200,1.558233154296875,-0.0021042788028717,-0.9021484541937708,-0.0567000846043229
1772641318918279200,1.568279052734375,-0.044247138005495,-0.8235694960627704,-0.2198736078940331
1772641318928324000,1.578323974609375,-0.090760467377305,-0.8573195707775652,-0.4034094626676291
1772641318938369000,1.588369140625,-0.1804489216089248,-0.9580654986616224,-0.5201601844131947
1772641318948415000,1.5984150390625,-0.3203086431980133,-1.0104505696110426,-0.6017843554589897
1772641318958460200,1.608460205078125,-0.4248047904610633,-1.004536377131194,-0.6918748146202415
1772641318968505000,1.618505126953125,-0.5387234305858611,-1.1101840325169263,-0.656713265672326
1772641318978551000,1.628551025390625,-0.5763029273957013,-1.2828555981226264,-0.5112771321903914
1772641318988596200,1.63859619140625,-0.5196306075811385,-1.3793068244874476,-0.3964032371673733
1772641318998641200,1.64864111328125,-0.5507873778671026,-1.349598499444127,-0.3586032294746488
1772641319008686000,1.65868603515625,-0.7474573664367199,-1.2964014545246958,-0.3023190321948379
1772641319018732000,1.66873193359375,-0.907821531394124,-1.3054343635469674,-0.3102262981880456
1772641319028777200,1.678777099609375,-0.9857032279759644,-1.2754890148773788,-0.3363873060133308
1772641319038822100,1.688822265625,-1.2458698294222357,-1.1090175460208207,-0.4942806238777935
1772641319048868000,1.6988681640625,-1.3907733903974293,-0.8753259137198328,-0.7140284865003079
1772641319058913300,1.708913330078125,-1.588009780678153,-0.6331086643315851,-0.8848679413080215
1772641319068958000,1.7189580078125,-1.8470318882644172,-0.4040529482029378,-0.9858332840964198
1772641319079003100,1.729003173828125,-2.016563694539666,-0.1438771405369043,-1.0671335569500922
1772641319089049000,1.739049072265625,-2.1427029338121413,0.2055661925349384,-1.0279890027806162
1772641319099094300,1.74909423828125,-2.062283827707171,0.5203944315604865,-0.9029905310411006
1772641319109139200,1.75913916015625,-1.838828708064556,0.7551380571324378,-0.7278139968771487
1772641319119185200,1.76918505859375,-1.5248907689422369,0.8986447569217533,-0.5526913117922843
1772641319129230300,1.779230224609375,-1.1180126803159711,0.9451335363741964,-0.4269240476373583
1772641319139275000,1.78927490234375,-0.6894184344440698,0.9016623511772602,-0.366519701687619
1772641319149321000,1.799321044921875,-0.3213122672826051,0.8479805184155702,-0.3586195230223238
1772641319159366100,1.8093662109375,-0.0386632003933191,0.7630683386750519,-0.4157588758267462
1772641319169411000,1.8194111328125,0.1607020186096429,0.7158581861454993,-0.46815139943026
1772641319179457300,1.829457275390625,0.3307552184104919,0.6658068919058889,-0.5058779034953564
1772641319189502200,1.839502197265625,0.5063105227589607,0.6709965695034712,-0.4924196523115038
1772641319199547100,1.849547119140625,0.7054916173666715,0.7031911584045738,-0.4159859625808894
1772641319209592000,1.859592041015625,0.9461158984750508,0.7754794188935309,-0.3002426643121987
1772641319219638000,1.869637939453125,1.114294536575675,0.8714259106066078,-0.1655367452897131
1772641319229683200,1.87968310546875,1.1447674162507055,1.0072356992177665,-0.0390359061632305
1772641319239728000,1.88972802734375,1.1420073038876055,1.1277579753912983,0.117132487604767
1772641319249774300,1.8997744140625,1.1357266161829231,1.2074481826998291,0.2534478876505047
1772641319259819000,1.909819091796875,1.1280670413404703,1.2503607111006974,0.3497174738381057
1772641319269864200,1.9198642578125,1.2267360898852349,1.2495518789358435,0.4341865859862416
1772641319279909000,1.9299091796875,1.2943261095553635,1.2205639771215615,0.4778342967938631
1772641319289955000,1.939955078125,1.3412556185126303,1.1392184038214386,0.5134865518681705
1772641319300000300,1.950000244140625,1.4045400499433278,1.057899426267296,0.5233600399004296
1772641319310045200,1.960045166015625,1.4265899691879749,0.9828735575079918,0.4899251320820301
1772641319320091100,1.970091064453125,1.4329104043811558,0.945477892832458,0.4371814569532871
1772641319330136000,1.980135986328125,1.410142107734084,0.9424152903914452,0.385270250593312
1772641319340181000,1.990180908203125,1.3588660940051078,0.9458822358496488,0.3744162270911038
1772641319350227200,2.000227294921875,1.3230495152145625,1.002203696399927,0.3827803700063377
1772641319360272100,2.010272216796875,1.242109015583992,1.0553269454307854,0.3910178543346002
1772641319370317300,2.0203173828125,1.0739531738370656,1.1105074192523956,0.4496608166350051
1772641319380362000,2.030362060546875,0.8839116634964942,1.1668218655399978,0.5174219185557216
1772641319390408000,2.040407958984375,0.6401636974096298,1.2164458742782474,0.574215745858103
1772641319400453000,2.050453125,0.3078659257322549,1.223802447586134,0.6593490210033953
1772641319410498000,2.060498046875,0.1539180575579404,1.2280275910004972,0.6909273777022957
1772641319420544300,2.070544189453125,-0.0126473001271486,1.1574752143934368,0.6528630199849605
1772641319430589200,2.080589111328125,-0.0319528890997171,1.0502390477072447,0.4865261372935026
1772641319440634400,2.09063427734375,-0.0169645788043737,0.9202432060718536,0.2738924905903637
1772641319450680300,2.100680419921875,0.0276303497254848,0.7499968217864632,0.0547828162735328
1772641319460725000,2.11072509765625,0.1098854390859603,0.5700269158661365,-0.0978826108748093
1772641319470770200,2.120770263671875,0.2237994030356407,0.4167494942992925,-0.2217962465196847
1772641319480816000,2.130816162109375,0.318011472171545,0.2768418419152498,-0.2840647789061069
1772641319490861000,2.140861083984375,0.3734744161963462,0.1435061152674257,-0.3064338836351409
1772641319500906200,2.15090625,0.3845136966049671,0.0285527252674102,-0.3446804295189678
1772641319510951200,2.160951171875,0.3789928873568773,-0.036422947185859,-0.4096178523210808
1772641319520997000,2.1709970703125,0.388825714585185,-0.1180508445587009,-0.4840105377433821
1772641319531042000,2.1810419921875,0.3333089945465326,-0.1657206504892557,-0.5837077237594872
1772641319541087200,2.191087158203125,0.273581378814578,-0.1769283462673425,-0.6635806672237813
1772641319551133200,2.20113330078125,0.2543131992429495,-0.1986798670873046,-0.7317231331449001
1772641319561178000,2.21117822265625,0.2372147649258375,-0.2247529043681919,-0.8376448562316596
1772641319571223300,2.221223388671875,0.0626695144027471,-0.2334294011682272,-0.9677034609049558
1772641319581268000,2.23126806640625,-0.0895902545541524,-0.248280969874002,-0.9934769307173787
1772641319591314200,2.241314208984375,-0.1281552552700042,-0.2692282981716096,-0.914417130266875
1772641319601359000,2.251359130859375,-0.0896294175207614,-0.2590949536267667,-0.761139708700031
1772641319611404300,2.261404296875,0.0183341135919094,-0.2617191646505147,-0.6328530090700835
1772641319621450200,2.2714501953125,0.1212485446214675,-0.2803404976859688,-0.513493675728701
1772641319631495200,2.2814951171875,0.1345329736083746,-0.2864417006378993,-0.4440949626687914
1772641319641540000,2.2915400390625,0.1391208859205246,-0.2913248330369591,-0.3682590196356177
1772641319651586000,2.3015859375,0.1738099219858646,-0.2993440349720418,-0.3213235558615997
1772641319661631200,2.31163134765625,0.2110913126319646,-0.3596366276429966,-0.2949756471620872
1772641319671676200,2.32167626953125,0.2102577844172716,-0.4321605600513518,-0.2652505901796743
1772641319681722000,2.33172216796875,0.253489607900381,-0.5008029748512431,-0.2253018800204619
1772641319691767300,2.341767333984375,0.3209691529333591,-0.6207968067038804,-0.1918475003166124
1772641319701812200,2.351812255859375,0.3630617432534694,-0.7398723181352019,-0.1936280270578339
1772641319711857200,2.361857177734375,0.3809574654281139,-0.8102358211066574,-0.2392162774739787
1772641319721903000,2.371903076171875,0.3271802825331688,-0.9070038583356886,-0.2423583383593708
1772641319731948000,2.381947998046875,0.2911865936100483,-0.9870746624596416,-0.2221444754354655
1772641319741993200,2.3919931640625,0.2897328876703977,-1.0665113333985208,-0.2112793825499713
1772641319752039200,2.4020390625,0.2924444847166538,-1.0904370564524084,-0.1992192346610128
1772641319762083600,2.41208349609375,0.2990045738846063,-1.1011928437445313,-0.1773396670145914
1772641319772128500,2.42212841796875,0.2679588627576827,-1.1312043895181267,-0.1039082278398796
1772641319782174500,2.432174560546875,0.2154799029797315,-1.1592919084265827,0.0105772523874416
1772641319792219600,2.4422197265625,0.2277005021274089,-1.1718910585630684,0.1306686628630384
1772641319802264600,2.4522646484375,0.2391337502896785,-1.1362595540158449,0.1634409420542419
1772641319812309500,2.4623095703125,0.1665554208129644,-1.0843145549841224,0.1460158695986494
1772641319822355500,2.47235546875,0.0140793787568807,-1.027729328931123,0.1598975338263437
1772641319832400600,2.482400634765625,-0.1650900244355201,-1.000515158791095,0.1657559044657275
1772641319842445600,2.492445556640625,-0.2960077301561832,-0.930942733132094,0.1608948925669305
1772641319852491500,2.502491455078125,-0.4147375699549913,-0.8523552263684571,0.1688023960221558
1772641319862536700,2.51253662109375,-0.5600643247783184,-0.7502887904703617,0.1862348663329146
1772641319872581400,2.522581298828125,-0.7446013924837112,-0.6800405113764106,0.2401080569482408
1772641319882627600,2.532627685546875,-0.8908511073708534,-0.6409263523451983,0.329777934343554
1772641319892672500,2.542672607421875,-0.9696224462687968,-0.6259136382609606,0.3626981706380844
1772641319902717700,2.5527177734375,-1.0707453177064656,-0.6614595834165811,0.3980584570284932
1772641319912762600,2.5627626953125,-1.1166624347507954,-0.783836985937506,0.4455233149714768
1772641319922808600,2.57280859375,-1.0715437746077776,-0.923530264918506,0.5151768065100536
1772641319932853500,2.582853515625,-1.0204472090989352,-0.9518931667022408,0.4849133683346212
1772641319942898400,2.5928984375,-1.1007611012637617,-0.89389493204616,0.4810986688846722
1772641319952944600,2.602944580078125,-1.2559072393119337,-0.8855908487550914,0.5330990513654426
1772641319962989600,2.612989501953125,-1.297697047293186,-0.8214319725774228,0.469169965355657
1772641319973034500,2.623034423828125,-1.3132605271279811,-0.6395972956985235,0.2440123161114752
1772641319983080700,2.633080810546875,-1.2744511962622402,-0.4766362826483324,-0.0891267012961674
1772641319993125600,2.643125732421875,-1.2349182272970676,-0.2704164485102519,-0.410479510651715
1772641320003170600,2.653170654296875,-1.2996587027549742,-0.0026778409071266,-0.5636410142213106
1772641320013215500,2.663215576171875,-1.377640937101841,0.2331674622964114,-0.6517708408340811
1772641320023261400,2.673261474609375,-1.4319061957746744,0.4883871819250285,-0.587141826394014
1772641320033306600,2.683306640625,-1.4225865787655114,0.6957498294226825,-0.3987771997570991
1772641320043351600,2.6933515625,-1.2514467527717352,0.8242322708204388,-0.2504807266742922
1772641320053397800,2.703397705078125,-1.055228015100956,0.8812002125807106,-0.1647751498000696
1772641320063442400,2.7134423828125,-0.8220388524293899,0.8668662745408713,0.0189228549989871
1772641320073487600,2.723487548828125,-0.3984410996705293,0.8426882572263479,0.0904941811239346
1772641320083533600,2.733533447265625,-0.0439414330571889,0.8050682822756469,0.1230699878949671
1772641320093578500,2.74357861328125,0.445152581962943,0.7424401227965951,0.1253223699316382
1772641320103623700,2.753623779296875,0.88168171248734,0.6898688816253096,0.1794263918944634
1772641320113668600,2.763668701171875,1.251909694108367,0.6538510811742395,0.2670015437665395
1772641320123714600,2.773714599609375,1.5595418110847472,0.6772183666277677,0.331255349952355
1772641320133759500,2.783759521484375,1.8150994574308397,0.7191142653319984,0.3536491872638463
1772641320143804700,2.7938046875,1.8827081818014384,0.7755806142456829,0.2861475034642964
1772641320153850600,2.8038505859375,1.8072627724558117,0.8337688915811479,0.137213846722804
1772641320163895600,2.8138955078125,1.6975094353169202,0.8700215967666357,-0.0645329975865315
1772641320173940700,2.823940673828125,1.616632064050436,0.8934335981447249,-0.2563479747398756
1772641320183986700,2.833986572265625,1.6088094076007604,0.9254659822214394,-0.4394255095530301
1772641320194031400,2.84403125,1.5766566120147705,0.9232146230980752,-0.5775117917288094
1772641320204076500,2.85407666015625,1.6027607750862836,0.8565526049930602,-0.7154852611798793
1772641320214121500,2.86412158203125,1.6045862369477748,0.7953153884157538,-0.7793653934814035
1772641320224167700,2.874167724609375,1.5146949536204335,0.7642872129455208,-0.7612957029793411
1772641320234212600,2.884212646484375,1.359482764598727,0.7310735831949859,-0.5812702674794942
1772641320244257500,2.894257568359375,1.0979133106172083,0.7919765263166278,-0.3627890272593125
1772641320254303500,2.904303466796875,0.8446715399980544,0.9314606195263564,-0.2821878425857052
1772641320264348400,2.914348388671875,0.5915846676796674,0.8390603490527718,-0.087404444080824
1772641320274393600,2.9243935546875,0.401326884239912,0.7927982179630547,0.0050263219957239
1772641320284439600,2.934439453125,0.2699561740547418,0.774602636059001,0.0266533031205646
1772641320294484700,2.944484619140625,0.2279331418395042,0.7648645013768225,-0.009271503551118
1772641320304529700,2.95452978515625,0.1675795031636953,0.6665628979049623,-0.0568954245133325
1772641320314574600,2.96457470703125,0.1148918690711259,0.4433111188147217,-0.0293833491389639
1772641320324620500,2.97462060546875,0.1842079818814992,0.2459856620110571,-0.0106241054701618
1772641320334665500,2.98466552734375,0.3342641033142804,0.0656733723938465,-0.0001707351907156
1772641320344710700,2.994710693359375,0.5432417847931384,-0.1299425770781934,-0.0002059161019511
1772641320354756600,3.004756591796875,0.7126695461720228,-0.2957859771642834,0.0108661340651102
1772641320364801500,3.014801513671875,0.8195815224051475,-0.4187300736572593,-0.0248492493732832
1772641320374846500,3.024846435546875,0.8102671660929918,-0.52403877941221,-0.0578198641481809
1772641320384892400,3.034892333984375,0.7772182984501123,-0.5938793910207226,-0.1057639204428531
1772641320394937600,3.0449375,0.6804542067438364,-0.6194668002091348,-0.1523234818428754
1772641320404982500,3.054982421875,0.5797679731577634,-0.5819637661689893,-0.1903413883362896
1772641320415028500,3.065028564453125,0.4804565350562333,-0.532439308815077,-0.1909414731212891
1772641320425073700,3.07507373046875,0.1853922232300043,-0.4795241861095651,-0.1507064385676756
1772641320435118600,3.08511865234375,-0.0788204387366771,-0.3854508678572252,-0.0993449750449508
1772641320445163500,3.09516357421875,-0.2937754410594702,-0.2941217154801823,-0.0778574937223456
1772641320455209500,3.10520947265625,-0.3884983823269605,-0.253118399967812,-0.0646957412670366
1772641320465254700,3.115254638671875,-0.6654226418286562,-0.261524153535068,-0.0349681452676653
1772641320475299600,3.125299560546875,-0.8476514325916766,-0.2789968097257427,-0.065780632160604
1772641320485345500,3.135345458984375,-0.9741022220313548,-0.318720570288971,-0.1439419859340414
1772641320495390700,3.145390625,-1.0990887841373682,-0.3737533792681992,-0.1652531791079789
1772641320505435400,3.155435302734375,-0.9566109890043736,-0.3862223271537572,-0.2126865094015374
1772641320515481600,3.165481689453125,-0.7924889328181743,-0.36001488637086,-0.2756648340251296
1772641320525526500,3.175526611328125,-0.5852805990993977,-0.5029042945120483,-0.2274825485277921
1772641320535571500,3.185571533203125,-0.3717775491505861,-0.6278788008540869,-0.1416241739783436
1772641320545616600,3.19561669921875,-0.1140858133852481,-0.6535889961719512,-0.0493010238615795
1772641320555662600,3.20566259765625,0.0697258626550436,-0.7051993564218282,0.0287721767043694
1772641320565707800,3.215707763671875,0.1876759502530098,-0.7812978228487074,0.0559534674881026
1772641320575752400,3.22575244140625,0.2321954754590988,-0.8628798352532088,0.0396850177217274
1772641320585798400,3.23579833984375,0.2484182959854602,-0.9400150973819196,-0.0269003549505025
1772641320595843600,3.245843505859375,0.294866743427515,-0.9878316183067858,-0.0783754714481532
1772641320605888500,3.255888427734375,0.3015478286266326,-1.025732748286426,-0.115421464169491
1772641320615934700,3.265934814453125,0.2408259411603212,-1.008043800730258,-0.1568842321534641
1772641320625979600,3.275979736328125,0.196418644157052,-0.9369607513125984,-0.1676058431813493
1772641320636024600,3.286024658203125,0.0956330418497324,-0.8433673255316912,-0.1617936132386326
1772641320646069500,3.296069580078125,-0.0417898079812526,-0.7311263362955301,-0.1366320282468572
1772641320656115500,3.306115478515625,-0.2070651258558034,-0.6169568632148206,-0.1141355342784896
1772641320666160600,3.31616064453125,-0.3960825538456439,-0.5166491440849379,-0.0787488896041177
1772641320676205600,3.32620556640625,-0.5807762734174728,-0.491872466757521,0.0083033891713246
1772641320686251500,3.33625146484375,-0.7119915007799863,-0.566541959827207,0.190506132177636
1772641320696296400,3.34629638671875,-0.7121803013503551,-0.5652283564779907,0.2761270447093993
1772641320706341600,3.356341552734375,-0.7752092967152595,-0.447873860152997,0.2853884287253022
1772641320716387600,3.3663876953125,-0.9311515535771846,-0.3860843069225549,0.2921659235036
1772641320726432500,3.3764326171875,-1.023826914665103,-0.4101737691707909,0.2945987766737118
1772641320736477700,3.386477783203125,-1.0060796610504388,-0.2868655155405402,0.1449982717876322
1772641320746522600,3.396522705078125,-1.0822943012028932,0.0739647423338145,-0.1389323045458644
1772641320756568600,3.406568603515625,-1.376577691784501,0.4264561378646642,-0.3829193766182288
1772641320766614300,3.4166142578125,-1.6500649625748396,0.6801750244762748,-0.5064039001308381
1772641320776659200,3.4266591796875,-1.7403531362652778,0.8873569816447794,-0.5899094644764438
1772641320786705200,3.436705078125,-1.905855248633027,1.0732187220826743,-0.6303794585634023
1772641320796750000,3.44675,-1.9700743305653328,1.2523026389487086,-0.4885780283220112
1772641320806795000,3.456794921875,-1.7356109101742505,1.3499150180473922,-0.3739669854862615
1772641320816841200,3.46684130859375,-1.5343360581576824,1.3993088712915778,-0.3046897433815523
1772641320826886100,3.47688623046875,-1.2165262460380792,1.4301727961108088,-0.3091746702432632
1772641320836931300,3.486931396484375,-0.9175257638067008,1.305059538885206,-0.3509820138812065
1772641320846976000,3.49697607421875,-0.5451677844196557,1.1146211381815374,-0.3896316972058266
1772641320857022000,3.50702197265625,-0.147156308338046,0.9674729400847106,-0.3956399611772969
1772641320867067100,3.517067138671875,0.289193373966217,0.8790360933493823,-0.3750843721436336
1772641320877112000,3.527112060546875,0.7151800676882266,0.761058606287837,-0.3644196241358295
1772641320887158300,3.537158203125,1.1190209805756806,0.6595607640579343,-0.3355700348136946
1772641320897203200,3.547203125,1.4919798484653233,0.6021398178331554,-0.3126584207057952
1772641320907248400,3.557248291015625,1.7932716565042732,0.5918067859977484,-0.295414330840297
1772641320917294300,3.56729443359375,1.8858634309619664,0.6315491599299013,-0.2299936545658856
1772641320927339000,3.577339111328125,1.8604443275451656,0.6940695481855422,-0.2131295769939199
1772641320937384200,3.58738427734375,1.7715145827263592,0.8017587924014776,-0.2054203908560797
1772641320947430100,3.59743017578125,1.611567766398191,0.8979582359623164,-0.2024883559921756
1772641320957475000,3.60747509765625,1.4965040478914975,0.9764293498046696,-0.1754043150378391
1772641320967520300,3.617520263671875,1.4583049578785896,1.019454690930247,-0.154498414729163
1772641320977565000,3.62756494140625,1.4942121375620363,1.0260153646200896,-0.1208069748664274
1772641320987611100,3.637611083984375,1.5349889691084622,1.0274296153321862,-0.107945557064563
1772641320997656000,3.647656005859375,1.4910785157114266,1.00662765032202,-0.0802873694840818
1772641321007701200,3.657701171875,1.4428595514655111,0.998354985082522,-0.0536281663456931
1772641321017747200,3.667747314453125,1.3553414270102977,1.0138251606106758,-0.0108863183366134
1772641321027792100,3.677792236328125,1.2277239318788051,1.0451108910385518,0.079090707045421
1772641321037837300,3.68783740234375,1.0208300709366798,1.0955240773931143,0.1640722622277215
1772641321047882000,3.697882080078125,0.7021762092083692,1.161462968855351,0.2529226216673851
1772641321057928200,3.70792822265625,0.4115320519119501,1.201047229616344,0.3067073302816599
1772641321067973000,3.71797314453125,0.1653974829494953,1.227712825962901,0.2776297043573111
1772641321078018300,3.728018310546875,-0.0225987852990627,1.1862981349043549,0.1912345195174217
1772641321088064300,3.738064208984375,-0.2399842296391725,1.091919550095126,0.0903041749771684
1772641321098109200,3.748109130859375,-0.2488777301907539,0.9437680201746524,-0.063254840010032
1772641321108154000,3.758154052734375,-0.192759537127614,0.7606752329934388,-0.2371124005299061
1772641321118200000,3.768199951171875,-0.1067459720164537,0.5423455666057765,-0.3855660552021115
1772641321128245000,3.778244873046875,0.0022036475241184,0.326608181733638,-0.4731074874676764
1772641321138290200,3.788290283203125,0.0785229170948267,0.1093499074371531,-0.53467159791179
1772641321148336000,3.798336181640625,0.1287082129776477,-0.0816703482750803,-0.6073055300332606
1772641321158381300,3.80838134765625,0.1776484772354364,-0.2337074143920093,-0.6585038023509084
1772641321168426000,3.818426025390625,0.2193646354585885,-0.3803331960499286,-0.6660170275252312
1772641321178471200,3.82847119140625,0.2495996147245168,-0.4696554838502779,-0.6623850276984274
1772641321188517000,3.83851708984375,0.2051683523237705,-0.4977016843676566,-0.6912137934282422
1772641321198562000,3.84856201171875,0.1255927113056182,-0.5228002505932003,-0.7073635487183928
1772641321208607200,3.858607177734375,0.0679927552521228,-0.5195169911388308,-0.7005570105087011
1772641321218653200,3.868653076171875,-0.0105927056849002,-0.4776284354908391,-0.6489307220373303
1772641321228698400,3.878698486328125,-0.0492220038086175,-0.4403107314223423,-0.567009833067283
1772641321238743000,3.888742919921875,-0.0526356116443872,-0.3687387659765779,-0.4826400896403938
1772641321248789000,3.8987890625,-0.0960842927485704,-0.3178370654527098,-0.4052431809008121
1772641321258834200,3.908834228515625,-0.1460655904918909,-0.2960116391463205,-0.3262198765357956
1772641321268879000,3.918879150390625,-0.1765565903455019,-0.2809829237753525,-0.2613156253509223
1772641321278924300,3.92892431640625,-0.1579021587580442,-0.2740261634400114,-0.2038574158556759
1772641321288970200,3.93897021484375,-0.1616536202460527,-0.2745966568043455,-0.1392511612366885
1772641321299015200,3.94901513671875,-0.1778629967689514,-0.2864137166524306,-0.0822295165278017
1772641321309060000,3.95906005859375,-0.1766203032314777,-0.2867504377935082,-0.0385964553000405
1772641321319106000,3.96910595703125,-0.0998141269266605,-0.3250141540078446,0.0046692704526707
1772641321329151200,3.979151123046875,-0.0505143817067146,-0.3764777627307921,0.0440812068540602
1772641321339196200,3.989196044921875,0.0402326416671276,-0.4464840132297947,0.1053658062370494
1772641321349242000,3.9992421875,0.1253080491453409,-0.5460996584422886,0.1183921322770416
1772641321359287300,4.009287353515625,0.136022335383296,-0.6489290415368973,0.0726575687253847
1772641321369332000,4.01933203125,0.1100491052150726,-0.7214489188246429,0.0412315530439838
1772641321379377200,4.029377197265625,0.0295768076181411,-0.773788177870959,0.0551898992370814
1772641321389423000,4.039423095703125,-0.0233387900114059,-0.8050969238482415,0.1112075180025771
1772641321399468300,4.04946826171875,-0.0718476771146058,-0.8000636058561503,0.1062034991702064
1772641321409513200,4.05951318359375,-0.0317196648657321,-0.7760092149212956,0.077361691295728
1772641321419559200,4.06955908203125,0.01191723228693,-0.7374724904518574,0.0820963916674256
1772641321429604000,4.07960400390625,0.1244207449167966,-0.7090102199468761,0.1458477099575102
1772641321439649000,4.08964892578125,0.1893032591938972,-0.7128666761793195,0.2605685333106666
1772641321449695200,4.0996953125,0.26649054377079,-0.6980416666869074,0.3536932821338996
1772641321459740200,4.109740234375,0.346292394760251,-0.6933668798089027,0.3827050032151863
1772641321469785000,4.11978515625,0.3714128074914217,-0.7028682831257581,0.3804671246279031
1772641321479830300,4.129830322265625,0.3301286109447479,-0.7041383761268108,0.3722243430700153
1772641321489876000,4.1398759765625,0.2877864297777414,-0.7164176466591656,0.3485762679137289
1772641321499921200,4.149921142578125,0.256199451380968,-0.6948322031211107,0.3076308748673647
1772641321509966000,4.159966064453125,0.1705336767941713,-0.6781355545379221,0.2731410877011716
1772641321520012000,4.170011962890625,0.1033639283627271,-0.6530805351931601,0.3040362113762647
1772641321530057200,4.18005712890625,-0.0167138189136981,-0.6657852645959704,0.3917579321121797
1772641321540102100,4.19010205078125,-0.1308493166595697,-0.7564010628055781,0.5012694598518311
1772641321550148400,4.2001484375,-0.1809907734006643,-0.8482058516040444,0.5910110690427943
1772641321560193000,4.210193115234375,-0.2051081465691328,-0.8314016509931534,0.5407064210966229
1772641321570238200,4.22023828125,-0.2948398554205894,-0.7536214420244097,0.4402739430759101
1772641321580283100,4.230283203125,-0.5107540581643581,-0.6903708397980779,0.3633960897743701
1772641321590329000,4.2403291015625,-0.6819909147918224,-0.6446718224838376,0.3217514624174684
1772641321600374300,4.250374267578125,-1.0186147329747677,-0.5239283047750591,0.2093633197955787
1772641321610419000,4.2604189453125,-1.0256430241763592,-0.3538435407921672,-0.0102456732123624
1772641321620465200,4.270465087890625,-1.0408183814764025,-0.1986399734683334,-0.1847586380342021
1772641321630510000,4.280510009765625,-1.2706746003329754,-0.0249519608290866,-0.3334839857872575
1772641321640555300,4.29055517578125,-1.449585060328245,0.1372238566601648,-0.4426610939407721
1772641321650601200,4.300601318359375,-1.6757178747475143,0.3093940486149862,-0.447392104518041
1772641321660646100,4.310646240234375,-1.9468810865044592,0.519269263455458,-0.4245330243149772
1772641321670691300,4.32069140625,-2.034402718091011,0.6594451017890125,-0.3861345392724499
1772641321680736000,4.330736083984375,-2.024682119065523,0.7516562794312834,-0.39016036072243
1772641321690782000,4.340781982421875,-1.834770957106352,0.8194467901095748,-0.4016797893308103
1772641321700827100,4.3508271484375,-1.464747558146715,0.8813849214978515,-0.4912144412402063
1772641321710872000,4.3608720703125,-1.2050427289932966,0.907289178083092,-0.4125969777297228
1772641321720918300,4.370918212890625,-0.8219172718763351,0.9424916435632854,-0.2488884159815497
1772641321730963200,4.380963134765625,-0.3997346466124057,1.040744804783538,-0.1750844902326352
1772641321741008100,4.391008056640625,0.0057592941790819,1.0494343071956187,-0.1116483936378732
1772641321751054000,4.40105419921875,0.4286906919836998,1.0299140525590629,-0.0054534613666124
1772641321761099000,4.41109912109375,0.869796044382453,1.0120638500265775,0.0935407274792902
1772641321771143700,4.421143798828125,1.3239870883256195,1.0368949974875896,0.1674941629678011
1772641321781188600,4.431188720703125,1.66200031504035,1.0434312673885375,0.184258506492339
1772641321791234800,4.44123486328125,1.8699656046062707,1.048718998533115,0.173748729850538
1772641321801279700,4.45127978515625,1.894223263028264,1.040364354098588,0.1258746883184649
1772641321811324700,4.46132470703125,1.7703478770345449,1.04872776636146,0.0476951047685928
1772641321821370600,4.47137060546875,1.6464304054647685,1.0712879001505673,-0.0615752117934403
1772641321831415600,4.48141552734375,1.6405664818674326,1.046256773138046,-0.1588155290096067
1772641321841460700,4.491460693359375,1.7210101378917693,0.9997235700219868,-0.2697436638152227
1772641321851506700,4.501506591796875,1.765298776951432,0.9787214062646032,-0.3831720727376639
1772641321861551900,4.5115517578125,1.7395856590241192,0.9754488143347204,-0.4304190866788849
1772641321871596500,4.521596435546875,1.6404682821899652,1.0167563186917454,-0.3925844460641965
1772641321881641700,4.531641845703125,1.4562275670826434,1.0563493472810834,-0.2068269697183743
1772641321891687700,4.541687744140625,1.1413210751891136,1.0191986703425646,-0.0221259710223879
1772641321901732600,4.551732666015625,0.7681050176680088,0.919661460661143,0.1571164882730692
1772641321911777800,4.56177783203125,0.4026116633534431,0.838786938938871,0.2487957509957253
1772641321921823700,4.57182373046875,0.0312409414380788,0.7674862281825393,0.2146227016285061
1772641321931868700,4.58186865234375,-0.212355048957467,0.684746350979805,0.147906286455132
1772641321941913600,4.59191357421875,-0.3900233999371528,0.5300486142862588,0.059745808975771
1772641321951959600,4.60195947265625,-0.4441676625788212,0.3869610897570848,-0.0178212869652546
1772641321962004700,4.612004638671875,-0.420862774837017,0.2644117647353559,-0.1508574278783053
1772641321972049700,4.622049560546875,-0.3966045318931341,0.1146799068208783,-0.2850446567889302
1772641321982094800,4.6320947265625,-0.3780202429324388,-0.0318082929972559,-0.3979366572797298
1772641321992140800,4.642140869140625,-0.3526677750110626,-0.1521898455258458,-0.494172998784855
1772641322002185500,4.652185546875,-0.3321773601680994,-0.235980108564347,-0.5505450935438275
1772641322012230700,4.662230712890625,-0.2566261523604393,-0.318629750200361,-0.5856804120719432
1772641322022276600,4.672276611328125,-0.174721191611886,-0.3459531528685242,-0.6547513179495931
1772641322032321800,4.68232177734375,-0.0727951870977878,-0.3355113999616354,-0.7189382511779665
1772641322042366700,4.69236669921875,-0.0238368026614189,-0.3338344797253608,-0.731280138617754
1772641322052412700,4.70241259765625,0.0350035088419914,-0.2924936576206237,-0.6715111679621041
1772641322062457900,4.712457763671875,0.0516278959065675,-0.2249493767883628,-0.5956797915061935
1772641322072502500,4.72250244140625,0.1024807157874107,-0.1488628930602222,-0.5046592849532142
1772641322082547700,4.732547607421875,0.1323626438319683,-0.0769122670277953,-0.4421600125508382
1772641322092593700,4.74259375,0.1397778885245323,-0.0519224218737334,-0.3738715257551521
1772641322102638800,4.752638916015625,0.100738256034255,-0.0487309323560446,-0.3603918299244716
1772641322112683800,4.762683837890625,0.0834539437562227,-0.0666106532439589,-0.3933421325637027
1772641322122729700,4.772729736328125,0.1000210476756095,-0.0982875749465078,-0.4273081515841185
1772641322132774700,4.782774658203125,0.113319505187869,-0.1138039277039468,-0.4602632399963214
1772641322142819600,4.792819580078125,0.1764730037152767,-0.1236419425640255,-0.4403574931735172
1772641322152865500,4.802865478515625,0.2968471035897732,-0.1664940460145473,-0.4161147035270929
1772641322162910700,4.81291064453125,0.3534083642452955,-0.1674821802690625,-0.3710903340714052
1772641322172955600,4.82295556640625,0.4735620993673801,-0.1987772630471736,-0.3357665072338655
1772641322183000800,4.833000732421875,0.5573989049613476,-0.2512663058277219,-0.3033699294872581
1772641322193046800,4.843046875,0.623374475172162,-0.3326134134978056,-0.3107093689972534
1772641322203091700,4.853091796875,0.6502899546265601,-0.4337934219501912,-0.3152744118904694
1772641322213136600,4.86313671875,0.6068202307343482,-0.4982396637018769,-0.3351229121007025
1772641322223182600,4.8731826171875,0.57721945771873,-0.5408722061175852,-0.3614886487178504
1772641322233227800,4.883227783203125,0.5406576135188341,-0.5386209200594574,-0.3754567491199821
1772641322243272700,4.893272705078125,0.452595883706212,-0.5402627689823508,-0.3519719747666269
1772641322253319000,4.90331884765625,0.3919078985095023,-0.5324407701198012,-0.3075270856993273
1772641322263363600,4.913363525390625,0.3560398817926645,-0.5336910624418407,-0.2747135611822828
1772641322273408800,4.92340869140625,0.3632634033054113,-0.5027843213941902,-0.248266064565815
1772641322283453700,4.93345361328125,0.4148953908652067,-0.4631655738417058,-0.2400504632757976
1772641322293499600,4.943499755859375,0.4162736934810876,-0.4352768654409796,-0.2776229092903435
1772641322303544800,4.953544921875,0.3640986850857734,-0.421406526324898,-0.3289508724022656
1772641322313589500,4.963589599609375,0.225619019678235,-0.3786953657150268,-0.3699084308104589
1772641322323635500,4.973635498046875,0.0121767600059509,-0.336111850072816,-0.3852339006382971
