time,seconds_elapsed,z,y,x
1772642824430326000,0.060325927734375,0.5058314800262451,0.06872422993183136,-0.297993928194046
1772642824440370700,0.07037060546875,0.46757039427757263,0.24261772632598877,-0.4980098307132721
1772642824450415900,0.080415771484375,0.41362184286117554,0.3782169818878174,-0.6565635204315186
1772642824460460800,0.090460693359375,0.34803375601768494,0.517676591873169,-0.7576315402984619
1772642824470504700,0.100504638671875,0.26921653747558594,0.6099626421928406,-0.8129482865333557
1772642824480550000,0.1105498046875,0.16612502932548523,0.6263325214385986,-0.8393372893333435
1772642824490594800,0.1205947265625,0.05621151998639107,0.5988696813583374,-0.8309310674667358
1772642824500640000,0.130639892578125,-0.051943447440862656,0.5547568202018738,-0.7988221645355225
1772642824510685000,0.140684814453125,-0.1454373598098755,0.5265743732452393,-0.7522343397140503
1772642824520728800,0.150728759765625,-0.21519140899181366,0.5077447295188904,-0.6958373785018921
1772642824530773800,0.160773681640625,-0.2572074830532074,0.4732699692249298,-0.6235837936401367
1772642824540819000,0.17081884765625,-0.29532504081726074,0.43573006987571716,-0.5348214507102966
1772642824550864000,0.18086376953125,-0.33377641439437866,0.45114725828170776,-0.4094654619693756
1772642824560908800,0.19090869140625,-0.3681354522705078,0.49964022636413574,-0.2381507158279419
1772642824570953000,0.200952880859375,-0.3894936442375183,0.5468390583992004,-0.04104438051581383
1772642824580998000,0.210997802734375,-0.40559908747673035,0.5783833861351013,0.16233909130096436
1772642824591042800,0.221042724609375,-0.40947502851486206,0.5327102541923523,0.3250158429145813
1772642824601087700,0.231087646484375,-0.4217599332332611,0.4253922998905182,0.436515212059021
1772642824611133000,0.2411328125,-0.4874323308467865,0.30246779322624207,0.5155567526817322
1772642824621176800,0.2511767578125,-0.5996429920196533,0.13445188105106354,0.5874543786048889
1772642824631221800,0.2612216796875,-0.735278308391571,-0.11614057421684265,0.6565529704093933
1772642824641267000,0.271266845703125,-0.8710891604423523,-0.41505032777786255,0.7250379920005798
1772642824651311900,0.281311767578125,-0.9940027594566345,-0.6780603528022766,0.7816541790962219
1772642824661356000,0.29135595703125,-1.1095175743103027,-0.8388468027114868,0.8200727105140686
1772642824671400700,0.301400634765625,-1.2214711904525757,-0.9090307950973511,0.8181866407394409
1772642824681446000,0.31144580078125,-1.3325755596160889,-0.8809229731559753,0.7503578066825867
1772642824691490800,0.32149072265625,-1.4279993772506714,-0.7600201964378357,0.6286137700080872
1772642824701536000,0.331535888671875,-1.471297025680542,-0.6029940843582153,0.48486828804016113
1772642824711580000,0.341579833984375,-1.4405560493469238,-0.5680721998214722,0.29649341106414795
1772642824721624800,0.351624755859375,-1.3457293510437012,-0.73560631275177,0.0848195031285286
1772642824731670000,0.361669921875,-1.1091586351394653,-1.0508953332901,-0.14134608209133148
1772642824741715000,0.37171484375,-1.0709295272827148,-1.026405692100525,-0.20391757786273956
1772642824751760000,0.381759765625,-1.108889102935791,-0.91786128282547,-0.1460457146167755
1772642824761803800,0.3918037109375,-1.0513458251953125,-0.6448830366134644,0.06329018622636795
1772642824771849000,0.401848876953125,-0.9181737303733826,-0.2802053689956665,0.39818084239959717
1772642824781894000,0.411893798828125,-0.7641940116882324,-0.04501469060778618,0.8442861437797546
1772642824791938800,0.421938720703125,-0.6528381109237671,-0.2114439755678177,1.2468115091323853
1772642824801983700,0.431983642578125,-0.594944179058075,-0.5820201635360718,1.5108412504196167
1772642824812028000,0.44202783203125,-0.6125446557998657,-1.020114541053772,1.6392649412155151
1772642824822073000,0.452072998046875,-0.6890516877174377,-1.5362082719802856,1.636818528175354
1772642824832117800,0.46211767578125,-0.7578279376029968,-1.9603993892669678,1.4924122095108032
1772642824842163000,0.472162841796875,-0.7302261590957642,-2.055694580078125,1.225751280784607
1772642824852207900,0.482207763671875,-0.6340712308883667,-1.840247631072998,0.8598336577415466
1772642824862251800,0.492251708984375,-0.5314407348632812,-1.3806190490722656,0.397040456533432
1772642824872296700,0.502296630859375,-0.40647533535957336,-0.9226896166801453,-0.11252212524414062
1772642824882342000,0.512341796875,-0.2020481675863266,-0.6963019967079163,-0.6267334818840027
1772642824892386800,0.52238671875,0.00800121109932661,-0.613139271736145,-1.0781877040863037
1772642824902430700,0.5324306640625,0.1266186684370041,-0.6018253564834595,-1.4595258235931396
1772642824912476000,0.542475830078125,0.05139972269535065,-0.5583444833755493,-1.824336290359497
1772642824922520800,0.552520751953125,-0.13745248317718506,-0.44862914085388184,-2.1792829036712646
1772642824932566000,0.56256591796875,-0.27466756105422974,-0.3924236595630646,-2.411881685256958
1772642824942611000,0.57261083984375,-0.3031013607978821,-0.4974382519721985,-2.4729206562042236
1772642824952654800,0.58265478515625,-0.2795483469963074,-0.6946134567260742,-2.383928060531616
1772642824962699800,0.59269970703125,-0.21416722238063812,-0.8358880281448364,-2.202376365661621
1772642824972745000,0.602744873046875,-0.10799182206392288,-0.8195098042488098,-1.9672504663467407
1772642824982789600,0.61278955078125,0.02326500602066517,-0.6527557373046875,-1.6851871013641357
1772642824992834800,0.622834716796875,0.16805295646190643,-0.35888969898223877,-1.3942917585372925
1772642825002879000,0.63287890625,0.30400171875953674,-0.09107077866792679,-1.101439118385315
1772642825012924000,0.642923828125,0.4044380784034729,0.0695100948214531,-0.8007078766822815
1772642825022968800,0.65296875,0.4710834324359894,0.12838779389858246,-0.5076579451560974
1772642825033013800,0.663013671875,0.510142982006073,0.10634082555770874,-0.22368855774402618
1772642825043059000,0.673058837890625,0.5106114149093628,0.04466281458735466,0.05893382802605629
1772642825053102800,0.683102783203125,0.45815184712409973,-0.01998600922524929,0.31995055079460144
1772642825063147800,0.693147705078125,0.37471285462379456,-0.00903002917766571,0.5331426858901978
1772642825073193000,0.70319287109375,0.3168056011199951,0.12591642141342163,0.6427499651908875
1772642825083238000,0.71323779296875,0.3112174868583679,0.30905935168266296,0.634410560131073
1772642825093282800,0.72328271484375,0.3275732100009918,0.49142777919769287,0.5375553965568542
1772642825103326700,0.73332666015625,0.34285175800323486,0.6318948864936829,0.34361231327056885
1772642825113372000,0.743371826171875,0.34094133973121643,0.7168138027191162,0.06421057879924774
1772642825123416800,0.753416748046875,0.31902647018432617,0.7971661686897278,-0.27543941140174866
1772642825133462000,0.7634619140625,0.2687329947948456,0.9352118968963623,-0.6199918985366821
1772642825143506700,0.773506591796875,0.22576101124286652,1.1423368453979492,-0.9021096229553223
1772642825153550800,0.78355078125,0.21351489424705505,1.3642902374267578,-1.0853902101516724
1772642825163596000,0.793595947265625,0.22251425683498383,1.5235645771026611,-1.1544667482376099
1772642825173641000,0.803640869140625,0.2366010993719101,1.5826350450515747,-1.121907114982605
1772642825183686000,0.813685791015625,0.23577365279197693,1.52731454372406,-1.0274088382720947
1772642825193729800,0.823729736328125,0.20280016958713531,1.3658664226531982,-0.8932021856307983
1772642825203775000,0.83377490234375,0.1311342418193817,1.1422420740127563,-0.7354139089584351
1772642825213820000,0.84381982421875,0.03445117548108101,0.9040982723236084,-0.5032956600189209
1772642825223864800,0.85386474609375,-0.03046897053718567,0.6703166961669922,-0.16337645053863525
1772642825233909800,0.86390966796875,-0.07880596816539764,0.4284115135669708,0.2650044560432434
1772642825243954000,0.873953857421875,-0.13480079174041748,0.04674510657787323,0.6855988502502441
1772642825253999000,0.8839990234375,-0.24792426824569702,-0.48947957158088684,0.9853413701057434
1772642825264044000,0.8940439453125,-0.429219514131546,-1.0537883043289185,1.1157910823822021
1772642825274089200,0.904089111328125,-0.6114420890808105,-1.4562280178070068,1.0366199016571045
1772642825284134100,0.914134033203125,-0.7254900932312012,-1.5970935821533203,0.7611406445503235
1772642825294178000,0.924177978515625,-0.7360486388206482,-1.4174654483795166,0.38226374983787537
1772642825304223000,0.934222900390625,-0.5991272926330566,-0.9588222503662109,0.039244599640369415
1772642825314268200,0.94426806640625,-0.3046613931655884,-0.47808143496513367,-0.22109214961528778
1772642825324313000,0.95431298828125,0.046422332525253296,-0.17825210094451904,-0.4367845058441162
1772642825334358000,0.96435791015625,0.30970463156700134,-0.0804569274187088,-0.6414827704429626
1772642825344402200,0.974402099609375,0.4252900779247284,-0.12037717550992966,-0.8138982057571411
1772642825354447000,0.984447021484375,0.4163180887699127,-0.15827199816703796,-0.8662075400352478
1772642825364492300,0.9944921875,0.3731019198894501,-0.10705167800188065,-0.7382820248603821
1772642825374537000,1.004536865234375,0.3241409659385681,0.0003199055790901184,-0.45510926842689514
1772642825384582100,1.01458203125,0.25576403737068176,0.06293907761573792,-0.10812974721193314
1772642825394626000,1.0246259765625,0.19542817771434784,-0.02220950648188591,0.17598482966423035
1772642825404671200,1.034671142578125,0.15715694427490234,-0.17596659064292908,0.34116578102111816
1772642825414716000,1.0447158203125,0.11774880439043045,-0.30319252610206604,0.3765057325363159
1772642825424761000,1.054760986328125,0.10931030660867691,-0.2936245799064636,0.3237743377685547
1772642825434806000,1.064805908203125,0.132562518119812,-0.1663791686296463,0.23350310325622559
1772642825444850000,1.074849853515625,0.16196195781230927,-0.02866443619132042,0.128942608833313
1772642825454895000,1.08489501953125,0.17315655946731567,0.028709109872579575,-0.015376755967736244
1772642825464940000,1.09493994140625,0.1326107233762741,0.02771601639688015,-0.18181367218494415
1772642825474985200,1.104985107421875,0.07359901070594788,0.030948225408792496,-0.31822434067726135
1772642825485028900,1.11502880859375,0.04100671783089638,0.05058024823665619,-0.39187243580818176
1772642825495074000,1.125073974609375,0.046663880348205566,0.0656246766448021,-0.37953612208366394
1772642825505119000,1.135118896484375,0.11052914708852768,0.06604572385549545,-0.2794409692287445
1772642825515164200,1.1451640625,0.20577065646648407,0.08478578925132751,-0.10249210149049759
1772642825525209000,1.155208984375,0.3007717430591583,0.09962359070777893,0.09884074330329895
1772642825535253000,1.1652529296875,0.3601268231868744,0.05654967203736305,0.26245611906051636
1772642825545298200,1.175298095703125,0.3787045180797577,-0.04249648377299309,0.3633933961391449
1772642825555343000,1.185343017578125,0.3641625940799713,-0.19832469522953033,0.4032220244407654
1772642825565388000,1.195387939453125,0.3325207531452179,-0.3726871907711029,0.38191089034080505
1772642825575433000,1.205432861328125,0.33684930205345154,-0.5744389295578003,0.28923410177230835
1772642825585477000,1.21547705078125,0.38648876547813416,-0.7722609639167786,0.1403959095478058
1772642825595522000,1.22552197265625,0.451132595539093,-0.9461027979850769,-0.07737303525209427
1772642825605567000,1.23556689453125,0.5026043057441711,-1.094861626625061,-0.35694393515586853
1772642825615612000,1.24561181640625,0.5333573222160339,-1.2238900661468506,-0.6815277338027954
1772642825625657000,1.255656982421875,0.5443114638328552,-1.3495031595230103,-1.0385863780975342
1772642825635701200,1.265701171875,0.5129286646842957,-1.441912293434143,-1.4257522821426392
1772642825645746000,1.275745849609375,0.46219944953918457,-1.4542455673217773,-1.802589774131775
1772642825655791000,1.285791015625,0.4408571720123291,-1.3201534748077393,-2.0731050968170166
1772642825665836000,1.2958359375,0.4512767791748047,-1.1225016117095947,-2.2227237224578857
1772642825675880200,1.305880126953125,0.48076331615448,-0.9318487048149109,-2.2439558506011963
1772642825685925000,1.315925048828125,0.5309185981750488,-0.7008732557296753,-2.094142436981201
1772642825695970000,1.325969970703125,0.5756703019142151,-0.40948691964149475,-1.7890304327011108
1772642825706015200,1.33601513671875,0.5871860980987549,-0.1318686306476593,-1.397128701210022
1772642825716060200,1.34606005859375,0.5467226505279541,0.10891615599393845,-0.9808292388916016
1772642825726104000,1.35610400390625,0.4658310115337372,0.269118070602417,-0.6019362807273865
1772642825736149000,1.36614892578125,0.3853829801082611,0.2912072539329529,-0.2605324387550354
1772642825746194200,1.376194091796875,0.32003113627433777,0.24875833094120026,0.056511301547288895
1772642825756239000,1.386239013671875,0.27146682143211365,0.1864316463470459,0.3412076234817505
1772642825766284000,1.396283935546875,0.22554993629455566,0.15147924423217773,0.5791957378387451
1772642825776328200,1.406328125,0.18897190690040588,0.13832058012485504,0.7462140917778015
1772642825786373000,1.416373046875,0.1549292504787445,0.1140274927020073,0.8409544229507446
1772642825796418300,1.426418212890625,0.12198472768068314,0.05387793108820915,0.866409957408905
1772642825806463000,1.436462890625,0.07095270603895187,-0.04157029464840889,0.8328618407249451
1772642825816508200,1.446508056640625,-0.00027444749139249325,-0.11725473403930664,0.7669593095779419
1772642825826552000,1.456552001953125,-0.08052081614732742,-0.1487322300672531,0.6718607544898987
1772642825836597000,1.466596923828125,-0.1568579524755478,-0.10493290424346924,0.5748003125190735
1772642825846642000,1.476641845703125,-0.21496811509132385,0.019838321954011917,0.5086221098899841
1772642825856687000,1.48668701171875,-0.2499578595161438,0.17059554159641266,0.47699111700057983
1772642825866732000,1.49673193359375,-0.25766345858573914,0.2735147178173065,0.4652164876461029
1772642825876776000,1.50677587890625,-0.2729729413986206,0.32714495062828064,0.4809207320213318
1772642825886821000,1.516821044921875,-0.29101213812828064,0.31157079339027405,0.5028233528137207
1772642825896866000,1.526865966796875,-0.29653990268707275,0.26326560974121094,0.5275890231132507
1772642825906911200,1.5369111328125,-0.28483131527900696,0.29488587379455566,0.6051016449928284
1772642825916955000,1.546954833984375,-0.2188543975353241,0.427006334066391,0.7813224196434021
1772642825927000000,1.557,-0.14968198537826538,0.578873872756958,1.0038111209869385
1772642825937045000,1.567044921875,-0.14275021851062775,0.6805456876754761,1.142033576965332
1772642825947090200,1.577090087890625,-0.1828875094652176,0.6586920619010925,1.0976693630218506
1772642825957135000,1.587135009765625,-0.2343779355287552,0.49515652656555176,0.8944410681724548
1772642825967179000,1.597178955078125,-0.308343768119812,0.3297441303730011,0.5315709710121155
1772642825977224200,1.60722412109375,-0.40840768814086914,0.3664466440677643,0.09478200972080231
1772642825987269000,1.61726904296875,-0.45618346333503723,0.7582647204399109,-0.25131070613861084
1772642825997314000,1.62731396484375,-0.4111763536930084,1.3741973638534546,-0.4422896206378937
1772642826007359000,1.63735888671875,-0.3267616033554077,1.8999475240707397,-0.5130077600479126
1772642826017403100,1.647403076171875,-0.24876344203948975,2.012179374694824,-0.540237307548523
1772642826027448000,1.657447998046875,-0.21640683710575104,1.60420560836792,-0.5528915524482727
1772642826037493000,1.667492919921875,-0.2739529311656952,0.8470920920372009,-0.5271740555763245
1772642826047538000,1.677537841796875,-0.38894662261009216,0.07644861936569214,-0.42168253660202026
1772642826057583000,1.6875830078125,-0.44372597336769104,-0.4020227789878845,-0.24274739623069763
1772642826067627300,1.697627197265625,-0.42614510655403137,-0.5419721603393555,-0.040698956698179245
1772642826077672000,1.707671875,-0.3571067154407501,-0.3216274380683899,0.13033819198608398
1772642826087717000,1.717717041015625,-0.2385646253824234,0.05335228517651558,0.2108849734067917
1772642826097762000,1.727761962890625,-0.09430815279483795,0.40573617815971375,0.14978204667568207
1772642826107807200,1.73780712890625,0.04995181784033775,0.5996875166893005,-0.06262955069541931
1772642826117851100,1.74785107421875,0.15965336561203003,0.6728799343109131,-0.38280245661735535
1772642826127896000,1.75789599609375,0.21484577655792236,0.5692906975746155,-0.7389448881149292
1772642826137941200,1.767941162109375,0.22439640760421753,0.2796100676059723,-1.000338077545166
1772642826147986200,1.777986083984375,0.21624501049518585,-0.11034275591373444,-1.1153078079223633
1772642826158030000,1.788030029296875,0.21470898389816284,-0.42767828702926636,-1.0420951843261719
1772642826168075000,1.798074951171875,0.19236506521701813,-0.5903239250183105,-0.8689747452735901
1772642826178120200,1.8081201171875,0.1301853507757187,-0.5459243059158325,-0.6684995889663696
1772642826188165000,1.8181650390625,0.03196956589818001,-0.2943415641784668,-0.42412471771240234
1772642826198210000,1.8282099609375,-0.06314844638109207,0.019693706184625626,-0.16503718495368958
1772642826208254200,1.838254150390625,-0.11657146364450455,0.25558292865753174,0.12886793911457062
1772642826218299100,1.848299072265625,-0.13478000462055206,0.2663087248802185,0.4116428792476654
1772642826228344000,1.858343994140625,-0.144350066781044,0.14581026136875153,0.6434585452079773
1772642826238389000,1.868388916015625,-0.1343868523836136,-0.06409373879432678,0.8108600974082947
1772642826248434200,1.87843408203125,-0.09221994876861572,-0.2372966706752777,0.870612621307373
1772642826258479400,1.888479248046875,-0.026663292199373245,-0.23363740742206573,0.796439528465271
1772642826268524300,1.898524169921875,0.05169542878866196,-0.0437455028295517,0.5998305678367615
1772642826278569200,1.9085693359375,0.1480453908443451,0.20643050968647003,0.3222101628780365
1772642826288614400,1.918614501953125,0.2655579149723053,0.41743090748786926,0.03315518796443939
1772642826298659300,1.928659423828125,0.3694015145301819,0.5625338554382324,-0.20589579641819
1772642826308703500,1.938703369140625,0.4320904612541199,0.5758512616157532,-0.3576485812664032
1772642826318748200,1.948748046875,0.4920138120651245,0.4218156933784485,-0.4476759731769562
1772642826328793300,1.95879345703125,0.5396679043769836,0.24566461145877838,-0.5196465849876404
1772642826338838300,1.96883837890625,0.5194458961486816,0.11741647869348526,-0.593036949634552
1772642826348883500,1.978883544921875,0.42937615513801575,0.07800488919019699,-0.6609954833984375
1772642826358927400,1.98892724609375,0.307734876871109,0.1199118047952652,-0.7232231497764587
1772642826368972300,1.99897216796875,0.21940100193023682,0.1631639301776886,-0.7538260817527771
1772642826379017500,2.009017578125,0.17684419453144073,0.16773447394371033,-0.6915777325630188
1772642826389062400,2.0190625,0.21334628760814667,0.13471420109272003,-0.501402735710144
1772642826399106300,2.029106201171875,0.31484878063201904,0.09578550606966019,-0.20892967283725739
1772642826409151200,2.039151123046875,0.4628070592880249,0.07371482253074646,0.14885003864765167
1772642826419196400,2.049196533203125,0.622353732585907,0.11348070949316025,0.5355213284492493
1772642826429241300,2.059241455078125,0.7696644067764282,0.1745251566171646,0.9123975038528442
1772642826439286300,2.069286376953125,0.9005737900733948,0.22203902900218964,1.254766821861267
1772642826449330400,2.079330322265625,0.9885172247886658,0.23689547181129456,1.545809268951416
1772642826459375400,2.089375244140625,1.0037891864776611,0.20206627249717712,1.7748472690582275
1772642826469420500,2.099420654296875,0.9404592514038086,0.13973072171211243,1.9403284788131714
1772642826479465200,2.10946533203125,0.7984045147895813,0.08652888238430023,2.0368340015411377
1772642826489510400,2.119510498046875,0.6294088363647461,0.04228019341826439,2.077033758163452
1772642826499554300,2.12955419921875,0.46548977494239807,0.02067011408507824,2.0556838512420654
1772642826509599500,2.139599609375,0.3177003264427185,0.024936499074101448,1.9794970750808716
1772642826519644200,2.14964404296875,0.2051047831773758,0.07098984718322754,1.8623868227005005
1772642826529689300,2.159689453125,0.14007757604122162,0.141019806265831,1.709390640258789
1772642826539734300,2.169734375,0.10871745645999908,0.22702756524085999,1.5227447748184204
1772642826549778200,2.179778076171875,0.07698403298854828,0.31066814064979553,1.29929518699646
1772642826559823400,2.1898232421875,0.02301868051290512,0.3695403039455414,1.055459976196289
1772642826569868300,2.199868408203125,-0.05432004854083061,0.3927958011627197,0.8264099359512329
1772642826579913500,2.20991357421875,-0.1530298888683319,0.38640451431274414,0.6276341676712036
1772642826589958400,2.21995849609375,-0.2524951994419098,0.3891680836677551,0.47716766595840454
1772642826600002300,2.230002197265625,-0.3262338638305664,0.41728997230529785,0.38022634387016296
1772642826610047200,2.240047119140625,-0.3895803391933441,0.4294435679912567,0.2962065637111664
1772642826620092400,2.250092529296875,-0.4750153422355652,0.4041861593723297,0.2098253220319748
1772642826630137300,2.260137451171875,-0.5800320506095886,0.3548406958580017,0.12282650172710419
1772642826640181200,2.27018115234375,-0.6939280033111572,0.2625283896923065,0.019826199859380722
1772642826650226400,2.280226318359375,-0.8126035332679749,0.12265622615814209,-0.07938826829195023
1772642826660271400,2.290271240234375,-0.8929287195205688,0.16039255261421204,-0.07095394283533096
1772642826670316300,2.30031640625,-0.858174204826355,0.5047664642333984,0.07962837815284729
1772642826680361200,2.310361328125,-0.759186327457428,0.936129093170166,0.22361011803150177
1772642826690405400,2.3204052734375,-0.7157475352287292,1.0833609104156494,0.17034555971622467
1772642826700450300,2.3304501953125,-0.8104739785194397,0.8107208013534546,-0.11564583331346512
1772642826710495200,2.3404951171875,-0.992609441280365,0.3791305124759674,-0.5152686238288879
1772642826720540200,2.3505400390625,-1.0916485786437988,0.027022143825888634,-0.8534875512123108
1772642826730585300,2.36058544921875,-1.0391422510147095,-0.10293212532997131,-0.9699481129646301
1772642826740629500,2.37062939453125,-0.8651620745658875,0.0037361220456659794,-0.8539268970489502
1772642826750674200,2.380674072265625,-0.6322025656700134,0.24973738193511963,-0.6368571519851685
1772642826760719400,2.39071923828125,-0.46657150983810425,0.5357542037963867,-0.45459821820259094
1772642826770764300,2.400764404296875,-0.42776793241500854,0.7269987463951111,-0.3780174255371094
1772642826780809500,2.4108095703125,-0.4353177547454834,0.783454954624176,-0.39067530632019043
1772642826790853400,2.420853271484375,-0.45499879121780396,0.7414369583129883,-0.4462674558162689
1772642826800898300,2.430898193359375,-0.46518611907958984,0.6406331062316895,-0.5442416667938232
1772642826810943500,2.440943603515625,-0.474065899848938,0.5276064276695251,-0.6511790156364441
1772642826820988400,2.450988525390625,-0.45440420508384705,0.3286484479904175,-0.7525137662887573
1772642826831033300,2.461033447265625,-0.40475061535835266,-0.08068978786468506,-0.8671649694442749
1772642826841077200,2.4710771484375,-0.3227890729904175,-0.6116412878036499,-1.0014756917953491
1772642826851122400,2.481122314453125,-0.21428708732128143,-1.054121494293213,-1.1477175951004028
1772642826861167400,2.49116748046875,-0.07618294656276703,-1.1586146354675293,-1.2605617046356201
1772642826871212300,2.50121240234375,0.05618148669600487,-0.8787718415260315,-1.2682816982269287
1772642826881256400,2.51125634765625,0.1683790534734726,-0.38170456886291504,-1.115361213684082
1772642826891301400,2.52130126953125,0.25589531660079956,0.00503912940621376,-0.8162221312522888
1772642826901346600,2.5313466796875,0.2720124423503876,0.04091954976320267,-0.4401119351387024
1772642826911391200,2.54139111328125,0.2210448533296585,-0.23643642663955688,-0.061920683830976486
1772642826921436400,2.5514365234375,0.11942790448665619,-0.666926920413971,0.23892128467559814
1772642826931480300,2.561480224609375,-0.00586796086281538,-1.06861412525177,0.43159911036491394
1772642826941525200,2.571525146484375,-0.09993184357881546,-1.2988371849060059,0.5483141541481018
1772642826951570200,2.581570068359375,-0.10984359681606293,-1.333059310913086,0.6043455004692078
1772642826961615400,2.591615478515625,-0.0539458766579628,-1.2781765460968018,0.5799919366836548
1772642826971660300,2.601660400390625,0.04888622835278511,-1.1758451461791992,0.523481011390686
1772642826981704200,2.6117041015625,0.19936388731002808,-1.0736303329467773,0.4550933837890625
1772642826991749400,2.621749267578125,0.3730800151824951,-1.0061982870101929,0.37748944759368896
1772642827001794300,2.631794189453125,0.5458680391311646,-0.9773502349853516,0.2843083441257477
1772642827011839500,2.641839599609375,0.6983004808425903,-0.973729133605957,0.18365630507469177
1772642827021884400,2.651884521484375,0.8348743319511414,-0.9578097462654114,0.07812082022428513
1772642827031928300,2.66192822265625,0.9380283951759338,-0.9317646026611328,-0.034403324127197266
1772642827041973200,2.67197314453125,1.0176374912261963,-0.9082066416740417,-0.17063109576702118
1772642827052018400,2.682018310546875,1.0617101192474365,-0.9322539567947388,-0.3629102408885956
1772642827062063000,2.69206298828125,1.0319490432739258,-0.9602663516998291,-0.5833489894866943
1772642827072108300,2.7021083984375,0.9487888813018799,-0.8901181221008301,-0.7676860690116882
1772642827082152400,2.71215234375,0.7924734354019165,-0.6847400665283203,-0.8522515892982483
1772642827092197400,2.722197265625,0.6123939752578735,-0.4162617325782776,-0.8589296936988831
1772642827102242300,2.7322421875,0.44815298914909363,-0.11658286303281784,-0.7920363545417786
1772642827112287200,2.742287353515625,0.32599779963493347,0.1696384996175766,-0.6629233956336975
1772642827122331400,2.752331298828125,0.29951098561286926,0.35681837797164917,-0.495733380317688
1772642827132376300,2.762376220703125,0.37045520544052124,0.516660213470459,-0.2957576811313629
1772642827142421200,2.772421142578125,0.5168964266777039,0.6844331622123718,-0.056569162756204605
1772642827152466200,2.782466064453125,0.6984220147132874,0.762125551700592,0.18711167573928833
1772642827162511400,2.792511474609375,0.854720413684845,0.6143999695777893,0.4379373788833618
1772642827172555500,2.802555419921875,0.9494456052780151,0.26572585105895996,0.6679623126983643
1772642827182600200,2.81260009765625,0.9532917737960815,-0.13919077813625336,0.8600717782974243
1772642827192645400,2.822645263671875,0.8763589262962341,-0.4410789906978607,1.0125782489776611
1772642827202690300,2.832690185546875,0.739916205406189,-0.5663583874702454,1.1027344465255737
1772642827212735500,2.842735595703125,0.5837457776069641,-0.5139849185943604,1.125360131263733
1772642827222779400,2.852779296875,0.4276936948299408,-0.3472709655761719,1.07571280002594
1772642827232824300,2.86282421875,0.30913084745407104,-0.08052583783864975,0.9665024280548096
1772642827242869500,2.872869384765625,0.2405642420053482,0.22110405564308167,0.8063699007034302
1772642827252914000,2.882913818359375,0.20912723243236542,0.5024390816688538,0.616521954536438
1772642827262959000,2.892958984375,0.17110967636108398,0.7256242632865906,0.4430650770664215
1772642827273002800,2.903002685546875,0.11015870422124863,0.8022042512893677,0.31010887026786804
1772642827283048000,2.9130478515625,0.012441099621355534,0.7396411895751953,0.2203022986650467
1772642827293092900,2.9230927734375,-0.10594546049833298,0.5968403816223145,0.20962488651275635
1772642827303138000,2.933137939453125,-0.2136913388967514,0.41780591011047363,0.28704339265823364
1772642827313183000,2.943182861328125,-0.29759103059768677,0.29010146856307983,0.43883347511291504
1772642827323227000,2.953226806640625,-0.34276410937309265,0.28931689262390137,0.6509755849838257
1772642827333272000,2.96327197265625,-0.35957369208335876,0.3849102854728699,0.8629903793334961
1772642827343317000,2.97331689453125,-0.3987162113189697,0.506472110748291,0.9905357360839844
1772642827353362000,2.98336181640625,-0.48834437131881714,0.5575219988822937,0.9756957292556763
1772642827363406800,2.99340673828125,-0.623436450958252,0.4509272575378418,0.8217053413391113
1772642827373451000,3.003450927734375,-0.7851614356040955,0.19834108650684357,0.5832490921020508
1772642827383496000,3.013495849609375,-0.9176782369613647,0.012780112214386463,0.37040382623672485
1772642827393540900,3.023540771484375,-0.9472107887268066,0.021684391424059868,0.22944988310337067
1772642827403585800,3.033585693359375,-0.9221440553665161,0.1543431133031845,0.10642356425523758
1772642827413630000,3.0436298828125,-0.8877189755439758,0.27735424041748047,-0.047767866402864456
1772642827423675100,3.053675048828125,-0.9098657369613647,0.2707652747631073,-0.3009866774082184
1772642827433719800,3.0637197265625,-0.9725350141525269,0.25142619013786316,-0.6191814541816711
1772642827443765000,3.073764892578125,-0.989821195602417,0.2529344856739044,-0.928066074848175
1772642827453810000,3.083809814453125,-0.9224634766578674,0.23197488486766815,-1.116277813911438
1772642827463854000,3.09385400390625,-0.7541313171386719,0.2758817672729492,-1.1368694305419922
1772642827473899000,3.10389892578125,-0.5079593658447266,0.49981099367141724,-0.9931678175926208
1772642827483944000,3.11394384765625,-0.28830334544181824,0.7652109861373901,-0.7486700415611267
1772642827493988900,3.12398876953125,-0.21516548097133636,0.8103858828544617,-0.5204826593399048
1772642827504034000,3.134033935546875,-0.2665631175041199,0.605367124080658,-0.3790433704853058
1772642827514078000,3.144077880859375,-0.34608352184295654,0.31556034088134766,-0.29906973242759705
1772642827524123000,3.154122802734375,-0.3959384560585022,0.07360026985406876,-0.3057224452495575
1772642827534168000,3.16416796875,-0.3769224286079407,-0.08671483397483826,-0.3948957324028015
1772642827544213000,3.174212890625,-0.26964011788368225,-0.1633777618408203,-0.5285285711288452
1772642827554258000,3.1842578125,-0.1143202856183052,-0.19666114449501038,-0.6509580612182617
1772642827564302000,3.194302001953125,0.02287871204316616,-0.23107774555683136,-0.7099446058273315
1772642827574347000,3.204346923828125,0.09657823294401169,-0.3322557806968689,-0.6595700979232788
1772642827584392200,3.21439208984375,0.10915902256965637,-0.48774221539497375,-0.4686574339866638
1772642827594436900,3.224436767578125,0.11489494144916534,-0.6065605282783508,-0.1622793972492218
1772642827604482000,3.23448193359375,0.13433027267456055,-0.544965386390686,0.23086434602737427
1772642827614526000,3.24452587890625,0.158449187874794,-0.36277058720588684,0.6545802354812622
1772642827624571000,3.25457080078125,0.16074465215206146,-0.2794508934020996,1.0080363750457764
1772642827634615800,3.26461572265625,0.13389119505882263,-0.3230878412723541,1.2337794303894043
1772642827644661000,3.274660888671875,0.13646091520786285,-0.41089606285095215,1.3134040832519531
1772642827654705200,3.284705078125,0.18677522242069244,-0.436759889125824,1.2485462427139282
1772642827664749800,3.294749755859375,0.2856003940105438,-0.4102177023887634,1.0657494068145752
1772642827674795000,3.304794921875,0.38337913155555725,-0.36030927300453186,0.789228081703186
1772642827684840000,3.31483984375,0.4600566327571869,-0.36617571115493774,0.4639696776866913
1772642827694885000,3.324885009765625,0.5173614621162415,-0.47530218958854675,0.13230785727500916
1772642827704928800,3.3349287109375,0.5526013970375061,-0.6803548336029053,-0.189034566283226
1772642827714974000,3.344973876953125,0.5572328567504883,-0.8951901793479919,-0.4956648051738739
1772642827725019000,3.355018798828125,0.5323286056518555,-1.0058765411376953,-0.7626402974128723
1772642827735064000,3.36506396484375,0.4934086799621582,-1.0021425485610962,-0.9792271852493286
1772642827745108700,3.375108642578125,0.4189523458480835,-0.9296514391899109,-1.113185167312622
1772642827755153000,3.38515283203125,0.3129098117351532,-0.8461653590202332,-1.166236162185669
1772642827765198000,3.395197998046875,0.2380790412425995,-0.7819467782974243,-1.1179076433181763
1772642827775243000,3.405242919921875,0.23012204468250275,-0.7307587265968323,-0.9862204790115356
1772642827785288000,3.415287841796875,0.26638874411582947,-0.6789654493331909,-0.8439555764198303
1772642827795332900,3.425332763671875,0.29577991366386414,-0.6158197522163391,-0.7426244020462036
1772642827805377000,3.435376953125,0.3159111738204956,-0.5492219924926758,-0.6990110874176025
1772642827815422000,3.445421875,0.30611419677734375,-0.4607582092285156,-0.6787772178649902
1772642827825467000,3.455466796875,0.2926959693431854,-0.34204161167144775,-0.6339946985244751
1772642827835511800,3.46551171875,0.2900666296482086,-0.15426985919475555,-0.515653133392334
1772642827845557000,3.475556884765625,0.2885242998600006,0.021960431709885597,-0.3042883276939392
1772642827855601200,3.48560107421875,0.28521478176116943,0.07779014110565186,0.0021741397213190794
1772642827865645800,3.495645751953125,0.27204740047454834,0.01033242791891098,0.3828011453151703
1772642827875691000,3.50569091796875,0.28742820024490356,-0.16879737377166748,0.7798140048980713
1772642827885736000,3.51573583984375,0.3135646879673004,-0.32623109221458435,1.141992449760437
1772642827895779800,3.52577978515625,0.30411604046821594,-0.39560404419898987,1.378940224647522
1772642827905825000,3.535824951171875,0.2713085412979126,-0.338430255651474,1.4911051988601685
1772642827915870000,3.545869873046875,0.21594487130641937,-0.18725910782814026,1.498963713645935
1772642827925915000,3.555914794921875,0.13028036057949066,0.02640717104077339,1.4079915285110474
1772642827935960000,3.5659599609375,0.02221834287047386,0.24383829534053802,1.2200114727020264
1772642827946004000,3.57600390625,-0.06362108141183853,0.4401751160621643,0.9439899921417236
1772642827956049000,3.586048828125,-0.08649124205112457,0.6399965882301331,0.6175032258033752
1772642827966094000,3.596093994140625,-0.061312541365623474,0.806764543056488,0.299299031496048
1772642827976139000,3.606138916015625,0.0017806753749027848,0.9154124855995178,0.03956172987818718
1772642827986184000,3.616183837890625,0.07076399773359299,0.9851129055023193,-0.10806581377983093
1772642827996228000,3.62622802734375,0.10056104511022568,0.9950401186943054,-0.1498526781797409
1772642828006273000,3.63627294921875,0.08543941378593445,0.9422129392623901,-0.10604090988636017
1772642828016318000,3.64631787109375,0.03217192739248276,0.8882666230201721,0.034541234374046326
1772642828026363000,3.65636279296875,-0.04575140401721001,0.8662737011909485,0.2538934051990509
1772642828036408000,3.666407958984375,-0.10835140198469162,0.8671872019767761,0.5105281472206116
1772642828046452000,3.676451904296875,-0.13652507960796356,0.7979468107223511,0.7415198087692261
1772642828056497000,3.686496826171875,-0.16685529053211212,0.5763630270957947,0.8650566935539246
1772642828066541800,3.696541748046875,-0.20892640948295593,0.2780935764312744,0.8331477642059326
1772642828076587000,3.7065869140625,-0.2362738698720932,-0.013222696259617805,0.6380099654197693
1772642828086632000,3.7166318359375,-0.21716701984405518,-0.13672369718551636,0.3444364070892334
1772642828096675800,3.72667578125,-0.17497482895851135,-0.10021602362394333,-0.03077371045947075
1772642828106721000,3.736720947265625,-0.16626520454883575,0.008694645017385483,-0.48165518045425415
1772642828116766000,3.746765869140625,-0.1761718988418579,0.21852031350135803,-0.8856790661811829
1772642828126811100,3.75681103515625,-0.16330109536647797,0.42986825108528137,-1.1530016660690308
1772642828136855800,3.766855712890625,-0.15880727767944336,0.5070788860321045,-1.2732818126678467
1772642828146900000,3.77689990234375,-0.20069937407970428,0.40541937947273254,-1.285566806793213
1772642828156945000,3.78694482421875,-0.26284798979759216,0.1830262541770935,-1.1933244466781616
1772642828166990000,3.796989990234375,-0.3088477551937103,-0.09886310994625092,-1.0227820873260498
1772642828177034800,3.80703466796875,-0.33159780502319336,-0.3621107339859009,-0.8541197180747986
1772642828187079000,3.817078857421875,-0.3247961103916168,-0.5022193193435669,-0.7909982800483704
1772642828197124000,3.8271240234375,-0.2642051875591278,-0.4837186634540558,-0.8292492628097534
1772642828207169000,3.8371689453125,-0.14930230379104614,-0.32673701643943787,-0.9113502502441406
1772642828217214000,3.8472138671875,0.00553812924772501,-0.18402594327926636,-0.9885707497596741
1772642828227259000,3.8572587890625,0.1446150690317154,-0.19749648869037628,-1.015149712562561
1772642828237303000,3.867302978515625,0.23242774605751038,-0.37747129797935486,-0.9724602103233337
1772642828247348000,3.877347900390625,0.2673972547054291,-0.7529016733169556,-0.8429076075553894
1772642828257392400,3.887392333984375,0.2755047380924225,-1.2401349544525146,-0.6354657411575317
1772642828267437600,3.8974375,0.22869014739990234,-1.5891543626785278,-0.3555237948894501
1772642828277482500,3.907482421875,0.15162333846092224,-1.7525763511657715,-0.08391624689102173
1772642828287526700,3.917526611328125,0.07903646677732468,-1.7008113861083984,0.11041946709156036
1772642828297571300,3.9275712890625,0.01347290351986885,-1.4823530912399292,0.1792624592781067
1772642828307616500,3.937616455078125,-0.015518019907176495,-1.1942697763442993,0.11428403109312057
1772642828317661400,3.947661376953125,0.0008066246518865228,-0.850761353969574,-0.022170480340719223
1772642828327706600,3.95770654296875,0.056060198694467545,-0.5534325838088989,-0.11600641161203384
1772642828337750500,3.96775048828125,0.13936041295528412,-0.34679657220840454,-0.08197653293609619
1772642828347795500,3.97779541015625,0.20022255182266235,-0.2766623795032501,0.06961450725793839
1772642828357840600,3.987840576171875,0.2019093930721283,-0.3511589765548706,0.2768382728099823
1772642828367885600,3.997885498046875,0.1423410028219223,-0.5278189778327942,0.45721322298049927
1772642828377930500,4.007930419921875,0.048909325152635574,-0.7174392938613892,0.5629753470420837
1772642828387974400,4.017974365234375,-0.029500681906938553,-0.7724974751472473,0.5591927766799927
1772642828398019600,4.02801953125,-0.05414477363228798,-0.6407181620597839,0.4066962003707886
1772642828408064500,4.038064453125,-0.054715778678655624,-0.4179695248603821,0.0972055196762085
1772642828418109400,4.048109375,-0.03193802759051323,-0.20628975331783295,-0.3010292053222656
1772642828428153600,4.058153564453125,-0.004144344013184309,-0.06037953495979309,-0.6888145804405212
1772642828438198500,4.068198486328125,0.020877651870250702,-0.05164303630590439,-0.9980440735816956
1772642828448243500,4.078243408203125,0.05350654944777489,-0.24173274636268616,-1.2091542482376099
1772642828458288400,4.088288330078125,0.10007990896701813,-0.5703716278076172,-1.3369431495666504
1772642828468333600,4.09833349609375,0.1320560872554779,-0.8275894522666931,-1.4402755498886108
1772642828478377500,4.10837744140625,0.14434337615966797,-0.9177180528640747,-1.5260872840881348
1772642828488422400,4.11842236328125,0.11960802972316742,-0.8779743909835815,-1.5863620042800903
1772642828498467300,4.12846728515625,0.05208731070160866,-0.7699698805809021,-1.6113762855529785
1772642828508512500,4.138512451171875,-0.01961493119597435,-0.5421620607376099,-1.5463290214538574
1772642828518557400,4.148557373046875,-0.06894146651029587,-0.15244197845458984,-1.3016146421432495
1772642828528601300,4.158601318359375,-0.08817245811223984,0.23633693158626556,-0.8539797067642212
1772642828538646500,4.168646484375,-0.11768694221973419,0.4723729193210602,-0.3048572242259979
1772642828548691500,4.17869140625,-0.1838042140007019,0.5075767040252686,0.25664034485816956
1772642828558736600,4.188736572265625,-0.2753168046474457,0.39259153604507446,0.7890962362289429
1772642828568781600,4.198781494140625,-0.37761014699935913,0.21773973107337952,1.2287217378616333
1772642828578825500,4.208825439453125,-0.470302015542984,0.03311289846897125,1.5241811275482178
1772642828588870400,4.218870361328125,-0.5320318937301636,-0.08778131753206253,1.6746418476104736
1772642828598915600,4.22891552734375,-0.5376372933387756,-0.1246972605586052,1.6830800771713257
1772642828608960500,4.23896044921875,-0.48492518067359924,-0.10313238203525543,1.5599223375320435
1772642828619005400,4.24900537109375,-0.38863405585289,-0.021247899159789085,1.344079852104187
1772642828629049600,4.259049560546875,-0.2494777888059616,0.10377224534749985,1.0854483842849731
1772642828639094500,4.269094482421875,-0.09256193786859512,0.23042738437652588,0.799379825592041
1772642828649139500,4.279139404296875,0.034392185509204865,0.34100183844566345,0.5247328281402588
1772642828659184400,4.289184326171875,0.09345391392707825,0.4172119200229645,0.3201485276222229
1772642828669228500,4.299228515625,0.08027554303407669,0.4551692008972168,0.20060689747333527
1772642828679273700,4.309273681640625,-0.010540382005274296,0.4707862436771393,0.21188804507255554
1772642828689318400,4.319318359375,-0.12814979255199432,0.47585049271583557,0.33557260036468506
1772642828699363600,4.329363525390625,-0.2280058115720749,0.4516575336456299,0.559141218662262
1772642828709408500,4.339408447265625,-0.29092246294021606,0.3619908392429352,0.8119526505470276
1772642828719452400,4.349452392578125,-0.3344358503818512,0.27300024032592773,1.0113753080368042
1772642828729497300,4.359497314453125,-0.3592984080314636,0.29232487082481384,1.1253652572631836
1772642828739542500,4.36954248046875,-0.36310887336730957,0.4525851309299469,1.173385739326477
1772642828749587500,4.37958740234375,-0.34531494975090027,0.7054166793823242,1.1918097734451294
1772642828759632600,4.389632568359375,-0.3014202117919922,0.9580262899398804,1.169893741607666
1772642828769676500,4.399676513671875,-0.2551993429660797,1.1512106657028198,1.0908706188201904
1772642828779721500,4.409721435546875,-0.21049951016902924,1.2254098653793335,0.9003639817237854
1772642828789766700,4.4197666015625,-0.19266162812709808,1.1246198415756226,0.5572776198387146
1772642828799811600,4.4298115234375,-0.1834295094013214,0.8779724836349487,0.08610640466213226
1772642828809856500,4.4398564453125,-0.1551448255777359,0.7243435382843018,-0.32656338810920715
1772642828819900400,4.449900390625,-0.05860123038291931,0.8048945665359497,-0.5307117104530334
1772642828829945600,4.459945556640625,0.042134661227464676,1.0189276933670044,-0.5570166707038879
1772642828839990500,4.469990478515625,0.1235797181725502,1.2726774215698242,-0.4561888873577118
1772642828850035500,4.480035400390625,0.1804480403661728,1.2890338897705078,-0.3919549584388733
1772642828860080400,4.490080322265625,0.12980084121227264,1.010125994682312,-0.5003392696380615
1772642828870124500,4.50012451171875,-0.00039115140680223703,0.5119438171386719,-0.7580519914627075
1772642828880169500,4.51016943359375,-0.12985272705554962,-0.08317387849092484,-1.0798430442810059
1772642828890214400,4.52021435546875,-0.17095860838890076,-0.5780034065246582,-1.3261016607284546
1772642828900259600,4.530259521484375,-0.1240725964307785,-0.9056840538978577,-1.4859968423843384
1772642828910303500,4.540303466796875,0.01652364805340767,-0.8428203463554382,-1.491430401802063
1772642828920348400,4.550348388671875,0.23722247779369354,-0.4222371578216553,-1.3017292022705078
1772642828930393300,4.560393310546875,0.4515407979488373,0.04928938299417496,-0.9576713442802429
1772642828940438500,4.5704384765625,0.5562525391578674,0.2415594905614853,-0.5817086696624756
1772642828950483500,4.5804833984375,0.5297950506210327,0.06932427734136581,-0.2884419858455658
1772642828960527400,4.59052734375,0.4386212229728699,-0.34340551495552063,-0.08900212496519089
1772642828970572500,4.600572509765625,0.3442908525466919,-0.9380266070365906,0.037944767624139786
1772642828980617500,4.610617431640625,0.2721724510192871,-1.4226473569869995,0.13303613662719727
1772642828990662700,4.62066259765625,0.25438886880874634,-1.654494047164917,0.17137464880943298
1772642829000707300,4.630707275390625,0.2728067636489868,-1.5003987550735474,0.09892653673887253
1772642829010751500,4.64075146484375,0.3065671920776367,-0.966052234172821,-0.05801403895020485
1772642829020796400,4.65079638671875,0.37001779675483704,-0.23131540417671204,-0.17352919280529022
1772642829030841600,4.660841552734375,0.4089532196521759,0.4382588267326355,-0.14393186569213867
1772642829040886500,4.670886474609375,0.3862452208995819,0.8105144500732422,0.08021361380815506
1772642829050931500,4.680931396484375,0.2953883707523346,0.7730533480644226,0.49863436818122864
1772642829060975600,4.6909755859375,0.15422670543193817,0.35191810131073,1.039958119392395
1772642829071020500,4.7010205078125,-0.009315745905041695,-0.19580063223838806,1.5577621459960938
1772642829081065500,4.7110654296875,-0.13774296641349792,-0.6252776980400085,1.9221832752227783
1772642829091110400,4.7211103515625,-0.19128596782684326,-0.7861459851264954,2.054506301879883
1772642829101154600,4.731154541015625,-0.14598533511161804,-0.6016150116920471,1.9501184225082397
1772642829111199700,4.74119970703125,-0.00760972686111927,-0.2154296487569809,1.675606608390808
1772642829121244400,4.751244384765625,0.15881572663784027,0.1853734254837036,1.3259612321853638
1772642829131289600,4.76128955078125,0.3055574297904968,0.4854629635810852,0.9808525443077087
1772642829141334500,4.77133447265625,0.4250614643096924,0.6930302381515503,0.6906074285507202
1772642829151378400,4.78137841796875,0.4733589291572571,0.7534567713737488,0.4462619423866272
1772642829161423400,4.79142333984375,0.4242315888404846,0.6635351777076721,0.2662399709224701
1772642829171468500,4.801468505859375,0.34330621361732483,0.5462397336959839,0.20477445423603058
1772642829181513500,4.811513427734375,0.3112902045249939,0.4386107623577118,0.2514421045780182
1772642829191558700,4.82155859375,0.34691745042800903,0.2600029408931732,0.3866864740848541
1772642829201602600,4.8316025390625,0.4145793318748474,0.012032026425004005,0.6019327640533447
1772642829211647500,4.8416474609375,0.45851564407348633,-0.3051358163356781,0.8087577223777771
1772642829221692700,4.851692626953125,0.46209946274757385,-0.5690630674362183,0.911506712436676
1772642829231737600,4.861737548828125,0.3977242112159729,-0.6226106882095337,0.8773481845855713
1772642829241782500,4.871782470703125,0.28041622042655945,-0.42802923917770386,0.6662601232528687
1772642829251826400,4.881826416015625,0.1408780962228775,-0.022461526095867157,0.2981747090816498
1772642829261870800,4.891870849609375,0.057723551988601685,0.536740779876709,-0.1368153840303421
1772642829271916000,4.901916015625,0.08768323808908463,1.1042739152908325,-0.4957166016101837
1772642829281961000,4.9119609375,0.19249141216278076,1.475273847579956,-0.6842507719993591
1772642829292005000,4.922005126953125,0.3255726397037506,1.5864524841308594,-0.6562044024467468
1772642829302049800,4.9320498046875,0.45840924978256226,1.4985750913619995,-0.41005536913871765
1772642829312095000,4.942094970703125,0.52659672498703,1.2790260314941406,-0.052633658051490784
1772642829322140000,4.952139892578125,0.5086331963539124,0.988405168056488,0.3139760494232178
1772642829332185000,4.96218505859375,0.45009541511535645,0.7111853361129761,0.6172882318496704
1772642829342229000,4.97222900390625,0.3667027950286865,0.4998430013656616,0.813524067401886
1772642829352274000,4.98227392578125,0.2781783938407898,0.3444678485393524,0.8773185610771179
1772642829362319000,4.992319091796875,0.20207269489765167,0.22712630033493042,0.8315401673316956
1772642829372364000,5.002364013671875,0.1331299990415573,0.12352990359067917,0.6978049278259277
1772642829382409000,5.012408935546875,0.06456796824932098,0.0753336101770401,0.5213313698768616
1772642829392452900,5.022452880859375,0.006101690232753754,0.0869096964597702,0.33803728222846985
1772642829402498000,5.032498046875,-0.039793096482753754,0.12056326121091843,0.17785878479480743
1772642829412543000,5.04254296875,-0.08299696445465088,0.15495821833610535,0.07223603129386902
1772642829422588000,5.052587890625,-0.14341050386428833,0.1886674463748932,0.029135962948203087
1772642829432632800,5.0626328125,-0.2218823879957199,0.2161974310874939,0.0297393798828125
1772642829442677000,5.072677001953125,-0.30690622329711914,0.24139465391635895,0.058836277574300766
1772642829452722200,5.08272216796875,-0.37563666701316833,0.29427486658096313,0.10193169116973877
1772642829462766800,5.092766845703125,-0.40331438183784485,0.3788081407546997,0.15662901103496552
1772642829472812000,5.10281201171875,-0.4071575999259949,0.41744616627693176,0.2427293360233307
1772642829482856000,5.11285595703125,-0.39099568128585815,0.354960173368454,0.3467335104942322
1772642829492900900,5.12290087890625,-0.32735246419906616,0.283143013715744,0.4745757281780243
1772642829502945800,5.13294580078125,-0.21537718176841736,0.20339654386043549,0.5910109877586365
1772642829512991000,5.142990966796875,-0.14437741041183472,0.04296409338712692,0.5606541633605957
1772642829523036000,5.153035888671875,-0.14932262897491455,-0.11481408774852753,0.3561204671859741
1772642829533079800,5.163079833984375,-0.21923960745334625,-0.22020134329795837,0.0303946565836668
1772642829543125000,5.173125,-0.2994798719882965,-0.2609783411026001,-0.37344467639923096
1772642829553170000,5.183169921875,-0.3763768970966339,-0.2038782238960266,-0.8548462986946106
1772642829563215000,5.193215087890625,-0.45798468589782715,-0.046317100524902344,-1.3378854990005493
1772642829573260000,5.203260009765625,-0.5034984350204468,0.195262610912323,-1.6710957288742065
1772642829583304000,5.213303955078125,-0.4864499270915985,0.38243889808654785,-1.7793729305267334
1772642829593348900,5.223348876953125,-0.44105586409568787,0.3841876983642578,-1.6800600290298462
1772642829603394000,5.23339404296875,-0.39717841148376465,0.22023525834083557,-1.4092445373535156
1772642829613438700,5.243438720703125,-0.3618104159832001,-0.03776988387107849,-1.0185672044754028
1772642829623484000,5.25348388671875,-0.32922664284706116,-0.33041080832481384,-0.6025918126106262
1772642829633528000,5.263528076171875,-0.3305312395095825,-0.5903023481369019,-0.24555091559886932
1772642829643573000,5.273572998046875,-0.3274478316307068,-0.6938007473945618,-0.01520718913525343
1772642829653618000,5.283617919921875,-0.27615809440612793,-0.5705557465553284,0.02109038271009922
1772642829663662800,5.293662841796875,-0.17289189994335175,-0.3183016777038574,-0.1296543926000595
1772642829673707000,5.30370703125,-0.07024255394935608,-0.09340445697307587,-0.4159663915634155
1772642829683752000,5.313751953125,0.0022068768739700317,0.014628005214035511,-0.7650327682495117
1772642829693796900,5.323796875,0.02880527451634407,0.011595887131989002,-1.0921483039855957
1772642829703842000,5.333842041015625,0.02574183978140354,-0.045311339199543,-1.3260669708251953
1772642829713887000,5.343886962890625,0.0031259513925760984,-0.07414820045232773,-1.382682204246521
1772642829723931100,5.35393115234375,0.004409062676131725,-0.14950287342071533,-1.2571346759796143
1772642829733975800,5.363975830078125,0.023929309099912643,-0.20536118745803833,-0.9730021953582764
1772642829744021000,5.37402099609375,0.05894988030195236,-0.2316170334815979,-0.6384503245353699
1772642829754066000,5.38406591796875,0.0960724875330925,-0.23400013148784637,-0.38623860478401184
1772642829764111000,5.394111083984375,0.10246539860963821,-0.2862609326839447,-0.2694912254810333
1772642829774155000,5.404155029296875,0.11411699652671814,-0.3254711925983429,-0.23162293434143066
1772642829784200000,5.414199951171875,0.14905579388141632,-0.31140488386154175,-0.21837317943572998
1772642829794245000,5.4242451171875,0.21590681374073029,-0.23415736854076385,-0.16966500878334045
1772642829804290000,5.4342900390625,0.3209663927555084,-0.09006889909505844,-0.09075606614351273
1772642829814334000,5.444333984375,0.4114541709423065,0.11555244773626328,-0.007201670203357935
1772642829824379000,5.45437890625,0.4629034996032715,0.29298102855682373,0.06004820764064789
1772642829834424000,5.464424072265625,0.4744054973125458,0.35842329263687134,0.11365560442209244
1772642829844469000,5.474468994140625,0.4684242904186249,0.2943904995918274,0.1735469102859497
1772642829854514000,5.484513916015625,0.4563940465450287,0.15434686839580536,0.2577473819255829
1772642829864558000,5.49455810546875,0.43274545669555664,-0.012222947552800179,0.367317259311676
1772642829874603000,5.50460302734375,0.3807242214679718,-0.2211621105670929,0.5044600367546082
1772642829884648000,5.51464794921875,0.3048001527786255,-0.41470441222190857,0.6457622647285461
1772642829894692900,5.52469287109375,0.1889074146747589,-0.5335386991500854,0.7207040786743164
1772642829904738000,5.534738037109375,0.057768043130636215,-0.6025934219360352,0.649899423122406
1772642829914782000,5.544781982421875,-0.0671088695526123,-0.6245600581169128,0.4624881148338318
1772642829924827000,5.554826904296875,-0.12836316227912903,-0.6369807720184326,0.25695544481277466
1772642829934871800,5.564871826171875,-0.08677148818969727,-0.6094553470611572,0.11111477762460709
1772642829944917000,5.5749169921875,0.03277461975812912,-0.554243803024292,0.07850517332553864
1772642829954961200,5.584961181640625,0.16419991850852966,-0.5692938566207886,0.16950252652168274
1772642829965005800,5.595005859375,0.25176435708999634,-0.561193585395813,0.3264135718345642
1772642829975051000,5.605051025390625,0.275930792093277,-0.5171023011207581,0.48407596349716187
1772642829985096000,5.615095947265625,0.2696411907672882,-0.44264328479766846,0.5846491456031799
1772642829995141000,5.62514111328125,0.23735637962818146,-0.2709420621395111,0.5908423662185669
1772642830005184800,5.635184814453125,0.22201178967952728,0.01591365411877632,0.5398790240287781
1772642830015230000,5.64522998046875,0.24753202497959137,0.3446817100048065,0.4699386954307556
1772642830025275000,5.65527490234375,0.319759339094162,0.6638218760490417,0.42585086822509766
1772642830035320000,5.665320068359375,0.41483232378959656,0.9270488619804382,0.42463117837905884
1772642830045364700,5.67536474609375,0.5260629653930664,1.0580593347549438,0.4762941300868988
1772642830055409000,5.685408935546875,0.623266339302063,1.0390130281448364,0.5725498795509338
1772642830065454000,5.6954541015625,0.6593790650367737,0.9111701250076294,0.6863976120948792
1772642830075499000,5.7054990234375,0.6229775547981262,0.6902775764465332,0.7936602234840393
1772642830085544000,5.7155439453125,0.5082871913909912,0.4451887905597687,0.8618869781494141
1772642830095588900,5.7255888671875,0.34455761313438416,0.2166755497455597,0.8614234328269958
1772642830105633000,5.735633056640625,0.19775350391864777,0.07113087177276611,0.8011294603347778
1772642830115678000,5.745677978515625,0.09377849102020264,0.01694854348897934,0.6979426145553589
1772642830125723000,5.755722900390625,-0.005992577876895666,0.02644750475883484,0.5551686882972717
1772642830135768000,5.76576806640625,-0.1001783162355423,0.11574174463748932,0.38021185994148254
1772642830145813000,5.77581298828125,-0.18064385652542114,0.27277395129203796,0.2092166692018509
1772642830155857000,5.78585693359375,-0.28773847222328186,0.44071337580680847,0.04433458670973778
1772642830165901800,5.79590185546875,-0.36312219500541687,0.5732865929603577,-0.08986848592758179
1772642830175947000,5.805947021484375,-0.3598640263080597,0.6671022772789001,-0.13979382812976837
1772642830185992000,5.815991943359375,-0.32241305708885193,0.6396035552024841,-0.12125048786401749
1772642830196035800,5.826035888671875,-0.2957857549190521,0.5492200255393982,-0.03621106594800949
1772642830206081000,5.8360810546875,-0.2889246344566345,0.47696682810783386,0.10843267291784286
1772642830216126000,5.8461259765625,-0.28633731603622437,0.477288156747818,0.3039867579936981
1772642830226171100,5.856171142578125,-0.28777915239334106,0.5867765545845032,0.5441207885742188
1772642830236216000,5.866216064453125,-0.2634354531764984,0.6865542531013489,0.8425837755203247
1772642830246260000,5.876260009765625,-0.30340149998664856,0.4749187231063843,1.0150096416473389
1772642830256306000,5.886305908203125,-0.4528650641441345,-0.11350908875465393,0.8958149552345276
1772642830266351000,5.89635107421875,-0.6498353481292725,-0.7404481172561646,0.5172415375709534
1772642830276395800,5.906395751953125,-0.7654294371604919,-1.0401538610458374,0.023916874080896378
1772642830286441000,5.91644091796875,-0.7656874656677246,-0.9790601134300232,-0.4755326211452484
1772642830296484900,5.92648486328125,-0.7163805365562439,-0.7535059452056885,-0.9267115592956543
1772642830306529800,5.93652978515625,-0.6781191229820251,-0.5516346096992493,-1.3500032424926758
1772642830316574700,5.94657470703125,-0.6511003375053406,-0.35237786173820496,-1.6957327127456665
1772642830326620000,5.956619873046875,-0.5781846046447754,-0.0915963351726532,-1.8638899326324463
1772642830336664000,5.9666640625,-0.4489225745201111,0.08448940515518188,-1.8534550666809082
1772642830346708700,5.976708740234375,-0.33092668652534485,-0.07044638693332672,-1.7555172443389893
1772642830356754000,5.98675390625,-0.23167891800403595,-0.6333197951316833,-1.6509090662002563
1772642830366798800,5.996798828125,-0.16037757694721222,-1.3787723779678345,-1.5866427421569824
1772642830376844000,6.006843994140625,-0.13262826204299927,-1.8387426137924194,-1.5212959051132202
1772642830386887700,6.0168876953125,-0.08179917186498642,-1.7768888473510742,-1.3886449337005615
1772642830396932900,6.026932861328125,-0.0043659391812980175,-1.2072727680206299,-1.20059072971344
1772642830406977800,6.036977783203125,0.07361434400081635,-0.44441986083984375,-1.0120594501495361
1772642830417023000,6.04702294921875,0.13517975807189941,0.17241360247135162,-0.8520987033843994
1772642830427067600,6.057067626953125,0.1633690595626831,0.4808047115802765,-0.7158710956573486
1772642830437111800,6.06711181640625,0.16787756979465485,0.5662049651145935,-0.5719900131225586
1772642830447157000,6.077156982421875,0.15092308819293976,0.3829025328159332,-0.38682204484939575
1772642830457202000,6.087201904296875,0.10990288108587265,-0.08035262674093246,-0.1536990851163864
1772642830467246800,6.097246826171875,0.05540155991911888,-0.6250084638595581,0.10587763041257858
1772642830477290800,6.107290771484375,0.00588687090203166,-1.0652724504470825,0.31648826599121094
1772642830487336000,6.1173359375,-0.06268260627985,-1.2780672311782837,0.4283200204372406
1772642830497380900,6.127380859375,-0.12023463845252991,-1.0830302238464355,0.4941180944442749
1772642830507425800,6.13742578125,-0.16975319385528564,-0.516051709651947,0.48631715774536133
1772642830517470700,6.147470703125,-0.28815826773643494,0.2491012066602707,0.4547324776649475
1772642830527515000,6.157514892578125,-0.4264375865459442,0.8450484871864319,0.4452263414859772
1772642830537560000,6.16756005859375,-0.5003740787506104,1.0102545022964478,0.4944444000720978
1772642830547604700,6.177604736328125,-0.5579695105552673,0.7827805876731873,0.605129599571228
1772642830557650000,6.18764990234375,-0.589756965637207,0.29632988572120667,0.7554470300674438
1772642830567694800,6.19769482421875,-0.5823041200637817,-0.22126293182373047,0.8685219287872314
1772642830577738800,6.20773876953125,-0.5359610319137573,-0.570188045501709,0.9082993865013123
1772642830587784000,6.217783935546875,-0.4469669461250305,-0.6894201636314392,0.8547821044921875
1772642830597828900,6.227828857421875,-0.31669360399246216,-0.5699861645698547,0.7208853960037231
1772642830607873800,6.237873779296875,-0.1429969072341919,-0.29141393303871155,0.5419251918792725
1772642830617917700,6.247917724609375,0.022565163671970367,0.011457065120339394,0.36275622248649597
1772642830627963000,6.257962890625,0.12951558828353882,0.1992724984884262,0.22000253200531006
1772642830638007800,6.2680078125,0.17989568412303925,0.2246897965669632,0.1340327113866806
1772642830648053000,6.278052978515625,0.23356716334819794,0.09046968072652817,0.12325888872146606
1772642830658098000,6.288097900390625,0.3291916251182556,-0.23558439314365387,0.1576596349477768
1772642830668141800,6.298141845703125,0.4601938724517822,-0.6661496162414551,0.1768714189529419
1772642830678187000,6.30818701171875,0.5692383646965027,-1.0379530191421509,0.15317291021347046
1772642830688232000,6.31823193359375,0.6156383752822876,-1.1721874475479126,0.09503929316997528
1772642830698276900,6.32827685546875,0.6087514758110046,-1.0737836360931396,0.00435790466144681
1772642830708321800,6.33832177734375,0.589063286781311,-0.8329082131385803,-0.09503819048404694
1772642830718366000,6.348365966796875,0.5997080206871033,-0.526505172252655,-0.16837774217128754
1772642830728411000,6.358410888671875,0.6288355588912964,-0.27873316407203674,-0.21722570061683655
1772642830738455800,6.368455810546875,0.6644052267074585,-0.09352318942546844,-0.21017135679721832
1772642830748500700,6.378500732421875,0.6760455965995789,0.0004557741340249777,-0.1131952702999115
1772642830758545000,6.388544921875,0.6649805903434753,0.007441300433129072,0.0798759013414383
1772642830768590000,6.398590087890625,0.6427951455116272,0.029152454808354378,0.35324859619140625
1772642830778634800,6.408634765625,0.6075580716133118,0.05992252007126808,0.658210813999176
1772642830788680000,6.418679931640625,0.5660218000411987,0.09502271562814713,0.9266276359558105
1772642830798724900,6.428724853515625,0.5261296629905701,0.12209475785493851,1.099480152130127
1772642830808769000,6.43876904296875,0.46433794498443604,0.1486661732196808,1.1565511226654053
1772642830818813700,6.448813720703125,0.38565126061439514,0.18580782413482666,1.1084328889846802
1772642830828859000,6.45885888671875,0.3108904957771301,0.2503111660480499,0.9889331459999084
1772642830838903800,6.46890380859375,0.24489091336727142,0.28935083746910095,0.834322988986969
1772642830848949000,6.478948974609375,0.17659200727939606,0.27463048696517944,0.6797922253608704
1772642830858993000,6.488992919921875,0.11656215786933899,0.25434938073158264,0.5422971248626709
1772642830869037800,6.499037841796875,0.07300242781639099,0.25756514072418213,0.4425745904445648
1772642830879083000,6.5090830078125,0.027580847963690758,0.2853803336620331,0.37351441383361816
1772642830889128000,6.5191279296875,-0.04429760202765465,0.34615394473075867,0.3313126266002655
1772642830899171800,6.529171875,-0.13427923619747162,0.43630358576774597,0.32284799218177795
1772642830909216800,6.539216796875,-0.20950953662395477,0.5221958160400391,0.35201331973075867
1772642830919262000,6.549261962890625,-0.25966161489486694,0.5574163198471069,0.40141382813453674
1772642830929307000,6.559306884765625,-0.28390225768089294,0.5556187033653259,0.4479203522205353
1772642830939351800,6.569351806640625,-0.26779070496559143,0.5717542171478271,0.47756171226501465
1772642830949396000,6.57939599609375,-0.22826486825942993,0.6068509221076965,0.48447635769844055
1772642830959441000,6.58944091796875,-0.21847651898860931,0.648877739906311,0.46170368790626526
1772642830969485800,6.59948583984375,-0.23749202489852905,0.6552818417549133,0.4278983175754547
1772642830979530800,6.60953076171875,-0.25284746289253235,0.6304381489753723,0.37791961431503296
1772642830989576000,6.619575927734375,-0.23565196990966797,0.5765160918235779,0.3253658711910248
1772642830999619800,6.629619873046875,-0.19554249942302704,0.45551326870918274,0.2678065598011017
1772642831009664800,6.639664794921875,-0.14519517123699188,0.2155102789402008,0.16597846150398254
1772642831019710000,6.6497099609375,-0.1428336203098297,-0.21370823681354523,-0.018239442259073257
1772642831029755000,6.6597548828125,-0.16809476912021637,-0.7454065084457397,-0.31354644894599915
1772642831039799000,6.669799072265625,-0.17576125264167786,-1.0657404661178589,-0.6733638644218445
1772642831049843700,6.67984375,-0.15040476620197296,-1.0094140768051147,-1.0158604383468628
1772642831059889000,6.689888916015625,-0.10708017647266388,-0.6693246960639954,-1.2622917890548706
1772642831069933800,6.699933837890625,-0.10345827788114548,-0.2514086663722992,-1.4427257776260376
1772642831079979000,6.70997900390625,-0.166115865111351,0.056550804525613785,-1.6526565551757812
1772642831090023000,6.72002294921875,-0.2680648863315582,0.14465643465518951,-1.888874888420105
1772642831100067800,6.73006787109375,-0.36339864134788513,0.10377053171396255,-2.056349039077759
1772642831110113000,6.740113037109375,-0.40575167536735535,0.030820954591035843,-2.0566813945770264
1772642831120158000,6.750157958984375,-0.37169837951660156,-0.0459851399064064,-1.8434821367263794
1772642831130203000,6.760202880859375,-0.3038650155067444,-0.07870686799287796,-1.4738460779190063
1772642831140246800,6.770246826171875,-0.2161678969860077,-0.047994229942560196,-1.052301287651062
1772642831150292000,6.7802919921875,-0.1302892118692398,0.006771279498934746,-0.706504762172699
1772642831160337000,6.7903369140625,-0.05161697790026665,0.014069476164877415,-0.5359547138214111
1772642831170381800,6.8003818359375,-0.007260167505592108,-0.1229083463549614,-0.5699294805526733
1772642831180426000,6.810426025390625,0.007385070435702801,-0.29733288288116455,-0.7240380644798279
1772642831190471000,6.820470947265625,0.045539114624261856,-0.4179471731185913,-0.8765791058540344
1772642831200516000,6.83051611328125,0.08456899225711823,-0.41198042035102844,-0.9819955825805664
1772642831210560800,6.840560791015625,0.11317214369773865,-0.23128893971443176,-1.0247185230255127
1772642831220606000,6.85060595703125,0.11517971009016037,-0.01333533599972725,-1.0060009956359863
1772642831230649900,6.86064990234375,0.1041765958070755,0.16063246130943298,-0.9475893974304199
1772642831240694800,6.87069482421875,0.11155591160058975,0.27700328826904297,-0.8510254621505737
1772642831250739700,6.88073974609375,0.1591295599937439,0.27222612500190735,-0.6289284825325012
1772642831260783900,6.890783935546875,0.2337433397769928,0.12278957664966583,-0.19649848341941833
1772642831270829000,6.9008291015625,0.29762405157089233,-0.1979764699935913,0.41633671522140503
1772642831280873000,6.910873046875,0.30596885085105896,-0.5930335521697998,1.0702354907989502
1772642831290918100,6.920918212890625,0.24758677184581757,-0.9251715540885925,1.58054780960083
1772642831300962800,6.930962890625,0.17450174689292908,-1.0802160501480103,1.83551025390625
1772642831311008000,6.941008056640625,0.11588318645954132,-1.014115810394287,1.828696608543396
1772642831321052200,6.95105224609375,0.09152817726135254,-0.7810423374176025,1.6199541091918945
1772642831331096800,6.961096923828125,0.055267639458179474,-0.5066166520118713,1.3061084747314453
1772642831341142000,6.97114208984375,0.01285927090793848,-0.3063146770000458,0.998401403427124
1772642831351187000,6.98118701171875,-0.03739937022328377,-0.18157540261745453,0.7535804510116577
1772642831361232100,6.991232177734375,-0.10142832249403,-0.09709465503692627,0.5565394759178162
1772642831371275800,7.00127587890625,-0.1516379714012146,-0.036721594631671906,0.3951151967048645
1772642831381321000,7.011321044921875,-0.17787089943885803,-0.012045541778206825,0.24248811602592468
1772642831391366000,7.021365966796875,-0.1965218186378479,0.027048330754041672,0.08042251318693161
1772642831401411000,7.0314111328125,-0.21951083838939667,0.030450627207756042,-0.09791797399520874
1772642831411455000,7.041455078125,-0.24070480465888977,0.014326784759759903,-0.2326590120792389
1772642831421500000,7.0515,-0.2582142651081085,0.010208645835518837,-0.30509522557258606
1772642831431545000,7.061545166015625,-0.23648977279663086,0.06733132153749466,-0.28249990940093994
1772642831441590000,7.071590087890625,-0.20052102208137512,0.11484795063734055,-0.17007271945476532
1772642831451635000,7.081635009765625,-0.19659020006656647,0.05571139231324196,-0.06392951309680939
1772642831461679000,7.09167919921875,-0.28045526146888733,-0.1915489286184311,-0.05635122209787369
1772642831471724000,7.10172412109375,-0.4708329439163208,-0.4826768934726715,-0.17037872970104218
1772642831481769000,7.11176904296875,-0.6572020649909973,-0.6483612656593323,-0.39949938654899597
1772642831491814000,7.12181396484375,-0.717899739742279,-0.41956642270088196,-0.6141299605369568
1772642831501859000,7.131859130859375,-0.6712474226951599,0.056702323257923126,-0.7315181493759155
1772642831511903000,7.141903076171875,-0.5748828053474426,0.44316136837005615,-0.7058801651000977
1772642831521948200,7.1519482421875,-0.46941331028938293,0.561232328414917,-0.5267724990844727
1772642831531992800,7.161992919921875,-0.3720710575580597,0.4724736511707306,-0.2487342208623886
1772642831542038000,7.1720380859375,-0.2902742028236389,0.3240499496459961,0.06427089124917984
1772642831552082200,7.182082275390625,-0.21384786069393158,0.22305329144001007,0.3660006523132324
1772642831562127000,7.192127197265625,-0.13699904084205627,0.21231484413146973,0.6014823317527771
1772642831572172000,7.202172119140625,-0.062330134212970734,0.25446441769599915,0.7521263957023621
1772642831582217000,7.212217041015625,-0.003339041955769062,0.2844740152359009,0.7862477898597717
1772642831592262100,7.22226220703125,0.01355738379061222,0.26293009519577026,0.7108819484710693
1772642831602305800,7.232305908203125,-0.0012321224203333259,0.23773516714572906,0.5602951049804688
1772642831612351000,7.24235107421875,0.01757458783686161,0.24418000876903534,0.38426440954208374
1772642831622396000,7.25239599609375,0.07145336270332336,0.2503775954246521,0.21682852506637573
1772642831632441000,7.262441162109375,0.12804314494132996,0.19382987916469574,0.06066980957984924
1772642831642486000,7.272486083984375,0.17022471129894257,0.09653519093990326,-0.07485266029834747
1772642831652530000,7.282530029296875,0.18120625615119934,0.02559976652264595,-0.20184975862503052
1772642831662575000,7.2925751953125,0.15250520408153534,0.03827301412820816,-0.3053591847419739
1772642831672620000,7.3026201171875,0.08746415376663208,0.08901955187320709,-0.3775886297225952
1772642831682665200,7.312665283203125,-0.001746149268001318,0.15440361201763153,-0.42068472504615784
1772642831692708900,7.322708984375,-0.08479096740484238,0.1978653371334076,-0.43347853422164917
1772642831702754000,7.332754150390625,-0.13680905103683472,0.26195576786994934,-0.4120175242424011
1772642831712799000,7.342799072265625,-0.16491392254829407,0.37934285402297974,-0.37102988362312317
1772642831722844000,7.352843994140625,-0.17551518976688385,0.4733544886112213,-0.3271172344684601
1772642831732888800,7.362888916015625,-0.18107959628105164,0.4472733438014984,-0.3009442090988159
1772642831742933000,7.37293310546875,-0.16579848527908325,0.2988741397857666,-0.3007108271121979
1772642831752978200,7.382978271484375,-0.12891289591789246,0.06123629957437515,-0.31838250160217285
1772642831763022800,7.39302294921875,-0.0760425552725792,-0.12255749106407166,-0.2997186481952667
1772642831773068000,7.403068115234375,-0.03811169043183327,0.11735071241855621,-0.17884866893291473
1772642831783113000,7.413113037109375,0.0087785879150033,0.23045293986797333,-0.06205601617693901
1772642831793157000,7.4231572265625,-0.23911669850349426,-0.5227132439613342,-0.6004648804664612
1772642831803201800,7.433201904296875,-0.6171829700469971,-1.065027117729187,-1.5228676795959473
1772642831813247000,7.4432470703125,-0.6216951608657837,-0.663051187992096,-2.150689125061035
1772642831823292000,7.4532919921875,-0.3533085584640503,0.15850438177585602,-2.2929131984710693
1772642831833336000,7.463336181640625,-0.17733272910118103,0.6097754240036011,-2.2194907665252686
1772642831843381000,7.473381103515625,-0.24200959503650665,0.5484585762023926,-2.157437562942505
1772642831853426000,7.483426025390625,-0.42074498534202576,0.3205766975879669,-2.074091911315918
1772642831863471000,7.49347119140625,-0.5627678036689758,0.07996874302625656,-1.9052960872650146
1772642831873516000,7.50351611328125,-0.6594583988189697,-0.173234760761261,-1.7191320657730103
1772642831883560000,7.513559814453125,-0.7095186710357666,-0.30995723605155945,-1.5434716939926147
1772642831893605000,7.523605224609375,-0.7212663888931274,-0.2738461196422577,-1.3530349731445312
1772642831903650000,7.533650146484375,-0.731093168258667,-0.11275196820497513,-1.183191180229187
1772642831913695000,7.543695068359375,-0.7358610033988953,0.06695707142353058,-1.0745913982391357
1772642831923739000,7.55373876953125,-0.7526649832725525,0.07408244907855988,-1.109849214553833
1772642831933784000,7.5637841796875,-0.8152258396148682,-0.14040188491344452,-1.3452736139297485
1772642831943829000,7.5738291015625,-0.8681008815765381,-0.4489729106426239,-1.7045329809188843
1772642831953874200,7.583874267578125,-0.8445598483085632,-0.6417982578277588,-2.047708511352539
1772642831963918800,7.5939189453125,-0.7622494697570801,-0.6547483801841736,-2.289741277694702
1772642831973963000,7.603962890625,-0.6247541904449463,-0.49309396743774414,-2.3758065700531006
1772642831984008200,7.61400830078125,-0.45697230100631714,-0.19922998547554016,-2.2879021167755127
1772642831994052900,7.624052978515625,-0.2921750843524933,0.09864430874586105,-2.0502169132232666
1772642832004098000,7.63409814453125,-0.1892322599887848,0.28893205523490906,-1.7056175470352173
1772642832014143000,7.64414306640625,-0.18765141069889069,0.29891252517700195,-1.3152012825012207
1772642832024187100,7.654187255859375,-0.24690265953540802,0.0813428983092308,-0.9336933493614197
1772642832034231800,7.664231689453125,-0.31605881452560425,-0.24228310585021973,-0.6159579753875732
1772642832044277000,7.674277099609375,-0.3548320233821869,-0.4964526295661926,-0.4055211842060089
1772642832054322000,7.684322021484375,-0.3338780105113983,-0.6081282496452332,-0.32117488980293274
1772642832064366000,7.694365966796875,-0.2541179656982422,-0.6107293367385864,-0.33920735120773315
1772642832074411000,7.704410888671875,-0.15251463651657104,-0.4542217254638672,-0.40997180342674255
1772642832084456000,7.7144560546875,-0.06007009744644165,-0.2118668109178543,-0.49100062251091003
1772642832094501000,7.724501220703125,0.012591853737831116,-0.006447883322834969,-0.5596665143966675
1772642832104546000,7.734546142578125,0.0474984385073185,0.12924256920814514,-0.6000088453292847
1772642832114590000,7.74458984375,0.03145236149430275,0.17363746464252472,-0.6271358132362366
1772642832124635000,7.754634765625,-0.016665177419781685,0.14301620423793793,-0.6347187161445618
1772642832134680000,7.76468017578125,-0.07459744811058044,0.0748339518904686,-0.6162919998168945
1772642832144725000,7.77472509765625,-0.10650862753391266,-0.01652885600924492,-0.5789067149162292
1772642832154770000,7.78477001953125,-0.1415177434682846,-0.07674213498830795,-0.5086930394172668
1772642832164814000,7.79481396484375,-0.18482168018817902,-0.10907712578773499,-0.4273778200149536
1772642832174859000,7.80485888671875,-0.24402615427970886,-0.13175314664840698,-0.32138189673423767
1772642832184904200,7.814904296875,-0.30485913157463074,-0.2734229266643524,-0.2468293458223343
1772642832194948900,7.824948974609375,-0.3220359981060028,-0.4653726816177368,-0.23502354323863983
1772642832204993000,7.834992919921875,-0.2892143726348877,-0.5032328367233276,-0.3349033296108246
1772642832215038000,7.845037841796875,-0.25324490666389465,-0.21817316114902496,-0.4349324703216553
1772642832225083100,7.855083251953125,-0.1866765022277832,0.1295524686574936,-0.5568464994430542
1772642832235127800,7.8651279296875,-0.12872879207134247,0.42884624004364014,-0.6810675263404846
1772642832245173000,7.875173095703125,-0.08426608145236969,0.5910246968269348,-0.7696391940116882
1772642832255217700,7.8852177734375,-0.061713896691799164,0.6141747832298279,-0.7924014925956726
1772642832265262600,7.8952626953125,-0.052143849432468414,0.532382071018219,-0.732253909111023
1772642832275307800,7.905307861328125,-0.03462637588381767,0.4103030562400818,-0.6068472862243652
