time,seconds_elapsed,z,y,x
1772641328143461600,0.051461669921875,-0.987274169921875,-0.0955810546875,0.11700439453125
1772641328153507600,0.061507568359375,-0.9824676513671875,-0.101348876953125,0.1221160888671875
1772641328163552800,0.071552734375,-0.9783935546875,-0.10675048828125,0.1227569580078125
1772641328173597700,0.08159765625,-0.9693145751953125,-0.106170654296875,0.1193084716796875
1772641328183643600,0.0916435546875,-0.9615020751953125,-0.11029052734375,0.11602783203125
1772641328193688600,0.1016884765625,-0.9575347900390625,-0.1154937744140625,0.111846923828125
1772641328203733800,0.111733642578125,-0.957977294921875,-0.12005615234375,0.1077423095703125
1772641328213778700,0.12177880859375,-0.9522552490234375,-0.125335693359375,0.1024017333984375
1772641328223824600,0.13182470703125,-0.9481353759765625,-0.13214111328125,0.0970306396484375
1772641328233869600,0.14186962890625,-0.9503936767578125,-0.1390380859375,0.087066650390625
1772641328243914500,0.15191455078125,-0.9390411376953125,-0.146942138671875,0.0767059326171875
1772641328253960700,0.161960693359375,-0.9341278076171875,-0.1615447998046875,0.0719451904296875
1772641328264005600,0.172005615234375,-0.9280853271484375,-0.17230224609375,0.06854248046875
1772641328274050800,0.18205078125,-0.92620849609375,-0.1765594482421875,0.0601043701171875
1772641328284095700,0.192095703125,-0.9298553466796875,-0.1760711669921875,0.0512542724609375
1772641328294141700,0.2021416015625,-0.9327545166015625,-0.1757965087890625,0.0467681884765625
1772641328304186600,0.2121865234375,-0.9392242431640625,-0.1779632568359375,0.0461578369140625
1772641328314231600,0.2222314453125,-0.946380615234375,-0.1797332763671875,0.0504150390625
1772641328324277800,0.23227783203125,-0.9425811767578125,-0.1754150390625,0.05145263671875
1772641328334322700,0.24232275390625,-0.9311981201171875,-0.1715240478515625,0.0556488037109375
1772641328344367600,0.25236767578125,-0.9381561279296875,-0.1719207763671875,0.0623626708984375
1772641328354413800,0.262413818359375,-0.942626953125,-0.1682891845703125,0.06536865234375
1772641328364458500,0.27245849609375,-0.9502716064453125,-0.1660003662109375,0.067596435546875
1772641328374503700,0.282503662109375,-0.95440673828125,-0.1626739501953125,0.0677947998046875
1772641328384548600,0.292548583984375,-0.954559326171875,-0.162811279296875,0.0722198486328125
1772641328394594600,0.302594482421875,-0.9616546630859375,-0.16375732421875,0.075439453125
1772641328404639700,0.3126396484375,-0.961669921875,-0.1597747802734375,0.0763702392578125
1772641328414684700,0.3226845703125,-0.957366943359375,-0.1622314453125,0.0781707763671875
1772641328424730600,0.332730712890625,-0.96856689453125,-0.160888671875,0.073638916015625
1772641328434775600,0.342775634765625,-0.9711151123046875,-0.1592864990234375,0.0684814453125
1772641328444820700,0.35282080078125,-0.9788665771484375,-0.1650390625,0.07525634765625
1772641328454865700,0.36286572265625,-0.994140625,-0.1666717529296875,0.0820465087890625
1772641328464911600,0.37291162109375,-1.0062713623046875,-0.1665191650390625,0.086700439453125
1772641328474956800,0.382956787109375,-1.0094451904296875,-0.17266845703125,0.0885009765625
1772641328485001500,0.39300146484375,-1.0046844482421875,-0.1801910400390625,0.0854034423828125
1772641328495047700,0.403047607421875,-0.998382568359375,-0.18414306640625,0.083343505859375
1772641328505092600,0.413092529296875,-0.992950439453125,-0.191162109375,0.086700439453125
1772641328515137800,0.4231376953125,-0.99664306640625,-0.1945953369140625,0.0933837890625
1772641328525182700,0.4331826171875,-0.996429443359375,-0.194183349609375,0.094757080078125
1772641328535228700,0.443228759765625,-0.997802734375,-0.189056396484375,0.0949249267578125
1772641328545273600,0.453273681640625,-1.0032958984375,-0.180450439453125,0.0941162109375
1772641328555318500,0.463318603515625,-1.006683349609375,-0.1675567626953125,0.0950469970703125
1772641328565364500,0.473364501953125,-1.013671875,-0.155242919921875,0.0978240966796875
1772641328575409700,0.48340966796875,-1.0253143310546875,-0.1436614990234375,0.1052398681640625
1772641328585454600,0.49345458984375,-1.0382232666015625,-0.1248321533203125,0.111419677734375
1772641328595499800,0.503499755859375,-1.0423126220703125,-0.1142578125,0.11566162109375
1772641328605545700,0.513545654296875,-1.055450439453125,-0.1030731201171875,0.114044189453125
1772641328615590700,0.523590576171875,-1.05499267578125,-0.0881500244140625,0.111297607421875
1772641328625635600,0.533635498046875,-1.076141357421875,-0.0808868408203125,0.11102294921875
1772641328635681500,0.543681640625,-1.0792388916015625,-0.0805206298828125,0.1145172119140625
1772641328645726700,0.553726806640625,-1.0753936767578125,-0.0886688232421875,0.1100921630859375
1772641328655771600,0.563771728515625,-1.0648651123046875,-0.1036224365234375,0.0994110107421875
1772641328665817900,0.57381787109375,-1.0526580810546875,-0.124481201171875,0.0852508544921875
1772641328675862500,0.583862548828125,-1.0526885986328125,-0.136322021484375,0.0657806396484375
1772641328685907700,0.59390771484375,-1.060333251953125,-0.1405181884765625,0.04541015625
1772641328695952600,0.60395263671875,-1.0645751953125,-0.1329345703125,0.015533447265625
1772641328705998600,0.61399853515625,-1.066986083984375,-0.1106414794921875,-0.015655517578125
1772641328716043800,0.624043701171875,-1.0727996826171875,-0.0909423828125,-0.0399322509765625
1772641328726088700,0.634088623046875,-1.0875701904296875,-0.0691680908203125,-0.04998779296875
1772641328736134700,0.644134765625,-1.1015472412109375,-0.042633056640625,-0.0462646484375
1772641328746179600,0.6541796875,-1.114501953125,-0.0144500732421875,-0.0322265625
1772641328756224500,0.664224609375,-1.1226959228515625,0.0142669677734375,-0.0189971923828125
1772641328766269700,0.674269775390625,-1.1339569091796875,0.0345916748046875,-0.009185791015625
1772641328776315400,0.6843154296875,-1.1457672119140625,0.0445556640625,-0.005401611328125
1772641328786360600,0.694360595703125,-1.1458892822265625,0.045196533203125,-0.009979248046875
1772641328796405200,0.7044052734375,-1.128814697265625,0.042327880859375,-0.0189208984375
1772641328806451200,0.714451171875,-1.091644287109375,0.0380096435546875,-0.0294189453125
1772641328816496400,0.724496337890625,-1.061370849609375,0.02587890625,-0.025482177734375
1772641328826541300,0.734541259765625,-1.0205535888671875,0.013397216796875,-0.0166015625
1772641328836586500,0.74458642578125,-0.9793548583984375,0.0087890625,-0.0113983154296875
1772641328846632400,0.754632568359375,-0.9360198974609375,0.00146484375,-0.007781982421875
1772641328856677400,0.764677490234375,-0.899688720703125,-0.0052947998046875,-0.003204345703125
1772641328866722300,0.774722412109375,-0.8654327392578125,-0.0080413818359375,-0.0047149658203125
1772641328876768300,0.784768310546875,-0.841522216796875,-0.0086517333984375,-0.015289306640625
1772641328886813400,0.7948134765625,-0.8331451416015625,-0.0124359130859375,-0.0279388427734375
1772641328896858400,0.8048583984375,-0.836639404296875,-0.019500732421875,-0.04388427734375
1772641328906904600,0.814904541015625,-0.8483123779296875,-0.0286712646484375,-0.0636749267578125
1772641328916949500,0.824949462890625,-0.8501129150390625,-0.039794921875,-0.077484130859375
1772641328926994400,0.834994384765625,-0.84619140625,-0.0511932373046875,-0.087188720703125
1772641328937039400,0.845039306640625,-0.8316650390625,-0.0621490478515625,-0.096588134765625
1772641328947085300,0.855085205078125,-0.816375732421875,-0.0780181884765625,-0.1025238037109375
1772641328957130500,0.865130615234375,-0.8131103515625,-0.089019775390625,-0.1060638427734375
1772641328967175400,0.875175537109375,-0.82489013671875,-0.090087890625,-0.1078338623046875
1772641328977221400,0.885221435546875,-0.8505706787109375,-0.0878143310546875,-0.10308837890625
1772641328987266300,0.895266357421875,-0.896331787109375,-0.0787506103515625,-0.086669921875
1772641328997311200,0.905311279296875,-0.9359130859375,-0.068695068359375,-0.06573486328125
1772641329007356400,0.9153564453125,-0.9618377685546875,-0.0655059814453125,-0.041015625
1772641329017402400,0.92540234375,-0.9827117919921875,-0.0453338623046875,-0.0399627685546875
1772641329027447600,0.935447509765625,-0.989349365234375,-0.039306640625,-0.038818359375
1772641329037492500,0.945492431640625,-0.987579345703125,-0.0452880859375,-0.029022216796875
1772641329047538400,0.955538330078125,-0.9801177978515625,-0.042388916015625,-0.0326385498046875
1772641329057583400,0.965583251953125,-0.9688873291015625,-0.0568695068359375,-0.0254974365234375
1772641329067628300,0.975628173828125,-0.9606475830078125,-0.069244384765625,-0.0223388671875
1772641329077673500,0.985673583984375,-0.957916259765625,-0.0748443603515625,-0.026397705078125
1772641329087719400,0.995719482421875,-0.9592742919921875,-0.082489013671875,-0.0262298583984375
1772641329097764600,1.0057646484375,-0.957000732421875,-0.090972900390625,-0.0211639404296875
1772641329107809300,1.015809326171875,-0.95062255859375,-0.0973052978515625,-0.018035888671875
1772641329117855200,1.025855224609375,-0.9469451904296875,-0.0989227294921875,-0.01800537109375
1772641329127900400,1.035900390625,-0.942352294921875,-0.10076904296875,-0.0235137939453125
1772641329137945300,1.0459453125,-0.9427947998046875,-0.0997772216796875,-0.0290374755859375
1772641329147990500,1.055990478515625,-0.944427490234375,-0.0976104736328125,-0.03240966796875
1772641329158036500,1.066036376953125,-0.9499359130859375,-0.0941162109375,-0.0337066650390625
1772641329168081400,1.076081298828125,-0.9591522216796875,-0.0889434814453125,-0.031890869140625
1772641329178126300,1.086126220703125,-0.9720306396484375,-0.0803375244140625,-0.02789306640625
1772641329188172300,1.09617236328125,-0.979583740234375,-0.0736083984375,-0.0227508544921875
1772641329198217500,1.106217529296875,-0.9907684326171875,-0.0715179443359375,-0.0184173583984375
1772641329208262400,1.116262451171875,-1.0050811767578125,-0.065093994140625,-0.0116119384765625
1772641329218308400,1.126308349609375,-0.9907379150390625,-0.0540008544921875,0.00164794921875
1772641329228353500,1.136353515625,-0.9918060302734375,-0.0471038818359375,0.01287841796875
1772641329238398200,1.146398193359375,-0.996978759765625,-0.0458526611328125,0.022216796875
1772641329248443400,1.156443359375,-1.0017547607421875,-0.0466156005859375,0.02825927734375
1772641329258489300,1.1664892578125,-1.0022125244140625,-0.045074462890625,0.0328216552734375
1772641329268534500,1.176534423828125,-0.9970550537109375,-0.0436859130859375,0.0328216552734375
1772641329278579500,1.186579345703125,-0.997314453125,-0.0393829345703125,0.0279083251953125
1772641329288625400,1.19662548828125,-1.0012664794921875,-0.038482666015625,0.0234527587890625
1772641329298670300,1.20667041015625,-1.01177978515625,-0.04119873046875,0.0234527587890625
1772641329308715300,1.21671533203125,-1.01904296875,-0.04534912109375,0.022491455078125
1772641329318760400,1.226760498046875,-1.014068603515625,-0.0536956787109375,0.020233154296875
1772641329328806400,1.236806396484375,-1.0055084228515625,-0.065155029296875,0.0164337158203125
1772641329338851300,1.246851318359375,-0.999969482421875,-0.0755462646484375,0.0062713623046875
1772641329348896500,1.256896484375,-0.995452880859375,-0.0845184326171875,-0.0012359619140625
1772641329358942500,1.2669423828125,-0.98822021484375,-0.0927734375,-0.0045166015625
1772641329368987400,1.2769873046875,-0.9847259521484375,-0.1008148193359375,-0.0050506591796875
1772641329379032300,1.2870322265625,-0.984222412109375,-0.1053314208984375,-0.0089874267578125
1772641329389077500,1.297077392578125,-0.9853057861328125,-0.1096038818359375,-0.01177978515625
1772641329399123500,1.30712353515625,-0.9898681640625,-0.11395263671875,-0.01519775390625
1772641329409168400,1.31716845703125,-0.9962005615234375,-0.116943359375,-0.0214080810546875
1772641329419213300,1.32721337890625,-1.004730224609375,-0.1161041259765625,-0.0221710205078125
1772641329429259300,1.33725927734375,-1.0073089599609375,-0.1166839599609375,-0.017333984375
1772641329439304400,1.347304443359375,-1.007537841796875,-0.117919921875,-0.00872802734375
1772641329449349400,1.357349365234375,-1.00457763671875,-0.11761474609375,-0.0021209716796875
1772641329459394600,1.36739453125,-1.00152587890625,-0.1205902099609375,0.0059356689453125
1772641329469440500,1.3774404296875,-0.99981689453125,-0.124755859375,0.0132904052734375
1772641329479485400,1.3874853515625,-0.9970855712890625,-0.126129150390625,0.0177459716796875
1772641329489530400,1.3975302734375,-0.9910125732421875,-0.12744140625,0.0243377685546875
1772641329499576300,1.407576416015625,-0.9886016845703125,-0.133331298828125,0.036041259765625
1772641329509621500,1.41762158203125,-0.9862213134765625,-0.1269683837890625,0.0568084716796875
1772641329519666400,1.42766650390625,-0.9850921630859375,-0.1190948486328125,0.0802154541015625
1772641329529712400,1.43771240234375,-0.988677978515625,-0.11456298828125,0.0933990478515625
1772641329539757600,1.447757568359375,-0.9971923828125,-0.114166259765625,0.0907440185546875
1772641329549802200,1.45780224609375,-1.009521484375,-0.1173858642578125,0.070526123046875
1772641329559847400,1.467847412109375,-1.0222930908203125,-0.0996856689453125,0.044769287109375
1772641329569893400,1.477893310546875,-1.04974365234375,-0.0789794921875,0.0308074951171875
1772641329579938300,1.487938232421875,-1.0929718017578125,-0.0587005615234375,0.013885498046875
1772641329589983500,1.4979833984375,-1.125762939453125,-0.03564453125,0.014801025390625
1772641329600029400,1.508029541015625,-1.1717071533203125,-0.012451171875,0.029144287109375
1772641329610074600,1.51807470703125,-1.20513916015625,0.0124664306640625,0.0458831787109375
1772641329620119300,1.528119384765625,-1.21856689453125,0.029296875,0.0626373291015625
1772641329630164500,1.53816455078125,-1.20159912109375,0.038848876953125,0.069061279296875
1772641329640210400,1.54821044921875,-1.171112060546875,0.0383148193359375,0.0713958740234375
1772641329650255400,1.55825537109375,-1.138824462890625,0.03057861328125,0.068450927734375
1772641329660300500,1.568300537109375,-1.114990234375,0.023956298828125,0.059173583984375
1772641329670346500,1.578346435546875,-1.095367431640625,0.0027008056640625,0.06280517578125
1772641329680391400,1.588391357421875,-1.0749053955078125,-0.0015106201171875,0.0562591552734375
1772641329690436400,1.598436279296875,-1.0498046875,-0.0009613037109375,0.0443115234375
1772641329700481500,1.6084814453125,-1.0362091064453125,-0.0066070556640625,0.0372161865234375
1772641329710527500,1.618527587890625,-1.02581787109375,-0.012786865234375,0.0330047607421875
1772641329720572400,1.628572509765625,-1.009796142578125,-0.01495361328125,0.03118896484375
1772641329730617600,1.63861767578125,-0.9875335693359375,-0.012115478515625,0.0366973876953125
1772641329740663300,1.648663330078125,-0.960906982421875,-0.013885498046875,0.046630859375
1772641329750708200,1.658708251953125,-0.9365692138671875,-0.01507568359375,0.0587310791015625
1772641329760753400,1.66875341796875,-0.914794921875,-0.0165557861328125,0.06903076171875
1772641329770798300,1.67879833984375,-0.905670166015625,-0.01800537109375,0.0802459716796875
1772641329780844500,1.688844482421875,-0.8994293212890625,-0.016143798828125,0.0897216796875
1772641329790889500,1.698889404296875,-0.892059326171875,-0.0123748779296875,0.094085693359375
1772641329800934400,1.708934326171875,-0.8873291015625,-0.0109710693359375,0.0961456298828125
1772641329810980400,1.71898046875,-0.8801727294921875,-0.012176513671875,0.1032257080078125
1772641329821025300,1.729025390625,-0.871124267578125,-0.01641845703125,0.1107330322265625
1772641329831070500,1.739070556640625,-0.8668212890625,-0.02508544921875,0.111480712890625
1772641329841115400,1.749115478515625,-0.8631744384765625,-0.03033447265625,0.1028900146484375
1772641329851161600,1.75916162109375,-0.860107421875,-0.030548095703125,0.088775634765625
1772641329861206300,1.769206298828125,-0.85980224609375,-0.0329437255859375,0.07427978515625
1772641329871251500,1.77925146484375,-0.8587188720703125,-0.0329742431640625,0.0609283447265625
1772641329881297400,1.78929736328125,-0.866485595703125,-0.0294189453125,0.049224853515625
1772641329891342300,1.79934228515625,-0.8918914794921875,-0.0217132568359375,0.0478515625
1772641329901387500,1.809387451171875,-0.9226531982421875,-0.0125732421875,0.0511016845703125
1772641329911432400,1.819432373046875,-0.95465087890625,-0.0040435791015625,0.058319091796875
1772641329921478400,1.829478515625,-0.9767303466796875,0.0030059814453125,0.0643768310546875
1772641329931523300,1.8395234375,-1.0056304931640625,0.0083465576171875,0.0712738037109375
1772641329941568300,1.849568359375,-1.0338134765625,0.00762939453125,0.0818939208984375
1772641329951614500,1.859614501953125,-1.0230255126953125,-0.000396728515625,0.0821990966796875
1772641329961659400,1.869659423828125,-1.0323028564453125,-0.0095062255859375,0.0835418701171875
1772641329971704600,1.87970458984375,-1.0015716552734375,-0.0243988037109375,0.0780181884765625
1772641329981749200,1.889749267578125,-0.9780426025390625,-0.0400238037109375,0.0719451904296875
1772641329991795200,1.899795166015625,-0.9525909423828125,-0.0551605224609375,0.0640716552734375
1772641330001840400,1.90984033203125,-0.9394683837890625,-0.0667877197265625,0.0578460693359375
1772641330011885300,1.91988525390625,-0.933868408203125,-0.0755157470703125,0.0584564208984375
1772641330021931500,1.929931640625,-0.929595947265625,-0.08184814453125,0.062744140625
1772641330031976400,1.9399765625,-0.9230804443359375,-0.08843994140625,0.0711669921875
1772641330042021600,1.950021728515625,-0.9149932861328125,-0.0950164794921875,0.074432373046875
1772641330052067600,1.960067626953125,-0.90948486328125,-0.1035003662109375,0.0733642578125
1772641330062112300,1.9701123046875,-0.9052886962890625,-0.1074371337890625,0.06298828125
1772641330072157400,1.980157470703125,-0.90740966796875,-0.107391357421875,0.05230712890625
1772641330082202400,1.990202392578125,-0.9146270751953125,-0.111846923828125,0.0471649169921875
1772641330092248300,2.000248291015625,-0.9190216064453125,-0.115020751953125,0.0496063232421875
1772641330102293500,2.01029345703125,-0.92169189453125,-0.1168365478515625,0.0549774169921875
1772641330112338400,2.02033837890625,-0.9222259521484375,-0.1174468994140625,0.0600433349609375
1772641330122384400,2.03038427734375,-0.926544189453125,-0.116241455078125,0.066436767578125
1772641330132429300,2.04042919921875,-0.9394989013671875,-0.1160430908203125,0.0672760009765625
1772641330142474500,2.050474609375,-0.965728759765625,-0.1175994873046875,0.0640869140625
1772641330152519400,2.06051953125,-0.98638916015625,-0.1187591552734375,0.054931640625
1772641330162565400,2.0705654296875,-0.9976806640625,-0.1201019287109375,0.0401458740234375
1772641330172610600,2.080610595703125,-1.00238037109375,-0.122222900390625,0.0267181396484375
1772641330182655200,2.0906552734375,-1.000946044921875,-0.1222686767578125,0.015716552734375
1772641330192701400,2.100701416015625,-1.006011962890625,-0.1182403564453125,0.0087432861328125
1772641330202746400,2.110746337890625,-1.0247344970703125,-0.1157379150390625,0.00567626953125
1772641330212791600,2.12079150390625,-1.040008544921875,-0.10980224609375,0.011322021484375
1772641330222836500,2.13083642578125,-1.0489654541015625,-0.1026153564453125,0.0239105224609375
1772641330232882400,2.14088232421875,-1.0548553466796875,-0.0966033935546875,0.0394287109375
1772641330242927400,2.15092724609375,-1.053009033203125,-0.0897979736328125,0.053192138671875
1772641330252972300,2.16097216796875,-1.0495147705078125,-0.085357666015625,0.0665435791015625
1772641330263018500,2.1710185546875,-1.0404205322265625,-0.08221435546875,0.076690673828125
1772641330273063400,2.1810634765625,-1.029815673828125,-0.079498291015625,0.0819091796875
1772641330283108400,2.1911083984375,-1.020721435546875,-0.0798797607421875,0.0876007080078125
1772641330293153300,2.2011533203125,-1.016937255859375,-0.079437255859375,0.09112548828125
1772641330303199200,2.21119921875,-1.0214691162109375,-0.07916259765625,0.095703125
1772641330313244400,2.221244384765625,-1.0285491943359375,-0.0780487060546875,0.0994873046875
1772641330323289300,2.231289306640625,-1.0402374267578125,-0.0789947509765625,0.1042327880859375
1772641330333335300,2.241335205078125,-1.05511474609375,-0.088470458984375,0.1158905029296875
1772641330343380500,2.25138037109375,-1.0571136474609375,-0.1023101806640625,0.1247100830078125
1772641330353425400,2.26142529296875,-1.0544281005859375,-0.101287841796875,0.1212158203125
1772641330363470300,2.27147021484375,-1.0601348876953125,-0.0975799560546875,0.1170196533203125
1772641330373516300,2.281516357421875,-1.0745391845703125,-0.105010986328125,0.1207733154296875
1772641330383561500,2.2915615234375,-1.0770721435546875,-0.1038970947265625,0.11669921875
1772641330393606400,2.3016064453125,-1.0800628662109375,-0.0792083740234375,0.096649169921875
1772641330403652400,2.31165234375,-1.093658447265625,-0.045989990234375,0.0808563232421875
1772641330413697500,2.321697509765625,-1.118255615234375,-0.0182342529296875,0.079742431640625
1772641330423742200,2.3317421875,-1.1438140869140625,0.009796142578125,0.077850341796875
1772641330433787400,2.341787353515625,-1.160888671875,0.038330078125,0.0784149169921875
1772641330443833300,2.351833251953125,-1.1606597900390625,0.05511474609375,0.0799407958984375
1772641330453878500,2.36187841796875,-1.1824188232421875,0.061248779296875,0.08599853515625
1772641330463923500,2.37192333984375,-1.171478271484375,0.0663909912109375,0.0853424072265625
1772641330473969400,2.381969482421875,-1.1269683837890625,0.069976806640625,0.064666748046875
1772641330484014600,2.3920146484375,-1.102447509765625,0.060882568359375,0.056488037109375
1772641330494059300,2.402059326171875,-1.07611083984375,0.0424652099609375,0.0640869140625
1772641330504104400,2.4121044921875,-1.0391693115234375,0.036041259765625,0.055145263671875
1772641330514150400,2.422150390625,-1.000946044921875,0.0232391357421875,0.0477294921875
1772641330524195300,2.4321953125,-0.9547119140625,0.003326416015625,0.0535430908203125
1772641330534240500,2.442240478515625,-0.904876708984375,-0.0106658935546875,0.0636749267578125
1772641330544286500,2.452286376953125,-0.8616180419921875,-0.01519775390625,0.0732879638671875
1772641330554331400,2.462331298828125,-0.8106842041015625,-0.0202789306640625,0.0719146728515625
1772641330564376300,2.472376220703125,-0.7854461669921875,-0.0229339599609375,0.067138671875
1772641330574421500,2.48242138671875,-0.782379150390625,-0.023681640625,0.05267333984375
1772641330584467500,2.492467529296875,-0.8055419921875,-0.0240631103515625,0.0334930419921875
1772641330594512400,2.502512451171875,-0.8343658447265625,-0.026824951171875,0.0122222900390625
1772641330604557600,2.5125576171875,-0.8535003662109375,-0.0287933349609375,-0.0009765625
1772641330614603500,2.522603515625,-0.8535919189453125,-0.0269317626953125,-0.01080322265625
1772641330624648400,2.5326484375,-0.841949462890625,-0.029022216796875,-0.01751708984375
1772641330634693400,2.542693359375,-0.8270721435546875,-0.030120849609375,-0.0264739990234375
1772641330644738600,2.552738525390625,-0.82525634765625,-0.0261993408203125,-0.0309295654296875
1772641330654784500,2.562784423828125,-0.8377838134765625,-0.0163726806640625,-0.0249481201171875
1772641330664829400,2.572829345703125,-0.8664398193359375,-0.0032196044921875,-0.0080413818359375
1772641330674874400,2.582874267578125,-0.903656005859375,0.010772705078125,0.0137176513671875
1772641330684920300,2.59292041015625,-0.9372711181640625,0.0243072509765625,0.034698486328125
1772641330694965200,2.60296533203125,-0.9753570556640625,0.037445068359375,0.04986572265625
1772641330705010400,2.613010498046875,-1.0077056884765625,0.04937744140625,0.0601806640625
1772641330715056400,2.623056396484375,-1.0360565185546875,0.057769775390625,0.0653076171875
1772641330725101600,2.6331015625,-1.05950927734375,0.06182861328125,0.064056396484375
1772641330735146500,2.643146484375,-1.0466156005859375,0.0587158203125,0.050506591796875
1772641330745191400,2.65319140625,-1.0414276123046875,0.041412353515625,0.055755615234375
1772641330755237400,2.6632373046875,-1.0297088623046875,0.0251312255859375,0.0640716552734375
1772641330765282300,2.6732822265625,-1.005401611328125,0.01519775390625,0.0544586181640625
1772641330775326700,2.68332666015625,-0.9821624755859375,-0.004974365234375,0.04827880859375
1772641330785372700,2.69337255859375,-0.948974609375,-0.0263671875,0.0482940673828125
1772641330795417900,2.70341796875,-0.928436279296875,-0.04669189453125,0.0464935302734375
1772641330805462800,2.713462890625,-0.9143218994140625,-0.060089111328125,0.0475921630859375
1772641330815508000,2.723508056640625,-0.904266357421875,-0.0707244873046875,0.049591064453125
1772641330825554000,2.733553955078125,-0.9019622802734375,-0.0775604248046875,0.0522918701171875
1772641330835598600,2.7435986328125,-0.911346435546875,-0.0789947509765625,0.0499725341796875
1772641330845643800,2.753643798828125,-0.92510986328125,-0.0762481689453125,0.046600341796875
1772641330855689700,2.763689697265625,-0.940399169921875,-0.0688018798828125,0.0457763671875
1772641330865735000,2.77373486328125,-0.958587646484375,-0.062744140625,0.0462646484375
1772641330875779800,2.78377978515625,-0.979736328125,-0.0541229248046875,0.0514068603515625
1772641330885824800,2.79382470703125,-0.9976806640625,-0.0488739013671875,0.06103515625
1772641330895870700,2.80387060546875,-1.010986328125,-0.0435333251953125,0.0696258544921875
1772641330905915600,2.81391552734375,-1.0250244140625,-0.0370941162109375,0.070892333984375
1772641330915960800,2.8239609375,-1.033111572265625,-0.034515380859375,0.073760986328125
1772641330926006800,2.8340068359375,-1.034393310546875,-0.03619384765625,0.07666015625
1772641330936052000,2.844052001953125,-1.0299072265625,-0.040924072265625,0.0781097412109375
1772641330946097000,2.854096923828125,-1.0248870849609375,-0.047637939453125,0.074432373046875
1772641330956141800,2.864141845703125,-1.0157470703125,-0.056915283203125,0.0678863525390625
1772641330966187800,2.874187744140625,-1.005096435546875,-0.0669097900390625,0.0609588623046875
1772641330976232700,2.884232666015625,-0.9947967529296875,-0.07672119140625,0.05352783203125
1772641330986278000,2.89427783203125,-0.982696533203125,-0.086456298828125,0.0499725341796875
1772641330996323800,2.90432373046875,-0.9752044677734375,-0.0910797119140625,0.0471954345703125
1772641331006368800,2.91436865234375,-0.9781646728515625,-0.092742919921875,0.0453338623046875
1772641331016413700,2.92441357421875,-0.9853973388671875,-0.0914154052734375,0.047393798828125
1772641331026458600,2.934458740234375,-0.991546630859375,-0.087249755859375,0.052276611328125
1772641331036504800,2.9445048828125,-0.99951171875,-0.08203125,0.056793212890625
1772641331046549800,2.9545498046875,-1.0057525634765625,-0.0740509033203125,0.0591278076171875
1772641331056595000,2.964594970703125,-1.0128021240234375,-0.066131591796875,0.0578155517578125
1772641331066641000,2.974640869140625,-1.0263214111328125,-0.059814453125,0.054229736328125
1772641331076685600,2.984685546875,-1.0385284423828125,-0.054290771484375,0.0496368408203125
1772641331086730800,2.994730712890625,-1.0461883544921875,-0.051361083984375,0.0458526611328125
1772641331096775700,3.004775634765625,-1.05291748046875,-0.0499420166015625,0.0451507568359375
1772641331106822000,3.01482177734375,-1.0572052001953125,-0.0510406494140625,0.049468994140625
1772641331116866800,3.02486669921875,-1.0585784912109375,-0.056488037109375,0.05755615234375
1772641331126912000,3.034912109375,-1.05810546875,-0.07135009765625,0.0705413818359375
1772641331136958000,3.0449580078125,-1.04931640625,-0.08734130859375,0.0768585205078125
1772641331147002600,3.055002685546875,-1.038665771484375,-0.091888427734375,0.0680389404296875
1772641331157047800,3.0650478515625,-1.0357818603515625,-0.093048095703125,0.0606842041015625
1772641331167092700,3.0750927734375,-1.04388427734375,-0.0963592529296875,0.0601959228515625
1772641331177138700,3.085138671875,-1.0568084716796875,-0.09503173828125,0.0630645751953125
1772641331187183900,3.095183837890625,-1.0691070556640625,-0.078125,0.0625
1772641331197228500,3.105228515625,-1.0804595947265625,-0.049530029296875,0.061279296875
1772641331207274800,3.115274658203125,-1.1001739501953125,-0.026885986328125,0.0623016357421875
1772641331217319700,3.125319580078125,-1.1234893798828125,-0.0048065185546875,0.06475830078125
1772641331227364900,3.13536474609375,-1.1393890380859375,0.02130126953125,0.0667266845703125
1772641331237409800,3.145409912109375,-1.146209716796875,0.045562744140625,0.0710906982421875
1772641331247455700,3.155455810546875,-1.140716552734375,0.066253662109375,0.08270263671875
1772641331257501000,3.1655009765625,-1.1284027099609375,0.0815887451171875,0.0956268310546875
1772641331267545600,3.175545654296875,-1.1248931884765625,0.0901336669921875,0.1121978759765625
1772641331277591800,3.185591796875,-1.12457275390625,0.0902099609375,0.130462646484375
1772641331287636700,3.19563671875,-1.114990234375,0.0833282470703125,0.1434173583984375
1772641331297682000,3.205681884765625,-1.09320068359375,0.0792083740234375,0.1440277099609375
1772641331307726800,3.215726806640625,-1.0712127685546875,0.073638916015625,0.1388397216796875
1772641331317772800,3.225772705078125,-1.0516204833984375,0.0616455078125,0.13177490234375
1772641331327817700,3.235817626953125,-1.0264129638671875,0.047821044921875,0.1254119873046875
1772641331337862700,3.245862548828125,-0.9962005615234375,0.0334625244140625,0.12066650390625
1772641331347908600,3.25590869140625,-0.95977783203125,0.0220947265625,0.1167144775390625
1772641331357953800,3.265953857421875,-0.9218597412109375,0.00775146484375,0.1097412109375
1772641331367998700,3.275998779296875,-0.89373779296875,-0.007354736328125,0.103851318359375
1772641331378044000,3.2860439453125,-0.8736724853515625,-0.0225830078125,0.0992889404296875
1772641331388089900,3.29608984375,-0.850341796875,-0.038604736328125,0.09637451171875
1772641331398134800,3.306134765625,-0.8278961181640625,-0.04742431640625,0.09320068359375
1772641331408179700,3.3161796875,-0.811737060546875,-0.05584716796875,0.08984375
1772641331418225700,3.3262255859375,-0.806610107421875,-0.06170654296875,0.0865631103515625
1772641331428270800,3.336270751953125,-0.815216064453125,-0.06707763671875,0.0818634033203125
1772641331438315800,3.346315673828125,-0.832794189453125,-0.0682830810546875,0.0770111083984375
1772641331448360700,3.356360595703125,-0.846832275390625,-0.0713348388671875,0.0723114013671875
1772641331458406700,3.36640673828125,-0.8532257080078125,-0.077728271484375,0.0662384033203125
1772641331468451800,3.376451904296875,-0.845947265625,-0.0820465087890625,0.0624542236328125
1772641331478496800,3.386496826171875,-0.8291473388671875,-0.079986572265625,0.0636444091796875
1772641331488542700,3.396542724609375,-0.8259124755859375,-0.07110595703125,0.0701446533203125
1772641331498588000,3.406587890625,-0.8312835693359375,-0.0579833984375,0.0794525146484375
1772641331508632800,3.4166328125,-0.845245361328125,-0.0410614013671875,0.0877838134765625
1772641331518677800,3.426677734375,-0.868255615234375,-0.0226593017578125,0.095794677734375
1772641331528723700,3.4367236328125,-0.891143798828125,-0.0097198486328125,0.1087493896484375
1772641331538769000,3.446768798828125,-0.913330078125,-0.0015869140625,0.1195068359375
1772641331548813800,3.456813720703125,-0.92230224609375,0.0031280517578125,0.1201019287109375
1772641331558859800,3.46685986328125,-0.9513702392578125,0.0031585693359375,0.120513916015625
1772641331568905000,3.476905029296875,-0.959075927734375,0.0005645751953125,0.114837646484375
1772641331578949600,3.48694970703125,-0.96478271484375,-0.00738525390625,0.1014404296875
1772641331588994800,3.496994873046875,-0.9872894287109375,-0.0212860107421875,0.0867919921875
1772641331599040800,3.507040771484375,-0.990570068359375,-0.0368499755859375,0.07220458984375
1772641331609085700,3.517085693359375,-0.999542236328125,-0.05322265625,0.0579071044921875
1772641331619131000,3.527130859375,-0.9948272705078125,-0.0724945068359375,0.0460357666015625
1772641331629176800,3.5371767578125,-0.9842071533203125,-0.08795166015625,0.0365753173828125
1772641331639221800,3.5472216796875,-0.9738616943359375,-0.100830078125,0.0265350341796875
1772641331649266700,3.5572666015625,-0.9663848876953125,-0.1139068603515625,0.0208892822265625
1772641331659311900,3.567311767578125,-0.9588623046875,-0.128814697265625,0.0205841064453125
1772641331669357800,3.57735791015625,-0.9550933837890625,-0.1403961181640625,0.0207366943359375
1772641331679402800,3.58740283203125,-0.9524688720703125,-0.14703369140625,0.021331787109375
1772641331689448000,3.597447998046875,-0.9544677734375,-0.1521453857421875,0.0170745849609375
1772641331699494000,3.607493896484375,-0.9676513671875,-0.149566650390625,0.01275634765625
1772641331709538800,3.617538818359375,-0.9885406494140625,-0.1423187255859375,0.0102691650390625
1772641331719583700,3.627583740234375,-1.0076446533203125,-0.1328887939453125,0.013427734375
1772641331729629700,3.637629638671875,-1.0255279541015625,-0.1234588623046875,0.02178955078125
1772641331739675000,3.6476748046875,-1.042724609375,-0.116455078125,0.031036376953125
1772641331749719800,3.6577197265625,-1.0614166259765625,-0.10955810546875,0.0373382568359375
1772641331759764700,3.6677646484375,-1.072845458984375,-0.1018829345703125,0.0411376953125
1772641331769810700,3.677810791015625,-1.0752105712890625,-0.097015380859375,0.0427398681640625
1772641331779856600,3.687856689453125,-1.0738677978515625,-0.0939788818359375,0.0426177978515625
1772641331789901800,3.69790185546875,-1.06890869140625,-0.0944976806640625,0.0410308837890625
1772641331799947800,3.70794775390625,-1.06536865234375,-0.095916748046875,0.0423583984375
1772641331809992400,3.717992431640625,-1.0626220703125,-0.0998077392578125,0.0472412109375
1772641331820037600,3.72803759765625,-1.0514373779296875,-0.1046600341796875,0.0496368408203125
1772641331830082600,3.73808251953125,-1.0376129150390625,-0.10784912109375,0.0506439208984375
1772641331840128800,3.748128662109375,-1.0190887451171875,-0.107177734375,0.0519561767578125
1772641331850173700,3.758173583984375,-1.0001220703125,-0.10784912109375,0.0579376220703125
1772641331860219000,3.768218994140625,-0.9810943603515625,-0.1134033203125,0.063323974609375
1772641331870264800,3.778264892578125,-0.95849609375,-0.117889404296875,0.06396484375
1772641331880309500,3.7883095703125,-0.9422149658203125,-0.11956787109375,0.06170654296875
1772641331890354700,3.798354736328125,-0.939056396484375,-0.11798095703125,0.058197021484375
1772641331900399600,3.808399658203125,-0.939910888671875,-0.1155853271484375,0.058990478515625
1772641331910445600,3.818445556640625,-0.947418212890625,-0.112396240234375,0.05926513671875
1772641331920490800,3.82849072265625,-0.9622344970703125,-0.1073760986328125,0.0554656982421875
1772641331930535700,3.83853564453125,-0.984619140625,-0.1009979248046875,0.053375244140625
1772641331940581600,3.84858154296875,-1.00750732421875,-0.09765625,0.0560302734375
1772641331950626600,3.85862646484375,-1.027923583984375,-0.1015472412109375,0.05999755859375
1772641331960671700,3.868671630859375,-1.0448455810546875,-0.1104888916015625,0.0642547607421875
1772641331970716700,3.878716552734375,-1.0570831298828125,-0.111175537109375,0.0607147216796875
1772641331980762600,3.8887626953125,-1.0666351318359375,-0.1007080078125,0.0540008544921875
1772641331990807800,3.898807861328125,-1.0841217041015625,-0.096435546875,0.060211181640625
1772641332000852500,3.9088525390625,-1.0987548828125,-0.1034088134765625,0.073974609375
1772641332010898700,3.918898681640625,-1.100128173828125,-0.0984649658203125,0.0764923095703125
1772641332020943600,3.928943603515625,-1.0914459228515625,-0.08001708984375,0.0660400390625
1772641332030988800,3.93898876953125,-1.0850677490234375,-0.0650634765625,0.0559844970703125
1772641332041033700,3.94903369140625,-1.0830078125,-0.063385009765625,0.0513458251953125
1772641332051079700,3.95907958984375,-1.076263427734375,-0.0605010986328125,0.0482635498046875
1772641332061124600,3.96912451171875,-1.0659637451171875,-0.0560760498046875,0.046539306640625
1772641332071169500,3.97916943359375,-1.0578460693359375,-0.055999755859375,0.0472412109375
1772641332081215700,3.9892158203125,-1.04290771484375,-0.0566253662109375,0.0472259521484375
1772641332091260700,3.9992607421875,-1.0252838134765625,-0.0582733154296875,0.0449981689453125
1772641332101305600,4.0093056640625,-1.02178955078125,-0.0552825927734375,0.0352783203125
1772641332111350500,4.0193505859375,-1.0351715087890625,-0.0487060546875,0.0200958251953125
1772641332121396500,4.029396484375,-1.0536956787109375,-0.042144775390625,0.0143890380859375
1772641332131441700,4.039441650390625,-1.0540008544921875,-0.0377960205078125,0.0150604248046875
1772641332141486600,4.049486572265625,-1.0355987548828125,-0.0265960693359375,0.021331787109375
1772641332151532500,4.059532470703125,-1.0082550048828125,-0.013458251953125,0.030517578125
1772641332161577700,4.06957763671875,-0.986724853515625,-0.001434326171875,0.040985107421875
1772641332171622700,4.07962255859375,-0.96923828125,0.011932373046875,0.0508575439453125
1772641332181668900,4.0896689453125,-0.9542694091796875,0.019927978515625,0.0576324462890625
1772641332191713500,4.099713623046875,-0.945648193359375,0.0234375,0.0602874755859375
1772641332201758700,4.1097587890625,-0.938629150390625,0.0280914306640625,0.0594024658203125
1772641332211803600,4.1198037109375,-0.929168701171875,0.03118896484375,0.058746337890625
1772641332221849600,4.129849609375,-0.9187774658203125,0.02972412109375,0.05975341796875
1772641332231894800,4.139894775390625,-0.90277099609375,0.023773193359375,0.057220458984375
1772641332241939500,4.149939453125,-0.88348388671875,0.0131683349609375,0.0449981689453125
1772641332251984600,4.159984619140625,-0.8703155517578125,0.0001220703125,0.0279998779296875
1772641332262030600,4.170030517578125,-0.8567047119140625,-0.0121307373046875,0.01007080078125
1772641332272075800,4.18007568359375,-0.8441925048828125,-0.0207061767578125,-0.0061187744140625
1772641332282120700,4.19012060546875,-0.844635009765625,-0.02911376953125,-0.0189361572265625
1772641332292166700,4.200166748046875,-0.857208251953125,-0.033905029296875,-0.027374267578125
1772641332302211800,4.2102119140625,-0.876556396484375,-0.0350494384765625,-0.0309906005859375
1772641332312256500,4.220256591796875,-0.9066619873046875,-0.02825927734375,-0.03515625
1772641332322302500,4.230302490234375,-0.9419097900390625,-0.0132598876953125,-0.0390777587890625
1772641332332347600,4.24034765625,-0.9781951904296875,0.002838134765625,-0.0346832275390625
1772641332342392600,4.250392578125,-1.00946044921875,0.0144195556640625,-0.02447509765625
1772641332352437800,4.260437744140625,-1.0371856689453125,0.0182342529296875,-0.0139312744140625
1772641332362483700,4.270483642578125,-1.0599822998046875,0.01904296875,-0.0061492919921875
1772641332372528600,4.280528564453125,-1.071533203125,0.017974853515625,-0.00323486328125
1772641332382573600,4.290573486328125,-1.0726165771484375,0.01104736328125,0.000885009765625
1772641332392619500,4.30061962890625,-1.065399169921875,0.0016021728515625,0.0063629150390625
1772641332402664700,4.310664794921875,-1.0509796142578125,-0.0079498291015625,0.0120391845703125
1772641332412709600,4.320709716796875,-1.0363922119140625,-0.01788330078125,0.0151824951171875
1772641332422754800,4.3307548828125,-1.018524169921875,-0.0259552001953125,0.0207366943359375
1772641332432800800,4.34080078125,-1.001495361328125,-0.037322998046875,0.0287322998046875
1772641332442845700,4.350845703125,-0.979705810546875,-0.0462188720703125,0.035491943359375
1772641332452890600,4.360890625,-0.9573974609375,-0.0537261962890625,0.03875732421875
1772641332462936600,4.3709365234375,-0.9312591552734375,-0.0630035400390625,0.0365142822265625
1772641332472981800,4.380981689453125,-0.91680908203125,-0.0731201171875,0.031463623046875
1772641332483026700,4.391026611328125,-0.90765380859375,-0.080108642578125,0.024383544921875
1772641332493071600,4.401071533203125,-0.9047393798828125,-0.0853271484375,0.01885986328125
1772641332503117600,4.41111767578125,-0.9072418212890625,-0.0861358642578125,0.0143890380859375
1772641332513162500,4.42116259765625,-0.9195404052734375,-0.083770751953125,0.015869140625
1772641332523207700,4.431207763671875,-0.9290771484375,-0.0789794921875,0.02239990234375
1772641332533253600,4.441253662109375,-0.9412384033203125,-0.0766448974609375,0.0317840576171875
1772641332543298800,4.451298828125,-0.9456634521484375,-0.07659912109375,0.039276123046875
1772641332553343700,4.46134375,-0.9464874267578125,-0.0782012939453125,0.0406494140625
1772641332563388700,4.471388671875,-0.953643798828125,-0.0819854736328125,0.040283203125
1772641332573434600,4.4814345703125,-0.9651336669921875,-0.0868377685546875,0.0376434326171875
1772641332583479600,4.4914794921875,-0.9756927490234375,-0.0892333984375,0.035064697265625
1772641332593524700,4.501524658203125,-0.9857635498046875,-0.0917510986328125,0.031646728515625
1772641332603570700,4.51157080078125,-0.9952239990234375,-0.0926666259765625,0.0302276611328125
1772641332613615900,4.521615966796875,-1.0048980712890625,-0.094085693359375,0.0299224853515625
1772641332623660500,4.53166064453125,-1.009033203125,-0.0959930419921875,0.0303192138671875
1772641332633705700,4.541705810546875,-1.01611328125,-0.099151611328125,0.030609130859375
1772641332643751700,4.551751708984375,-1.021697998046875,-0.1017608642578125,0.0304107666015625
1772641332653796600,4.561796630859375,-1.024444580078125,-0.10687255859375,0.0352935791015625
1772641332663841800,4.571841796875,-1.02008056640625,-0.1115264892578125,0.0423736572265625
1772641332673887700,4.5818876953125,-1.006011962890625,-0.11419677734375,0.0454254150390625
1772641332683932400,4.591932373046875,-0.9888916015625,-0.118194580078125,0.04815673828125
1772641332693977600,4.6019775390625,-0.975982666015625,-0.12109375,0.0497894287109375
1772641332704022500,4.6120224609375,-0.9738006591796875,-0.1260986328125,0.0501861572265625
1772641332714068700,4.62206884765625,-0.977325439453125,-0.1314239501953125,0.0545196533203125
1772641332724113700,4.63211376953125,-0.9754638671875,-0.1318359375,0.058929443359375
1772641332734158800,4.642158935546875,-0.974700927734375,-0.129241943359375,0.06341552734375
1772641332744204800,4.652204833984375,-0.982269287109375,-0.123809814453125,0.0670928955078125
1772641332754249500,4.66224951171875,-0.9946136474609375,-0.1150665283203125,0.070343017578125
1772641332764294700,4.672294677734375,-1.01422119140625,-0.1026611328125,0.075103759765625
1772641332774339300,4.68233935546875,-1.0377197265625,-0.0911712646484375,0.080291748046875
1772641332784385300,4.69238525390625,-1.05926513671875,-0.0833282470703125,0.0884857177734375
1772641332794430200,4.70243017578125,-1.0706787109375,-0.0812225341796875,0.1004791259765625
1772641332804475400,4.712475341796875,-1.06170654296875,-0.0823822021484375,0.1083526611328125
1772641332814521300,4.722521240234375,-1.0463714599609375,-0.08245849609375,0.1009674072265625
1772641332824566300,4.732566162109375,-1.039581298828125,-0.0813446044921875,0.086883544921875
1772641332834611500,4.742611572265625,-1.034454345703125,-0.0851593017578125,0.067718505859375
1772641332844656000,4.75265625,-1.031463623046875,-0.0867767333984375,0.050537109375
1772641332854702300,4.762702392578125,-1.0311737060546875,-0.0814971923828125,0.037445068359375
1772641332864747300,4.772747314453125,-1.039764404296875,-0.0708160400390625,0.030975341796875
1772641332874792400,4.78279248046875,-1.050750732421875,-0.06121826171875,0.025726318359375
1772641332884838400,4.79283837890625,-1.0648193359375,-0.0501251220703125,0.0246429443359375
1772641332894883300,4.80288330078125,-1.076141357421875,-0.0402069091796875,0.02294921875
1772641332904928300,4.81292822265625,-1.0830230712890625,-0.035003662109375,0.01971435546875
1772641332914974200,4.82297412109375,-1.0803070068359375,-0.0319061279296875,0.019775390625
1772641332925019400,4.833019287109375,-1.0743408203125,-0.028717041015625,0.0167694091796875
1772641332935064300,4.843064208984375,-1.061248779296875,-0.02777099609375,0.012664794921875
1772641332945109200,4.853109130859375,-1.046234130859375,-0.030303955078125,0.0103912353515625
1772641332955155500,4.863155517578125,-1.030792236328125,-0.03179931640625,0.00653076171875
1772641332965200400,4.873200439453125,-1.0145263671875,-0.0314178466796875,0.0057525634765625
1772641332975245300,4.883245361328125,-1.0003509521484375,-0.031524658203125,0.0106964111328125
1772641332985291300,4.893291259765625,-0.9911041259765625,-0.027801513671875,0.01580810546875
1772641332995336200,4.903336181640625,-0.9871673583984375,-0.0223388671875,0.020050048828125
1772641333005381400,4.91338134765625,-0.9821319580078125,-0.0172576904296875,0.0221405029296875
1772641333015426300,4.92342626953125,-0.9763336181640625,-0.0143280029296875,0.023406982421875
1772641333025472500,4.933472412109375,-0.9716949462890625,-0.0123748779296875,0.0194091796875
1772641333035517200,4.94351708984375,-0.96429443359375,-0.0147705078125,0.01531982421875
1772641333045562400,4.953562255859375,-0.9523162841796875,-0.022308349609375,0.0178375244140625
1772641333055608300,4.9636083984375,-0.935791015625,-0.0318450927734375,0.0228729248046875
1772641333065653200,4.9736533203125,-0.9156951904296875,-0.0387420654296875,0.027191162109375
1772641333075698400,4.983698486328125,-0.9012908935546875,-0.0412139892578125,0.0310516357421875
1772641333085743400,4.993743408203125,-0.8878631591796875,-0.0419769287109375,0.0345001220703125
1772641333095789300,5.003789306640625,-0.8780364990234375,-0.0426483154296875,0.04132080078125
1772641333105834200,5.013834228515625,-0.8768463134765625,-0.0417938232421875,0.0487060546875
1772641333115879400,5.02387939453125,-0.8773040771484375,-0.039825439453125,0.056976318359375
1772641333125925400,5.03392529296875,-0.874755859375,-0.0373382568359375,0.0664215087890625
1772641333135970300,5.04397021484375,-0.8775634765625,-0.0341033935546875,0.0739898681640625
1772641333146015500,5.054015380859375,-0.873748779296875,-0.0298614501953125,0.077606201171875
1772641333156060200,5.06406005859375,-0.8765716552734375,-0.0234527587890625,0.0838623046875
1772641333166106000,5.074106201171875,-0.8813629150390625,-0.0163116455078125,0.09039306640625
1772641333176151300,5.0841513671875,-0.887054443359375,-0.0095672607421875,0.095855712890625
1772641333186196200,5.0941962890625,-0.901275634765625,-0.0069427490234375,0.096588134765625
1772641333196242400,5.104242431640625,-0.9210968017578125,-0.005462646484375,0.0944671630859375
1772641333206287400,5.114287353515625,-0.93939208984375,0.000274658203125,0.090240478515625
1772641333216332500,5.12433251953125,-0.961151123046875,0.0028076171875,0.0845794677734375
1772641333226377200,5.134377197265625,-0.9924468994140625,0.002349853515625,0.0816650390625
1772641333236423200,5.144423095703125,-1.0187835693359375,-0.0012664794921875,0.0794677734375
1772641333246468400,5.15446826171875,-1.0325164794921875,-0.0070953369140625,0.080718994140625
1772641333256513300,5.16451318359375,-1.0359344482421875,-0.01422119140625,0.078765869140625
1772641333266559500,5.1745595703125,-1.02996826171875,-0.0249481201171875,0.0732269287109375
1772641333276604400,5.1846044921875,-1.0197601318359375,-0.0356597900390625,0.0641021728515625
1772641333286649300,5.1946494140625,-1.0122833251953125,-0.04901123046875,0.0583038330078125
1772641333296694300,5.2046943359375,-1.006622314453125,-0.0612945556640625,0.0507659912109375
1772641333306740200,5.214740234375,-1.0025482177734375,-0.07049560546875,0.0474395751953125
1772641333316785400,5.224785400390625,-1.0001983642578125,-0.0756072998046875,0.0462646484375
1772641333326830300,5.234830322265625,-0.99468994140625,-0.07708740234375,0.0492706298828125
1772641333336876300,5.244876220703125,-0.9863128662109375,-0.0763397216796875,0.0550689697265625
1772641333346921200,5.254921142578125,-0.9768218994140625,-0.0748748779296875,0.0604095458984375
1772641333356966100,5.264966064453125,-0.968109130859375,-0.0733184814453125,0.06207275390625
1772641333367011300,5.27501123046875,-0.962554931640625,-0.073760986328125,0.06414794921875
1772641333377057300,5.285057373046875,-0.9609527587890625,-0.0720367431640625,0.0676422119140625
1772641333387102500,5.2951025390625,-0.965057373046875,-0.07293701171875,0.0707855224609375
1772641333397147400,5.3051474609375,-0.9727783203125,-0.0750885009765625,0.0704345703125
1772641333407193300,5.315193359375,-0.980621337890625,-0.073944091796875,0.065643310546875
1772641333417238300,5.32523828125,-0.98638916015625,-0.07342529296875,0.0641632080078125
1772641333427283200,5.335283203125,-0.99530029296875,-0.074371337890625,0.063140869140625
1772641333437328400,5.345328369140625,-1.0075531005859375,-0.0720672607421875,0.063323974609375
1772641333447374300,5.355374267578125,-1.0230712890625,-0.0728759765625,0.06787109375
1772641333457419500,5.36541943359375,-1.03363037109375,-0.0706787109375,0.071868896484375
1772641333467464200,5.375464111328125,-1.0366363525390625,-0.068817138671875,0.0703582763671875
1772641333477510100,5.38551025390625,-1.0303192138671875,-0.07366943359375,0.0738983154296875
1772641333487555300,5.395555419921875,-1.0439453125,-0.0799560546875,0.0742340087890625
1772641333497600300,5.405600341796875,-1.0420989990234375,-0.0879364013671875,0.072540283203125
1772641333507645400,5.4156455078125,-1.0374908447265625,-0.0949859619140625,0.0723724365234375
1772641333517691400,5.42569140625,-1.0222930908203125,-0.1031951904296875,0.0684814453125
1772641333527736300,5.435736328125,-1.01239013671875,-0.113189697265625,0.0635528564453125
1772641333537781200,5.44578125,-1.0014495849609375,-0.1262664794921875,0.0648651123046875
1772641333547827200,5.4558271484375,-0.9947357177734375,-0.1374969482421875,0.0675506591796875
1772641333557872400,5.465872314453125,-0.986114501953125,-0.142852783203125,0.0689849853515625
1772641333567917300,5.475917236328125,-0.9785003662109375,-0.147216796875,0.0690765380859375
1772641333577962500,5.48596240234375,-0.9694061279296875,-0.15142822265625,0.06756591796875
1772641333588008400,5.496008544921875,-0.9563751220703125,-0.1515045166015625,0.0697784423828125
1772641333598053000,5.50605322265625,-0.954864501953125,-0.150299072265625,0.06903076171875
1772641333608098300,5.516098388671875,-0.95721435546875,-0.1461029052734375,0.066986083984375
1772641333618144300,5.526144287109375,-0.9558258056640625,-0.140960693359375,0.069244384765625
1772641333628189400,5.536189453125,-0.9483184814453125,-0.13372802734375,0.07843017578125
1772641333638234400,5.546234375,-0.944091796875,-0.1247711181640625,0.087646484375
1772641333648279600,5.556279541015625,-0.9482879638671875,-0.1154632568359375,0.0953826904296875
1772641333658325500,5.566325439453125,-0.9571990966796875,-0.106475830078125,0.0988006591796875
1772641333668370200,5.5763701171875,-0.9677886962890625,-0.0990142822265625,0.0999603271484375
1772641333678415400,5.586415283203125,-0.973541259765625,-0.095245361328125,0.1001739501953125
1772641333688461300,5.59646142578125,-0.977996826171875,-0.0925445556640625,0.0976715087890625
1772641333698506200,5.60650634765625,-0.9803619384765625,-0.0914154052734375,0.091888427734375
1772641333708551400,5.616551513671875,-0.9873504638671875,-0.0923614501953125,0.0867156982421875
1772641333718596000,5.62659619140625,-0.9998321533203125,-0.098358154296875,0.080902099609375
1772641333728642300,5.636642333984375,-1.0098114013671875,-0.1118316650390625,0.083343505859375
1772641333738687200,5.646687255859375,-1.014190673828125,-0.1279449462890625,0.0828399658203125
1772641333748732400,5.656732421875,-1.0134429931640625,-0.1364288330078125,0.0745086669921875
1772641333758778400,5.6667783203125,-1.0172576904296875,-0.1488189697265625,0.071746826171875
1772641333768823300,5.6768232421875,-1.020538330078125,-0.169036865234375,0.0720977783203125
1772641333778868000,5.686867919921875,-1.018096923828125,-0.172210693359375,0.0562286376953125
1772641333788913000,5.696912841796875,-1.0107879638671875,-0.1511688232421875,0.015777587890625
1772641333798959000,5.706958984375,-1.0084686279296875,-0.1248016357421875,-0.027435302734375
1772641333809004000,5.717004150390625,-1.0228118896484375,-0.09490966796875,-0.0598907470703125
1772641333819049200,5.72704931640625,-1.0611572265625,-0.0636749267578125,-0.0817413330078125
1772641333829095200,5.73709521484375,-1.1027374267578125,-0.0315399169921875,-0.0802154541015625
1772641333839139800,5.747139892578125,-1.12677001953125,-0.0042724609375,-0.0644989013671875
1772641333849185000,5.75718505859375,-1.16351318359375,0.0219268798828125,-0.0489044189453125
1772641333859230000,5.76722998046875,-1.1801300048828125,0.0408477783203125,-0.032989501953125
1772641333869276200,5.777276123046875,-1.191009521484375,0.0531005859375,-0.02337646484375
1772641333879321000,5.787321044921875,-1.1785888671875,0.0574493408203125,-0.0171661376953125
1772641333889366000,5.797365966796875,-1.1407928466796875,0.058013916015625,-0.02117919921875
1772641333899412000,5.807411865234375,-1.12469482421875,0.045135498046875,-0.0006561279296875
1772641333909457000,5.817456787109375,-1.089141845703125,0.03497314453125,0.025482177734375
1772641333919502000,5.827502197265625,-1.037689208984375,0.03155517578125,0.0285797119140625
1772641333929547000,5.837547119140625,-0.98150634765625,0.0233917236328125,0.031463623046875
1772641333939593000,5.847593017578125,-0.9369964599609375,0.0105438232421875,0.03240966796875
1772641333949638100,5.85763818359375,-0.8899078369140625,0.001434326171875,0.02728271484375
1772641333959682800,5.867682861328125,-0.865631103515625,0.00018310546875,0.026336669921875
1772641333969729000,5.87772900390625,-0.8359832763671875,-0.003509521484375,0.019866943359375
1772641333979774000,5.88777392578125,-0.82244873046875,-0.0081329345703125,0.006378173828125
1772641333989819100,5.897819091796875,-0.8258209228515625,-0.010772705078125,-0.0101776123046875
1772641333999864000,5.907864013671875,-0.832794189453125,-0.0163421630859375,-0.030059814453125
1772641334009910000,5.917909912109375,-0.8434600830078125,-0.0210113525390625,-0.045562744140625
1772641334019955000,5.927954833984375,-0.84637451171875,-0.0259857177734375,-0.054443359375
1772641334029999900,5.937999755859375,-0.8491363525390625,-0.030914306640625,-0.05694580078125
1772641334040046000,5.948046142578125,-0.8533172607421875,-0.0329132080078125,-0.0565948486328125
1772641334050091000,5.958091064453125,-0.85888671875,-0.0262603759765625,-0.050445556640625
1772641334060136200,5.96813623046875,-0.8726806640625,-0.0106658935546875,-0.0387115478515625
1772641334070181000,5.97818115234375,-0.90264892578125,0.0038604736328125,-0.0233001708984375
1772641334080227000,5.98822705078125,-0.9428253173828125,0.0136871337890625,-0.007598876953125
1772641334090272000,5.99827197265625,-0.98626708984375,0.02130126953125,0.001922607421875
1772641334100317000,6.00831689453125,-1.0258026123046875,0.02886962890625,0.0096282958984375
1772641334110362000,6.018362060546875,-1.05609130859375,0.031158447265625,0.014312744140625
1772641334120408000,6.028407958984375,-1.06585693359375,0.0289764404296875,0.0157623291015625
1772641334130453000,6.038452880859375,-1.0644989013671875,0.0211639404296875,0.0126190185546875
1772641334140498000,6.048497802734375,-1.0590057373046875,0.010894775390625,0.0050506591796875
1772641334150544000,6.0585439453125,-1.0509796142578125,-0.00555419921875,-0.0052032470703125
1772641334160589000,6.068589111328125,-1.04296875,-0.02423095703125,-0.0213165283203125
1772641334170634000,6.078634033203125,-1.0323944091796875,-0.0408172607421875,-0.030487060546875
1772641334180679200,6.08867919921875,-1.0088958740234375,-0.0561676025390625,-0.0323333740234375
1772641334190725000,6.09872509765625,-0.98248291015625,-0.06866455078125,-0.0328369140625
1772641334200770000,6.10877001953125,-0.9621124267578125,-0.0767364501953125,-0.030517578125
1772641334210815000,6.11881494140625,-0.947845458984375,-0.0818023681640625,-0.0284881591796875
1772641334220861000,6.12886083984375,-0.9424896240234375,-0.08477783203125,-0.0275115966796875
1772641334230906000,6.138906005859375,-0.9424896240234375,-0.0857086181640625,-0.0291900634765625
1772641334240951000,6.148950927734375,-0.943328857421875,-0.08349609375,-0.0319061279296875
1772641334250997000,6.1589970703125,-0.9448394775390625,-0.0782318115234375,-0.034454345703125
1772641334261042200,6.169042236328125,-0.950592041015625,-0.0686492919921875,-0.03582763671875
1772641334271086800,6.1790869140625,-0.9621429443359375,-0.06195068359375,-0.0297393798828125
1772641334281132000,6.189132080078125,-0.9683685302734375,-0.056182861328125,-0.0154266357421875
1772641334291178000,6.199177978515625,-0.9739227294921875,-0.0519561767578125,0.00079345703125
1772641334301223000,6.209222900390625,-0.9711151123046875,-0.0487823486328125,0.010955810546875
1772641334311268000,6.21926806640625,-0.9676055908203125,-0.04376220703125,0.0142669677734375
1772641334321313000,6.22931298828125,-0.9760589599609375,-0.0385284423828125,0.017822265625
1772641334331359200,6.239359130859375,-0.9873809814453125,-0.037017822265625,0.019500732421875
1772641334341404000,6.24940380859375,-0.99847412109375,-0.0374908447265625,0.019561767578125
1772641334351449000,6.259448974609375,-1.0040130615234375,-0.0384521484375,0.0161285400390625
1772641334361495000,6.2694951171875,-1.003631591796875,-0.0436248779296875,0.0140228271484375
1772641334371540000,6.2795400390625,-1.00213623046875,-0.0540924072265625,0.012939453125
1772641334381585200,6.289585205078125,-0.9974822998046875,-0.06427001953125,0.0095062255859375
1772641334391629800,6.2996298828125,-0.9920806884765625,-0.0744171142578125,0.0081787109375
1772641334401676000,6.309676025390625,-0.9911346435546875,-0.083160400390625,0.003509521484375
1772641334411721000,6.319720947265625,-0.992584228515625,-0.089691162109375,0.00262451171875
1772641334421766100,6.32976611328125,-0.9931182861328125,-0.0940399169921875,0.0028839111328125
1772641334431812000,6.33981201171875,-0.9924774169921875,-0.0984649658203125,0.005523681640625
1772641334441857000,6.34985693359375,-0.9910125732421875,-0.102691650390625,0.008636474609375
1772641334451902000,6.35990185546875,-0.9834442138671875,-0.1048736572265625,0.0128936767578125
1772641334461947000,6.36994677734375,-0.9757080078125,-0.10662841796875,0.0141448974609375
1772641334471993000,6.3799931640625,-0.9720306396484375,-0.1074066162109375,0.0190887451171875
1772641334482038000,6.3900380859375,-0.971588134765625,-0.1090545654296875,0.023284912109375
1772641334492083200,6.400083251953125,-0.9729461669921875,-0.10955810546875,0.0268096923828125
1772641334502129200,6.410129150390625,-0.9752197265625,-0.1092987060546875,0.0280303955078125
1772641334512174000,6.420174072265625,-0.980072021484375,-0.109954833984375,0.030670166015625
1772641334522219000,6.430218994140625,-0.99114990234375,-0.1072235107421875,0.0319366455078125
1772641334532264000,6.440263916015625,-1.0010223388671875,-0.102081298828125,0.037445068359375
1772641334542310000,6.450309814453125,-1.0095062255859375,-0.0983428955078125,0.0438995361328125
1772641334552355000,6.46035498046875,-1.0131683349609375,-0.0941314697265625,0.0499267578125
1772641334562400000,6.47039990234375,-1.01513671875,-0.0941162109375,0.05133056640625
1772641334572446200,6.4804462890625,-1.0186614990234375,-0.0906829833984375,0.0500640869140625
1772641334582491000,6.490490966796875,-1.019500732421875,-0.0900421142578125,0.050079345703125
1772641334592536000,6.5005361328125,-1.022796630859375,-0.0898895263671875,0.04888916015625
1772641334602581000,6.5105810546875,-1.025299072265625,-0.09173583984375,0.0463409423828125
1772641334612627000,6.520626953125,-1.02490234375,-0.093658447265625,0.0443115234375
1772641334622672100,6.530672119140625,-1.0282440185546875,-0.102935791015625,0.050933837890625
1772641334632717000,6.540717041015625,-1.0271759033203125,-0.11627197265625,0.06201171875
1772641334642763300,6.55076318359375,-1.0199127197265625,-0.123687744140625,0.063873291015625
1772641334652808000,6.560807861328125,-1.0188446044921875,-0.1155242919921875,0.050262451171875
1772641334662853000,6.57085302734375,-1.029205322265625,-0.1129302978515625,0.0429840087890625
1772641334672898000,6.58089794921875,-1.0412750244140625,-0.124053955078125,0.047760009765625
1772641334682944000,6.590944091796875,-1.050018310546875,-0.13372802734375,0.056365966796875
1772641334692989200,6.6009892578125,-1.0577545166015625,-0.1264801025390625,0.0614471435546875
1772641334703033900,6.611033935546875,-1.0576324462890625,-0.1110076904296875,0.060821533203125
1772641334713079800,6.621079833984375,-1.0662384033203125,-0.0981597900390625,0.062591552734375
1772641334723125000,6.631125,-1.08172607421875,-0.0880889892578125,0.0603790283203125
1772641334733170000,6.641169921875,-1.0934906005859375,-0.071990966796875,0.05548095703125
1772641334743215000,6.651215087890625,-1.1050567626953125,-0.0545654296875,0.0502471923828125
1772641334753261000,6.661260986328125,-1.1180572509765625,-0.0402679443359375,0.0480804443359375
1772641334763306200,6.67130615234375,-1.123443603515625,-0.02716064453125,0.05096435546875
1772641334773351000,6.681350830078125,-1.1209564208984375,-0.0165863037109375,0.048370361328125
1772641334783396400,6.691396240234375,-1.11907958984375,-0.009918212890625,0.0396881103515625
1772641334793442300,6.7014423828125,-1.1112213134765625,-0.007293701171875,0.0316925048828125
1772641334803487200,6.7114873046875,-1.1031646728515625,-0.0076446533203125,0.0240020751953125
1772641334813532400,6.721532470703125,-1.08758544921875,-0.0110015869140625,0.01702880859375
1772641334823578400,6.731578369140625,-1.0655364990234375,-0.0164947509765625,0.0133819580078125
1772641334833623300,6.741623291015625,-1.0423431396484375,-0.021881103515625,0.0117645263671875
1772641334843668200,6.751668212890625,-1.0080108642578125,-0.0263214111328125,0.010406494140625
1772641334853713200,6.761713134765625,-0.9732513427734375,-0.030242919921875,0.012786865234375
1772641334863759400,6.77175927734375,-0.9427947998046875,-0.032684326171875,0.0153656005859375
1772641334873804300,6.78180419921875,-0.9141845703125,-0.03509521484375,0.0260772705078125
1772641334883849500,6.791849365234375,-0.8902130126953125,-0.0427398681640625,0.0413360595703125
1772641334893895400,6.8018955078125,-0.8780517578125,-0.053619384765625,0.0567626953125
1772641334903940000,6.811940185546875,-0.8434600830078125,-0.062896728515625,0.0701904296875
1772641334913985300,6.8219853515625,-0.83685302734375,-0.0641937255859375,0.081085205078125
1772641334924030200,6.8320302734375,-0.8059539794921875,-0.0673065185546875,0.0884246826171875
1772641334934076400,6.842076416015625,-0.790008544921875,-0.0737457275390625,0.0951690673828125
1772641334944121300,6.852121337890625,-0.7954254150390625,-0.076690673828125,0.0966949462890625
1772641334954166300,6.862166259765625,-0.8016357421875,-0.079620361328125,0.09429931640625
1772641334964212200,6.872212158203125,-0.810882568359375,-0.08013916015625,0.0936126708984375
1772641334974257200,6.882257080078125,-0.8138275146484375,-0.0767974853515625,0.0902557373046875
1772641334984302300,6.89230224609375,-0.8083343505859375,-0.072662353515625,0.0902099609375
1772641334994347300,6.90234716796875,-0.8102569580078125,-0.06097412109375,0.091461181640625
1772641335004393200,6.912393310546875,-0.8129119873046875,-0.0472564697265625,0.090911865234375
1772641335014438400,6.9224384765625,-0.827880859375,-0.0342254638671875,0.0877532958984375
1772641335024483300,6.9324833984375,-0.8640594482421875,-0.0209503173828125,0.080230712890625
1772641335034529300,6.942529296875,-0.9075775146484375,-0.0066070556640625,0.0790252685546875
1772641335044574200,6.95257421875,-0.9473419189453125,0.0040435791015625,0.082855224609375
1772641335054619400,6.962619384765625,-0.991973876953125,0.00482177734375,0.0868682861328125
1772641335064664300,6.972664306640625,-1.025665283203125,0.00225830078125,0.0879364013671875
1772641335074710300,6.982710205078125,-1.0453643798828125,-0.0030975341796875,0.07952880859375
1772641335084755200,6.992755126953125,-1.0501556396484375,-0.0174102783203125,0.0677947998046875
1772641335094800100,7.002800048828125,-1.0381011962890625,-0.039276123046875,0.049468994140625
1772641335104846300,7.012846435546875,-1.01678466796875,-0.0645904541015625,0.0274505615234375
1772641335114891300,7.022891357421875,-0.99951171875,-0.0881500244140625,0.01373291015625
1772641335124936400,7.0329365234375,-0.991729736328125,-0.110809326171875,0.0072174072265625
1772641335134981400,7.0429814453125,-0.984710693359375,-0.1288299560546875,0.0070648193359375
1772641335145027000,7.053027099609375,-0.973876953125,-0.141082763671875,0.01068115234375
1772641335155072300,7.063072265625,-0.9650421142578125,-0.1481781005859375,0.01544189453125
1772641335165117200,7.0731171875,-0.9578399658203125,-0.1511993408203125,0.0186309814453125
1772641335175163400,7.083163330078125,-0.9518890380859375,-0.150848388671875,0.01953125
1772641335185208300,7.093208251953125,-0.9537506103515625,-0.14935302734375,0.018463134765625
1772641335195253200,7.103253173828125,-0.9574432373046875,-0.1457977294921875,0.02227783203125
1772641335205298200,7.113298095703125,-0.96954345703125,-0.140350341796875,0.0230255126953125
1772641335215344000,7.12334423828125,-0.992889404296875,-0.1304168701171875,0.0244293212890625
1772641335225389300,7.133389404296875,-1.0131683349609375,-0.1198883056640625,0.03155517578125
1772641335235434200,7.143434326171875,-1.026458740234375,-0.109100341796875,0.0409088134765625
1772641335245479400,7.1534794921875,-1.0364532470703125,-0.0997467041015625,0.05389404296875
1772641335255525400,7.163525390625,-1.0337677001953125,-0.0908966064453125,0.0671234130859375
1772641335265570000,7.173570068359375,-1.031829833984375,-0.0871124267578125,0.07940673828125
1772641335275615200,7.183615234375,-1.0305938720703125,-0.0861358642578125,0.0885467529296875
1772641335285661200,7.1936611328125,-1.0312957763671875,-0.0889434814453125,0.0933837890625
1772641335295706400,7.203706298828125,-1.0325164794921875,-0.08984375,0.09149169921875
1772641335305751300,7.213751220703125,-1.0269927978515625,-0.0894317626953125,0.091796875
1772641335315796500,7.22379638671875,-1.0251922607421875,-0.0899810791015625,0.0911865234375
1772641335325842400,7.233842529296875,-1.0242919921875,-0.09356689453125,0.087066650390625
1772641335335887000,7.24388720703125,-1.017578125,-0.101348876953125,0.0929107666015625
1772641335345932300,7.253932373046875,-1.0103912353515625,-0.1092376708984375,0.09356689453125
1772641335355978200,7.263978271484375,-1.00616455078125,-0.118438720703125,0.0898895263671875
1772641335366023400,7.2740234375,-0.9919891357421875,-0.1251373291015625,0.0882720947265625
1772641335376068400,7.284068359375,-0.9915618896484375,-0.12884521484375,0.0841827392578125
1772641335386113300,7.29411328125,-0.9821929931640625,-0.1354827880859375,0.081024169921875
1772641335396159200,7.3041591796875,-0.9865875244140625,-0.141357421875,0.07989501953125
1772641335406204200,7.3142041015625,-0.9887237548828125,-0.141357421875,0.0729217529296875
1772641335416249300,7.324249267578125,-0.989715576171875,-0.1413116455078125,0.073211669921875
1772641335426295300,7.33429541015625,-1.0051116943359375,-0.138671875,0.070526123046875
1772641335436340200,7.34434033203125,-1.016204833984375,-0.1394195556640625,0.0677947998046875
1772641335446385400,7.354385498046875,-1.01885986328125,-0.141876220703125,0.066009521484375
1772641335456430000,7.36443017578125,-1.0136260986328125,-0.1409759521484375,0.0649261474609375
1772641335466476300,7.374476318359375,-1.0136260986328125,-0.1436614990234375,0.0656585693359375
1772641335476521200,7.384521240234375,-1.0204315185546875,-0.1601104736328125,0.069183349609375
1772641335486566400,7.39456640625,-1.0271759033203125,-0.17138671875,0.065948486328125
1772641335496612400,7.4046123046875,-1.016632080078125,-0.168060302734375,0.0569610595703125
1772641335506657300,7.4146572265625,-1.0234832763671875,-0.156951904296875,0.045135498046875
1772641335516702200,7.4247021484375,-1.044830322265625,-0.16021728515625,0.046051025390625
1772641335526747100,7.4347470703125,-1.061920166015625,-0.1754302978515625,0.0579681396484375
1772641335536793300,7.44479345703125,-1.0561065673828125,-0.174652099609375,0.0531158447265625
1772641335546838300,7.45483837890625,-1.0484619140625,-0.153717041015625,0.031982421875
1772641335556883500,7.464883544921875,-1.0570068359375,-0.12603759765625,0.0085296630859375
1772641335566929400,7.474929443359375,-1.0786895751953125,-0.104217529296875,-0.0046234130859375
1772641335576974300,7.484974365234375,-1.0992431640625,-0.0854949951171875,-0.00592041015625
1772641335587019300,7.495019287109375,-1.1043853759765625,-0.067596435546875,0.0035400390625
1772641335597064200,7.505064208984375,-1.0936279296875,-0.05902099609375,0.017303466796875
1772641335607110100,7.515110107421875,-1.0785064697265625,-0.05340576171875,0.0244293212890625
1772641335617155300,7.5251552734375,-1.071441650390625,-0.0509033203125,0.0198211669921875
1772641335627200300,7.5352001953125,-1.0684967041015625,-0.0509185791015625,0.0110626220703125
1772641335637245200,7.5452451171875,-1.0660400390625,-0.0522613525390625,0.004913330078125
1772641335647291100,7.555291015625,-1.0593109130859375,-0.0518798828125,0.0052032470703125
1772641335657336300,7.56533642578125,-1.0353851318359375,-0.047637939453125,0.0082244873046875
1772641335667381200,7.57538134765625,-1.0077362060546875,-0.046905517578125,0.0185394287109375
1772641335677427200,7.58542724609375,-0.9793853759765625,-0.043731689453125,0.024658203125
1772641335687472400,7.595472412109375,-0.9488067626953125,-0.041717529296875,0.036651611328125
1772641335697517300,7.605517333984375,-0.9303131103515625,-0.039398193359375,0.04779052734375
1772641335707562200,7.615562255859375,-0.9143524169921875,-0.0334014892578125,0.05255126953125
1772641335717608200,7.625608154296875,-0.8939666748046875,-0.0311431884765625,0.05718994140625
1772641335727653400,7.6356533203125,-0.878448486328125,-0.0360260009765625,0.0583038330078125
1772641335737698300,7.6456982421875,-0.883270263671875,-0.0440521240234375,0.05224609375
1772641335747744300,7.655744140625,-0.862823486328125,-0.054901123046875,0.0431976318359375
1772641335757789400,7.66578955078125,-0.862945556640625,-0.064300537109375,0.03369140625
1772641335767834000,7.675834228515625,-0.86895751953125,-0.0696563720703125,0.01971435546875
1772641335777879600,7.685879638671875,-0.85675048828125,-0.07745361328125,0.0054168701171875
1772641335787925500,7.695925537109375,-0.8578338623046875,-0.0863800048828125,-0.0071258544921875
1772641335797970200,7.70597021484375,-0.85870361328125,-0.09490966796875,-0.0172271728515625
1772641335808015400,7.716015380859375,-0.8712310791015625,-0.1010589599609375,-0.03033447265625
1772641335818061300,7.726061279296875,-0.8745574951171875,-0.1026153564453125,-0.0457000732421875
1772641335828106500,7.7361064453125,-0.8822784423828125,-0.1012725830078125,-0.053924560546875
1772641335838151400,7.7461513671875,-0.8982391357421875,-0.0845794677734375,-0.0539093017578125
1772641335848196600,7.756196533203125,-0.9254150390625,-0.078704833984375,-0.043701171875
1772641335858242600,7.76624267578125,-0.94488525390625,-0.0622100830078125,-0.0391693115234375
1772641335868287200,7.776287353515625,-0.9690704345703125,-0.0462646484375,-0.03265380859375
1772641335878332400,7.78633251953125,-0.993621826171875,-0.042572021484375,-0.01910400390625
1772641335888377300,7.79637744140625,-1.00732421875,-0.04620361328125,-0.011016845703125
1772641335898423600,7.806423583984375,-1.0122528076171875,-0.0483551025390625,-0.00640869140625
1772641335908468500,7.816468505859375,-1.010162353515625,-0.0564422607421875,-0.007659912109375
1772641335918513400,7.826513427734375,-1.0177154541015625,-0.067535400390625,-0.0130462646484375
1772641335928559400,7.836559326171875,-1.0216827392578125,-0.0765228271484375,-0.0171356201171875
1772641335938604300,7.846604248046875,-1.0226593017578125,-0.087493896484375,-0.017181396484375
1772641335948649500,7.8566494140625,-1.018035888671875,-0.0997772216796875,-0.01324462890625
1772641335958694400,7.8666943359375,-1.0069122314453125,-0.106658935546875,-0.006561279296875
1772641335968740400,7.876740234375,-0.9893035888671875,-0.114532470703125,-0.0023345947265625
1772641335978785500,7.88678564453125,-0.970733642578125,-0.1239013671875,0.0029144287109375
1772641335988830200,7.896830322265625,-0.9652862548828125,-0.1286163330078125,0.0064697265625
1772641335998876400,7.90687646484375,-0.957611083984375,-0.133819580078125,0.010833740234375
1772641336008921300,7.91692138671875,-0.9469451904296875,-0.1355743408203125,0.0132598876953125
1772641336018966500,7.926966552734375,-0.93804931640625,-0.13812255859375,0.0160980224609375
1772641336029011500,7.937011474609375,-0.929351806640625,-0.1397857666015625,0.0159912109375
1772641336039057400,7.947057373046875,-0.925628662109375,-0.139801025390625,0.0149688720703125
1772641336049102300,7.957102294921875,-0.9256134033203125,-0.13616943359375,0.013671875
1772641336059147300,7.967147216796875,-0.9310150146484375,-0.129364013671875,0.012908935546875
1772641336069193500,7.977193359375,-0.9403533935546875,-0.1239166259765625,0.0100250244140625
1772641336079238400,7.98723828125,-0.954803466796875,-0.1210479736328125,0.0063018798828125
1772641336089283600,7.99728369140625,-0.969696044921875,-0.117584228515625,0.00640869140625
1772641336099328500,8.00732861328125,-0.9819183349609375,-0.1122283935546875,0.00201416015625
1772641336109374500,8.01737451171875,-0.9964752197265625,-0.1107177734375,0.003082275390625
1772641336119419400,8.02741943359375,-1.007904052734375,-0.1084442138671875,0.00018310546875
1772641336129464300,8.03746435546875,-1.01287841796875,-0.113922119140625,-0.006103515625
1772641336139509500,8.047509521484375,-1.0155029296875,-0.109405517578125,-0.0101318359375
1772641336149555500,8.057555419921876,-1.01025390625,-0.1154937744140625,-0.014892578125
1772641336159600400,8.067600341796876,-1.0084991455078125,-0.12646484375,-0.020416259765625
1772641336169645300,8.077645263671876,-1.0014190673828125,-0.1343841552734375,-0.0240020751953125
1772641336179691300,8.087691162109374,-0.9964141845703125,-0.139984130859375,-0.02069091796875
1772641336189736400,8.097736328125,-0.9916229248046875,-0.1451873779296875,-0.01934814453125
1772641336199781400,8.107781494140625,-0.989959716796875,-0.1504974365234375,-0.0166473388671875
1772641336209826600,8.11782666015625,-0.9814910888671875,-0.153961181640625,-0.01190185546875
1772641336219872500,8.12787255859375,-0.9735565185546875,-0.1585235595703125,-0.0059051513671875
1772641336229917200,8.137917236328125,-0.9738922119140625,-0.16070556640625,-0.000762939453125
1772641336239962400,8.14796240234375,-0.9763946533203125,-0.162017822265625,0.0003814697265625
1772641336250008300,8.15800830078125,-0.9810791015625,-0.1653900146484375,-0.0002288818359375
1772641336260053500,8.168053466796875,-0.983001708984375,-0.163238525390625,-0.00152587890625
1772641336270098400,8.178098388671875,-0.9873504638671875,-0.15863037109375,-0.005615234375
1772641336280143600,8.1881435546875,-0.9992828369140625,-0.1546478271484375,-0.0069122314453125
1772641336290189600,8.198189453125,-1.0154876708984375,-0.148681640625,-0.010284423828125
1772641336300234200,8.208234130859376,-1.0293426513671875,-0.14501953125,-0.0140533447265625
1772641336310279400,8.218279541015624,-1.037445068359375,-0.1433258056640625,-0.014007568359375
1772641336320325400,8.228325439453124,-1.04852294921875,-0.140594482421875,-0.014923095703125
1772641336330370300,8.238370361328125,-1.0569000244140625,-0.144317626953125,0.00811767578125
1772641336340415500,8.24841552734375,-1.0481414794921875,-0.1459808349609375,0.02490234375
1772641336350460400,8.25846044921875,-1.0357208251953125,-0.1471405029296875,0.0310211181640625
1772641336360506400,8.26850634765625,-1.022491455078125,-0.14837646484375,0.0243988037109375
1772641336370551300,8.27855126953125,-1.0300140380859375,-0.1495819091796875,0.014556884765625
1772641336380596500,8.288596435546875,-1.03863525390625,-0.150543212890625,0.0078582763671875
1772641336390641400,8.298641357421875,-1.0435638427734375,-0.1438446044921875,0.0117340087890625
1772641336400687400,8.308687255859375,-1.0462493896484375,-0.1472320556640625,0.0177154541015625
1772641336410732500,8.318732666015626,-1.0426025390625,-0.1457366943359375,0.019378662109375
1772641336420777200,8.328777099609376,-1.0379791259765625,-0.1387176513671875,0.0183868408203125
1772641336430823400,8.338823486328126,-1.0413665771484375,-0.1363372802734375,0.0186767578125
1772641336440868400,8.348868408203124,-1.04290771484375,-0.13433837890625,0.0145111083984375
1772641336450913500,8.35891357421875,-1.0358734130859375,-0.1308135986328125,0.0048065185546875
1772641336460958500,8.36895849609375,-1.03228759765625,-0.129302978515625,-0.0002288818359375
1772641336471004400,8.37900439453125,-1.0328521728515625,-0.116119384765625,-0.0029144287109375
1772641336481049300,8.38904931640625,-1.0325164794921875,-0.1065673828125,-0.00372314453125
1772641336491094300,8.39909423828125,-1.022247314453125,-0.1094207763671875,-0.003387451171875
1772641336501140500,8.409140380859375,-1.033355712890625,-0.1033935546875,-0.010284423828125
1772641336511185400,8.419185302734375,-1.044342041015625,-0.0940093994140625,-0.0144500732421875
1772641336521230300,8.429230224609375,-1.056304931640625,-0.08392333984375,-0.0143280029296875
1772641336531275500,8.439275634765625,-1.0617828369140625,-0.0831756591796875,-0.01275634765625
1772641336541321500,8.449321533203126,-1.05352783203125,-0.0816192626953125,-0.011566162109375
1772641336551366400,8.459366455078126,-1.035247802734375,-0.0788726806640625,-0.009735107421875
1772641336561411300,8.469411376953126,-1.00079345703125,-0.07281494140625,-0.001007080078125
1772641336571457300,8.479457275390626,-0.978546142578125,-0.07275390625,0.013519287109375
1772641336581502500,8.48950244140625,-0.970367431640625,-0.0773162841796875,0.020294189453125
1772641336591547400,8.49954736328125,-0.9580535888671875,-0.078369140625,0.024169921875
1772641336601592300,8.50959228515625,-0.9423980712890625,-0.079559326171875,0.031646728515625
1772641336611638300,8.51963818359375,-0.9322357177734375,-0.084228515625,0.039031982421875
