time,seconds_elapsed,z,y,x
1772641328143461600,0.051461669921875,-0.036746297031641006,0.07881758362054825,-0.06773057579994202
1772641328153507600,0.061507568359375,-0.018148643895983696,0.09167665988206863,-0.07690969854593277
1772641328163552800,0.071552734375,-0.0011491540353745222,0.09561546891927719,-0.09444022178649902
1772641328173597700,0.08159765625,0.0160005372017622,0.10444678366184235,-0.11751784384250641
1772641328183643600,0.0916435546875,0.03261519968509674,0.10197722911834717,-0.1443028450012207
1772641328193688600,0.1016884765625,0.04300658777356148,0.10911530256271362,-0.15973401069641113
1772641328203733800,0.111733642578125,0.05113908275961876,0.10300014913082123,-0.16213057935237885
1772641328213778700,0.12177880859375,0.05715037137269974,0.07114901393651962,-0.15646710991859436
1772641328223824600,0.13182470703125,0.058751463890075684,0.04839256778359413,-0.1347881704568863
1772641328233869600,0.14186962890625,0.04941282421350479,0.015924105420708656,-0.11254731565713882
1772641328243914500,0.15191455078125,0.03292412683367729,-0.02977866865694523,-0.09229157865047455
1772641328253960700,0.161960693359375,0.008569253608584404,-0.07342361658811569,-0.07742368429899216
1772641328264005600,0.172005615234375,-0.023305855691432953,-0.11168072372674942,-0.0827004685997963
1772641328274050800,0.18205078125,-0.055992163717746735,-0.14253583550453186,-0.09380505234003067
1772641328284095700,0.192095703125,-0.08603768050670624,-0.14125193655490875,-0.10923168063163757
1772641328294141700,0.2021416015625,-0.11287834495306015,-0.13155163824558258,-0.1300208568572998
1772641328304186600,0.2121865234375,-0.14425571262836456,-0.09291822463274002,-0.14864087104797363
1772641328314231600,0.2222314453125,-0.1708974391222,-0.05983031168580055,-0.16355936229228973
1772641328324277800,0.23227783203125,-0.19577668607234955,-0.07311202585697174,-0.1798344850540161
1772641328334322700,0.24232275390625,-0.2174508273601532,-0.09916839748620987,-0.1953015923500061
1772641328344367600,0.25236767578125,-0.24022512137889862,-0.11822890490293503,-0.19975705444812775
1772641328354413800,0.262413818359375,-0.25989627838134766,-0.13981781899929047,-0.2054804563522339
1772641328364458500,0.27245849609375,-0.2777056396007538,-0.15087686479091644,-0.1970456838607788
1772641328374503700,0.282503662109375,-0.29439860582351685,-0.17518220841884613,-0.1943170130252838
1772641328384548600,0.292548583984375,-0.3051926791667938,-0.19018486142158508,-0.1869959831237793
1772641328394594600,0.302594482421875,-0.3108697235584259,-0.20027583837509155,-0.18053515255451202
1772641328404639700,0.3126396484375,-0.3200054466724396,-0.22275158762931824,-0.18343479931354523
1772641328414684700,0.3226845703125,-0.3298681974411011,-0.21707239747047424,-0.18694111704826355
1772641328424730600,0.332730712890625,-0.3411448001861572,-0.2101718783378601,-0.18946047127246857
1772641328434775600,0.342775634765625,-0.35170531272888184,-0.2219744771718979,-0.20040179789066315
1772641328444820700,0.35282080078125,-0.3535892367362976,-0.2132643461227417,-0.1934640109539032
1772641328454865700,0.36286572265625,-0.3440939784049988,-0.19713729619979858,-0.18097777664661407
1772641328464911600,0.37291162109375,-0.3249746263027191,-0.16094015538692474,-0.15713022649288177
1772641328474956800,0.382956787109375,-0.31289559602737427,-0.13818849623203278,-0.14059333503246307
1772641328485001500,0.39300146484375,-0.3164602220058441,-0.13268934190273285,-0.12402474135160446
1772641328495047700,0.403047607421875,-0.32831475138664246,-0.15669932961463928,-0.11124210059642792
1772641328505092600,0.413092529296875,-0.3458913564682007,-0.19075317680835724,-0.09176533669233322
1772641328515137800,0.4231376953125,-0.3595469892024994,-0.23195254802703857,-0.0688144862651825
1772641328525182700,0.4331826171875,-0.3779781758785248,-0.2817850708961487,-0.047332629561424255
1772641328535228700,0.443228759765625,-0.39921051263809204,-0.32322919368743896,-0.033011481165885925
1772641328545273600,0.453273681640625,-0.4159753620624542,-0.3602127730846405,-0.0167387668043375
1772641328555318500,0.463318603515625,-0.42743921279907227,-0.3936053514480591,-0.007799599785357714
1772641328565364500,0.473364501953125,-0.43105924129486084,-0.4249904453754425,-0.0001448759576305747
1772641328575409700,0.48340966796875,-0.41708511114120483,-0.42008063197135925,0.024107467383146286
1772641328585454600,0.49345458984375,-0.3844528794288635,-0.4188457131385803,0.0439743809401989
1772641328595499800,0.503499755859375,-0.35222408175468445,-0.38892829418182373,0.07064381241798401
1772641328605545700,0.513545654296875,-0.3142407536506653,-0.37256157398223877,0.09541094303131104
1772641328615590700,0.523590576171875,-0.2599908411502838,-0.35041606426239014,0.13968147337436676
1772641328625635600,0.533635498046875,-0.19538946449756622,-0.31731829047203064,0.20007529854774475
1772641328635681500,0.543681640625,-0.1359061747789383,-0.31800273060798645,0.2550133764743805
1772641328645726700,0.553726806640625,-0.08734822273254395,-0.3369130492210388,0.3029433488845825
1772641328655771600,0.563771728515625,-0.0726073607802391,-0.37640267610549927,0.3256465494632721
1772641328665817900,0.57381787109375,-0.08342138677835464,-0.4195253551006317,0.3205742835998535
1772641328675862500,0.583862548828125,-0.10728704184293747,-0.42139410972595215,0.28646719455718994
1772641328685907700,0.59390771484375,-0.14578169584274292,-0.3935936391353607,0.22295105457305908
1772641328695952600,0.60395263671875,-0.18423402309417725,-0.33197712898254395,0.1330621838569641
1772641328705998600,0.61399853515625,-0.22588665783405304,-0.25494253635406494,0.02425447292625904
1772641328716043800,0.624043701171875,-0.2685060203075409,-0.14140373468399048,-0.0804666131734848
1772641328726088700,0.634088623046875,-0.3009182810783386,-0.017499364912509918,-0.17191077768802643
1772641328736134700,0.644134765625,-0.30796369910240173,0.09077757596969604,-0.2331877201795578
1772641328746179600,0.6541796875,-0.2818620502948761,0.1698947697877884,-0.2596645951271057
1772641328756224500,0.664224609375,-0.2301221489906311,0.21316181123256683,-0.24263368546962738
1772641328766269700,0.674269775390625,-0.16571040451526642,0.24110741913318634,-0.18066085875034332
1772641328776315400,0.6843154296875,-0.10141397267580032,0.2661121189594269,-0.08038672059774399
1772641328786360600,0.694360595703125,-0.04887992516160011,0.2751561999320984,0.04499703645706177
1772641328796405200,0.7044052734375,-0.031130488961935043,0.27332422137260437,0.16360650956630707
1772641328806451200,0.714451171875,-0.019058113917708397,0.24399855732917786,0.29712170362472534
1772641328816496400,0.724496337890625,-0.016029300168156624,0.20302581787109375,0.4152222275733948
1772641328826541300,0.734541259765625,-0.022038722410798073,0.14644935727119446,0.5121109485626221
1772641328836586500,0.74458642578125,-0.027517911046743393,0.08510637283325195,0.582797646522522
1772641328846632400,0.754632568359375,-0.03593349829316139,0.016516925767064095,0.6214310526847839
1772641328856677400,0.764677490234375,-0.03290548548102379,-0.06303223222494125,0.6330615878105164
1772641328866722300,0.774722412109375,-0.02828490175306797,-0.15562847256660461,0.6149023175239563
1772641328876768300,0.784768310546875,-0.020351344719529152,-0.22519317269325256,0.5758710503578186
1772641328886813400,0.7948134765625,-0.00788348913192749,-0.27184510231018066,0.5250219702720642
1772641328896858400,0.8048583984375,0.002177666872739792,-0.26829829812049866,0.46534451842308044
1772641328906904600,0.814904541015625,0.007197725586593151,-0.21301773190498352,0.39610791206359863
1772641328916949500,0.824949462890625,0.01483220886439085,-0.13306590914726257,0.3098236322402954
1772641328926994400,0.834994384765625,0.0174998976290226,-0.044070787727832794,0.20054082572460175
1772641328937039400,0.845039306640625,0.014902516268193722,0.03844965249300003,0.059655606746673584
1772641328947085300,0.855085205078125,-0.00492098880931735,0.11357396841049194,-0.10933687537908554
1772641328957130500,0.865130615234375,-0.036318857222795486,0.17634813487529755,-0.2867819666862488
1772641328967175400,0.875175537109375,-0.07520873099565506,0.21280601620674133,-0.44833090901374817
1772641328977221400,0.885221435546875,-0.1074412390589714,0.2382700890302658,-0.5596196055412292
1772641328987266300,0.895266357421875,-0.1229589432477951,0.268463671207428,-0.6095203161239624
1772641328997311200,0.905311279296875,-0.11435826867818832,0.26904985308647156,-0.6064302921295166
1772641329007356400,0.9153564453125,-0.08746620267629623,0.2624167203903198,-0.5674546360969543
1772641329017402400,0.92540234375,-0.06485090404748917,0.2649637460708618,-0.5090166330337524
1772641329027447600,0.935447509765625,-0.036137763410806656,0.24618206918239594,-0.44785526394844055
1772641329037492500,0.945492431640625,-0.015049789100885391,0.23186679184436798,-0.38133084774017334
1772641329047538400,0.955538330078125,0.0017963021527975798,0.1946813315153122,-0.31985870003700256
1772641329057583400,0.965583251953125,0.011381551623344421,0.13591068983078003,-0.26629239320755005
1772641329067628300,0.975628173828125,0.013424462638795376,0.07169735431671143,-0.2213270664215088
1772641329077673500,0.985673583984375,0.007414773106575012,0.022395586594939232,-0.18073515594005585
1772641329087719400,0.995719482421875,0.004428304266184568,-0.005834186915308237,-0.1447734236717224
1772641329097764600,1.0057646484375,0.00580915343016386,-0.028932049870491028,-0.12621891498565674
1772641329107809300,1.015809326171875,0.01375442836433649,-0.04207634553313255,-0.12059272825717926
1772641329117855200,1.025855224609375,0.02395087294280529,-0.0426180325448513,-0.12909966707229614
1772641329127900400,1.035900390625,0.02833576686680317,-0.03320882096886635,-0.15230484306812286
1772641329137945300,1.0459453125,0.027303792536258698,-0.006340986583381891,-0.18964077532291412
1772641329147990500,1.055990478515625,0.02383289486169815,0.02183845266699791,-0.2305048406124115
1772641329158036500,1.066036376953125,0.015749935060739517,0.051229897886514664,-0.26676005125045776
1772641329168081400,1.076081298828125,0.007994809187948704,0.07213491201400757,-0.2900667190551758
1772641329178126300,1.086126220703125,-0.0011776498286053538,0.09366284310817719,-0.29272589087486267
1772641329188172300,1.09617236328125,-0.010953315533697605,0.08626271784305573,-0.295242041349411
1772641329198217500,1.106217529296875,-0.017002418637275696,0.12908315658569336,-0.2743109166622162
1772641329208262400,1.116262451171875,-0.020356403663754463,0.12936677038669586,-0.2562168538570404
1772641329218308400,1.126308349609375,-0.004712729714810848,0.0975814163684845,-0.2380453199148178
1772641329228353500,1.136353515625,0.019840283319354057,0.06624054163694382,-0.21709157526493073
1772641329238398200,1.146398193359375,0.047272440046072006,0.055928245186805725,-0.19978635013103485
1772641329248443400,1.156443359375,0.07706575840711594,0.05158596113324165,-0.18090081214904785
1772641329258489300,1.1664892578125,0.10333944112062454,0.03851676732301712,-0.16200168430805206
1772641329268534500,1.176534423828125,0.13053803145885468,0.020192353054881096,-0.15005314350128174
1772641329278579500,1.186579345703125,0.15144997835159302,0.005362540949136019,-0.1374523937702179
1772641329288625400,1.19662548828125,0.1754743456840515,0.0038962047547101974,-0.11291536688804626
1772641329298670300,1.20667041015625,0.20511053502559662,0.014194115996360779,-0.08503047376871109
1772641329308715300,1.21671533203125,0.23440398275852203,0.024953819811344147,-0.04964078962802887
1772641329318760400,1.226760498046875,0.25842514634132385,0.024329841136932373,-0.019042134284973145
1772641329328806400,1.236806396484375,0.2755362391471863,0.020364927127957344,0.006884803995490074
1772641329338851300,1.246851318359375,0.27797943353652954,0.022949524223804474,0.024044882506132126
1772641329348896500,1.256896484375,0.2741695046424866,0.0243130624294281,0.033001624047756195
1772641329358942500,1.2669423828125,0.2737402021884918,0.029926206916570663,0.03476889804005623
1772641329368987400,1.2769873046875,0.2753673791885376,0.04337010905146599,0.033250898122787476
1772641329379032300,1.2870322265625,0.27903351187705994,0.06133100017905235,0.029795978218317032
1772641329389077500,1.297077392578125,0.2777530550956726,0.07746203243732452,0.03293158486485481
1772641329399123500,1.30712353515625,0.2722962498664856,0.0967065691947937,0.037706367671489716
1772641329409168400,1.31716845703125,0.26380953192710876,0.1191072165966034,0.053232062608003616
1772641329419213300,1.32721337890625,0.25339871644973755,0.13718608021736145,0.07868123054504395
1772641329429259300,1.33725927734375,0.2493182122707367,0.13975895941257477,0.10931903123855591
1772641329439304400,1.347304443359375,0.2438262403011322,0.13781166076660156,0.14250148832798004
1772641329449349400,1.357349365234375,0.24470588564872742,0.13418950140476227,0.17156243324279785
1772641329459394600,1.36739453125,0.24687422811985016,0.1366254836320877,0.1966044008731842
1772641329469440500,1.3774404296875,0.2546626329421997,0.1569419503211975,0.2065257430076599
1772641329479485400,1.3874853515625,0.26324814558029175,0.19924785196781158,0.19798524677753448
1772641329489530400,1.3975302734375,0.2767586410045624,0.2608550190925598,0.1579933613538742
1772641329499576300,1.407576416015625,0.29789161682128906,0.3415461480617523,0.09762163460254669
1772641329509621500,1.41762158203125,0.33974185585975647,0.3952828645706177,0.02683774009346962
1772641329519666400,1.42766650390625,0.39543601870536804,0.4143655002117157,-0.04368969053030014
1772641329529712400,1.43771240234375,0.4499264061450958,0.39103594422340393,-0.11516813188791275
1772641329539757600,1.447757568359375,0.46351492404937744,0.357931524515152,-0.18352775275707245
1772641329549802200,1.45780224609375,0.43347978591918945,0.28781765699386597,-0.24468058347702026
1772641329559847400,1.467847412109375,0.378633052110672,0.18681542575359344,-0.3008674383163452
1772641329569893400,1.477893310546875,0.3132268786430359,0.12746022641658783,-0.334318071603775
1772641329579938300,1.487938232421875,0.2428259551525116,0.04646363854408264,-0.35647955536842346
1772641329589983500,1.4979833984375,0.18349872529506683,0.05609229579567909,-0.3289776146411896
1772641329600029400,1.508029541015625,0.16810378432273865,0.09578005224466324,-0.2656079828739166
1772641329610074600,1.51807470703125,0.1934557557106018,0.17236191034317017,-0.1719145029783249
1772641329620119300,1.528119384765625,0.2461056411266327,0.23187850415706635,-0.06888825446367264
1772641329630164500,1.53816455078125,0.2992681860923767,0.26087287068367004,0.021769477054476738
1772641329640210400,1.54821044921875,0.34384870529174805,0.257514089345932,0.09756756573915482
1772641329650255400,1.55825537109375,0.37077459692955017,0.23389984667301178,0.16376203298568726
1772641329660300500,1.568300537109375,0.3811071515083313,0.19077447056770325,0.2305421233177185
1772641329670346500,1.578346435546875,0.3779715299606323,0.13814190030097961,0.2951216697692871
1772641329680391400,1.588391357421875,0.36131611466407776,0.09088676422834396,0.3480437397956848
1772641329690436400,1.598436279296875,0.336413711309433,0.06069796904921532,0.3812117874622345
1772641329700481500,1.6084814453125,0.30344483256340027,0.07194556295871735,0.4041416049003601
1772641329710527500,1.618527587890625,0.26203614473342896,0.10351254045963287,0.4161900281906128
1772641329720572400,1.628572509765625,0.22152386605739594,0.1469460427761078,0.4247366487979889
1772641329730617600,1.63861767578125,0.17637848854064941,0.15587268769741058,0.4263867437839508
1772641329740663300,1.648663330078125,0.136732280254364,0.14055845141410828,0.4253790080547333
1772641329750708200,1.658708251953125,0.0949382334947586,0.1033325120806694,0.4165431559085846
1772641329760753400,1.66875341796875,0.05164934694766998,0.04945889487862587,0.4083009362220764
1772641329770798300,1.67879833984375,0.012748286128044128,0.005788647104054689,0.39289242029190063
1772641329780844500,1.688844482421875,-0.018501246348023415,-0.02279532700777054,0.36811569333076477
1772641329790889500,1.698889404296875,-0.04752703756093979,-0.04271044582128525,0.3362880051136017
1772641329800934400,1.708934326171875,-0.06724721193313599,-0.05859380587935448,0.2986639142036438
1772641329810980400,1.71898046875,-0.0753626674413681,-0.06745307892560959,0.2528301179409027
1772641329821025300,1.729025390625,-0.07596853375434875,-0.06432279944419861,0.18626122176647186
1772641329831070500,1.739070556640625,-0.06633108854293823,-0.025110146030783653,0.09764240682125092
1772641329841115400,1.749115478515625,-0.06277656555175781,0.03404185548424721,-0.011904596351087093
1772641329851161600,1.75916162109375,-0.07039826363325119,0.09643758833408356,-0.13100941479206085
1772641329861206300,1.769206298828125,-0.09332914650440216,0.14302586019039154,-0.24618873000144958
1772641329871251500,1.77925146484375,-0.133688285946846,0.15438371896743774,-0.3573392331600189
1772641329881297400,1.78929736328125,-0.177866131067276,0.1439254730939865,-0.44089192152023315
1772641329891342300,1.79934228515625,-0.21236498653888702,0.1279667466878891,-0.4876495599746704
1772641329901387500,1.809387451171875,-0.2318532019853592,0.10113460570573807,-0.49416792392730713
1772641329911432400,1.819432373046875,-0.23717127740383148,0.052559349685907364,-0.46220624446868896
1772641329921478400,1.829478515625,-0.2387702316045761,-0.013850301504135132,-0.4117337465286255
1772641329931523300,1.8395234375,-0.2050546109676361,-0.009808688424527645,-0.3173598647117615
1772641329941568300,1.849568359375,-0.16118435561656952,-0.066647469997406,-0.2363922894001007
1772641329951614500,1.859614501953125,-0.11280244588851929,-0.04824822396039963,-0.14642831683158875
1772641329961659400,1.869659423828125,-0.07521645724773407,-0.04923652112483978,-0.07859307527542114
1772641329971704600,1.87970458984375,-0.05185573920607567,-0.05800577998161316,-0.03790264204144478
1772641329981749200,1.889749267578125,-0.043407659977674484,-0.07809267193078995,-0.022039521485567093
1772641329991795200,1.899795166015625,-0.05109913647174835,-0.10542655736207962,-0.02527446299791336
1772641330001840400,1.90984033203125,-0.0672895610332489,-0.11910322308540344,-0.0325976237654686
1772641330011885300,1.91988525390625,-0.08238755166530609,-0.12606525421142578,-0.038903456181287766
1772641330021931500,1.929931640625,-0.08916662633419037,-0.13347123563289642,-0.044928327202796936
1772641330031976400,1.9399765625,-0.08940098434686661,-0.15534138679504395,-0.04283002018928528
1772641330042021600,1.950021728515625,-0.0843614861369133,-0.18253199756145477,-0.04797125235199928
1772641330052067600,1.960067626953125,-0.08746300637722015,-0.20928770303726196,-0.05961113050580025
1772641330062112300,1.9701123046875,-0.09932765364646912,-0.22059442102909088,-0.08436441421508789
1772641330072157400,1.980157470703125,-0.12195999175310135,-0.21106722950935364,-0.1092790886759758
1772641330082202400,1.990202392578125,-0.1499604731798172,-0.18738055229187012,-0.13545823097229004
1772641330092248300,2.000248291015625,-0.17340268194675446,-0.1666470319032669,-0.16047222912311554
1772641330102293500,2.01029345703125,-0.19410955905914307,-0.15167315304279327,-0.19083014130592346
1772641330112338400,2.02033837890625,-0.20661389827728271,-0.1585100144147873,-0.21479380130767822
1772641330122384400,2.03038427734375,-0.21066589653491974,-0.1756216287612915,-0.2357906848192215
1772641330132429300,2.04042919921875,-0.2020425796508789,-0.17862486839294434,-0.24155136942863464
1772641330142474500,2.050474609375,-0.19086875021457672,-0.16068822145462036,-0.22997167706489563
1772641330152519400,2.06051953125,-0.18827137351036072,-0.1330278217792511,-0.2138795256614685
1772641330162565400,2.0705654296875,-0.19764836132526398,-0.09923949837684631,-0.20125322043895721
1772641330172610600,2.080610595703125,-0.22309699654579163,-0.08056861162185669,-0.1926189810037613
1772641330182655200,2.0906552734375,-0.26251843571662903,-0.08618707954883575,-0.18530380725860596
1772641330192701400,2.100701416015625,-0.3113267123699188,-0.10254714637994766,-0.1682204306125641
1772641330202746400,2.110746337890625,-0.36393827199935913,-0.11452285200357437,-0.1289374828338623
1772641330212791600,2.12079150390625,-0.40995556116104126,-0.13264966011047363,-0.07469048351049423
1772641330222836500,2.13083642578125,-0.4394809603691101,-0.15160657465457916,-0.013861486688256264
1772641330232882400,2.14088232421875,-0.45539841055870056,-0.16258731484413147,0.044974930584430695
1772641330242927400,2.15092724609375,-0.4562743306159973,-0.1694987565279007,0.09905228018760681
1772641330252972300,2.16097216796875,-0.44491833448410034,-0.16513356566429138,0.13633973896503448
1772641330263018500,2.1710185546875,-0.4306589663028717,-0.15263774991035461,0.15833744406700134
1772641330273063400,2.1810634765625,-0.4161130487918854,-0.14567171037197113,0.16672267019748688
1772641330283108400,2.1911083984375,-0.40182414650917053,-0.1488930732011795,0.16818740963935852
1772641330293153300,2.2011533203125,-0.3890891671180725,-0.1534566730260849,0.16906465590000153
1772641330303199200,2.21119921875,-0.37738004326820374,-0.16276468336582184,0.17975963652133942
1772641330313244400,2.221244384765625,-0.3664586842060089,-0.17214512825012207,0.1913345456123352
1772641330323289300,2.231289306640625,-0.3528115749359131,-0.17155231535434723,0.2158161848783493
1772641330333335300,2.241335205078125,-0.34271153807640076,-0.1859847754240036,0.2423713654279709
1772641330343380500,2.25138037109375,-0.342581570148468,-0.22582940757274628,0.2525872588157654
1772641330353425400,2.26142529296875,-0.3501790463924408,-0.2554512023925781,0.2367480993270874
1772641330363470300,2.27147021484375,-0.3545767366886139,-0.24431413412094116,0.19661292433738708
1772641330373516300,2.281516357421875,-0.3575296401977539,-0.21537676453590393,0.13485155999660492
1772641330383561500,2.2915615234375,-0.36900386214256287,-0.1788480430841446,0.04091014713048935
1772641330393606400,2.3016064453125,-0.3801595866680145,-0.1111542209982872,-0.07522471249103546
1772641330403652400,2.31165234375,-0.36980095505714417,-0.00523737259209156,-0.18448781967163086
1772641330413697500,2.321697509765625,-0.3364403247833252,0.1210436001420021,-0.27018994092941284
1772641330423742200,2.3317421875,-0.28477874398231506,0.24438203871250153,-0.31780141592025757
1772641330433787400,2.341787353515625,-0.2216264009475708,0.3286902606487274,-0.3138290345668793
1772641330443833300,2.351833251953125,-0.1564314216375351,0.36338645219802856,-0.26724207401275635
1772641330453878500,2.36187841796875,-0.0728670135140419,0.431937038898468,-0.1619308441877365
1772641330463923500,2.37192333984375,-0.008218781091272831,0.4464544653892517,-0.07208564132452011
1772641330473969400,2.381969482421875,0.03743845224380493,0.41431596875190735,0.04446253925561905
1772641330484014600,2.3920146484375,0.08463126420974731,0.3499090075492859,0.1993381381034851
1772641330494059300,2.402059326171875,0.105873703956604,0.26100921630859375,0.3397274613380432
1772641330504104400,2.4121044921875,0.09776677191257477,0.18729345500469208,0.48460155725479126
1772641330514150400,2.422150390625,0.06558327376842499,0.11353641748428345,0.6016626954078674
1772641330524195300,2.4321953125,0.026064623147249222,0.03911517933011055,0.6822307705879211
1772641330534240500,2.442240478515625,-0.00583818182349205,-0.037327397614717484,0.7205619215965271
1772641330544286500,2.452286376953125,-0.026038259267807007,-0.1175047904253006,0.7090405225753784
1772641330554331400,2.462331298828125,-0.05311834439635277,-0.22865687310695648,0.6456184387207031
1772641330564376300,2.472376220703125,-0.07079720497131348,-0.3246755599975586,0.5564824342727661
1772641330574421500,2.48242138671875,-0.08358171582221985,-0.3773917555809021,0.46096575260162354
1772641330584467500,2.492467529296875,-0.09547725319862366,-0.363869309425354,0.3694339692592621
1772641330594512400,2.502512451171875,-0.11590129882097244,-0.28074803948402405,0.28403332829475403
1772641330604557600,2.5125576171875,-0.13591815531253815,-0.16574528813362122,0.19225439429283142
1772641330614603500,2.522603515625,-0.15286384522914886,-0.04801945760846138,0.0810767412185669
1772641330624648400,2.5326484375,-0.172899067401886,0.05236440524458885,-0.058027882128953934
1772641330634693400,2.542693359375,-0.2116296887397766,0.13777251541614532,-0.22177979350090027
1772641330644738600,2.552738525390625,-0.25626134872436523,0.2137429118156433,-0.3949553072452545
1772641330654784500,2.562784423828125,-0.29433390498161316,0.26566097140312195,-0.5475725531578064
1772641330664829400,2.572829345703125,-0.31582292914390564,0.2919809818267822,-0.6602897644042969
1772641330674874400,2.582874267578125,-0.31299999356269836,0.2859705090522766,-0.724237859249115
1772641330684920300,2.59292041015625,-0.2873731851577759,0.27449414134025574,-0.7401260137557983
1772641330694965200,2.60296533203125,-0.2471594512462616,0.24951130151748657,-0.7124778628349304
1772641330705010400,2.613010498046875,-0.18807217478752136,0.2125796377658844,-0.6403064727783203
1772641330715056400,2.623056396484375,-0.12668071687221527,0.1864020973443985,-0.534745991230011
1772641330725101600,2.6331015625,-0.08391939848661423,0.19349436461925507,-0.43443772196769714
1772641330735146500,2.643146484375,-0.036069054156541824,0.12167955935001373,-0.31422051787376404
1772641330745191400,2.65319140625,0.009375392459332943,0.08225013315677643,-0.19091029465198517
1772641330755237400,2.6632373046875,0.03905525803565979,0.007463775109499693,-0.08820309489965439
1772641330765282300,2.6732822265625,0.054665111005306244,-0.046958986669778824,0.0006242449744604528
1772641330775326700,2.68332666015625,0.05908249318599701,-0.09986507892608643,0.0501910001039505
1772641330785372700,2.69337255859375,0.05935094133019447,-0.13771818578243256,0.0644114762544632
1772641330795417900,2.70341796875,0.05540919676423073,-0.15041081607341766,0.0447232611477375
1772641330805462800,2.713462890625,0.04893238842487335,-0.14730103313922882,0.0020748688839375973
1772641330815508000,2.723508056640625,0.048594165593385696,-0.14015763998031616,-0.05408081039786339
1772641330825554000,2.733553955078125,0.05091937258839607,-0.12521597743034363,-0.11604750901460648
1772641330835598600,2.7435986328125,0.0513252392411232,-0.09605356305837631,-0.17648449540138245
1772641330845643800,2.753643798828125,0.04784528538584709,-0.060865748673677444,-0.22422590851783752
1772641330855689700,2.763689697265625,0.04339434579014778,-0.03608796373009682,-0.2574344575405121
1772641330865735000,2.77373486328125,0.04012211784720421,-0.006473079323768616,-0.27714186906814575
1772641330875779800,2.78377978515625,0.04183186963200569,0.022659773007035255,-0.27470213174819946
1772641330885824800,2.79382470703125,0.05847609415650368,0.0403069444000721,-0.26263323426246643
1772641330895870700,2.80387060546875,0.07974942028522491,0.059967461973428726,-0.23314882814884186
1772641330905915600,2.81391552734375,0.10465237498283386,0.07661940902471542,-0.1945551037788391
1772641330915960800,2.8239609375,0.13602042198181152,0.09172805398702621,-0.14909307658672333
1772641330926006800,2.8340068359375,0.1715318113565445,0.09775026142597198,-0.10041848570108414
1772641330936052000,2.844052001953125,0.20820753276348114,0.10322146117687225,-0.0530746690928936
1772641330946097000,2.854096923828125,0.23928076028823853,0.10774590075016022,-0.01997290924191475
1772641330956141800,2.864141845703125,0.26171761751174927,0.11400752514600754,0.009971141815185547
1772641330966187800,2.874187744140625,0.2698991298675537,0.1119646206498146,0.029214611276984215
1772641330976232700,2.884232666015625,0.2648681402206421,0.09924988448619843,0.04075115919113159
1772641330986278000,2.89427783203125,0.25683578848838806,0.07406730204820633,0.04367690533399582
1772641330996323800,2.90432373046875,0.2475522756576538,0.054557785391807556,0.03882595896720886
1772641331006368800,2.91436865234375,0.23723651468753815,0.054791342467069626,0.031441278755664825
1772641331016413700,2.92441357421875,0.23367160558700562,0.05723532661795616,0.023901604115962982
1772641331026458600,2.934458740234375,0.23836542665958405,0.06051580607891083,0.01673929952085018
1772641331036504800,2.9445048828125,0.25199949741363525,0.06382212042808533,0.015926502645015717
1772641331046549800,2.9545498046875,0.26560771465301514,0.05793973058462143,0.013306750915944576
1772641331056595000,2.964594970703125,0.28625306487083435,0.05980714038014412,0.012398612685501575
1772641331066641000,2.974640869140625,0.30269888043403625,0.0788564682006836,0.01185346394777298
1772641331076685600,2.984685546875,0.3260428309440613,0.110627181828022,0.012371981516480446
1772641331086730800,2.994730712890625,0.34139513969421387,0.14158828556537628,0.02069276198744774
1772641331096775700,3.004775634765625,0.36241573095321655,0.1713789403438568,0.03555559739470482
1772641331106822000,3.01482177734375,0.3831702768802643,0.18807350099086761,0.06160051375627518
1772641331116866800,3.02486669921875,0.4035900831222534,0.18640635907649994,0.09932046383619308
1772641331126912000,3.034912109375,0.4207560122013092,0.15431633591651917,0.1390305906534195
1772641331136958000,3.0449580078125,0.42016932368278503,0.09585089236497879,0.16582651436328888
1772641331147002600,3.055002685546875,0.4000091850757599,0.027058782055974007,0.16933949291706085
1772641331157047800,3.0650478515625,0.3677319288253784,-0.0347936674952507,0.15959632396697998
1772641331167092700,3.0750927734375,0.3269573450088501,-0.080461286008358,0.13572347164154053
1772641331177138700,3.085138671875,0.2816801369190216,-0.11642567813396454,0.10713125020265579
1772641331187183900,3.095183837890625,0.2449173480272293,-0.15833024680614471,0.08060163259506226
1772641331197228500,3.105228515625,0.21135112643241882,-0.2097788006067276,0.0665513277053833
1772641331207274800,3.115274658203125,0.18103502690792084,-0.23963576555252075,0.05988916754722595
1772641331217319700,3.125319580078125,0.16028954088687897,-0.24118173122406006,0.06484238058328629
1772641331227364900,3.13536474609375,0.15253840386867523,-0.2095540314912796,0.06847280263900757
1772641331237409800,3.145409912109375,0.16183629631996155,-0.15360607206821442,0.06646451354026794
1772641331247455700,3.155455810546875,0.1904575675725937,-0.08873945474624634,0.058586880564689636
1772641331257501000,3.1655009765625,0.2341504544019699,-0.022905316203832626,0.0485512912273407
1772641331267545600,3.175545654296875,0.29019108414649963,0.042747996747493744,0.05927690491080284
1772641331277591800,3.185591796875,0.3526912033557892,0.09005852043628693,0.09925121814012527
1772641331287636700,3.19563671875,0.4136533737182617,0.10340388864278793,0.15792891383171082
1772641331297682000,3.205681884765625,0.4631410241127014,0.07911106199026108,0.2343704253435135
1772641331307726800,3.215726806640625,0.49482572078704834,0.044737644493579865,0.31978467106819153
1772641331317772800,3.225772705078125,0.5159128904342651,0.011784487403929234,0.4110373258590698
1772641331327817700,3.235817626953125,0.5308228731155396,-0.016864467412233353,0.4939740300178528
1772641331337862700,3.245862548828125,0.5407007932662964,-0.05513276159763336,0.5667787194252014
1772641331347908600,3.25590869140625,0.5441410541534424,-0.10228908807039261,0.6138871312141418
1772641331357953800,3.265953857421875,0.5438196063041687,-0.146295964717865,0.6378997564315796
1772641331367998700,3.275998779296875,0.531694769859314,-0.17378510534763336,0.6366204023361206
1772641331378044000,3.2860439453125,0.5160777568817139,-0.1789953112602234,0.616040050983429
1772641331388089900,3.29608984375,0.49457991123199463,-0.18561141192913055,0.5667150616645813
1772641331398134800,3.306134765625,0.4723382592201233,-0.19188927114009857,0.4983522593975067
1772641331408179700,3.3161796875,0.447782039642334,-0.19311299920082092,0.40950310230255127
1772641331418225700,3.3262255859375,0.42601442337036133,-0.17634333670139313,0.31016024947166443
1772641331428270800,3.336270751953125,0.4001671075820923,-0.13010767102241516,0.2118677794933319
1772641331438315800,3.346315673828125,0.3765243589878082,-0.06381653249263763,0.1247137039899826
1772641331448360700,3.356360595703125,0.3449035882949829,0.007592406123876572,0.04908578842878342
1772641331458406700,3.36640673828125,0.30375003814697266,0.06331133097410202,-0.023663517087697983
1772641331468451800,3.376451904296875,0.24486993253231049,0.07591287046670914,-0.09915507584810257
1772641331478496800,3.386496826171875,0.18530142307281494,0.04958432912826538,-0.18121586740016937
1772641331488542700,3.396542724609375,0.14182983338832855,0.017192834988236427,-0.26001399755477905
1772641331498588000,3.406587890625,0.11074888706207275,-0.011712582781910896,-0.33658361434936523
1772641331508632800,3.4166328125,0.10094019770622253,-0.009956227615475655,-0.41116863489151
1772641331518677800,3.426677734375,0.11083757132291794,0.019692745059728622,-0.47581419348716736
1772641331528723700,3.4367236328125,0.14679476618766785,0.06058211997151375,-0.5227769017219543
1772641331538769000,3.446768798828125,0.19665740430355072,0.10061262547969818,-0.5585969686508179
1772641331548813800,3.456813720703125,0.2423710972070694,0.13885615766048431,-0.5866101980209351
1772641331558859800,3.46685986328125,0.3037247359752655,0.2029792070388794,-0.5811483263969421
1772641331568905000,3.476905029296875,0.3550989627838135,0.1861610859632492,-0.5855934619903564
1772641331578949600,3.48694970703125,0.3922271728515625,0.2234320193529129,-0.5447559952735901
1772641331588994800,3.496994873046875,0.41609227657318115,0.2059590220451355,-0.5038958787918091
1772641331599040800,3.507040771484375,0.4229182302951813,0.1876194328069687,-0.43932729959487915
1772641331609085700,3.517085693359375,0.4167032241821289,0.1492787003517151,-0.3724989891052246
1772641331619131000,3.527130859375,0.3973684012889862,0.10004297643899918,-0.3054826855659485
1772641331629176800,3.5371767578125,0.3706313371658325,0.04038071259856224,-0.2490449696779251
1772641331639221800,3.5472216796875,0.3373676538467407,-0.010290454141795635,-0.20949730277061462
1772641331649266700,3.5572666015625,0.29969990253448486,-0.05494127795100212,-0.1881331503391266
1772641331659311900,3.567311767578125,0.26145556569099426,-0.09117278456687927,-0.18034952878952026
1772641331669357800,3.57735791015625,0.22451326251029968,-0.1177964061498642,-0.1914977878332138
1772641331679402800,3.58740283203125,0.18923543393611908,-0.13764521479606628,-0.21640580892562866
1772641331689448000,3.597447998046875,0.15119244158267975,-0.1418953537940979,-0.2495587021112442
1772641331699494000,3.607493896484375,0.11083943396806717,-0.1344054788351059,-0.2789197862148285
1772641331709538800,3.617538818359375,0.07512617856264114,-0.11539556831121445,-0.29033756256103516
1772641331719583700,3.627583740234375,0.04302683100104332,-0.09364473074674606,-0.2910187840461731
1772641331729629700,3.637629638671875,0.020188093185424805,-0.07605987787246704,-0.27420225739479065
1772641331739675000,3.6476748046875,0.0026964505668729544,-0.060022857040166855,-0.2402019500732422
1772641331749719800,3.6577197265625,-0.009147691540420055,-0.04906288534402847,-0.19262804090976715
1772641331759764700,3.6677646484375,-0.0215377826243639,-0.04704846814274788,-0.13750167191028595
1772641331769810700,3.677810791015625,-0.0337102934718132,-0.05273538455367088,-0.07753793150186539
1772641331779856600,3.687856689453125,-0.05447069928050041,-0.06911168992519379,-0.024347417056560516
1772641331789901800,3.69790185546875,-0.07982239127159119,-0.08544059842824936,0.029939522966742516
1772641331799947800,3.70794775390625,-0.1028832420706749,-0.10178282111883163,0.08828592300415039
1772641331809992400,3.717992431640625,-0.12737606465816498,-0.11966248601675034,0.14676201343536377
1772641331820037600,3.72803759765625,-0.14986352622509003,-0.13138411939144135,0.19523926079273224
1772641331830082600,3.73808251953125,-0.17391613125801086,-0.13355007767677307,0.23264442384243011
1772641331840128800,3.748128662109375,-0.18683938682079315,-0.1265006810426712,0.25621259212493896
1772641331850173700,3.758173583984375,-0.19364669919013977,-0.10513041168451309,0.26149553060531616
1772641331860219000,3.768218994140625,-0.19504699110984802,-0.09054721146821976,0.24961276352405548
1772641331870264800,3.778264892578125,-0.19544273614883423,-0.08937808126211166,0.2212652713060379
1772641331880309500,3.7883095703125,-0.20487751066684723,-0.0827886238694191,0.18677841126918793
1772641331890354700,3.798354736328125,-0.21073034405708313,-0.08173827081918716,0.14600327610969543
1772641331900399600,3.808399658203125,-0.21103766560554504,-0.08208075165748596,0.11107911914587021
1772641331910445600,3.818445556640625,-0.20735877752304077,-0.08891922235488892,0.08462647348642349
1772641331920490800,3.82849072265625,-0.20322102308273315,-0.0926164835691452,0.07203451544046402
1772641331930535700,3.83853564453125,-0.19679482281208038,-0.09317068755626678,0.07944795489311218
1772641331940581600,3.84858154296875,-0.18535573780536652,-0.10141503810882568,0.10266565531492233
1772641331950626600,3.85862646484375,-0.17748263478279114,-0.12102815508842468,0.1399480551481247
1772641331960671700,3.868671630859375,-0.18300044536590576,-0.15506388247013092,0.16989582777023315
1772641331970716700,3.878716552734375,-0.19786913692951202,-0.16903269290924072,0.18767935037612915
1772641331980762600,3.8887626953125,-0.21253836154937744,-0.17652283608913422,0.19049032032489777
1772641331990807800,3.898807861328125,-0.21197403967380524,-0.1595316082239151,0.19207915663719177
1772641332000852500,3.9088525390625,-0.20423516631126404,-0.13784575462341309,0.1824246644973755
1772641332010898700,3.918898681640625,-0.19041042029857635,-0.11187566816806793,0.15990151464939117
1772641332020943600,3.928943603515625,-0.17316512763500214,-0.08000561594963074,0.12407374382019043
1772641332030988800,3.93898876953125,-0.15703701972961426,-0.03472016379237175,0.08212762326002121
1772641332041033700,3.94903369140625,-0.13968360424041748,0.0254030954092741,0.046914245933294296
1772641332051079700,3.95907958984375,-0.12178102880716324,0.0696544423699379,0.017792845144867897
1772641332061124600,3.96912451171875,-0.11089961975812912,0.09339199960231781,0.001606685109436512
1772641332071169500,3.97916943359375,-0.09885814040899277,0.09820246696472168,-0.0031411985401064157
1772641332081215700,3.9892158203125,-0.09163351356983185,0.06559392064809799,-0.010183128528296947
1772641332091260700,3.9992607421875,-0.09326762706041336,0.020439760759472847,-0.023723172023892403
1772641332101305600,4.0093056640625,-0.1045951172709465,-0.008492021821439266,-0.027949608862400055
1772641332111350500,4.0193505859375,-0.12005183845758438,-0.0064951833337545395,-0.0036693033762276173
1772641332121396500,4.029396484375,-0.14327433705329895,0.026688868179917336,0.04103611782193184
1772641332131441700,4.039441650390625,-0.1657455563545227,0.06205351650714874,0.08321738988161087
1772641332141486600,4.049486572265625,-0.18634110689163208,0.07470273226499557,0.1213085874915123
1772641332151532500,4.059532470703125,-0.20381437242031097,0.06174379214644432,0.1539192646741867
1772641332161577700,4.06957763671875,-0.2152063101530075,0.03906111419200897,0.18699412047863007
1772641332171622700,4.07962255859375,-0.22028496861457825,0.009088569320738316,0.2214551568031311
1772641332181668900,4.0896689453125,-0.22508318722248077,-0.02947879582643509,0.25859320163726807
1772641332191713500,4.099713623046875,-0.23189474642276764,-0.06282822787761688,0.30033132433891296
1772641332201758700,4.1097587890625,-0.23724263906478882,-0.09730631113052368,0.34068915247917175
1772641332211803600,4.1198037109375,-0.2321685254573822,-0.12127076834440231,0.3771427571773529
1772641332221849600,4.129849609375,-0.21891264617443085,-0.13747850060462952,0.39449378848075867
1772641332231894800,4.139894775390625,-0.20183059573173523,-0.13770993053913116,0.3861958980560303
1772641332241939500,4.149939453125,-0.1979122757911682,-0.12574568390846252,0.347171813249588
1772641332251984600,4.159984619140625,-0.2017914354801178,-0.09685064852237701,0.2833419740200043
1772641332262030600,4.170030517578125,-0.21511895954608917,-0.06332650780677795,0.18623405694961548
1772641332272075800,4.18007568359375,-0.2366490215063095,-0.03249296173453331,0.07353760302066803
1772641332282120700,4.19012060546875,-0.26145797967910767,0.008330101147294044,-0.05047222971916199
1772641332292166700,4.200166748046875,-0.28740087151527405,0.051122307777404785,-0.1759001910686493
1772641332302211800,4.2102119140625,-0.3084704875946045,0.10272717475891113,-0.293718159198761
1772641332312256500,4.220256591796875,-0.3206067681312561,0.15707270801067352,-0.3909651041030884
1772641332322302500,4.230302490234375,-0.3275618851184845,0.20998331904411316,-0.4576599597930908
1772641332332347600,4.24034765625,-0.31870901584625244,0.24386964738368988,-0.48478853702545166
1772641332342392600,4.250392578125,-0.2926830053329468,0.24969132244586945,-0.4737585186958313
1772641332352437800,4.260437744140625,-0.2576288878917694,0.22548052668571472,-0.4215642809867859
1772641332362483700,4.270483642578125,-0.22827312350273132,0.1844255030155182,-0.34047263860702515
1772641332372528600,4.280528564453125,-0.20539149641990662,0.12872548401355743,-0.24847692251205444
1772641332382573600,4.290573486328125,-0.18981200456619263,0.08329835534095764,-0.15236103534698486
1772641332392619500,4.30061962890625,-0.17787066102027893,0.026666764169931412,-0.063116654753685
1772641332402664700,4.310664794921875,-0.1716388612985611,-0.03163569048047066,0.01823466457426548
1772641332412709600,4.320709716796875,-0.1678640991449356,-0.09092351794242859,0.08737165480852127
1772641332422754800,4.3307548828125,-0.16664011776447296,-0.1299058049917221,0.14616626501083374
1772641332432800800,4.34080078125,-0.15928898751735687,-0.15228673815727234,0.1821913719177246
1772641332442845700,4.350845703125,-0.14471271634101868,-0.1557174175977707,0.19834184646606445
1772641332452890600,4.360890625,-0.12710389494895935,-0.1473604291677475,0.186661496758461
1772641332462936600,4.3709365234375,-0.11551141738891602,-0.13338042795658112,0.15148885548114777
1772641332472981800,4.380981689453125,-0.11124370247125626,-0.10114845633506775,0.09693959355354309
1772641332483026700,4.391026611328125,-0.11697801947593689,-0.0684291273355484,0.03675534948706627
1772641332493071600,4.401071533203125,-0.13322383165359497,-0.0350879468023777,-0.027479827404022217
1772641332503117600,4.41111767578125,-0.14945393800735474,-0.005894374568015337,-0.0800386443734169
1772641332513162500,4.42116259765625,-0.16391968727111816,0.029415147379040718,-0.11665844172239304
1772641332523207700,4.431207763671875,-0.16263125836849213,0.05854000896215439,-0.14360590279102325
1772641332533253600,4.441253662109375,-0.14185966551303864,0.09851911664009094,-0.1645980030298233
1772641332543298800,4.451298828125,-0.11419208347797394,0.12369903922080994,-0.1821381151676178
1772641332553343700,4.46134375,-0.08864118903875351,0.14090971648693085,-0.20484182238578796
1772641332563388700,4.471388671875,-0.06673216074705124,0.1602538526058197,-0.2219100296497345
1772641332573434600,4.4814345703125,-0.05249250307679176,0.17511962354183197,-0.23242232203483582
1772641332583479600,4.4914794921875,-0.04271390661597252,0.18241721391677856,-0.23014211654663086
1772641332593524700,4.501524658203125,-0.03718039020895958,0.1783585548400879,-0.21662631630897522
1772641332603570700,4.51157080078125,-0.034446123987436295,0.170972540974617,-0.18772196769714355
1772641332613615900,4.521615966796875,-0.030965372920036316,0.1534777134656906,-0.15119484066963196
1772641332623660500,4.53166064453125,-0.025110412389039993,0.12185320258140564,-0.10406914353370667
1772641332633705700,4.541705810546875,-0.02291996218264103,0.08888326585292816,-0.04824556037783623
1772641332643751700,4.551751708984375,-0.019763851538300514,0.05769046023488045,0.011095793917775154
1772641332653796600,4.561796630859375,-0.014522483572363853,0.03660168498754501,0.06926988810300827
1772641332663841800,4.571841796875,-0.008587629534304142,0.015861254185438156,0.11334732919931412
1772641332673887700,4.5818876953125,0.00034700988908298314,-0.009182845242321491,0.14393533766269684
1772641332683932400,4.591932373046875,0.012809804640710354,-0.03634469211101532,0.15481488406658173
1772641332693977600,4.6019775390625,0.020979050546884537,-0.04782238230109215,0.14216060936450958
1772641332704022500,4.6120224609375,0.025409486144781113,-0.021280521526932716,0.12344390898942947
1772641332714068700,4.62206884765625,0.03720462694764137,0.0160673838108778,0.0937507301568985
1772641332724113700,4.63211376953125,0.04351338744163513,0.040224917232990265,0.055926382541656494
1772641332734158800,4.642158935546875,0.046116095036268234,0.046358976513147354,0.01931910216808319
1772641332744204800,4.652204833984375,0.04779361933469772,0.03315981850028038,-0.00711596617475152
1772641332754249500,4.66224951171875,0.053515154868364334,0.017185378819704056,-0.01655314303934574
1772641332764294700,4.672294677734375,0.06359042972326279,0.00691995769739151,-0.013924870640039444
1772641332774339300,4.68233935546875,0.08673515915870667,0.018433336168527603,0.006293582264333963
1772641332784385300,4.69238525390625,0.12290328741073608,0.040641169995069504,0.04072585701942444
1772641332794430200,4.70243017578125,0.16938289999961853,0.048525989055633545,0.07482364028692245
1772641332804475400,4.712475341796875,0.21596717834472656,0.024252874776721,0.09644398093223572
1772641332814521300,4.722521240234375,0.2567436397075653,-0.009317335672676563,0.10206244885921478
1772641332824566300,4.732566162109375,0.2841736674308777,-0.024347150698304176,0.0834600031375885
1772641332834611500,4.742611572265625,0.28871703147888184,-0.024345552548766136,0.047142211347818375
1772641332844656000,4.75265625,0.2791232466697693,-0.023206518962979317,0.007358846720308065
1772641332854702300,4.762702392578125,0.2683161497116089,-0.032293226569890976,-0.03479499742388725
1772641332864747300,4.772747314453125,0.26361405849456787,-0.027591947466135025,-0.06438218802213669
1772641332874792400,4.78279248046875,0.2619687616825104,-0.028492361307144165,-0.07641035318374634
1772641332884838400,4.79283837890625,0.2696266770362854,-0.017357151955366135,-0.07201080769300461
1772641332894883300,4.80288330078125,0.27591440081596375,-0.008636364713311195,-0.05505206808447838
1772641332904928300,4.81292822265625,0.2762475609779358,-0.00938870757818222,-0.02232394739985466
1772641332914974200,4.82297412109375,0.2783317565917969,-0.013155216351151466,0.017431721091270447
1772641332925019400,4.833019287109375,0.27961885929107666,-0.02688860520720482,0.060799967497587204
1772641332935064300,4.843064208984375,0.2725710868835449,-0.04315173253417015,0.09618858247995377
1772641332945109200,4.853109130859375,0.2567596137523651,-0.05043334513902664,0.12538161873817444
1772641332955155500,4.863155517578125,0.2364937663078308,-0.05301208421587944,0.1350262612104416
1772641332965200400,4.873200439453125,0.21469631791114807,-0.04771345853805542,0.13368269801139832
1772641332975245300,4.883245361328125,0.20100393891334534,-0.043712325394153595,0.12723731994628906
1772641332985291300,4.893291259765625,0.19405949115753174,-0.02834002859890461,0.1177186444401741
1772641332995336200,4.903336181640625,0.19298116862773895,-0.015060708858072758,0.11126846820116043
1772641333005381400,4.91338134765625,0.2017778605222702,-0.007985754869878292,0.11680863797664642
1772641333015426300,4.92342626953125,0.2029576450586319,-0.003132942598313093,0.13221023976802826
1772641333025472500,4.933472412109375,0.20052297413349152,0.002683667466044426,0.15091733634471893
1772641333035517200,4.94351708984375,0.18926872313022614,0.00848722830414772,0.16990168392658234
1772641333045562400,4.953562255859375,0.1704881191253662,0.007715710438787937,0.1920277625322342
1772641333055608300,4.9636083984375,0.14073580503463745,-0.00953704584389925,0.20068728923797607
1772641333065653200,4.9736533203125,0.10853180289268494,-0.028114724904298782,0.20005719363689423
1772641333075698400,4.983698486328125,0.07389339804649353,-0.050520963966846466,0.18953797221183777
1772641333085743400,4.993743408203125,0.03586425632238388,-0.0759192630648613,0.1680459976196289
1772641333095789300,5.003789306640625,-0.002758235903456807,-0.0962437093257904,0.14090785384178162
1772641333105834200,5.013834228515625,-0.040098950266838074,-0.10511337220668793,0.11588585376739502
1772641333115879400,5.02387939453125,-0.07122491300106049,-0.1159292683005333,0.08213268965482712
1772641333125925400,5.03392529296875,-0.09474141895771027,-0.10307711362838745,0.0459136962890625
1772641333135970300,5.04397021484375,-0.11310099065303802,-0.08575484901666641,-0.0051718587055802345
1772641333146015500,5.054015380859375,-0.13126800954341888,-0.06866774708032608,-0.0672336295247078
1772641333156060200,5.06406005859375,-0.1385038197040558,-0.04116794094443321,-0.13732004165649414
1772641333166106000,5.074106201171875,-0.13195936381816864,-0.010216152295470238,-0.2206767201423645
1772641333176151300,5.0841513671875,-0.1188688650727272,0.031149130314588547,-0.3072270452976227
1772641333186196200,5.0941962890625,-0.1005345955491066,0.08822892606258392,-0.39566877484321594
1772641333196242400,5.104242431640625,-0.08118140697479248,0.14651833474636078,-0.4775332808494568
1772641333206287400,5.114287353515625,-0.06150304153561592,0.19979619979858398,-0.5413854718208313
1772641333216332500,5.12433251953125,-0.04295971617102623,0.2468566596508026,-0.5797280669212341
1772641333226377200,5.134377197265625,-0.025043301284313202,0.30719295144081116,-0.5869085192680359
1772641333236423200,5.144423095703125,-0.0062246061861515045,0.34201645851135254,-0.5643590092658997
1772641333246468400,5.15446826171875,0.013012737967073917,0.35381799936294556,-0.5160356760025024
1772641333256513300,5.16451318359375,0.024175377562642097,0.338093638420105,-0.4565401077270508
1772641333266559500,5.1745595703125,0.02532639540731907,0.294055312871933,-0.3989596366882324
1772641333276604400,5.1846044921875,0.010509898886084557,0.23020151257514954,-0.3395836651325226
1772641333286649300,5.1946494140625,-0.012585832737386227,0.15953746438026428,-0.277386873960495
1772641333296694300,5.2046943359375,-0.044677987694740295,0.08996131271123886,-0.21957603096961975
1772641333306740200,5.214740234375,-0.07950787246227264,0.030711306259036064,-0.1663559526205063
1772641333316785400,5.224785400390625,-0.10805642604827881,-0.011683021672070026,-0.1184116005897522
1772641333326830300,5.234830322265625,-0.12549187242984772,-0.04435335099697113,-0.07988284528255463
1772641333336876300,5.244876220703125,-0.13349281251430511,-0.06855269521474838,-0.059537362307310104
1772641333346921200,5.254921142578125,-0.13378097116947174,-0.08807340264320374,-0.05013667047023773
1772641333356966100,5.264966064453125,-0.13910649716854095,-0.10555705428123474,-0.05104507505893707
1772641333367011300,5.27501123046875,-0.14210547506809235,-0.11602088063955307,-0.057564493268728256
1772641333377057300,5.285057373046875,-0.14195740222930908,-0.13108958303928375,-0.06563759595155716
1772641333387102500,5.2951025390625,-0.14605547487735748,-0.14538303017616272,-0.06750500947237015
1772641333397147400,5.3051474609375,-0.15622875094413757,-0.1580580770969391,-0.05993817001581192
1772641333407193300,5.315193359375,-0.1751028448343277,-0.17428524792194366,-0.05258091911673546
1772641333417238300,5.32523828125,-0.19596125185489655,-0.19709043204784393,-0.04640292003750801
1772641333427283200,5.335283203125,-0.2139493077993393,-0.2088480144739151,-0.039565786719322205
1772641333437328400,5.345328369140625,-0.22848403453826904,-0.205790176987648,-0.029856964945793152
1772641333447374300,5.355374267578125,-0.2296462506055832,-0.18552671372890472,-0.01738538220524788
1772641333457419500,5.36541943359375,-0.22183120250701904,-0.16678525507450104,-0.005333246197551489
1772641333467464200,5.375464111328125,-0.2131546139717102,-0.16718685626983643,0.0023489079903811216
1772641333477510100,5.38551025390625,-0.19576790928840637,-0.12286174297332764,0.024446487426757812
1772641333487555300,5.395555419921875,-0.18570354580879211,-0.09742109477519989,0.04598134011030197
1772641333497600300,5.405600341796875,-0.1788318008184433,-0.06443598121404648,0.08281046152114868
1772641333507645400,5.4156455078125,-0.1681748926639557,-0.053457099944353104,0.11239391565322876
1772641333517691400,5.42569140625,-0.16819113492965698,-0.05445365607738495,0.14177364110946655
1772641333527736300,5.435736328125,-0.1732679158449173,-0.07134874910116196,0.1681421399116516
1772641333537781200,5.44578125,-0.18281961977481842,-0.10085736960172653,0.1982390582561493
1772641333547827200,5.4558271484375,-0.1939188688993454,-0.12936252355575562,0.2261766791343689
1772641333557872400,5.465872314453125,-0.20077252388000488,-0.16626806557178497,0.2453293353319168
1772641333567917300,5.475917236328125,-0.21369710564613342,-0.1883305013179779,0.25695404410362244
1772641333577962500,5.48596240234375,-0.2275812327861786,-0.21012207865715027,0.2530248165130615
1772641333588008400,5.496008544921875,-0.23923495411872864,-0.2175094187259674,0.2345896065235138
1772641333598053000,5.50605322265625,-0.246156245470047,-0.19810695946216583,0.20458883047103882
1772641333608098300,5.516098388671875,-0.2554834187030792,-0.15911215543746948,0.17229826748371124
1772641333618144300,5.526144287109375,-0.2612566351890564,-0.12800030410289764,0.1413520723581314
1772641333628189400,5.536189453125,-0.25600168108940125,-0.11348315328359604,0.1093406081199646
1772641333638234400,5.546234375,-0.24024268984794617,-0.1151534840464592,0.08744196593761444
1772641333648279600,5.556279541015625,-0.21855683624744415,-0.12449505925178528,0.0788777694106102
1772641333658325500,5.566325439453125,-0.191462904214859,-0.12824159860610962,0.0794687271118164
1772641333668370200,5.5763701171875,-0.16293965280056,-0.12870125472545624,0.09238026291131973
1772641333678415400,5.586415283203125,-0.1338787078857422,-0.1358662247657776,0.1125481128692627
1772641333688461300,5.59646142578125,-0.10627663880586624,-0.1596383899450302,0.13661883771419525
1772641333698506200,5.60650634765625,-0.08482780307531357,-0.18283718824386597,0.1669871211051941
1772641333708551400,5.616551513671875,-0.06705307215452194,-0.20315764844417572,0.19845716655254364
1772641333718596000,5.62659619140625,-0.05104028061032295,-0.2195081263780594,0.23228996992111206
1772641333728642300,5.636642333984375,-0.0421125665307045,-0.24512799084186554,0.2641671895980835
1772641333738687200,5.646687255859375,-0.04229845479130745,-0.2906680405139923,0.2813323438167572
1772641333748732400,5.656732421875,-0.05516897886991501,-0.3410281538963318,0.28215205669403076
1772641333758778400,5.6667783203125,-0.06208174675703049,-0.3758476674556732,0.26620373129844666
1772641333768823300,5.6768232421875,-0.07257992774248123,-0.40139856934547424,0.21206964552402496
1772641333778868000,5.686867919921875,-0.08184080570936203,-0.4035610556602478,0.11843769997358322
1772641333788913000,5.696912841796875,-0.09963151812553406,-0.39295288920402527,-0.020247215405106544
1772641333798959000,5.706958984375,-0.1294783651828766,-0.3440828025341034,-0.18585482239723206
1772641333809004000,5.717004150390625,-0.17082686722278595,-0.25028759241104126,-0.3589235246181488
1772641333819049200,5.72704931640625,-0.19870111346244812,-0.12546178698539734,-0.47897884249687195
1772641333829095200,5.73709521484375,-0.217185840010643,-0.04619705677032471,-0.5339677929878235
1772641333839139800,5.747139892578125,-0.2056029587984085,0.032283637672662735,-0.5243540406227112
1772641333849185000,5.75718505859375,-0.17428044974803925,0.06444477289915085,-0.45256295800209045
1772641333859230000,5.76722998046875,-0.13634851574897766,0.09383674710988998,-0.3239956498146057
1772641333869276200,5.777276123046875,-0.09978731721639633,0.08468958735466003,-0.16147704422473907
1772641333879321000,5.787321044921875,-0.09878329932689667,0.0769062340259552,-0.02454795315861702
1772641333889366000,5.797365966796875,-0.08763238042593002,0.02033323422074318,0.15321911871433258
1772641333899412000,5.807411865234375,-0.07059374451637268,-0.045649245381355286,0.3346109986305237
1772641333909457000,5.817456787109375,-0.06300879269838333,-0.11570396274328232,0.4887302815914154
1772641333919502000,5.827502197265625,-0.06770075112581253,-0.18999870121479034,0.6121150255203247
1772641333929547000,5.837547119140625,-0.08641744405031204,-0.25328606367111206,0.6851269602775574
1772641333939593000,5.847593017578125,-0.10781967639923096,-0.30275747179985046,0.7120932936668396
1772641333949638100,5.85763818359375,-0.13646915555000305,-0.33832478523254395,0.6876633167266846
1772641333959682800,5.867682861328125,-0.1501341015100479,-0.3349628150463104,0.6346120834350586
1772641333969729000,5.87772900390625,-0.15655899047851562,-0.3534899055957794,0.5464308261871338
1772641333979774000,5.88777392578125,-0.16670429706573486,-0.3326543867588043,0.45004600286483765
1772641333989819100,5.897819091796875,-0.18175967037677765,-0.29168805480003357,0.34872230887413025
1772641333999864000,5.907864013671875,-0.20445699989795685,-0.22075368463993073,0.25112384557724
1772641334009910000,5.917909912109375,-0.23307932913303375,-0.13706012070178986,0.14639583230018616
1772641334019955000,5.927954833984375,-0.2621746361255646,-0.056958358734846115,0.03694949671626091
1772641334029999900,5.937999755859375,-0.29171255230903625,0.023970047011971474,-0.08810295909643173
1772641334040046000,5.948046142578125,-0.3200427293777466,0.11201628297567368,-0.23109793663024902
1772641334050091000,5.958091064453125,-0.33353349566459656,0.1986992508172989,-0.3872300088405609
1772641334060136200,5.96813623046875,-0.3201202154159546,0.27845531702041626,-0.5308350920677185
1772641334070181000,5.97818115234375,-0.2867497503757477,0.3383093476295471,-0.6347977519035339
1772641334080227000,5.98822705078125,-0.24133193492889404,0.37569132447242737,-0.6813812255859375
1772641334090272000,5.99827197265625,-0.19636951386928558,0.39536118507385254,-0.6726846694946289
1772641334100317000,6.00831689453125,-0.14814898371696472,0.40003502368927,-0.6091405749320984
1772641334110362000,6.018362060546875,-0.10061529278755188,0.37070828676223755,-0.5101527571678162
1772641334120408000,6.028407958984375,-0.06176163628697395,0.30102163553237915,-0.3988885283470154
1772641334130453000,6.038452880859375,-0.032166991382837296,0.21141263842582703,-0.2768334746360779
1772641334140498000,6.048497802734375,-0.00854635052382946,0.108527272939682,-0.16341955959796906
1772641334150544000,6.0585439453125,-0.005082376766949892,0.025665149092674255,-0.06362984329462051
1772641334160589000,6.068589111328125,-0.01612810418009758,-0.0184027086943388,0.013567740097641945
1772641334170634000,6.078634033203125,-0.027934428304433823,-0.029397303238511086,0.06259067356586456
1772641334180679200,6.08867919921875,-0.03821130096912384,-0.035407792776823044,0.07783674448728561
1772641334190725000,6.09872509765625,-0.044919006526470184,-0.03349777311086655,0.06417099386453629
1772641334200770000,6.10877001953125,-0.04857925325632095,-0.02347709611058235,0.02839781902730465
1772641334210815000,6.11881494140625,-0.04583460092544556,-0.008611598052084446,-0.014244715683162212
1772641334220861000,6.12886083984375,-0.046056173741817474,0.021036842837929726,-0.05699244514107704
1772641334230906000,6.138906005859375,-0.04894410818815231,0.04326251894235611,-0.09506978839635849
1772641334240951000,6.148950927734375,-0.058096591383218765,0.053288254886865616,-0.13024988770484924
1772641334250997000,6.1589970703125,-0.07215622067451477,0.062257781624794006,-0.15910708904266357
1772641334261042200,6.169042236328125,-0.08624540269374847,0.06983447819948196,-0.17884723842144012
1772641334271086800,6.1790869140625,-0.0962570309638977,0.07828228920698166,-0.18291336297988892
1772641334281132000,6.189132080078125,-0.0900537297129631,0.07765751332044601,-0.17928346991539001
1772641334291178000,6.199177978515625,-0.07878908514976501,0.072064608335495,-0.167573019862175
1772641334301223000,6.209222900390625,-0.059529904276132584,0.05565580353140831,-0.16841910779476166
1772641334311268000,6.21926806640625,-0.03917296975851059,0.04152640327811241,-0.168730691075325
1772641334321313000,6.22931298828125,-0.011276889592409134,0.033295638859272,-0.16371703147888184
1772641334331359200,6.239359130859375,0.023419039323925972,0.0367705300450325,-0.15294001996517181
1772641334341404000,6.24940380859375,0.056233976036310196,0.05489201098680496,-0.1356947124004364
1772641334351449000,6.259448974609375,0.08362671732902527,0.06984113156795502,-0.1156323254108429
1772641334361495000,6.2694951171875,0.10805642604827881,0.07070346176624298,-0.0863141119480133
1772641334371540000,6.2795400390625,0.12111843377351761,0.05799565836787224,-0.05432422459125519
1772641334381585200,6.289585205078125,0.12830550968647003,0.03550339862704277,-0.022530876100063324
1772641334391629800,6.2996298828125,0.12777261435985565,0.016764599829912186,0.0019526296528056264
1772641334401676000,6.309676025390625,0.12112642079591751,0.007223824504762888,0.020962007343769073
1772641334411721000,6.319720947265625,0.11348608136177063,0.01359570398926735,0.0387473963201046
1772641334421766100,6.32976611328125,0.11264824867248535,0.027884894981980324,0.05338013544678688
1772641334431812000,6.33981201171875,0.1140408143401146,0.04772411286830902,0.06143326684832573
1772641334441857000,6.34985693359375,0.11243706196546555,0.07440419495105743,0.0632316991686821
1772641334451902000,6.35990185546875,0.11485814303159714,0.0944596603512764,0.05970807000994682
1772641334461947000,6.36994677734375,0.11593139916658401,0.11418462544679642,0.04549238458275795
1772641334471993000,6.3799931640625,0.1198507696390152,0.13648061454296112,0.03177550807595253
1772641334482038000,6.3900380859375,0.12513528764247894,0.1507444977760315,0.014070012606680393
1772641334492083200,6.400083251953125,0.12768658995628357,0.16416417062282562,-0.0023190807551145554
1772641334502129200,6.410129150390625,0.13028477132320404,0.17526929080486298,-0.017408551648259163
1772641334512174000,6.420174072265625,0.1316954493522644,0.18377089500427246,-0.023737553507089615
1772641334522219000,6.430218994140625,0.13391944766044617,0.1926615983247757,-0.021560685709118843
1772641334532264000,6.440263916015625,0.14360269904136658,0.2023903876543045,-0.00669412175193429
1772641334542310000,6.450309814453125,0.16057848930358887,0.2014809250831604,0.011288607493042946
1772641334552355000,6.46035498046875,0.18035753071308136,0.19419237971305847,0.02912938967347145
1772641334562400000,6.47039990234375,0.19751334190368652,0.19000189006328583,0.04709267616271973
1772641334572446200,6.4804462890625,0.22008655965328217,0.18845565617084503,0.06533373147249222
1772641334582491000,6.490490966796875,0.24428430199623108,0.1906471848487854,0.08314761519432068
1772641334592536000,6.5005361328125,0.267932653427124,0.19655460119247437,0.10336367040872574
1772641334602581000,6.5105810546875,0.28729650378227234,0.20449773967266083,0.119436115026474
1772641334612627000,6.520626953125,0.3042280673980713,0.2166779786348343,0.13581828773021698
1772641334622672100,6.530672119140625,0.3237397074699402,0.22386132180690765,0.14687040448188782
1772641334632717000,6.540717041015625,0.34035730361938477,0.2040061205625534,0.15163986384868622
1772641334642763300,6.55076318359375,0.3430231213569641,0.16813866794109344,0.14259682595729828
1772641334652808000,6.560807861328125,0.34259915351867676,0.14953063428401947,0.12802241742610931
1772641334662853000,6.57085302734375,0.334995299577713,0.15800854563713074,0.10882022231817245
1772641334672898000,6.58089794921875,0.3229418396949768,0.16050632297992706,0.09152831882238388
1772641334682944000,6.590944091796875,0.29791346192359924,0.1423076093196869,0.08378864079713821
1772641334692989200,6.6009892578125,0.276905357837677,0.09913697093725204,0.07673099637031555
1772641334703033900,6.611033935546875,0.2581857442855835,0.0443408340215683,0.06955298036336899
1772641334713079800,6.621079833984375,0.24590110778808594,0.006445648614317179,0.06344794481992722
1772641334723125000,6.631125,0.23734304308891296,-0.011551727540791035,0.055697616189718246
1772641334733170000,6.641169921875,0.23407721519470215,0.0017350494163110852,0.04001292958855629
1772641334743215000,6.651215087890625,0.24367576837539673,0.040349286049604416,0.026631344109773636
1772641334753261000,6.661260986328125,0.262337863445282,0.09705943614244461,0.01888793706893921
1772641334763306200,6.67130615234375,0.2930707633495331,0.15237969160079956,0.016086291521787643
1772641334773351000,6.681350830078125,0.3307158648967743,0.19259262084960938,0.02509922720491886
1772641334783396400,6.691396240234375,0.3577996790409088,0.21404650807380676,0.050927095115184784
1772641334793442300,6.7014423828125,0.3742188811302185,0.22093211114406586,0.09736011177301407
1772641334803487200,6.7114873046875,0.3774245083332062,0.20913031697273254,0.16232898831367493
1772641334813532400,6.721532470703125,0.3723125755786896,0.1757664978504181,0.24006426334381104
1772641334823578400,6.731578369140625,0.35506489872932434,0.1381235122680664,0.3234582245349884
1772641334833623300,6.741623291015625,0.33241602778434753,0.10076336562633514,0.40049228072166443
1772641334843668200,6.751668212890625,0.30368611216545105,0.05445099249482155,0.45776569843292236
1772641334853713200,6.761713134765625,0.27095532417297363,0.01576218567788601,0.5010817646980286
1772641334863759400,6.77175927734375,0.2400011420249939,-0.01594993844628334,0.5280241370201111
1772641334873804300,6.78180419921875,0.21419352293014526,-0.043403930962085724,0.549988329410553
1772641334883849500,6.791849365234375,0.18837523460388184,-0.054790809750556946,0.5716866850852966
1772641334893895400,6.8018955078125,0.157094806432724,-0.10376793891191483,0.5710057020187378
1772641334903940000,6.811940185546875,0.12328411638736725,-0.1353391855955124,0.5567663311958313
1772641334913985300,6.8219853515625,0.09447483718395233,-0.16718286275863647,0.5388922691345215
1772641334924030200,6.8320302734375,0.05910193547606468,-0.2600342333316803,0.47841212153434753
1772641334934076400,6.842076416015625,0.0265975221991539,-0.32271865010261536,0.42618727684020996
1772641334944121300,6.852121337890625,-0.00956634059548378,-0.37530598044395447,0.3633342683315277
1772641334954166300,6.862166259765625,-0.05306188762187958,-0.40207579731941223,0.29868391156196594
1772641334964212200,6.872212158203125,-0.09333926439285278,-0.40009254217147827,0.22629891335964203
1772641334974257200,6.882257080078125,-0.1337737739086151,-0.35980769991874695,0.11533511430025101
1772641334984302300,6.89230224609375,-0.15369822084903717,-0.3067820370197296,-0.022592660039663315
1772641334994347300,6.90234716796875,-0.16119235754013062,-0.2263370007276535,-0.18520714342594147
1772641335004393200,6.912393310546875,-0.15215039253234863,-0.1392281949520111,-0.36034300923347473
1772641335014438400,6.9224384765625,-0.1342446208000183,-0.03624056279659271,-0.5358964800834656
1772641335024483300,6.9324833984375,-0.11099229753017426,0.08423498272895813,-0.6740636229515076
1772641335034529300,6.942529296875,-0.07437329739332199,0.1745707392692566,-0.7647719979286194
1772641335044574200,6.95257421875,-0.02203366346657276,0.2324335128068924,-0.7898783683776855
1772641335054619400,6.962619384765625,0.033788058906793594,0.27944815158843994,-0.7593103647232056
1772641335064664300,6.972664306640625,0.09268732368946075,0.30212682485580444,-0.6873970031738281
1772641335074710300,6.982710205078125,0.1469590812921524,0.31254512071609497,-0.5883879065513611
1772641335084755200,6.992755126953125,0.1857735961675644,0.2980588674545288,-0.48332804441452026
1772641335094800100,7.002800048828125,0.19030416011810303,0.24850088357925415,-0.39219945669174194
1772641335104846300,7.012846435546875,0.1628163456916809,0.1793854683637619,-0.31737610697746277
1772641335114891300,7.022891357421875,0.11650903522968292,0.10320867598056793,-0.25455132126808167
1772641335124936400,7.0329365234375,0.06368443369865417,0.034866638481616974,-0.20023615658283234
1772641335134981400,7.0429814453125,0.01810763031244278,-0.027059314772486687,-0.15782637894153595
1772641335145027000,7.053027099609375,-0.01847195066511631,-0.07452882826328278,-0.13496021926403046
1772641335155072300,7.063072265625,-0.04482819139957428,-0.10272637754678726,-0.12915532290935516
1772641335165117200,7.0731171875,-0.0633707195520401,-0.12112083286046982,-0.14331668615341187
1772641335175163400,7.083163330078125,-0.07389073818922043,-0.12352193892002106,-0.1684713065624237
1772641335185208300,7.093208251953125,-0.09066598862409592,-0.11973359435796738,-0.19774051010608673
1772641335195253200,7.103253173828125,-0.1031852439045906,-0.12489107251167297,-0.22387464344501495
1772641335205298200,7.113298095703125,-0.12327107042074203,-0.12785916030406952,-0.23872922360897064
1772641335215344000,7.12334423828125,-0.1448088437318802,-0.10858426988124847,-0.23295281827449799
1772641335225389300,7.133389404296875,-0.16196545958518982,-0.09970129281282425,-0.21592749655246735
1772641335235434200,7.143434326171875,-0.1728695183992386,-0.0788990780711174,-0.18867270648479462
1772641335245479400,7.1534794921875,-0.17374223470687866,-0.06588234752416611,-0.16172738373279572
1772641335255525400,7.163525390625,-0.16921059787273407,-0.06089051440358162,-0.1321742832660675
1772641335265570000,7.173570068359375,-0.15759281814098358,-0.061952583491802216,-0.10269814729690552
1772641335275615200,7.183615234375,-0.15003690123558044,-0.06754868477582932,-0.06952261924743652
1772641335285661200,7.1936611328125,-0.1469404399394989,-0.07763247936964035,-0.02955576218664646
1772641335295706400,7.203706298828125,-0.1505490243434906,-0.09772922098636627,0.012953349389135838
1772641335305751300,7.213751220703125,-0.1543767899274826,-0.12207237631082535,0.05450904741883278
1772641335315796500,7.22379638671875,-0.16251008212566376,-0.13689127564430237,0.10371680557727814
1772641335325842400,7.233842529296875,-0.167404443025589,-0.1575097292661667,0.13893258571624756
1772641335335887000,7.24388720703125,-0.16673998534679413,-0.15886127948760986,0.17194698750972748
1772641335345932300,7.253932373046875,-0.16642573475837708,-0.14239469170570374,0.1953713595867157
1772641335355978200,7.263978271484375,-0.16572292149066925,-0.13402411341667175,0.20247668027877808
1772641335366023400,7.2740234375,-0.15958645939826965,-0.1116144135594368,0.19861455261707306
1772641335376068400,7.284068359375,-0.15818963944911957,-0.0868251770734787,0.19530904293060303
1772641335386113300,7.29411328125,-0.1561318188905716,-0.08952295780181885,0.18136979639530182
1772641335396159200,7.3041591796875,-0.153826043009758,-0.06522481143474579,0.1819189339876175
1772641335406204200,7.3142041015625,-0.15540637075901031,-0.08563713729381561,0.16766569018363953
1772641335416249300,7.324249267578125,-0.15012025833129883,-0.0803409144282341,0.1697128713130951
1772641335426295300,7.33429541015625,-0.1381956934928894,-0.07458049058914185,0.18198470771312714
1772641335436340200,7.34434033203125,-0.12835317850112915,-0.05958503484725952,0.20658433437347412
1772641335446385400,7.354385498046875,-0.11757749319076538,-0.07371283322572708,0.2314063310623169
1772641335456430000,7.36443017578125,-0.10904659330844879,-0.08650293201208115,0.2569630742073059
1772641335466476300,7.374476318359375,-0.10437887161970139,-0.10816481709480286,0.27940475940704346
1772641335476521200,7.384521240234375,-0.10540685057640076,-0.10652857273817062,0.3029087483882904
1772641335486566400,7.39456640625,-0.11870002001523972,-0.157953143119812,0.29376503825187683
1772641335496612400,7.4046123046875,-0.13664625585079193,-0.2030780166387558,0.273762583732605
1772641335506657300,7.4146572265625,-0.1560407280921936,-0.21950359642505646,0.2501448690891266
1772641335516702200,7.4247021484375,-0.16604489088058472,-0.19803506135940552,0.23314617574214935
1772641335526747100,7.4347470703125,-0.17817239463329315,-0.18296422064304352,0.20423462986946106
1772641335536793300,7.44479345703125,-0.19630080461502075,-0.18973185122013092,0.15542660653591156
1772641335546838300,7.45483837890625,-0.21777120232582092,-0.1848958134651184,0.08846781402826309
1772641335556883500,7.464883544921875,-0.23620960116386414,-0.14108175039291382,0.018800320103764534
1772641335566929400,7.474929443359375,-0.2417260706424713,-0.04454110190272331,-0.0412137508392334
1772641335576974300,7.484974365234375,-0.23081323504447937,0.06001513451337814,-0.0711711123585701
1772641335587019300,7.495019287109375,-0.20792044699192047,0.11737429350614548,-0.06706638634204865
1772641335597064200,7.505064208984375,-0.17785334587097168,0.09646022319793701,-0.03495478630065918
1772641335607110100,7.515110107421875,-0.1567896157503128,0.042581282556056976,0.016693226993083954
1772641335617155300,7.5251552734375,-0.14997990429401398,-0.018063155934214592,0.07576027512550354
1772641335627200300,7.5352001953125,-0.15301963686943054,-0.04832998290657997,0.14335742592811584
1772641335637245200,7.5452451171875,-0.16589468717575073,-0.05338972061872482,0.2130877673625946
1772641335647291100,7.555291015625,-0.1760474592447281,-0.03551751375198364,0.29208406805992126
1772641335657336300,7.56533642578125,-0.19584646821022034,-0.047807469964027405,0.34423860907554626
1772641335667381200,7.57538134765625,-0.20780299603939056,-0.061479341238737106,0.39229559898376465
1772641335677427200,7.58542724609375,-0.21884073317050934,-0.06477313488721848,0.4236133098602295
1772641335687472400,7.595472412109375,-0.22297236323356628,-0.0819380059838295,0.4291878342628479
1772641335697517300,7.605517333984375,-0.21712325513362885,-0.07144302129745483,0.4245677888393402
1772641335707562200,7.615562255859375,-0.20366205275058746,-0.050504185259342194,0.415311723947525
1772641335717608200,7.625608154296875,-0.18379247188568115,-0.06285006552934647,0.38312554359436035
1772641335727653400,7.6356533203125,-0.15764155983924866,-0.03599981218576431,0.3601754903793335
1772641335737698300,7.6456982421875,-0.14374491572380066,-0.036673590540885925,0.32817813754081726
1772641335747744300,7.655744140625,-0.14230787754058838,-0.04917766526341438,0.2929021716117859
1772641335757789400,7.66578955078125,-0.14237019419670105,-0.035650137811899185,0.2624337375164032
1772641335767834000,7.675834228515625,-0.15462712943553925,-0.0560198612511158,0.22122080624103546
1772641335777879600,7.685879638671875,-0.17478778958320618,-0.0663294866681099,0.17681631445884705
1772641335787925500,7.695925537109375,-0.1975143998861313,-0.06809356808662415,0.12799152731895447
1772641335797970200,7.70597021484375,-0.21623483300209045,-0.05380570888519287,0.06559525430202484
1772641335808015400,7.716015380859375,-0.23664875328540802,-0.02888890542089939,-0.006325806491076946
1772641335818061300,7.726061279296875,-0.27578550577163696,-0.007101851515471935,-0.09171580523252487
1772641335828106500,7.7361064453125,-0.2958572208881378,-0.0034019220620393753,-0.17302823066711426
1772641335838151400,7.7461513671875,-0.3052608370780945,0.010210293345153332,-0.24363236129283905
1772641335848196600,7.756196533203125,-0.2989843189716339,0.008378837257623672,-0.2893575131893158
1772641335858242600,7.76624267578125,-0.2734949290752411,-0.011455054394900799,-0.3156666159629822
1772641335868287200,7.776287353515625,-0.2317083328962326,-0.012999688275158405,-0.32117828726768494
1772641335878332400,7.78633251953125,-0.18391017615795135,-0.009500826708972454,-0.3111450970172882
1772641335888377300,7.79637744140625,-0.13192208111286163,-0.014277473092079163,-0.29663753509521484
1772641335898423600,7.806423583984375,-0.0830882266163826,-0.03224635496735573,-0.28232595324516296
1772641335908468500,7.816468505859375,-0.04256051033735275,-0.04206116870045662,-0.2737412750720978
1772641335918513400,7.826513427734375,-0.011886220425367355,-0.018544122576713562,-0.2675837576389313
1772641335928559400,7.836559326171875,0.011210842989385128,0.007140467409044504,-0.25760915875434875
1772641335938604300,7.846604248046875,0.02279692515730858,0.029214877635240555,-0.2302342653274536
1772641335948649500,7.8566494140625,0.03135339543223381,0.030668163672089577,-0.19366107881069183
1772641335958694400,7.8666943359375,0.03184075281023979,-0.007171360310167074,-0.1434258669614792
1772641335968740400,7.876740234375,0.0219710785895586,-0.07095646113157272,-0.09525221586227417
1772641335978785500,7.88678564453125,0.011437743902206421,-0.13536927103996277,-0.05584568902850151
1772641335988830200,7.896830322265625,0.00013608753215521574,-0.17283089458942413,-0.02280438132584095
1772641335998876400,7.90687646484375,-0.004858671221882105,-0.18398980796337128,-0.012891297228634357
1772641336008921300,7.91692138671875,-0.005297826137393713,-0.18144328892230988,-0.014476411044597626
1772641336018966500,7.926966552734375,-0.00407490273937583,-0.16961726546287537,-0.0411655455827713
1772641336029011500,7.937011474609375,-0.0024919197894632816,-0.14251241087913513,-0.08218888193368912
1772641336039057400,7.947057373046875,0.0006639260682277381,-0.10517435520887375,-0.13321371376514435
1772641336049102300,7.957102294921875,0.0056863813661038876,-0.06324049085378647,-0.18957898020744324
1772641336059147300,7.967147216796875,0.015731291845440865,-0.02081579901278019,-0.23860858380794525
1772641336069193500,7.977193359375,0.030010895803570747,0.01720934733748436,-0.284333735704422
1772641336079238400,7.98723828125,0.04736778140068054,0.05642705783247948,-0.3088318705558777
1772641336089283600,7.99728369140625,0.0623382106423378,0.0853995829820633,-0.3197905123233795
1772641336099328500,8.00732861328125,0.08036088198423386,0.10607663542032242,-0.31396645307540894
1772641336109374500,8.01737451171875,0.09962592273950577,0.11952906101942062,-0.2847324013710022
1772641336119419400,8.02741943359375,0.11376704275608063,0.11146793514490128,-0.24312157928943634
1772641336129464300,8.03746435546875,0.12315548956394196,0.13223978877067566,-0.20289212465286255
1772641336139509500,8.047509521484375,0.14686907827854156,0.1288653016090393,-0.16235455870628357
1772641336149555500,8.057555419921876,0.15900057554244995,0.13242807984352112,-0.12369291484355927
1772641336159600400,8.067600341796876,0.15973959863185883,0.12910792231559753,-0.09004680067300797
1772641336169645300,8.077645263671876,0.15587268769741058,0.11934849619865417,-0.05385391041636467
1772641336179691300,8.087691162109374,0.15859736502170563,0.10188987851142883,-0.020258400589227676
1772641336189736400,8.097736328125,0.16045492887496948,0.09722188860177994,0.011606056243181229
1772641336199781400,8.107781494140625,0.16082777082920074,0.09320850670337677,0.0388089157640934
1772641336209826600,8.11782666015625,0.16157051920890808,0.06752151995897293,0.058228686451911926
1772641336219872500,8.12787255859375,0.16902603209018707,0.050818972289562225,0.06592868268489838
1772641336229917200,8.137917236328125,0.1780642718076706,0.049259159713983536,0.0688088908791542
1772641336239962400,8.14796240234375,0.1861000955104828,0.05968170613050461,0.069785475730896
1772641336250008300,8.15800830078125,0.18863356113433838,0.058751463890075684,0.07161054015159607
1772641336260053500,8.168053466796875,0.18802769482135773,0.047500140964984894,0.07274078577756882
1772641336270098400,8.178098388671875,0.18293040990829468,0.01955079846084118,0.07361935824155807
1772641336280143600,8.1881435546875,0.1852300465106964,0.010665959678590298,0.0834304466843605
1772641336290189600,8.198189453125,0.18890653550624847,0.02708434872329235,0.0903000682592392
1772641336300234200,8.208234130859376,0.19058778882026672,0.05323712155222893,0.09677714109420776
1772641336310279400,8.218279541015624,0.19607017934322357,0.07920879870653152,0.10705640912055969
1772641336320325400,8.228325439453124,0.2084067314863205,0.1309468299150467,0.13511760532855988
1772641336330370300,8.238370361328125,0.23984907567501068,0.15633368492126465,0.15591369569301605
1772641336340415500,8.24841552734375,0.27569177746772766,0.15568813681602478,0.17247456312179565
1772641336350460400,8.25846044921875,0.3021090030670166,0.12115225940942764,0.17374728620052338
1772641336360506400,8.26850634765625,0.31101804971694946,0.08685500174760818,0.1599009782075882
1772641336370551300,8.27855126953125,0.29422444105148315,0.07810838520526886,0.15410861372947693
1772641336380596500,8.288596435546875,0.28746452927589417,0.062075354158878326,0.15395814180374146
1772641336390641400,8.298641357421875,0.2809158265590668,0.055632367730140686,0.16004453599452972
1772641336400687400,8.308687255859375,0.2720368504524231,0.04326225444674492,0.16438254714012146
1772641336410732500,8.318732666015626,0.25974661111831665,0.02768276073038578,0.1594003140926361
1772641336420777200,8.328777099609376,0.25082075595855713,0.021159613505005836,0.14440271258354187
1772641336430823400,8.338823486328126,0.2379148304462433,0.03250974044203758,0.12722931802272797
1772641336440868400,8.348868408203124,0.21526864171028137,0.04009628668427467,0.10104858875274658
1772641336450913500,8.35891357421875,0.17309162020683289,0.029864421114325523,0.07824526727199554
1772641336460958500,8.36895849609375,0.1445380002260208,-0.026221483945846558,0.05886225029826164
1772641336471004400,8.37900439453125,0.12993615865707397,-0.04006299749016762,0.07086831331253052
1772641336481049300,8.38904931640625,0.11179310828447342,-0.14997431635856628,0.061588793992996216
1772641336491094300,8.39909423828125,0.09039966762065887,-0.20576994121074677,0.0734127014875412
1772641336501140500,8.409140380859375,0.07132957130670547,-0.2276853621006012,0.08495989441871643
1772641336511185400,8.419185302734375,0.07278285920619965,-0.21628622710704803,0.1091078445315361
1772641336521230300,8.429230224609375,0.08659294992685318,-0.15456721186637878,0.13484276831150055
1772641336531275500,8.439275634765625,0.10634614527225494,-0.05748699605464935,0.14823581278324127
1772641336541321500,8.449321533203126,0.1354486346244812,0.07401271164417267,0.14064472913742065
1772641336551366400,8.459366455078126,0.16690562665462494,0.19797247648239136,0.11082105338573456
1772641336561411300,8.469411376953126,0.20788341760635376,0.26638373732566833,0.07243771106004715
1772641336571457300,8.479457275390626,0.24804389476776123,0.3165244162082672,0.039320506155490875
1772641336581502500,8.48950244140625,0.26831772923469543,0.3267059326171875,0.03508767858147621
1772641336591547400,8.49954736328125,0.2754765748977661,0.2648085057735443,0.05747953802347183
1772641336601592300,8.50959228515625,0.2807443141937256,0.16857649385929108,0.10360575467348099
1772641336611638300,8.51963818359375,0.2719883620738983,0.07680530101060867,0.1438349336385727
