time,seconds_elapsed,z,y,x
1772641328149739800,0.05773974609375,-0.02689574472606182,0.09470617026090622,-0.06494004279375076
1772641328159784400,0.067784423828125,-0.008460278622806072,0.09714136272668839,-0.08179385215044022
1772641328169830700,0.07783056640625,0.008738917298614979,0.10631062835454941,-0.10208003222942352
1772641328179875600,0.08787548828125,0.02303210273385048,0.10640090703964233,-0.1292964667081833
1772641328189920800,0.097920654296875,0.03803889453411102,0.10917346924543381,-0.14855167269706726
1772641328199965700,0.107965576171875,0.04826516658067703,0.11111650615930557,-0.15518134832382202
1772641328210011600,0.11801171875,0.05435481294989586,0.08970947563648224,-0.15334147214889526
1772641328220056800,0.128056884765625,0.0540086030960083,0.05736565589904785,-0.13758566975593567
1772641328230101500,0.1381015625,0.05241108685731888,0.03703981637954712,-0.11359068751335144
1772641328240147700,0.148147705078125,0.03888462483882904,-0.008222468197345734,-0.09445907175540924
1772641328250192600,0.158192626953125,0.016941066831350327,-0.05112753063440323,-0.07678507268428802
1772641328260237600,0.168237548828125,-0.014135893434286118,-0.09572774916887283,-0.07352429628372192
1772641328270283800,0.17828369140625,-0.04567757621407509,-0.13083674013614655,-0.08317719399929047
1772641328280328700,0.18832861328125,-0.0766671821475029,-0.13720490038394928,-0.09510522335767746
1772641328290373600,0.19837353515625,-0.10810304433107376,-0.1332170069217682,-0.11618608236312866
1772641328300418600,0.20841845703125,-0.1334313005208969,-0.105519600212574,-0.13566364347934723
1772641328310464500,0.218464599609375,-0.16355490684509277,-0.06354033201932907,-0.15219953656196594
1772641328320509700,0.228509765625,-0.18970263004302979,-0.05762225389480591,-0.1678200364112854
1772641328330554600,0.2385546875,-0.2124902904033661,-0.08738958090543747,-0.18400755524635315
1772641328340600800,0.248600830078125,-0.23352713882923126,-0.10681893676519394,-0.19201700389385223
1772641328350645500,0.2586455078125,-0.25580593943595886,-0.13277119398117065,-0.19819271564483643
1772641328360690700,0.268690673828125,-0.2724094092845917,-0.14115029573440552,-0.1928008794784546
1772641328370735600,0.278735595703125,-0.28957274556159973,-0.161625936627388,-0.18775016069412231
1772641328380781600,0.288781494140625,-0.30377617478370667,-0.18260471522808075,-0.1832912266254425
1772641328390826800,0.29882666015625,-0.31247472763061523,-0.190091073513031,-0.17592933773994446
1772641328400871700,0.30887158203125,-0.31890037655830383,-0.21298520267009735,-0.17316417396068573
1772641328410917600,0.318917724609375,-0.3296939432621002,-0.2184196561574936,-0.17966477572917938
1772641328420962600,0.328962646484375,-0.3393465578556061,-0.2057589888572693,-0.18198838829994202
1772641328431007700,0.3390078125,-0.3508882522583008,-0.21268193423748016,-0.18961872160434723
1772641328441052700,0.349052734375,-0.3551567494869232,-0.21306808292865753,-0.1899055391550064
1772641328451098600,0.3590986328125,-0.353191077709198,-0.20459109544754028,-0.18248210847377777
1772641328461143800,0.369143798828125,-0.3336341381072998,-0.16949515044689178,-0.15866759419441223
1772641328471188500,0.3791884765625,-0.3173584043979645,-0.14398856461048126,-0.14002665877342224
1772641328481234400,0.389234375,-0.3154537081718445,-0.12654778361320496,-0.12468551844358444
1772641328491279600,0.399279541015625,-0.32350388169288635,-0.141880601644516,-0.1066092848777771
1772641328501324500,0.409324462890625,-0.34089669585227966,-0.17182359099388123,-0.094737708568573
1772641328511369700,0.41936962890625,-0.35646164417266846,-0.21118277311325073,-0.06687857210636139
1772641328521415700,0.429415771484375,-0.3729873597621918,-0.2560026943683624,-0.04842153936624527
1772641328531460900,0.4394609375,-0.39442694187164307,-0.30551236867904663,-0.030613573268055916
1772641328541505500,0.449505615234375,-0.4108325242996216,-0.3417142927646637,-0.014342989772558212
1772641328551551500,0.459551513671875,-0.426117479801178,-0.3776613175868988,-0.004591347184032202
1772641328561596700,0.4695966796875,-0.4343130886554718,-0.41115322709083557,0.0033307578414678574
1772641328571641600,0.4796416015625,-0.4257158637046814,-0.4173597991466522,0.021375592797994614
1772641328581687800,0.489687744140625,-0.3981228768825531,-0.41389450430870056,0.04506813734769821
1772641328591732700,0.499732666015625,-0.36758822202682495,-0.4014323055744171,0.06634926795959473
1772641328601777700,0.509777587890625,-0.3285446763038635,-0.3675563633441925,0.09286876022815704
1772641328611822600,0.519822509765625,-0.2846595048904419,-0.36297306418418884,0.12469299882650375
1772641328621868500,0.52986865234375,-0.2220909148454666,-0.32041308283805847,0.1832686960697174
1772641328631913700,0.539913818359375,-0.15753377974033356,-0.31454572081565857,0.24206878244876862
1772641328641958700,0.549958740234375,-0.10566391795873642,-0.3190920054912567,0.2963738441467285
1772641328652004600,0.560004638671875,-0.07533838599920273,-0.35530540347099304,0.32879096269607544
1772641328662049800,0.5700498046875,-0.07829209417104721,-0.401373028755188,0.33301207423210144
1772641328672094500,0.580094482421875,-0.09833238273859024,-0.42322826385498047,0.309026837348938
1772641328682139600,0.5901396484375,-0.13222269713878632,-0.40249529480934143,0.25800758600234985
1772641328692185600,0.600185546875,-0.1708182394504547,-0.35364121198654175,0.17649692296981812
1772641328702230800,0.610230712890625,-0.21238858997821808,-0.2851489782333374,0.07457029819488525
1772641328712275700,0.620275634765625,-0.2542797029018402,-0.18134504556655884,-0.03635735064744949
1772641328722321700,0.63032177734375,-0.29299673438072205,-0.06101890280842781,-0.13389988243579865
1772641328732366600,0.64036669921875,-0.3119868338108063,0.055858321487903595,-0.20718665421009064
1772641328742411500,0.65041162109375,-0.29701265692710876,0.14812754094600677,-0.24776096642017365
1772641328752456700,0.660456787109375,-0.2558154761791229,0.2044641673564911,-0.24738527834415436
1772641328762502700,0.670502685546875,-0.19384877383708954,0.23638826608657837,-0.2011922001838684
1772641328772547600,0.680547607421875,-0.12639456987380981,0.26269468665122986,-0.11548272520303726
1772641328782592300,0.69059228515625,-0.06843993812799454,0.2775804400444031,0.0032399275805801153
1772641328792638200,0.70063818359375,-0.034112706780433655,0.2749369442462921,0.13186925649642944
1772641328802683400,0.710683349609375,-0.026337606832385063,0.2598216235637665,0.24993517994880676
1772641328812728300,0.720728271484375,-0.014758218079805374,0.2273188829421997,0.38406968116760254
1772641328822774500,0.7307744140625,-0.01870768517255783,0.17150036990642548,0.48446124792099
1772641328832819500,0.7408193359375,-0.028695274144411087,0.11492515355348587,0.5653285980224609
1772641328842864600,0.75086474609375,-0.036061841994524,0.046056605875492096,0.6174943447113037
1772641328852909300,0.760909423828125,-0.036544378846883774,-0.02282731421291828,0.6408058404922485
1772641328862955300,0.770955322265625,-0.031984515488147736,-0.1183844655752182,0.6303952932357788
1772641328873000400,0.78100048828125,-0.026056380942463875,-0.19756263494491577,0.5983567833900452
1772641328883045400,0.79104541015625,-0.015271644107997417,-0.2554416358470917,0.5519224405288696
1772641328893091300,0.80109130859375,-0.004577277693897486,-0.27242228388786316,0.49436357617378235
1772641328903136500,0.811136474609375,0.0036204643547534943,-0.23535534739494324,0.432184100151062
1772641328913181200,0.82118115234375,0.01021821703761816,-0.1592807024717331,0.3493565320968628
1772641328923226400,0.831226318359375,0.016154402866959572,-0.07355674356222153,0.25041210651397705
1772641328933272300,0.841272216796875,0.016656992956995964,0.015121405944228172,0.12454844266176224
1772641328943317500,0.8513173828125,0.001315854606218636,0.09015250951051712,-0.037993066012859344
1772641328953362400,0.861362548828125,-0.025736477226018906,0.1596299260854721,-0.21535201370716095
1772641328963408400,0.871408447265625,-0.06239888444542885,0.20849013328552246,-0.3860984742641449
1772641328973453600,0.88145361328125,-0.09860458970069885,0.23613296449184418,-0.5169529914855957
1772641328983498200,0.891498291015625,-0.12080176919698715,0.26300370693206787,-0.5901646018028259
1772641328993543400,0.90154345703125,-0.12373769283294678,0.27828124165534973,-0.6053206324577332
1772641329003589400,0.91158935546875,-0.09932395815849304,0.26329219341278076,-0.5791750550270081
1772641329013634600,0.921634521484375,-0.07558942586183548,0.26994603872299194,-0.5271192789077759
1772641329023679500,0.931679443359375,-0.04808669909834862,0.2583479583263397,-0.4653299152851105
1772641329033725400,0.941725341796875,-0.024580569937825203,0.24174360930919647,-0.3991713523864746
1772641329043770400,0.951770263671875,-0.0061837187968194485,0.21520334482192993,-0.33608904480934143
1772641329053815300,0.961815185546875,0.007045530714094639,0.16335301101207733,-0.27954620122909546
1772641329063861200,0.971861328125,0.012788637541234493,0.097813680768013,-0.22982445359230042
1772641329073906400,0.981906494140625,0.009562716819345951,0.042676206678152084,-0.18749123811721802
1772641329083951400,0.991951416015625,0.003242237027734518,0.007980807684361935,-0.15103895962238312
1772641329093996300,1.001996337890625,0.0018443185836076736,-0.016374478116631508,-0.12514156103134155
1772641329104042200,1.012042236328125,0.008963480591773987,-0.03390153869986534,-0.11233415454626083
1772641329114087400,1.02208740234375,0.019542299211025238,-0.03832652047276497,-0.11538326740264893
1772641329124132400,1.03213232421875,0.025237202644348145,-0.03273547813296318,-0.13710719347000122
1772641329134178300,1.04217822265625,0.025499871000647545,-0.013576949015259743,-0.16857880353927612
1772641329144223500,1.052223388671875,0.022422853857278824,0.016027016565203667,-0.2083403319120407
1772641329154268400,1.062268310546875,0.017556553706526756,0.04412442073225975,-0.24786005914211273
1772641329164313300,1.072313232421875,0.0092775858938694,0.06882098317146301,-0.2760264575481415
1772641329174359300,1.082359375,0.000829508644528687,0.09178907424211502,-0.2874833345413208
1772641329184404500,1.092404541015625,-0.005994308739900589,0.09123726189136505,-0.28945857286453247
1772641329194449400,1.102449462890625,-0.016087429597973824,0.11708737909793854,-0.2746043801307678
1772641329204495400,1.112495361328125,-0.02346092276275158,0.14039963483810425,-0.25575771927833557
1772641329214540500,1.12254052734375,-0.015577346086502075,0.11511092633008957,-0.23948673903942108
1772641329224585200,1.132585205078125,0.00760653568431735,0.08197134733200073,-0.21964165568351746
1772641329234630400,1.14263037109375,0.03249797597527504,0.06092085689306259,-0.20138821005821228
1772641329244676400,1.15267626953125,0.06267904490232468,0.05867288261651993,-0.17954814434051514
1772641329254721300,1.16272119140625,0.08996286988258362,0.04801464453339577,-0.1608618199825287
1772641329264766500,1.172766357421875,0.1180027574300766,0.03156403452157974,-0.14844748377799988
1772641329274812400,1.1828125,0.1410568803548813,0.014988717623054981,-0.1354556381702423
1772641329284857600,1.192857666015625,0.1644895076751709,0.0065771229565143585,-0.11595889925956726
1772641329294902300,1.20290234375,0.18952958285808563,0.011396162211894989,-0.09189556539058685
1772641329304947500,1.212947509765625,0.2213546335697174,0.026614263653755188,-0.056382838636636734
1772641329314993400,1.222993408203125,0.2470577359199524,0.032878562808036804,-0.024432962760329247
1772641329325038300,1.233038330078125,0.26716700196266174,0.024562042206525803,0.002707844600081444
1772641329335083500,1.24308349609375,0.27587002515792847,0.024128135293722153,0.025273025035858154
1772641329345129500,1.25312939453125,0.27271711826324463,0.027975071221590042,0.03814435005187988
1772641329355174400,1.26317431640625,0.27244338393211365,0.03078039176762104,0.04199501872062683
1772641329365219300,1.27321923828125,0.2718889117240906,0.04114088788628578,0.04242991283535957
1772641329375264500,1.283264404296875,0.27549126744270325,0.05706831440329552,0.03778335824608803
1772641329385310500,1.293310546875,0.2763786315917969,0.07586011290550232,0.036925286054611206
1772641329395355400,1.30335546875,0.2747395634651184,0.09423059225082397,0.04182255640625954
1772641329405400600,1.313400634765625,0.2650046646595001,0.11425836384296417,0.051918067038059235
1772641329415446500,1.323446533203125,0.2549975514411926,0.1353379487991333,0.07447981089353561
1772641329425491500,1.333491455078125,0.24685603380203247,0.145128533244133,0.10436180979013443
1772641329435536400,1.343536376953125,0.24291303753852844,0.1408635377883911,0.1352141946554184
1772641329445582300,1.353582275390625,0.24249306321144104,0.13904167711734772,0.16749437153339386
1772641329455627500,1.36362744140625,0.24530580639839172,0.13802029192447662,0.19284293055534363
1772641329465672400,1.37367236328125,0.2492067962884903,0.15186738967895508,0.2122155725955963
1772641329475717400,1.38371728515625,0.25913330912590027,0.18441934883594513,0.21120858192443848
1772641329485763300,1.393763427734375,0.26918619871139526,0.24022962152957916,0.18414048850536346
1772641329495808300,1.403808349609375,0.2850140929222107,0.31854432821273804,0.13039077818393707
1772641329505853400,1.413853515625,0.3200402557849884,0.38388338685035706,0.059625525027513504
1772641329515899400,1.4238994140625,0.3724718689918518,0.4147677421569824,-0.011188564822077751
1772641329525944600,1.433944580078125,0.4303000271320343,0.40169695019721985,-0.08316635340452194
1772641329535989500,1.443989501953125,0.4624892473220825,0.38025590777397156,-0.1523299664258957
1772641329546034400,1.454034423828125,0.44831588864326477,0.31941813230514526,-0.21724744141101837
1772641329556080400,1.464080322265625,0.39794766902923584,0.22338218986988068,-0.2737590968608856
1772641329566125300,1.474125244140625,0.3356448709964752,0.15269896388053894,-0.3188554644584656
1772641329576170500,1.48417041015625,0.2685246467590332,0.07507068663835526,-0.34440380334854126
1772641329586216400,1.494216552734375,0.20087237656116486,0.05483146011829376,-0.3370414674282074
1772641329596261400,1.504261474609375,0.1658344715833664,0.07799476385116577,-0.2866491973400116
1772641329606306300,1.514306396484375,0.17912337183952332,0.14802710711956024,-0.20284084975719452
1772641329616351500,1.5243515625,0.22264133393764496,0.21573759615421295,-0.09982199221849442
1772641329626397400,1.5343974609375,0.2785030007362366,0.25534623861312866,-0.00415778486058116
1772641329636442400,1.5444423828125,0.32611194252967834,0.2672446072101593,0.07638530433177948
1772641329646487600,1.554487548828125,0.3609498143196106,0.24571479856967926,0.1444045603275299
1772641329656533500,1.564533447265625,0.37733975052833557,0.2136913537979126,0.21134346723556519
1772641329666578200,1.574578125,0.3776380121707916,0.1594526171684265,0.2781006693840027
1772641329676623400,1.584623291015625,0.36816227436065674,0.11177928745746613,0.33634838461875916
1772641329686668300,1.594668212890625,0.3443722724914551,0.07380953431129456,0.37434157729148865
1772641329696714500,1.604714599609375,0.3157232403755188,0.0670771449804306,0.4036470353603363
1772641329706759400,1.614759521484375,0.2765539884567261,0.09506137669086456,0.4199221432209015
1772641329716804600,1.6248046875,0.23627561330795288,0.13511697947978973,0.42843666672706604
1772641329726850600,1.6348505859375,0.192519873380661,0.16006867587566376,0.43129849433898926
1772641329736895200,1.644895263671875,0.15057961642742157,0.1558544784784317,0.4310862421989441
1772641329746940400,1.6549404296875,0.10920047760009766,0.12354101985692978,0.42620545625686646
1772641329756985300,1.6649853515625,0.06682219356298447,0.07433219254016876,0.4184768795967102
1772641329767031600,1.675031494140625,0.02538900077342987,0.02292811870574951,0.4055008888244629
1772641329777076500,1.685076416015625,-0.010381514206528664,-0.011066332459449768,0.3857972323894501
1772641329787121400,1.695121337890625,-0.04008881002664566,-0.03427684307098389,0.35699355602264404
1772641329797167400,1.70516748046875,-0.06287410855293274,-0.04784765467047691,0.31991446018218994
1772641329807212300,1.71521240234375,-0.0750679224729538,-0.06034427136182785,0.27833908796310425
1772641329817257500,1.725257568359375,-0.07591751217842102,-0.0631728544831276,0.22078843414783478
1772641329827303400,1.735303466796875,-0.07390575855970383,-0.03817961737513542,0.14070691168308258
1772641329837348400,1.745348388671875,-0.06665109097957611,0.01459602452814579,0.03935713320970535
1772641329847393500,1.7553935546875,-0.06722740083932877,0.07619386911392212,-0.07936712354421616
1772641329857438200,1.765438232421875,-0.08484383672475815,0.13352562487125397,-0.19733013212680817
1772641329867484400,1.775484375,-0.11861670762300491,0.16014498472213745,-0.311046838760376
1772641329877529300,1.785529296875,-0.1628189980983734,0.15349127352237701,-0.40673717856407166
1772641329887574500,1.795574462890625,-0.20498695969581604,0.13975068926811218,-0.46756991744041443
1772641329897620500,1.805620361328125,-0.22795617580413818,0.1156492680311203,-0.49185335636138916
1772641329907665400,1.81566552734375,-0.23633688688278198,0.08056159317493439,-0.4708777666091919
1772641329917710300,1.82571044921875,-0.2420179694890976,0.010485108941793442,-0.42698314785957336
1772641329927755300,1.83575537109375,-0.2236163318157196,-0.00664674025028944,-0.3456355631351471
1772641329937801500,1.845801513671875,-0.17911146581172943,-0.028193116188049316,-0.25686630606651306
1772641329947846400,1.855846435546875,-0.13328857719898224,-0.06265921145677567,-0.17614537477493286
1772641329957891600,1.8658916015625,-0.09001384675502777,-0.03850388154387474,-0.09077350795269012
1772641329967937500,1.8759375,-0.061036791652441025,-0.0513208769261837,-0.04580656811594963
1772641329977982500,1.885982421875,-0.04767236486077309,-0.06515053659677505,-0.018946152180433273
1772641329988027400,1.89602734375,-0.04823429137468338,-0.09258083254098892,-0.01627659797668457
1772641329998072300,1.906072265625,-0.06312974542379379,-0.11070869117975235,-0.023040564730763435
1772641330008118300,1.9161181640625,-0.0799340233206749,-0.1183285266160965,-0.03240743651986122
1772641330018163500,1.92616357421875,-0.08973676711320877,-0.1238396018743515,-0.03533298894762993
1772641330028208400,1.93620849609375,-0.09097487479448318,-0.14181648194789886,-0.03619745001196861
1772641330038254600,1.946254638671875,-0.08835431933403015,-0.16745294630527496,-0.03736092895269394
1772641330048299300,1.95629931640625,-0.08751941472291946,-0.19703054428100586,-0.04868974909186363
1772641330058344400,1.966344482421875,-0.09501659125089645,-0.21328501403331757,-0.06709374487400055
1772641330068389400,1.976389404296875,-0.11234071850776672,-0.21194596588611603,-0.09402868896722794
1772641330078435300,1.986435302734375,-0.14008265733718872,-0.19218432903289795,-0.11729950457811356
1772641330088480500,1.99648046875,-0.16390171647071838,-0.170587420463562,-0.14447680115699768
1772641330098525200,2.006525146484375,-0.1904188096523285,-0.15109974145889282,-0.17234492301940918
1772641330108571400,2.0165712890625,-0.20448055863380432,-0.14989811182022095,-0.1995970457792282
1772641330118616300,2.0266162109375,-0.21196992695331573,-0.16395346820354462,-0.22190561890602112
1772641330128661500,2.03666162109375,-0.20863085985183716,-0.17505353689193726,-0.23567256331443787
1772641330138706400,2.04670654296875,-0.19609563052654266,-0.1653609573841095,-0.22809693217277527
1772641330148752400,2.05675244140625,-0.19109980762004852,-0.1396169811487198,-0.21399655938148499
1772641330158797600,2.066797607421875,-0.19503723084926605,-0.10556360334157944,-0.19844892621040344
1772641330168842200,2.07684228515625,-0.21384607255458832,-0.07882653176784515,-0.18779389560222626
1772641330178888400,2.086888427734375,-0.24709172546863556,-0.07748949527740479,-0.18217554688453674
1772641330188933400,2.096933349609375,-0.29382967948913574,-0.09294462203979492,-0.17152956128120422
1772641330198978300,2.106978271484375,-0.3467392921447754,-0.10518849641084671,-0.139688178896904
1772641330209023500,2.1170234375,-0.3951401114463806,-0.11835330724716187,-0.09014113247394562
1772641330219069400,2.1270693359375,-0.4326184093952179,-0.1423850804567337,-0.031236525624990463
1772641330229114400,2.1371142578125,-0.45405712723731995,-0.15341508388519287,0.03106732852756977
1772641330239159300,2.1471591796875,-0.4599105417728424,-0.16617736220359802,0.08680953830480576
1772641330249205200,2.157205322265625,-0.45190560817718506,-0.16280153393745422,0.13180817663669586
1772641330259250400,2.16725048828125,-0.4367847144603729,-0.15381136536598206,0.15926533937454224
1772641330269295400,2.17729541015625,-0.42419567704200745,-0.1417698860168457,0.17194944620132446
1772641330279340500,2.187340576171875,-0.4048626720905304,-0.14153191447257996,0.174138605594635
1772641330289386500,2.197386474609375,-0.39630407094955444,-0.14834001660346985,0.17420679330825806
1772641330299431400,2.207431396484375,-0.38494038581848145,-0.15449978411197662,0.18125781416893005
1772641330309476400,2.217476318359375,-0.37143683433532715,-0.16559743881225586,0.19234402477741241
1772641330319522300,2.227522216796875,-0.3592919111251831,-0.1680608093738556,0.2134072333574295
1772641330329567500,2.2375673828125,-0.34646373987197876,-0.1741195023059845,0.24151957035064697
1772641330339612400,2.2476123046875,-0.34243762493133545,-0.20644468069076538,0.2590760290622711
1772641330349658400,2.257658447265625,-0.34921109676361084,-0.24507436156272888,0.2526197135448456
1772641330359703300,2.267703369140625,-0.3554515242576599,-0.24597343802452087,0.22079753875732422
1772641330369748500,2.27774853515625,-0.35888805985450745,-0.22400633990764618,0.16787201166152954
1772641330379793400,2.28779345703125,-0.36620622873306274,-0.1905364990234375,0.0855073556303978
1772641330389839400,2.29783935546875,-0.3781110942363739,-0.13465937972068787,-0.023529112339019775
1772641330399884500,2.307884521484375,-0.3785683512687683,-0.043346621096134186,-0.1383836418390274
1772641330409929500,2.317929443359375,-0.3519015908241272,0.07592544704675674,-0.2362329661846161
1772641330419974400,2.327974365234375,-0.3065924644470215,0.20388519763946533,-0.2975275218486786
1772641330430020400,2.338020263671875,-0.24696828424930573,0.30980896949768066,-0.31280046701431274
1772641330440065300,2.348065185546875,-0.1871589869260788,0.3335671126842499,-0.2926166355609894
1772641330450110500,2.3581103515625,-0.1073288694024086,0.4239545464515686,-0.19395555555820465
1772641330460156400,2.368156494140625,-0.022701863199472427,0.43463239073753357,-0.09022484719753265
1772641330470201600,2.37820166015625,0.014566145837306976,0.4390029013156891,-0.005386651493608952
1772641330480246300,2.388246337890625,0.06992843747138977,0.3821447491645813,0.15049362182617188
1772641330490292200,2.398292236328125,0.09705965220928192,0.29975321888923645,0.2933197319507599
1772641330500337400,2.40833740234375,0.10219579935073853,0.21740935742855072,0.4411455988883972
1772641330510382300,2.41838232421875,0.07792188227176666,0.14708352088928223,0.5673618912696838
1772641330520427500,2.428427490234375,0.04087705537676811,0.0723150447010994,0.6635298132896423
1772641330530473500,2.438473388671875,0.005319594871252775,-0.007963282987475395,0.7173643112182617
1772641330540518400,2.448518310546875,-0.021254969760775566,-0.07056093215942383,0.7299528121948242
1772641330550563300,2.458563232421875,-0.04419677332043648,-0.18897706270217896,0.6768783926963806
1772641330560609300,2.468609375,-0.06646760553121567,-0.28527745604515076,0.600624680519104
1772641330570654500,2.478654541015625,-0.08019912987947464,-0.3630891442298889,0.5047306418418884
1772641330580699400,2.488699462890625,-0.09379569441080093,-0.3731919229030609,0.40886789560317993
1772641330590744600,2.49874462890625,-0.10977465659379959,-0.3142161965370178,0.32207733392715454
1772641330600790500,2.50879052734375,-0.13263659179210663,-0.20579898357391357,0.23361536860466003
1772641330610835200,2.518835205078125,-0.1484168916940689,-0.08549468964338303,0.13233108818531036
1772641330620880400,2.52888037109375,-0.16533800959587097,0.021596267819404602,0.006128893233835697
1772641330630926300,2.53892626953125,-0.19659766554832458,0.10947871953248978,-0.1513555496931076
1772641330640971500,2.548971435546875,-0.24268122017383575,0.1910744607448578,-0.325888991355896
1772641330651016400,2.559016357421875,-0.28352877497673035,0.2527599334716797,-0.488106369972229
1772641330661061400,2.569061279296875,-0.3140999972820282,0.28972938656806946,-0.6161817908287048
1772641330671107300,2.579107421875,-0.31692296266555786,0.2993503212928772,-0.6957895159721375
1772641330681152300,2.58915234375,-0.30143818259239197,0.28382137417793274,-0.7338530421257019
1772641330691197400,2.599197509765625,-0.2643323838710785,0.26098716259002686,-0.7215389013290405
1772641330701243400,2.609243408203125,-0.21442347764968872,0.2256593406200409,-0.6693869829177856
1772641330711288600,2.61928857421875,-0.15060216188430786,0.19230590760707855,-0.5709077715873718
1772641330721333500,2.62933349609375,-0.09576456993818283,0.20016029477119446,-0.4557231068611145
1772641330731378400,2.63937841796875,-0.05836978554725647,0.15049287676811218,-0.35716935992240906
1772641330741424400,2.64942431640625,-0.009297991171479225,0.1100250706076622,-0.22739531099796295
1772641330751469300,2.65946923828125,0.028920765966176987,0.035251230001449585,-0.1173284500837326
1772641330761514500,2.669514404296875,0.050331778824329376,-0.023165667429566383,-0.022218767553567886
1772641330771560400,2.679560546875,0.055446647107601166,-0.07607068866491318,0.043198589235544205
1772641330781604900,2.68960498046875,0.0580933503806591,-0.12205642461776733,0.07055249810218811
1772641330791649800,2.69964990234375,0.053534284234046936,-0.14513243734836578,0.06363733857870102
1772641330801695000,2.709695068359375,0.051280103623867035,-0.14529937505722046,0.026633696630597115
1772641330811741000,2.719740966796875,0.0463055856525898,-0.13885186612606049,-0.02446890063583851
1772641330821785600,2.72978564453125,0.05003700032830238,-0.12839576601982117,-0.08685435354709625
1772641330831830800,2.739830810546875,0.052210673689842224,-0.1042371615767479,-0.14900827407836914
1772641330841876700,2.749876708984375,0.046744149178266525,-0.0688113197684288,-0.2008456438779831
1772641330851922000,2.759921875,0.04429803788661957,-0.039582595229148865,-0.2398928999900818
1772641330861966800,2.769966796875,0.037830933928489685,-0.015131980180740356,-0.2664579749107361
1772641330872011800,2.78001171875,0.036029037088155746,0.015811288729310036,-0.27225461602211
1772641330882057700,2.7900576171875,0.04954582080245018,0.03700367361307144,-0.2619021236896515
1772641330892102700,2.8001025390625,0.06976933032274246,0.05475124344229698,-0.2387421876192093
1772641330902147800,2.81014794921875,0.09500394761562347,0.0732419490814209,-0.203199565410614
1772641330912193800,2.82019384765625,0.12279296666383743,0.0913330689072609,-0.159602552652359
1772641330922238700,2.83023876953125,0.15590792894363403,0.10060220956802368,-0.11255519837141037
1772641330932284000,2.840283935546875,0.19231067597866058,0.1067005842924118,-0.06392268091440201
1772641330942328600,2.85032861328125,0.22674281895160675,0.11241041123867035,-0.024481335654854774
1772641330952374800,2.860374755859375,0.2542056143283844,0.11668265610933304,0.0061074658297002316
1772641330962419700,2.870419677734375,0.265830934047699,0.11803880333900452,0.029812727123498917
1772641330972465000,2.88046484375,0.2669411897659302,0.10932999849319458,0.045026831328868866
1772641330982510800,2.8905107421875,0.25887444615364075,0.08951807022094727,0.05123921483755112
1772641330992555800,2.9005556640625,0.2502351403236389,0.06483269482851028,0.04848231375217438
1772641331002600700,2.9106005859375,0.24043235182762146,0.05593974515795708,0.041881904006004333
1772641331012645600,2.920645751953125,0.2338506132364273,0.060788560658693314,0.03342743590474129
1772641331022691800,2.93069189453125,0.23349671065807343,0.06401452422142029,0.02563025802373886
1772641331032736800,2.94073681640625,0.24353256821632385,0.06914164125919342,0.022845391184091568
1772641331042782000,2.950781982421875,0.2599226236343384,0.06409747898578644,0.020715970546007156
1772641331052828000,2.960827880859375,0.2774491310119629,0.061122722923755646,0.01886986568570137
1772641331062872800,2.970872802734375,0.29551205039024353,0.07426249235868454,0.017617467790842056
1772641331072917800,2.980917724609375,0.3140482008457184,0.10174551606178284,0.019550655037164688
1772641331082962700,2.990962646484375,0.33528751134872437,0.13332195580005646,0.022988934069871902
1772641331093008600,3.001008544921875,0.3505506217479706,0.1667366325855255,0.03628343343734741
1772641331103053800,3.0110537109375,0.3714786767959595,0.18790869414806366,0.058017000555992126
1772641331113098800,3.0210986328125,0.39420127868652344,0.19349493086338043,0.09006255865097046
1772641331123145000,3.03114501953125,0.41424939036369324,0.17531293630599976,0.1331998109817505
1772641331133189600,3.041189697265625,0.42187827825546265,0.12282336503267288,0.16391058266162872
1772641331143234800,3.05123486328125,0.40754419565200806,0.05563739687204361,0.17752543091773987
1772641331153280800,3.06128076171875,0.3776177167892456,-0.008956512436270714,0.17057405412197113
1772641331163325700,3.07132568359375,0.3386561870574951,-0.061085186898708344,0.1544361412525177
1772641331173371000,3.081370849609375,0.2969915568828583,-0.09848368912935257,0.12494242191314697
1772641331183415800,3.091415771484375,0.25727492570877075,-0.13324657082557678,0.0953887477517128
1772641331193462000,3.1014619140625,0.222584068775177,-0.18843446671962738,0.07770935446023941
1772641331203506700,3.111506591796875,0.1898043304681778,-0.22811533510684967,0.06952865421772003
1772641331213551900,3.1215517578125,0.16400736570358276,-0.239148810505867,0.06950575113296509
1772641331223597800,3.131597900390625,0.15064376592636108,-0.22200697660446167,0.07523585110902786
1772641331233642800,3.141642822265625,0.15465235710144043,-0.17223408818244934,0.07451919466257095
1772641331243688000,3.15168798828125,0.1755489706993103,-0.10737309604883194,0.06971599161624908
1772641331253732600,3.161732666015625,0.2146385908126831,-0.04340209811925888,0.058766402304172516
1772641331263778600,3.171778564453125,0.2673962712287903,0.023600570857524872,0.05915937200188637
1772641331273823700,3.18182373046875,0.3300516605377197,0.08134616166353226,0.08778516203165054
1772641331283868700,3.19186865234375,0.38953322172164917,0.1093645766377449,0.139974907040596
1772641331293915000,3.201914794921875,0.4447517395019531,0.09446552395820618,0.21254897117614746
1772641331303959800,3.211959716796875,0.4824744462966919,0.06291301548480988,0.29247888922691345
1772641331314005000,3.2220048828125,0.5060229301452637,0.028735341504216194,0.38251423835754395
1772641331324049700,3.232049560546875,0.5252819061279297,-0.0009580384939908981,0.4709398150444031
1772641331334095600,3.242095703125,0.5355337262153625,-0.0344717875123024,0.5493504405021667
1772641331344140800,3.252140869140625,0.5415204167366028,-0.0799700915813446,0.6074140071868896
1772641331354185700,3.262185791015625,0.5439832806587219,-0.12819382548332214,0.6388813853263855
1772641331364232000,3.27223193359375,0.5345049500465393,-0.16167820990085602,0.6477542519569397
1772641331374276900,3.28227685546875,0.5207387804985046,-0.17548003792762756,0.6349723935127258
1772641331384321800,3.29232177734375,0.4992947578430176,-0.1774074137210846,0.5954980850219727
1772641331394366700,3.30236669921875,0.4762347340583801,-0.18570315837860107,0.5328466892242432
1772641331404412700,3.31241259765625,0.4534448981285095,-0.18857525289058685,0.4512560963630676
1772641331414457900,3.322457763671875,0.4334789216518402,-0.1812736541032791,0.35548776388168335
1772641331424502800,3.332502685546875,0.4061218202114105,-0.14605581760406494,0.25314927101135254
1772641331434548700,3.342548828125,0.3837733566761017,-0.08537836372852325,0.16270406544208527
1772641331444593700,3.35259375,0.35730084776878357,-0.014978439547121525,0.08365827053785324
1772641331454638600,3.362638671875,0.3194868862628937,0.049917202442884445,0.010041573084890842
1772641331464683800,3.372683837890625,0.26557862758636475,0.07909692823886871,-0.06350703537464142
1772641331474729700,3.382729736328125,0.2063126415014267,0.06668739765882492,-0.1447496861219406
1772641331484775000,3.39277490234375,0.15487660467624664,0.03496980294585228,-0.22445781528949738
1772641331494819800,3.40281982421875,0.11950688809156418,0.0015151745174080133,-0.3029467463493347
1772641331504865800,3.41286572265625,0.09975270926952362,-0.009368760511279106,-0.37931835651397705
1772641331514910700,3.42291064453125,0.10221560299396515,0.010721061378717422,-0.4484601318836212
1772641331524955600,3.43295556640625,0.12875455617904663,0.048886436969041824,-0.49985307455062866
1772641331535000800,3.443000732421875,0.17479795217514038,0.09574981778860092,-0.539953351020813
1772641331545046800,3.453046875,0.22119714319705963,0.1093415692448616,-0.5776028037071228
1772641331555092000,3.463092041015625,0.28083333373069763,0.19640110433101654,-0.5750671625137329
1772641331565136600,3.47313671875,0.33653461933135986,0.18856243789196014,-0.5811582803726196
1772641331575182600,3.4831826171875,0.3793308138847351,0.22196993231773376,-0.5551152229309082
1772641331585227800,3.493227783203125,0.4070053696632385,0.2160433977842331,-0.5154324769973755
1772641331595272700,3.503272705078125,0.42082077264785767,0.20144793391227722,-0.4590355455875397
1772641331605318000,3.51331787109375,0.419607013463974,0.166742205619812,-0.39054593443870544
1772641331615363800,3.52336376953125,0.4054211676120758,0.12397957593202591,-0.3214523494243622
1772641331625408800,3.53340869140625,0.3810194134712219,0.06693021208047867,-0.26462721824645996
1772641331635453700,3.54345361328125,0.3486425578594208,0.013700013980269432,-0.21822349727153778
1772641331645499600,3.553499755859375,0.3126215636730194,-0.033674631267786026,-0.1872951090335846
1772641331655544800,3.563544921875,0.2717859745025635,-0.07377678155899048,-0.17508213222026825
1772641331665589800,3.57358984375,0.23685362935066223,-0.10300463438034058,-0.17775794863700867
1772641331675635000,3.583635009765625,0.20028656721115112,-0.1250321865081787,-0.1994110494852066
1772641331685681000,3.593680908203125,0.16267246007919312,-0.13814783096313477,-0.22969017922878265
1772641331695725600,3.6037255859375,0.1230371743440628,-0.13451021909713745,-0.26278793811798096
1772641331705770800,3.613770751953125,0.08597978949546814,-0.1189262792468071,-0.28113874793052673
1772641331715816700,3.623816650390625,0.05165989696979523,-0.09706173092126846,-0.2841228246688843
1772641331725862000,3.63386181640625,0.02537529543042183,-0.07803283631801605,-0.2760617434978485
1772641331735906800,3.64390673828125,0.005784815642982721,-0.061786752194166183,-0.25020352005958557
1772641331745952000,3.653951904296875,-0.00863783247768879,-0.0484469011425972,-0.20492912828922272
1772641331755998000,3.663998046875,-0.019033482298254967,-0.043840959668159485,-0.15109439194202423
1772641331766042600,3.674042724609375,-0.031406909227371216,-0.044144582003355026,-0.09395025670528412
1772641331776088800,3.6840888671875,-0.04833928495645523,-0.05662814900279045,-0.03698630630970001
1772641331786134800,3.694134765625,-0.07201465964317322,-0.0759858787059784,0.0163254514336586
1772641331796179700,3.7041796875,-0.09600547701120377,-0.09046308696269989,0.07081612199544907
1772641331806224600,3.714224609375,-0.11950258910655975,-0.10681509226560593,0.1312955766916275
1772641331816269600,3.72426953125,-0.1440366804599762,-0.12368515878915787,0.18397504091262817
1772641331826315500,3.7343154296875,-0.1679408997297287,-0.12969516217708588,0.2268601804971695
1772641331836360700,3.744360595703125,-0.18433451652526855,-0.1263241320848465,0.25661858916282654
1772641331846405600,3.754405517578125,-0.1944291740655899,-0.11069750040769577,0.26648950576782227
1772641331856451800,3.764451904296875,-0.1955879181623459,-0.08916025608778,0.2627198100090027
1772641331866496500,3.77449658203125,-0.1964789181947708,-0.08451917767524719,0.24014471471309662
1772641331876541700,3.784541748046875,-0.20357011258602142,-0.08185521513223648,0.20621605217456818
1772641331886586600,3.794586669921875,-0.20838522911071777,-0.07702969759702682,0.16804179549217224
1772641331896632600,3.804632568359375,-0.21166038513183594,-0.07614126801490784,0.13082705438137054
1772641331906677800,3.814677734375,-0.21078968048095703,-0.08183204382658005,0.10018255561590195
1772641331916722400,3.824722412109375,-0.208064466714859,-0.08808381855487823,0.08162219077348709
1772641331926768600,3.8347685546875,-0.20304426550865173,-0.09087133407592773,0.08004125952720642
1772641331936813600,3.8448134765625,-0.19163449108600616,-0.09209772199392319,0.09831560403108597
1772641331946858800,3.854858642578125,-0.18259304761886597,-0.10757254809141159,0.13328664004802704
1772641331956904700,3.86490478515625,-0.18083536624908447,-0.14099441468715668,0.16743075847625732
1772641331966949600,3.87494970703125,-0.19474907219409943,-0.15879467129707336,0.19041046500205994
1772641331976994800,3.884994873046875,-0.20970192551612854,-0.17108115553855896,0.1952347755432129
1772641331987039500,3.89503955078125,-0.2170187532901764,-0.16211730241775513,0.199012890458107
1772641331997085700,3.905085693359375,-0.21091212332248688,-0.14102426171302795,0.1927371472120285
1772641332007130600,3.915130615234375,-0.1971622109413147,-0.11862971633672714,0.1767396628856659
1772641332017175600,3.925175537109375,-0.1822759211063385,-0.09064255654811859,0.14319555461406708
1772641332027221800,3.9352216796875,-0.16563306748867035,-0.051083043217659,0.10432914644479752
1772641332037266700,3.9452666015625,-0.14878670871257782,0.006515270099043846,0.06621398776769638
1772641332047311600,3.9553115234375,-0.1308950036764145,0.06152559071779251,0.035710252821445465
1772641332057356500,3.9653564453125,-0.11555173248052597,0.09079213440418243,0.013792171142995358
1772641332067402500,3.975402587890625,-0.10543704777956009,0.1067575216293335,0.0029573668725788593
1772641332077447700,3.98544775390625,-0.09562170505523682,0.08596835285425186,-0.0013313880190253258
1772641332087492600,3.99549267578125,-0.09226913005113602,0.045021574944257736,-0.012534646317362785
1772641332097538800,4.005538818359375,-0.10078591853380203,0.002675719326362014,-0.022583018988370895
1772641332107583700,4.015583740234375,-0.11531227827072144,-0.0060516647063195705,-0.01005602814257145
1772641332117628700,4.025628662109375,-0.13526467978954315,0.014853617176413536,0.030838940292596817
1772641332127673600,4.035673583984375,-0.15987060964107513,0.052808862179517746,0.0736541897058487
1772641332137719600,4.045719482421875,-0.17966988682746887,0.07762739062309265,0.11301837116479874
1772641332147764700,4.0557646484375,-0.1999528408050537,0.07212541997432709,0.14678266644477844
1772641332157809700,4.0658095703125,-0.21219325065612793,0.05223187804222107,0.17998696863651276
1772641332167855600,4.075855712890625,-0.22056864202022552,0.024707725271582603,0.21484389901161194
1772641332177900500,4.085900634765625,-0.22502277791500092,-0.01171259954571724,0.2514599859714508
1772641332187945700,4.09594580078125,-0.2305007427930832,-0.04651165008544922,0.2917407751083374
1772641332197990700,4.10599072265625,-0.23680897057056427,-0.08169388025999069,0.3325790464878082
1772641332208036600,4.11603662109375,-0.23845040798187256,-0.10920233279466629,0.37231528759002686
1772641332218081800,4.126081787109375,-0.22503286600112915,-0.1301978975534439,0.3977404832839966
1772641332228126700,4.136126708984375,-0.21006830036640167,-0.13441582024097443,0.39944198727607727
1772641332238172700,4.146172607421875,-0.20030274987220764,-0.12785618007183075,0.37232115864753723
1772641332248217600,4.156217529296875,-0.20015698671340942,-0.10326182097196579,0.3175923526287079
1772641332258262500,4.166262451171875,-0.2095898985862732,-0.07219710946083069,0.23329903185367584
1772641332268307700,4.1763076171875,-0.22952766716480255,-0.03959530591964722,0.1269441545009613
1772641332278353700,4.186353759765625,-0.25471851229667664,-0.0035126679576933384,0.0011065979488193989
1772641332288398800,4.19639892578125,-0.2808600664138794,0.03964145854115486,-0.12278703600168228
1772641332298443500,4.206443603515625,-0.3022707998752594,0.08614051342010498,-0.24560989439487457
1772641332308489500,4.216489501953125,-0.3178389072418213,0.14151065051555634,-0.35060977935791016
1772641332318534700,4.22653466796875,-0.3275999128818512,0.19536802172660828,-0.42961806058883667
1772641332328579600,4.23657958984375,-0.32604169845581055,0.23884350061416626,-0.4741014540195465
1772641332338624800,4.246624755859375,-0.304490864276886,0.2547242045402527,-0.4749765694141388
1772641332348670700,4.256670654296875,-0.27235114574432373,0.2406940758228302,-0.4360896646976471
1772641332358715600,4.266715576171875,-0.24144674837589264,0.2068098783493042,-0.3672003448009491
1772641332368760600,4.276760498046875,-0.2150191366672516,0.1530768871307373,-0.2782291769981384
1772641332378806500,4.286806640625,-0.19793389737606049,0.1046435683965683,-0.18021740019321442
1772641332388851700,4.296851806640625,-0.18325461447238922,0.05442214384675026,-0.08765242248773575
1772641332398896600,4.306896728515625,-0.17570002377033234,-0.005650781095027924,-0.0051141418516635895
1772641332408941800,4.31694189453125,-0.17149832844734192,-0.06532709300518036,0.07089409977197647
1772641332418987800,4.32698779296875,-0.16959789395332336,-0.11256810277700424,0.13179978728294373
1772641332429032400,4.337032470703125,-0.16566866636276245,-0.14052949845790863,0.17703816294670105
1772641332439077600,4.34707763671875,-0.15111581981182098,-0.15315422415733337,0.20270144939422607
1772641332449123600,4.35712353515625,-0.13551557064056396,-0.14685219526290894,0.20240820944309235
1772641332459168800,4.367168701171875,-0.12033769488334656,-0.13491350412368774,0.17306657135486603
1772641332469213700,4.377213623046875,-0.11329132318496704,-0.11031541973352432,0.1266542375087738
1772641332479258600,4.387258544921875,-0.11746422946453094,-0.07667144387960434,0.06662845611572266
1772641332489304600,4.3973046875,-0.13032378256320953,-0.042311929166316986,0.002802344737574458
1772641332499349500,4.407349609375,-0.14588411152362823,-0.012913824990391731,-0.05644819885492325
1772641332509394700,4.417394775390625,-0.1622850000858307,0.01997287943959236,-0.09706659615039825
1772641332519440600,4.427440673828125,-0.16836072504520416,0.0492255724966526,-0.12724047899246216
1772641332529485800,4.43748583984375,-0.154871866106987,0.089546337723732,-0.14916709065437317
1772641332539530800,4.44753076171875,-0.12833239138126373,0.12014418840408325,-0.16839325428009033
1772641332549575700,4.45757568359375,-0.1000390574336052,0.13920341432094574,-0.18957264721393585
1772641332559621600,4.46762158203125,-0.07720724493265152,0.1564290076494217,-0.2098962962627411
1772641332569666600,4.47766650390625,-0.05822870135307312,0.17597728967666626,-0.22233906388282776
1772641332579711700,4.487711669921875,-0.04649161919951439,0.18436652421951294,-0.22669492661952972
1772641332589757700,4.4977578125,-0.03974271938204765,0.1860281080007553,-0.2159733921289444
1772641332599802600,4.507802734375,-0.03610990196466446,0.1784045398235321,-0.19489766657352448
1772641332609847600,4.51784765625,-0.032464008778333664,0.16704490780830383,-0.15944962203502655
1772641332619893500,4.5278935546875,-0.027533166110515594,0.13952060043811798,-0.11743133515119553
1772641332629938700,4.537938720703125,-0.02314072661101818,0.10625599324703217,-0.06294319033622742
1772641332639983600,4.547983642578125,-0.021613670513033867,0.07038241624832153,-0.0043768188916146755
1772641332650028800,4.55802880859375,-0.019896259531378746,0.04867047071456909,0.05500057712197304
1772641332660074800,4.56807470703125,-0.013280435465276241,0.030021952465176582,0.10479822754859924
1772641332670119700,4.57811962890625,-0.004116138909012079,0.0053389607928693295,0.14260873198509216
1772641332680164600,4.58816455078125,0.0057799010537564754,-0.02292223833501339,0.15815412998199463
1772641332690210600,4.59821044921875,0.015466349199414253,-0.04401785507798195,0.15625150501728058
1772641332700255700,4.608255859375,0.022015061229467392,-0.030523087829351425,0.13844160735607147
1772641332710300700,4.61830078125,0.03082270361483097,0.008506710641086102,0.11143656075000763
1772641332720345900,4.628345947265625,0.03889741003513336,0.03850215673446655,0.07682639360427856
1772641332730391800,4.638391845703125,0.044190824031829834,0.05132781341671944,0.038750335574150085
1772641332740436500,4.6484365234375,0.04384887218475342,0.04431970417499542,0.008234506472945213
1772641332750481700,4.658481689453125,0.04928808659315109,0.027748987078666687,-0.007422303780913353
1772641332760527600,4.668527587890625,0.05590151250362396,0.01308668777346611,-0.012568595819175243
1772641332770572500,4.678572509765625,0.0731474906206131,0.016629621386528015,0.0026772450655698776
1772641332780617200,4.6886171875,0.10380899906158447,0.03578653931617737,0.032504647970199585
1772641332790662400,4.698662353515625,0.15010298788547516,0.05421675369143486,0.06909216195344925
1772641332800708400,4.708708251953125,0.19731631875038147,0.04189217835664749,0.09605240821838379
1772641332810753300,4.718753173828125,0.24046476185321808,0.0055175963789224625,0.1083083376288414
1772641332820798500,4.728798583984375,0.2743590772151947,-0.01616532728075981,0.10000167042016983
1772641332830844400,4.738844482421875,0.28672561049461365,-0.019897503778338432,0.06822952628135681
1772641332840889000,4.74888916015625,0.281801700592041,-0.016127532348036766,0.02898571640253067
1772641332850934300,4.758934326171875,0.27057892084121704,-0.026044392958283424,-0.01466083899140358
1772641332860979200,4.768979248046875,0.26385363936424255,-0.024620400741696358,-0.04710346460342407
1772641332871025400,4.779025390625,0.25950536131858826,-0.026282761245965958,-0.06842305511236191
1772641332881070300,4.7890703125,0.2666058838367462,-0.01835186779499054,-0.06881960481405258
1772641332891115500,4.799115478515625,0.2701466977596283,-0.007150673307478428,-0.05729425325989723
1772641332901161500,4.809161376953125,0.27493318915367126,-0.0014861300587654114,-0.03033800795674324
1772641332911206100,4.8192060546875,0.2753972113132477,-0.006276294589042664,0.010152893140912056
1772641332921251300,4.829251220703125,0.27834346890449524,-0.015031701885163784,0.05062601715326309
1772641332931296300,4.839296142578125,0.2760865390300751,-0.03466572239995003,0.08926524221897125
1772641332941342500,4.849342529296875,0.2619350552558899,-0.04453326389193535,0.1239800825715065
1772641332951387400,4.859387451171875,0.2423030138015747,-0.04822360724210739,0.1399526596069336
1772641332961432300,4.869432373046875,0.22007334232330322,-0.047822535037994385,0.14327362179756165
1772641332971478300,4.879478271484375,0.20278212428092957,-0.04060231149196625,0.1361507773399353
1772641332981523200,4.889523193359375,0.1940498799085617,-0.031116928905248642,0.1268630027770996
1772641332991568400,4.899568359375,0.19360794126987457,-0.01578916423022747,0.11945007741451263
1772641333001613300,4.90961328125,0.19539280235767365,-0.005002296529710293,0.12038297951221466
1772641333011659300,4.9196591796875,0.20203764736652374,-0.0022726329043507576,0.13319045305252075
1772641333021704400,4.929704345703125,0.20024560391902924,0.005172766745090485,0.15142005681991577
1772641333031749400,4.939749267578125,0.19368042051792145,0.011480002664029598,0.17043690383434296
1772641333041795300,4.94979541015625,0.1758902370929718,0.013986303471028805,0.19203966856002808
1772641333051840300,4.95984033203125,0.1503836214542389,0.002172584179788828,0.20529228448867798
1772641333061885400,4.969885498046875,0.11956500262022018,-0.015512934885919094,0.20756717026233673
1772641333071930400,4.979930419921875,0.08629676699638367,-0.037635087966918945,0.20251378417015076
1772641333081976300,4.989976318359375,0.04946710914373398,-0.06173323094844818,0.1821744292974472
1772641333092021200,5.000021240234375,0.011078852228820324,-0.08393333107233047,0.15881602466106415
1772641333102066200,5.010066162109375,-0.02711540460586548,-0.09819748252630234,0.1325354278087616
1772641333112112400,5.0201123046875,-0.05998345836997032,-0.10545739531517029,0.10215944796800613
1772641333122157300,5.0301572265625,-0.08799831569194794,-0.10822361707687378,0.06631916016340256
1772641333132202500,5.040202392578125,-0.10754206776618958,-0.08670157194137573,0.023122768849134445
1772641333142247400,5.050247314453125,-0.1275615692138672,-0.07202568650245667,-0.036080632358789444
1772641333152293000,5.060293212890625,-0.1393917053937912,-0.04749905318021774,-0.1044556200504303
1772641333162338300,5.07033837890625,-0.13847078382968903,-0.01691691018640995,-0.18237145245075226
1772641333172383200,5.08038330078125,-0.12569591403007507,0.016595320776104927,-0.26871785521507263
1772641333182429400,5.090429443359375,-0.10825514048337936,0.07136882096529007,-0.3583385646343231
1772641333192474400,5.100474365234375,-0.08935228735208511,0.13004757463932037,-0.44031545519828796
1772641333202519300,5.110519287109375,-0.06935913860797882,0.1851997822523117,-0.511050283908844
1772641333212564200,5.120564208984375,-0.05060344561934471,0.22943030297756195,-0.5620592832565308
1772641333222610200,5.130610107421875,-0.03370142728090286,0.29110485315322876,-0.584312379360199
1772641333232655400,5.1406552734375,-0.01596193015575409,0.3350459933280945,-0.5701034665107727
1772641333242700300,5.1507001953125,0.004336151760071516,0.3568519651889801,-0.5286904573440552
1772641333252746200,5.160746337890625,0.01836606115102768,0.35274139046669006,-0.472983181476593
1772641333262791400,5.17079150390625,0.02588656172156334,0.3185005784034729,-0.41217443346977234
1772641333272836000,5.180836181640625,0.01563292182981968,0.26113665103912354,-0.3550742268562317
1772641333282881300,5.19088134765625,-0.004328801762312651,0.19069015979766846,-0.29374268651008606
1772641333292927200,5.20092724609375,-0.03489810973405838,0.11958576738834381,-0.2342851608991623
1772641333302972400,5.210972412109375,-0.06788162142038345,0.05489838495850563,-0.17937718331813812
1772641333313017300,5.221017333984375,-0.0992155447602272,0.007186594419181347,-0.1282428503036499
1772641333323063300,5.231063232421875,-0.1223304495215416,-0.02904278226196766,-0.0859297588467598
1772641333333108500,5.2411083984375,-0.13324357569217682,-0.05631377175450325,-0.05835370719432831
1772641333343153200,5.251153076171875,-0.13717865943908691,-0.07743104547262192,-0.042978208512067795
1772641333353198300,5.2611982421875,-0.1401435136795044,-0.09668940305709839,-0.0428704172372818
1772641333363244300,5.271244384765625,-0.14511163532733917,-0.10859613120555878,-0.049213800579309464
1772641333373289500,5.28128955078125,-0.14491420984268188,-0.1214500367641449,-0.05438049137592316
1772641333383334400,5.29133447265625,-0.14494162797927856,-0.13618104159832,-0.05931159853935242
1772641333393380400,5.30138037109375,-0.15361693501472473,-0.14921747148036957,-0.05644141510128975
1772641333403425300,5.31142529296875,-0.16910454630851746,-0.16347578167915344,-0.04876032471656799
1772641333413470200,5.32147021484375,-0.1895957738161087,-0.18522900342941284,-0.04152495041489601
1772641333423515400,5.331515380859375,-0.21019692718982697,-0.1996833086013794,-0.03482949733734131
1772641333433561300,5.341561279296875,-0.22528225183486938,-0.205135315656662,-0.026686429977416992
1772641333443606300,5.351606201171875,-0.23222273588180542,-0.18871000409126282,-0.016418877989053726
1772641333453651500,5.3616513671875,-0.2273729294538498,-0.16853517293930054,-0.0037431037053465843
1772641333463697400,5.371697509765625,-0.2183525413274765,-0.15548302233219147,0.011742912232875824
1772641333473742300,5.381742431640625,-0.20389874279499054,-0.13846257328987122,0.019522594287991524
1772641333483787300,5.391787353515625,-0.1903965175151825,-0.10234317928552628,0.04525032639503479
1772641333493832400,5.40183251953125,-0.18187189102172852,-0.07158512622117996,0.07617278397083282
1772641333503878400,5.41187841796875,-0.1735156923532486,-0.051879338920116425,0.10711471736431122
1772641333513923300,5.42192333984375,-0.1702480912208557,-0.048425473272800446,0.13684147596359253
1772641333523968300,5.43196826171875,-0.17128406465053558,-0.05921207740902901,0.16323286294937134
1772641333534014200,5.44201416015625,-0.17982631921768188,-0.08507735282182693,0.1924944818019867
1772641333544059400,5.452059326171875,-0.1907396912574768,-0.11401153355836868,0.22226941585540771
1772641333554104300,5.462104248046875,-0.199590265750885,-0.14994925260543823,0.244737908244133
1772641333564149500,5.4721494140625,-0.20991002023220062,-0.17869195342063904,0.26195231080055237
1772641333574195500,5.482195556640625,-0.22479258477687836,-0.19692260026931763,0.2637314796447754
1772641333584240400,5.492240478515625,-0.23537759482860565,-0.21632133424282074,0.2504737377166748
1772641333594285300,5.502285400390625,-0.24612702429294586,-0.2016165554523468,0.22359953820705414
1772641333604331300,5.512331298828125,-0.25171512365341187,-0.1728307157754898,0.19089911878108978
1772641333614376200,5.522376220703125,-0.26131656765937805,-0.13269442319869995,0.16012240946292877
1772641333624421400,5.53242138671875,-0.26062601804733276,-0.1110658198595047,0.12733358144760132
1772641333634466300,5.54246630859375,-0.24972282350063324,-0.10839813202619553,0.10051990300416946
1772641333644512500,5.552512451171875,-0.2268848866224289,-0.11858072131872177,0.08825657516717911
1772641333654557200,5.56255712890625,-0.2030268758535385,-0.1242326870560646,0.08517203480005264
1772641333664602400,5.572602294921875,-0.17556674778461456,-0.12441351264715195,0.0915154218673706
1772641333674648300,5.5826484375,-0.146439328789711,-0.1284564733505249,0.11007355153560638
1772641333684693200,5.592693359375,-0.11873926222324371,-0.1441986858844757,0.1327572762966156
1772641333694738400,5.602738525390625,-0.09399299323558807,-0.1701519936323166,0.16242705285549164
1772641333704783400,5.612783447265625,-0.07616446167230606,-0.19072331488132477,0.19391679763793945
1772641333714829300,5.622829345703125,-0.05790281668305397,-0.20986144244670868,0.2250005453824997
1772641333724874200,5.632874267578125,-0.0487535260617733,-0.22682765126228333,0.2608722746372223
1772641333734919400,5.64291943359375,-0.04389539361000061,-0.2670614421367645,0.2827598750591278
1772641333744965400,5.65296533203125,-0.05155544355511665,-0.32096728682518005,0.2908846437931061
1772641333755010300,5.66301025390625,-0.062209151685237885,-0.3579903542995453,0.2814355492591858
1772641333765055500,5.673055419921875,-0.07059864699840546,-0.3879876732826233,0.24330440163612366
1772641333775100000,5.683099853515625,-0.07976775616407394,-0.3998883068561554,0.1655365228652954
1772641333785146000,5.69314599609375,-0.09401699900627136,-0.3950307071208954,0.04499759152531624
1772641333795191000,5.70319091796875,-0.11830694228410721,-0.35897573828697205,-0.11595684289932251
1772641333805236200,5.713236328125,-0.1558375507593155,-0.2874147593975067,-0.2896748185157776
1772641333815282200,5.7232822265625,-0.19230015575885773,-0.1687839925289154,-0.43355247378349304
1772641333825326800,5.733326904296875,-0.21380038559436798,-0.0641246885061264,-0.5102459192276001
1772641333835372000,5.7433720703125,-0.21563218533992767,0.013842219486832619,-0.528954029083252
1772641333845417000,5.7534169921875,-0.18855635821819305,0.058094900101423264,-0.48193058371543884
1772641333855463000,5.763462890625,-0.15176327526569366,0.0899837538599968,-0.3698914349079132
1772641333865508000,5.773508056640625,-0.11226939409971237,0.09616415202617645,-0.21738073229789734
1772641333875553000,5.783552978515625,-0.0909513384103775,0.07872714847326279,-0.06011004000902176
1772641333885599200,5.79359912109375,-0.09814213961362839,0.044538550078868866,0.0855797827243805
1772641333895644000,5.803643798828125,-0.07801350206136703,-0.012721803970634937,0.27850592136383057
1772641333905689000,5.813689208984375,-0.06514483690261841,-0.08718325197696686,0.4401792585849762
1772641333915734000,5.823734130859375,-0.06705352663993835,-0.15619587898254395,0.5781453251838684
1772641333925780000,5.833780029296875,-0.0815051719546318,-0.2283068299293518,0.6685551404953003
1772641333935825200,5.8438251953125,-0.09891999512910843,-0.2752614915370941,0.7170979380607605
1772641333945869800,5.853869873046875,-0.13071468472480774,-0.3282022178173065,0.7047046422958374
1772641333955916000,5.863916015625,-0.14774692058563232,-0.32124531269073486,0.6704383492469788
1772641333965961000,5.8739609375,-0.1562597155570984,-0.3482851982116699,0.5846054553985596
1772641333976006100,5.884006103515625,-0.1650671362876892,-0.3377884030342102,0.4936782717704773
1772641333986051000,5.894051025390625,-0.17744657397270203,-0.306046724319458,0.393833726644516
1772641333996097000,5.904096923828125,-0.19575513899326324,-0.24525977671146393,0.29590120911598206
1772641334006142200,5.91414208984375,-0.22420142590999603,-0.1626487821340561,0.19379110634326935
1772641334016187000,5.924186767578125,-0.25206151604652405,-0.08239956200122833,0.08548155426979065
1772641334026232800,5.93423291015625,-0.2824327349662781,-0.0034402976743876934,-0.034476276487112045
1772641334036278000,5.944278076171875,-0.313514769077301,0.08170396089553833,-0.16932149231433868
1772641334046323000,5.954322998046875,-0.3317108154296875,0.17141228914260864,-0.31840500235557556
1772641334056368000,5.9643681640625,-0.32916104793548584,0.25328439474105835,-0.4737737476825714
1772641334066414000,5.9744140625,-0.3055316209793091,0.322832316160202,-0.5949539542198181
1772641334076459000,5.984458984375,-0.2626492381095886,0.36801642179489136,-0.6650728583335876
1772641334086504000,5.99450390625,-0.2158561646938324,0.3949202001094818,-0.6731153130531311
1772641334096550000,6.0045498046875,-0.16711769998073578,0.4061705768108368,-0.6306570172309875
1772641334106595000,6.014594970703125,-0.11919783055782318,0.3897170424461365,-0.5426318049430847
1772641334116640000,6.024639892578125,-0.07884704321622849,0.3372116982936859,-0.4360251724720001
1772641334126685200,6.034685302734375,-0.04385390132665634,0.2514922618865967,-0.31791236996650696
1772641334136731100,6.044731201171875,-0.016669986769557,0.15191328525543213,-0.19616319239139557
1772641334146776000,6.054776123046875,-0.003913444466888905,0.055041875690221786,-0.09294252842664719
1772641334156821000,6.064821044921875,-0.012783786281943321,-0.003203104715794325,-0.005848749540746212
1772641334166867000,6.074866943359375,-0.025819692760705948,-0.02225855551660061,0.05522659048438072
1772641334176912100,6.084912109375,-0.038195397704839706,-0.030613502487540245,0.08135280013084412
1772641334186957000,6.09495703125,-0.04717611148953438,-0.030782880261540413,0.07814635336399078
1772641334197002000,6.105001953125,-0.05008777230978012,-0.024403085932135582,0.0502190925180912
1772641334207048000,6.1150478515625,-0.04859214276075363,-0.01006782241165638,0.008107058703899384
1772641334217092900,6.1250927734375,-0.04887118190526962,0.012041997164487839,-0.035850636661052704
1772641334227138000,6.135137939453125,-0.050635792315006256,0.04177725687623024,-0.0757993832230568
1772641334237184000,6.14518408203125,-0.05446787178516388,0.05527834966778755,-0.11193512380123138
1772641334247229200,6.155229248046875,-0.0664566233754158,0.06432750821113586,-0.14229677617549896
1772641334257273900,6.16527392578125,-0.08289054781198502,0.07142823189496994,-0.16531093418598175
1772641334267319000,6.175319091796875,-0.0948963463306427,0.07929147779941559,-0.1749233454465866
1772641334277365000,6.185364990234375,-0.09343267232179642,0.08444762229919434,-0.17373371124267578
1772641334287410000,6.195409912109375,-0.08726532012224197,0.08011112362146378,-0.1628948450088501
1772641334297455000,6.205455078125,-0.0688040554523468,0.06671017408370972,-0.1591828167438507
1772641334307501000,6.2155009765625,-0.048478543758392334,0.05149926617741585,-0.16466200351715088
1772641334317546200,6.225546142578125,-0.023427344858646393,0.038758717477321625,-0.16183000802993774
1772641334327591000,6.2355908203125,0.008102884516119957,0.03916245326399803,-0.15145060420036316
1772641334337636000,6.245635986328125,0.041379913687705994,0.05195566266775131,-0.13901454210281372
1772641334347682000,6.25568212890625,0.0721796378493309,0.0696965828537941,-0.1176711767911911
1772641334357727000,6.26572705078125,0.09771227836608887,0.07735595852136612,-0.09210487455129623
1772641334367772200,6.275772216796875,0.11435516923666,0.06792517751455307,-0.059379417449235916
1772641334377818000,6.285818115234375,0.1264241486787796,0.04931792616844177,-0.026920370757579803
1772641334387863000,6.295863037109375,0.12935762107372284,0.027979616075754166,-0.0008608070202171803
1772641334397908000,6.305907958984375,0.12322714179754257,0.013908065855503082,0.022688210010528564
1772641334407953000,6.315952880859375,0.11500223726034164,0.014054007828235626,0.03962458297610283
1772641334417999000,6.3259990234375,0.11263805627822876,0.025619328022003174,0.055031776428222656
1772641334428044000,6.3360439453125,0.11224523931741714,0.04250403866171837,0.06506577134132385
1772641334438089200,6.346089111328125,0.11139693856239319,0.06842802464962006,0.06995876878499985
1772641334448135200,6.35613525390625,0.11328671872615814,0.09133893251419067,0.0674828290939331
1772641334458179800,6.366179931640625,0.11326727271080017,0.10979124903678894,0.058081019669771194
1772641334468225000,6.37622509765625,0.11644735932350159,0.13280415534973145,0.044124193489551544
1772641334478270000,6.38627001953125,0.11938585340976715,0.14877547323703766,0.028661467134952545
1772641334488316200,6.396316162109375,0.12604402005672455,0.16315574944019318,0.0104265371337533
1772641334498361000,6.406361083984375,0.12743981182575226,0.17529523372650146,-0.004511047154664993
1772641334508406000,6.416406005859375,0.12864063680171967,0.18486183881759644,-0.013742095790803432
1772641334518452000,6.426451904296875,0.13178686797618866,0.19384893774986267,-0.016833048313856125
1772641334528497000,6.436496826171875,0.13764315843582153,0.20377081632614136,-0.007732759229838848
1772641334538542000,6.4465419921875,0.15265968441963196,0.20618851482868195,0.011396484449505806
1772641334548587000,6.4565869140625,0.1701851487159729,0.2002515345811844,0.03236940875649452
1772641334558633200,6.46663330078125,0.1886417120695114,0.19549670815467834,0.045864883810281754
1772641334568678100,6.47667822265625,0.21063809096813202,0.1954442411661148,0.06293761730194092
1772641334578723000,6.48672314453125,0.23322995007038116,0.19507619738578796,0.08292623609304428
1772641334588769000,6.49676904296875,0.25779440999031067,0.19626875221729279,0.10139552503824234
1772641334598814000,6.50681396484375,0.27745458483695984,0.20479393005371094,0.12116962671279907
1772641334608859100,6.516859130859375,0.29693666100502014,0.21673500537872314,0.13688386976718903
1772641334618904000,6.526904052734375,0.3140839636325836,0.22723174095153809,0.1497287005186081
1772641334628950000,6.536949951171875,0.3338582217693329,0.2187969833612442,0.15820342302322388
1772641334638995000,6.546994873046875,0.34275510907173157,0.18668296933174133,0.1527537852525711
1772641334649040000,6.557039794921875,0.3418017029762268,0.15750591456890106,0.13935407996177673
1772641334659086000,6.567086181640625,0.3358902931213379,0.15884636342525482,0.12240567058324814
1772641334669131000,6.577131103515625,0.3272475302219391,0.1670510172843933,0.1037430390715599
1772641334679176200,6.58717626953125,0.30546143651008606,0.1574823409318924,0.09287087619304657
1772641334689221000,6.59722119140625,0.28439050912857056,0.12182740867137909,0.08650858700275421
1772641334699266800,6.607266845703125,0.26249462366104126,0.06779094785451889,0.07920580357313156
1772641334709312000,6.61731201171875,0.2484576404094696,0.022517740726470947,0.07120140641927719
1772641334719357000,6.62735693359375,0.2394772619009018,-0.0043130069971084595,0.06474894285202026
1772641334729402000,6.637402099609375,0.23255090415477753,-0.0017822054214775562,0.05268535390496254
1772641334739448000,6.647447998046875,0.2359144389629364,0.025645241141319275,0.037832751870155334
1772641334749493200,6.6574931640625,0.25200366973876953,0.07895586639642715,0.028098633512854576
1772641334759538000,6.667537841796875,0.280229389667511,0.13699132204055786,0.02205480821430683
1772641334769583900,6.677583984375,0.3138105273246765,0.1823047399520874,0.025859666988253593
1772641334779629300,6.68762939453125,0.34579649567604065,0.21352779865264893,0.04550505429506302
1772641334789674200,6.69767431640625,0.3675667643547058,0.22502945363521576,0.08371129631996155
1772641334799719400,6.707719482421875,0.3748200237751007,0.22162118554115295,0.14248017966747284
1772641334809765400,6.717765380859375,0.3737989664077759,0.19502659142017365,0.21744497120380402
1772641334819810300,6.727810302734375,0.36023521423339844,0.15473490953445435,0.2963075041770935
1772641334829855200,6.737855224609375,0.33923593163490295,0.119706891477108,0.3806189298629761
1772641334839901200,6.747901123046875,0.3137556314468384,0.07466129958629608,0.44318443536758423
1772641334849946400,6.7579462890625,0.2819516360759735,0.0339687317609787,0.4940827786922455
1772641334859991300,6.7679912109375,0.2494606375694275,-0.001001899130642414,0.5276185870170593
1772641334870036500,6.778036376953125,0.22141996026039124,-0.028219405561685562,0.5489223003387451
1772641334880082400,6.78808251953125,0.19577543437480927,-0.053222279995679855,0.5661643147468567
1772641334890127000,6.798127197265625,0.16652780771255493,-0.0757848471403122,0.5789613127708435
1772641334900172300,6.80817236328125,0.1326155960559845,-0.12465544044971466,0.5684904456138611
1772641334910218200,6.81821826171875,0.10493285208940506,-0.137141153216362,0.5583613514900208
1772641334920263200,6.82826318359375,0.07052910327911377,-0.22454306483268738,0.5076504945755005
1772641334930308400,6.838308349609375,0.03781883046030998,-0.2972739636898041,0.4538338780403137
1772641334940353300,6.848353271484375,0.004931779578328133,-0.35458922386169434,0.3917410969734192
1772641334950399200,6.858399169921875,-0.039574701339006424,-0.39131394028663635,0.3293437659740448
1772641334960444200,6.868444091796875,-0.07994118332862854,-0.40351012349128723,0.2606329619884491
1772641334970489300,6.8784892578125,-0.12189795821905136,-0.3708603084087372,0.16859813034534454
1772641334980535300,6.888535400390625,-0.15082743763923645,-0.32558733224868774,0.03829658776521683
1772641334990580200,6.898580322265625,-0.1610846072435379,-0.25604820251464844,-0.11288414150476456
1772641335000625400,6.90862548828125,-0.15931089222431183,-0.16704028844833374,-0.2862764298915863
1772641335010670000,6.918670166015625,-0.14483501017093658,-0.07356013357639313,-0.4648810625076294
1772641335020716300,6.92871630859375,-0.12090371549129486,0.04501454159617424,-0.6212433576583862
1772641335030761200,6.93876123046875,-0.09161160886287689,0.1491859406232834,-0.7293546795845032
1772641335040806400,6.948806396484375,-0.04408489167690277,0.21591298282146454,-0.7805564403533936
1772641335050851300,6.958851318359375,0.010334940627217293,0.26944729685783386,-0.7719903588294983
1772641335060897300,6.968897216796875,0.06916563957929611,0.3015894889831543,-0.712228000164032
1772641335070942200,6.978942138671875,0.12521453201770782,0.3115158975124359,-0.620764970779419
1772641335080987100,6.988987060546875,0.17158837616443634,0.3110129237174988,-0.5148292183876038
1772641335091033300,6.999033447265625,0.19088883697986603,0.2763926088809967,-0.41778817772865295
1772641335101078300,7.009078369140625,0.1732698380947113,0.21240292489528656,-0.33869558572769165
1772641335111123200,7.019123291015625,0.13489021360874176,0.1355118751525879,-0.2711106836795807
1772641335121168400,7.02916845703125,0.08333567529916763,0.06435240805149078,-0.21205982565879822
1772641335131214300,7.03921435546875,0.033714599907398224,-0.0009107557125389576,-0.16677303612232208
1772641335141259300,7.04925927734375,-0.00868266448378563,-0.05508062615990639,-0.13547435402870178
1772641335151304200,7.05930419921875,-0.036268752068281174,-0.08924099802970886,-0.12293699383735657
1772641335161350100,7.06935009765625,-0.059007883071899414,-0.11127633601427078,-0.12950029969215393
1772641335171395300,7.079395263671875,-0.07437458634376526,-0.11999791860580444,-0.15204420685768127
1772641335181440300,7.089440185546875,-0.08587494492530823,-0.11791593581438065,-0.18021436035633087
1772641335191485200,7.099485107421875,-0.09805730730295181,-0.11909971386194229,-0.2081913948059082
1772641335201531100,7.10953125,-0.11665907502174377,-0.124441958963871,-0.22697937488555908
1772641335211576300,7.119576416015625,-0.1405300498008728,-0.11236505210399628,-0.23278586566448212
1772641335221621200,7.129621337890625,-0.1578008383512497,-0.09885826706886292,-0.21558848023414612
1772641335231667200,7.139667236328125,-0.1728929728269577,-0.08501702547073364,-0.19213774800300598
1772641335241712400,7.14971240234375,-0.17650288343429565,-0.06500876694917679,-0.16655854880809784
1772641335251757300,7.15975732421875,-0.1722966879606247,-0.05735271796584129,-0.13759082555770874
1772641335261802200,7.16980224609375,-0.16369667649269104,-0.05766843259334564,-0.10838664323091507
1772641335271848200,7.17984814453125,-0.15337613224983215,-0.06236092373728752,-0.07602231204509735
1772641335281893400,7.189893310546875,-0.14915141463279724,-0.06981667876243591,-0.039081163704395294
1772641335291938300,7.199938232421875,-0.15003426373004913,-0.0839596688747406,0.0036495255772024393
1772641335301984300,7.209984375,-0.1528848558664322,-0.10953854769468307,0.044355325400829315
1772641335312029400,7.220029541015625,-0.15995287895202637,-0.12581153213977814,0.0926022157073021
1772641335322074000,7.23007421875,-0.16714787483215332,-0.14722201228141785,0.1307990401983261
1772641335332119300,7.240119384765625,-0.17027069628238678,-0.1542663425207138,0.16848675906658173
1772641335342165200,7.250165283203125,-0.1674562394618988,-0.14942578971385956,0.19289125502109528
1772641335352210200,7.260210205078125,-0.16551320254802704,-0.12943130731582642,0.20907875895500183
1772641335362255400,7.27025537109375,-0.164224773645401,-0.12275411933660507,0.20570936799049377
1772641335372301300,7.28030126953125,-0.15894320607185364,-0.07857173681259155,0.2086324542760849
1772641335382346500,7.290346435546875,-0.15867921710014343,-0.08659470826387405,0.19243760406970978
1772641335392391200,7.30039111328125,-0.15550152957439423,-0.05935536324977875,0.19142453372478485
1772641335402436400,7.310436279296875,-0.1560167819261551,-0.07866287231445312,0.1774739772081375
1772641335412482300,7.320482421875,-0.15342766046524048,-0.0798727497458458,0.17570537328720093
1772641335422527200,7.33052734375,-0.1471954584121704,-0.07341723144054413,0.18308678269386292
1772641335432572400,7.340572509765625,-0.13371479511260986,-0.05465925484895706,0.20487037301063538
1772641335442617000,7.3506171875,-0.12504546344280243,-0.06487821042537689,0.22664299607276917
1772641335452663300,7.360663330078125,-0.11472464352846146,-0.07675644010305405,0.25546160340309143
1772641335462708200,7.370708251953125,-0.10874851047992706,-0.09620318561792374,0.27629584074020386
1772641335472753400,7.38075341796875,-0.10473112761974335,-0.10173510760068893,0.3014605641365051
1772641335482799400,7.39079931640625,-0.11413336545228958,-0.13291198015213013,0.3061932325363159
1772641335492844300,7.40084423828125,-0.13225245475769043,-0.18346038460731506,0.2909916639328003
1772641335502889500,7.410889404296875,-0.15082795917987823,-0.2151123285293579,0.26574018597602844
1772641335512934100,7.42093408203125,-0.16424016654491425,-0.2032841593027115,0.24650472402572632
1772641335522980000,7.43097998046875,-0.17528368532657623,-0.1806347817182541,0.22381830215454102
1772641335533025300,7.441025390625,-0.1901036500930786,-0.18180763721466064,0.18331243097782135
1772641335543070200,7.4510703125,-0.21000729501247406,-0.18728290498256683,0.12202968448400497
1772641335553116400,7.461116455078125,-0.2313874214887619,-0.15965048968791962,0.05093633010983467
1772641335563161300,7.471161376953125,-0.24339529871940613,-0.08031389117240906,-0.015103410929441452
1772641335573206300,7.481206298828125,-0.2384873628616333,0.02743334323167801,-0.057664722204208374
1772641335583251200,7.491251220703125,-0.21850620210170746,0.11049661785364151,-0.06596372276544571
1772641335593297200,7.501297119140625,-0.1908615231513977,0.11510201543569565,-0.04257664829492569
1772641335603342300,7.51134228515625,-0.16412436962127686,0.06742510944604874,0.0015444094315171242
1772641335613387300,7.52138720703125,-0.15329116582870483,0.008403068408370018,0.06068868935108185
1772641335623433500,7.53143359375,-0.15329323709011078,-0.035430099815130234,0.1250062733888626
1772641335633478100,7.54147802734375,-0.16276289522647858,-0.04760580509901047,0.19496217370033264
1772641335643523300,7.5515234375,-0.17425434291362762,-0.025590073317289352,0.2734155058860779
1772641335653568300,7.561568359375,-0.1917923241853714,-0.04715501889586449,0.3285069763660431
1772641335663614200,7.5716142578125,-0.203866645693779,-0.0417754240334034,0.3853045105934143
1772641335673659400,7.581659423828125,-0.21672199666500092,-0.05120114982128143,0.4245077967643738
1772641335683704300,7.591704345703125,-0.2255503386259079,-0.08330456912517548,0.43275418877601624
1772641335693750300,7.601750244140625,-0.22183015942573547,-0.0701589435338974,0.43753933906555176
1772641335703795200,7.611795166015625,-0.2104359269142151,-0.048886582255363464,0.42750608921051025
1772641335713840000,7.621840087890625,-0.1927000880241394,-0.054801203310489655,0.4028012752532959
1772641335723885300,7.63188525390625,-0.1676599681377411,-0.04543379694223404,0.37409186363220215
1772641335733931300,7.64193115234375,-0.14932650327682495,-0.025479797273874283,0.3496592342853546
1772641335743976400,7.6519765625,-0.1437503695487976,-0.042897745966911316,0.31322380900382996
1772641335754021000,7.662021240234375,-0.14385876059532166,-0.03921033442020416,0.27832362055778503
1772641335764066300,7.67206640625,-0.14978578686714172,-0.041661638766527176,0.24445614218711853
1772641335774112300,7.6821123046875,-0.16931501030921936,-0.06078260764479637,0.2019883096218109
1772641335784157400,7.692157470703125,-0.19260098040103912,-0.06374949961900711,0.153379887342453
1772641335794202400,7.702202392578125,-0.21064789593219757,-0.06140565499663353,0.09464041888713837
1772641335804248300,7.712248291015625,-0.2282620370388031,-0.03046044521033764,0.029365209862589836
1772641335814293500,7.72229345703125,-0.26190948486328125,-0.012253746390342712,-0.053429003804922104
1772641335824338400,7.73233837890625,-0.29279807209968567,-0.00035022804513573647,-0.13546901941299438
1772641335834383400,7.74238330078125,-0.30409732460975647,0.007016341667622328,-0.21255342662334442
1772641335844429600,7.7524296875,-0.3051546514034271,0.01716291718184948,-0.26690542697906494
1772641335854474200,7.76247412109375,-0.28731095790863037,0.0009522563777863979,-0.30262428522109985
1772641335864519400,7.77251953125,-0.2494088113307953,-0.010779617354273796,-0.3143182694911957
1772641335874565400,7.7825654296875,-0.20391668379306793,-0.005127856973558664,-0.3101426959037781
1772641335884610300,7.7926103515625,-0.1527569741010666,-0.004619590938091278,-0.29294270277023315
1772641335894655500,7.802655517578125,-0.1030496135354042,-0.02076394110918045,-0.2788031995296478
1772641335904700400,7.812700439453125,-0.05680766701698303,-0.03860733285546303,-0.2683163583278656
1772641335914746600,7.82274658203125,-0.025294480845332146,-0.023664601147174835,-0.2649823725223541
1772641335924791300,7.832791259765625,0.0018336265347898006,0.001274789683520794,-0.25528839230537415
1772641335934836500,7.84283642578125,0.01844669133424759,0.02662435546517372,-0.2340286374092102
1772641335944882400,7.85288232421875,0.027107590809464455,0.03878506273031235,-0.20245802402496338
1772641335954927400,7.86292724609375,0.029351571574807167,0.014622469432651997,-0.15671691298484802
1772641335964972500,7.87297265625,0.02517271786928177,-0.04143481329083443,-0.10484906286001205
1772641335975017200,7.883017333984375,0.01290539838373661,-0.10947884619235992,-0.06462973356246948
1772641335985063400,7.8930634765625,0.003561986843124032,-0.15812018513679504,-0.025966865941882133
1772641335995108400,7.9031083984375,-0.004465312696993351,-0.17649918794631958,-0.006093825679272413
1772641336005153500,7.913153564453125,-0.006615274585783482,-0.1790773570537567,-0.005743164103478193
1772641336015199500,7.923199462890625,-0.004968109540641308,-0.17099866271018982,-0.02059534750878811
1772641336025244400,7.933244384765625,-0.003442420857027173,-0.1506977528333664,-0.05560760200023651
1772641336035289300,7.943289306640625,-0.002936153905466199,-0.11524896323680878,-0.10602577030658722
1772641336045334300,7.953334228515625,0.000627923640422523,-0.07490179687738419,-0.16115409135818481
1772641336055380200,7.963380126953125,0.010184410959482193,-0.030741263180971146,-0.21679764986038208
1772641336065425400,7.97342529296875,0.024173937737941742,0.006078735925257206,-0.26200222969055176
1772641336075470300,7.98347021484375,0.03829268738627434,0.04523759335279465,-0.29452264308929443
1772641336085515500,7.993515625,0.05475533381104469,0.08067969977855682,-0.3110683858394623
1772641336095561500,8.0035615234375,0.07023762166500092,0.10353201627731323,-0.311725914478302
1772641336105606400,8.0136064453125,0.09052443504333496,0.12079493701457977,-0.28965261578559875
1772641336115651300,8.0236513671875,0.10930291563272476,0.1183517575263977,-0.25484615564346313
1772641336125697300,8.033697265625,0.11537308990955353,0.1312408298254013,-0.21141678094863892
1772641336135742500,8.043742431640625,0.13731275498867035,0.13248266279697418,-0.1715031862258911
1772641336145787400,8.053787353515625,0.15383443236351013,0.136888787150383,-0.132221058011055
1772641336155832300,8.063832275390626,0.15793198347091675,0.13598784804344177,-0.0959799513220787
1772641336165878300,8.073878173828126,0.15477944910526276,0.12785601615905762,-0.06006886437535286
1772641336175923500,8.08392333984375,0.15660610795021057,0.11388934403657913,-0.024262133985757828
1772641336185968400,8.093968505859374,0.15783962607383728,0.10100089758634567,0.007662131916731596
1772641336196014300,8.104014404296874,0.15739993751049042,0.10308509320020676,0.03666102886199951
1772641336206059500,8.1140595703125,0.15868614614009857,0.08175505697727203,0.05869229510426521
1772641336216104400,8.1241044921875,0.16274559497833252,0.059855882078409195,0.07026319950819016
1772641336226149400,8.1341494140625,0.17134317755699158,0.05347253382205963,0.0751975029706955
1772641336236195300,8.1441953125,0.18277613818645477,0.05963695049285889,0.07743242383003235
1772641336246240300,8.154240234375,0.18578661978244781,0.06383930146694183,0.07717280834913254
1772641336256285400,8.164285400390625,0.1859503984451294,0.05612465366721153,0.07913156598806381
1772641336266330400,8.174330322265625,0.18442249298095703,0.03436051309108734,0.07870181649923325
1772641336276376600,8.18437646484375,0.1812296211719513,0.015955941751599312,0.0874260663986206
1772641336286421200,8.194421142578125,0.18484854698181152,0.02129809372127056,0.09381495416164398
1772641336296466400,8.204466552734376,0.18851837515830994,0.047441281378269196,0.10240471363067627
1772641336306512400,8.214512451171874,0.1913648545742035,0.07046312093734741,0.11054825782775879
1772641336316557300,8.224557373046874,0.199285089969635,0.1150210052728653,0.1308836191892624
1772641336326602500,8.2346025390625,0.2225075364112854,0.155642569065094,0.15666911005973816
1772641336336647400,8.2446474609375,0.26178038120269775,0.16149672865867615,0.17535170912742615
1772641336346693600,8.254693603515625,0.29274773597717285,0.14218363165855408,0.18222661316394806
1772641336356738300,8.26473828125,0.3078574538230896,0.09902924299240112,0.17253270745277405
1772641336366783500,8.274783447265625,0.29928112030029297,0.08704381436109543,0.16264063119888306
1772641336376829400,8.284829345703125,0.28563880920410156,0.07074154168367386,0.1590445637702942
1772641336386874400,8.294874267578125,0.28111276030540466,0.061147961765527725,0.16446760296821594
1772641336396919600,8.30491943359375,0.27451291680336,0.05119173228740692,0.17042164504528046
1772641336406964200,8.314964111328125,0.26438388228416443,0.03896169364452362,0.16874659061431885
1772641336417010400,8.325010498046876,0.2517344057559967,0.02639184147119522,0.15797890722751617
1772641336427055400,8.335055419921876,0.24251943826675415,0.03334306553006172,0.14126892387866974
1772641336437100300,8.345100341796876,0.2233007401227951,0.04398292303085327,0.11833404749631882
1772641336447146500,8.355146484375,0.18851089477539062,0.035989273339509964,0.09175849705934525
1772641336457191400,8.36519140625,0.15346795320510864,0.0012632501311600208,0.07249345630407333
1772641336467236600,8.375236572265624,0.13340070843696594,-0.011975390836596489,0.07577036321163177
1772641336477281300,8.38528125,0.11464619636535645,-0.11082234233617783,0.06766876578330994
1772641336487327200,8.3953271484375,0.0951872169971466,-0.1828964352607727,0.07828760892152786
1772641336497372400,8.405372314453125,0.07404810935258865,-0.22225981950759888,0.0857793465256691
1772641336507417300,8.415417236328125,0.06727930158376694,-0.22229059040546417,0.10314907133579254
1772641336517462500,8.425462646484375,0.08077513426542282,-0.1795884072780609,0.13169816136360168
1772641336527508500,8.435508544921875,0.09736716002225876,-0.09191075712442398,0.15347535908222198
1772641336537553400,8.445553466796875,0.12258649617433548,0.024461930617690086,0.15227453410625458
1772641336547598300,8.455598388671875,0.15252149105072021,0.16579854488372803,0.1322060227394104
1772641336557644300,8.465644287109376,0.19199219346046448,0.24839143455028534,0.09420723468065262
1772641336567689500,8.475689453125,0.23001441359519958,0.3032626807689667,0.05445422977209091
1772641336577734400,8.485734375,0.26003092527389526,0.3346940875053406,0.03794502839446068
1772641336587779600,8.495779541015626,0.2734125256538391,0.30136537551879883,0.05089186877012253
1772641336597825300,8.5058251953125,0.27590763568878174,0.20810890197753906,0.09152904897928238
1772641336607870500,8.515870361328124,0.27617862820625305,0.11235203593969345,0.1374727487564087
