time,seconds_elapsed,z,y,x
1772732459957017300,0.079017333984375,0.4512205036997795,-0.28954715583994983,-0.40724502224251624
1772732459967045600,0.089045654296875,0.7356991241037845,-0.33797640183568,-0.32377975337468085
1772732459977072400,0.099072265625,0.9996756392270326,-0.37483284506797787,-0.294788417494297
1772732459987100400,0.109100341796875,1.1054109728962183,-0.4272260262586176,-0.42123255799748
1772732459997128400,0.11912841796875,1.1303536909729242,-0.379885890673846,-0.5300756484236568
1772732460007155500,0.129155517578125,1.0779407821685074,-0.3068723846502602,-0.5360671804560349
1772732460017183500,0.13918359375,0.8891156618803739,-0.3098348877176642,-0.5615626005120575
1772732460027211500,0.14921142578125,0.6959358535140753,-0.3009413871660828,-0.5385453340725973
1772732460037238300,0.15923828125,0.4266793521612882,-0.23979060676321387,-0.49358734438400714
1772732460047266600,0.1692666015625,0.14562778359651565,-0.1737967702433467,-0.45164092106893655
1772732460057294300,0.17929443359375,-0.16394260796606538,-0.11630655817463993,-0.4300141956724226
1772732460067322400,0.189322265625,-0.41897009295821186,-0.059488107887655496,-0.4309566276216879
1772732460077349400,0.199349365234375,-0.4691401912719011,-0.026692630483955142,-0.41343006755299866
1772732460087377700,0.209377685546875,-0.48511517451703545,-0.014189268872141838,-0.48620771899409587
1772732460097405400,0.219405517578125,-0.5649205326378345,-0.03207110865190625,-0.5411695085637271
1772732460107432400,0.229432373046875,-0.6232885504543781,-0.07749678891748189,-0.4085201567448675
1772732460117460500,0.23946044921875,-0.6308516791850328,-0.18192323194518684,-0.33449268790576603
1772732460127488300,0.24948828125,-0.6736304982036352,-0.32879955429807306,-0.28724936375897375
1772732460137515500,0.259515625,-0.7095236493617296,-0.40870778827145693,-0.16868746440559626
1772732460147543600,0.26954345703125,-0.7431009247928857,-0.4128177078083157,0.017655027020256966
1772732460157571600,0.279571533203125,-0.7539256856679916,-0.45390711243525145,0.1356847374593839
1772732460167598600,0.2895986328125,-0.7299860071539879,-0.5217284566432238,0.32473836927376687
1772732460177626400,0.29962646484375,-0.7559586528003215,-0.5727295989535749,0.5264306429848075
1772732460187653000,0.309653076171875,-0.8378273731917142,-0.6157692608654499,0.714141518420726
1772732460197681200,0.31968115234375,-0.8212626073598861,-0.6226797709062695,0.7815158495135605
1772732460207708200,0.329708251953125,-0.5987567512661218,-0.6242611948788166,0.732375678769499
1772732460217736000,0.33973583984375,-0.22403788796663282,-0.648205257306993,0.5479729780334979
1772732460227764200,0.34976416015625,0.15769348444342612,-0.6590130670472979,0.32051286053322253
1772732460237791000,0.359791015625,0.49244566353559494,-0.6677296035967767,0.19683738102577625
1772732460247819300,0.3698193359375,0.7142927634596824,-0.686740885797888,0.14948855067789554
1772732460257847000,0.379846923828125,0.7462187645524739,-0.7468330970585346,0.10413325050109996
1772732460267874000,0.3898740234375,0.629353549581766,-0.8076026230588554,0.06973276731986552
1772732460277902000,0.399902099609375,0.4947212072521448,-0.7532268897488713,-0.0023065816005633675
1772732460287930000,0.40993017578125,0.33488895721435546,-0.667491264796257,-0.1002250458151102
1772732460297957000,0.41995703125,0.22846797936856744,-0.5947628593243658,-0.11179549222467466
1772732460307985200,0.429985107421875,0.2344447156906128,-0.5084225464768708,0.026256426457199267
1772732460318013200,0.44001318359375,0.27732757960557936,-0.4261465604588389,0.1368850166272372
1772732460328040200,0.450040283203125,0.2752747387290001,-0.3310309666119516,0.153372388107609
1772732460338068000,0.46006787109375,0.15392039564549923,-0.22076091212257742,0.20105788479764014
1772732460348096300,0.47009619140625,-0.012969371688365936,-0.15093144296258687,0.23240769343767315
1772732460358124000,0.4801240234375,-0.17417115651369094,-0.14221855967491864,0.23317844034815205
1772732460368151300,0.4901513671875,-0.30432313855886456,-0.13188976562321186,0.24498826673785223
1772732460378179000,0.500178955078125,-0.40363574570417404,-0.19257775081992148,0.3931451852194965
1772732460388207000,0.51020703125,-0.4421136526584625,-0.29580139392912386,0.49320751475356517
1772732460398234000,0.520234130859375,-0.2933364651203155,-0.3768102826207876,0.5044353765368461
1772732460408262000,0.530261962890625,0.06621230157613754,-0.4011059349656105,0.5038161851925775
1772732460418290200,0.540290283203125,0.49548459284007546,-0.42326048362851143,0.46344629047922786
1772732460428317200,0.550317138671875,0.8628519243329763,-0.5009031107574701,0.4460552664237097
1772732460438345200,0.56034521484375,1.1702747824728488,-0.6029495267808437,0.5084323737511411
1772732460448373000,0.570373046875,1.3965624951928852,-0.7071539976209402,0.6631418374150991
1772732460458400000,0.58039990234375,1.5309972691237925,-0.8375377425953745,0.7712212499924004
1772732460468428000,0.590427978515625,1.5807628782898187,-0.9290756240859627,0.8079540668450296
1772732460478456000,0.6004560546875,1.5041525168180465,-0.9928367331176996,0.8590377728722989
1772732460488484000,0.610484130859375,1.410069627019763,-1.0087608629584313,0.8295587265402078
1772732460498511000,0.620510986328125,1.397663734433055,-1.029983099207282,0.7368413529414684
1772732460508539100,0.6305390625,1.3940198249727487,-1.0635293949782847,0.6630335547350347
1772732460518567200,0.640567138671875,1.3788205022752285,-1.0866194709256292,0.6890018164671957
1772732460528594000,0.650593994140625,1.2938485551714896,-1.097748183183372,0.7061546113200485
1772732460538622200,0.660622314453125,1.1649439428389072,-1.0998156371071934,0.623135332654044
1772732460548650000,0.67064990234375,1.0232745414793492,-1.093758821286261,0.529522581118159
1772732460558677200,0.68067724609375,0.8687585180282592,-1.0946887956127525,0.49251558696664866
1772732460568705000,0.690705078125,0.7591343602269888,-1.1141533745393157,0.4765176612373441
1772732460578733300,0.7007333984375,0.7115981175482272,-1.0668044711261988,0.4567380250122398
1772732460588760000,0.710760009765625,0.7313017659276724,-1.0419847949072718,0.4596461310112849
1772732460598788000,0.7207880859375,0.7965104434192181,-1.003174733389169,0.40567875930648295
1772732460608816000,0.730816162109375,0.7977870392262936,-0.9345851812876761,0.2892490131435916
1772732460618844200,0.74084423828125,0.7270236502170563,-0.8579575764201581,0.1266739489373751
1772732460628871200,0.75087109375,0.6295043562293052,-0.8198768520899117,0.031054606819432225
1772732460638899200,0.760899169921875,0.5388157850444316,-0.8166052830733358,0.09147369368057698
1772732460648927000,0.770927001953125,0.4737772034227848,-0.8417932080827653,0.21005236150566486
1772732460658954200,0.780954345703125,0.3227507756531238,-0.8819999846562743,0.29715704632177947
1772732460668982000,0.79098193359375,0.056873979866504665,-0.9245845962770283,0.4335900083325803
1772732460679010000,0.801010009765625,-0.146919576972723,-0.9570840133436024,0.5848337321147322
1772732460689037000,0.811037109375,-0.15317103858292103,-0.968503086850047,0.6099078945513814
1772732460699065000,0.821065185546875,-0.08452011168301105,-0.9585800971202552,0.5742777051784098
1772732460709093000,0.831093017578125,0.0007499415844678879,-0.9947511884368956,0.5918836506262422
1772732460719121000,0.841120849609375,0.07872925332188606,-1.0714426523208618,0.6516188651427626
1772732460729148200,0.851148193359375,0.16404489929676055,-1.1147077935516834,0.6698407505318522
1772732460739176000,0.861176025390625,0.3220639624327421,-1.1410595016434788,0.5998872166007757
1772732460749204200,0.871204345703125,0.4671487251937389,-1.1828320662289857,0.5204986225873232
1772732460759231000,0.88123095703125,0.6148305187106132,-1.2775837951995432,0.578406840872392
1772732460769259000,0.891259033203125,0.803418323111534,-1.3881956488639116,0.6312148134090007
1772732460779287000,0.901287109375,0.965077204054594,-1.5061948363006115,0.5940204799918457
1772732460789314000,0.91131396484375,1.0854138945281504,-1.5545969020284711,0.5353634891660883
1772732460799342000,0.921342041015625,1.1457733784228563,-1.5908347749710081,0.4925118606396019
1772732460809370000,0.9313701171875,1.1724801835626364,-1.6578111927874386,0.387945059293136
1772732460819398100,0.941398193359375,1.0581062008857727,-1.7338460924588144,0.33921832818817343
1772732460829425200,0.951425048828125,0.7984773595780134,-1.8368978861324488,0.34796544253900646
1772732460839453000,0.961452880859375,0.4939484693139791,-1.919037824680656,0.3371966496348381
1772732460849481200,0.971481201171875,0.11508476129472255,-2.0049983444303274,0.23854453395856542
1772732460859508000,0.981508056640625,-0.28909751237630843,-2.041149123611301,0.14848952970318496
1772732460869536300,0.991536376953125,-0.5766179846942424,-2.0827651824608444,0.15896401583589612
1772732460879564000,1.00156396484375,-0.681215838766098,-2.1292259048625826,0.21538970394562929
1772732460889591000,1.011591064453125,-0.605043284189701,-2.0423880177564917,0.3556443431364372
1772732460899619000,1.021619140625,-0.5654273131161928,-1.8481714136883616,0.5260768245784565
1772732460909647000,1.031647216796875,-0.833163473033905,-1.6013303038917481,0.7101561751116067
1772732460919675100,1.041675048828125,-1.5322493150115013,-1.2966728188119827,0.7561999872755258
1772732460929702100,1.0517021484375,-2.354297519791126,-0.9232645997196436,0.6433623473204672
1772732460939730200,1.061730224609375,-2.9312369915246963,-0.5383025748252869,0.4372813736638054
1772732460949758000,1.071758056640625,-3.1568472433745858,-0.21933950101733207,0.1274689169736579
1772732460959785000,1.081784912109375,-2.9269746579051015,-0.025210429102182387,-0.18465959810651839
1772732460969813000,1.09181298828125,-2.2706360707640645,0.09860051335319876,-0.36062801330052313
1772732460979841000,1.101841064453125,-1.379873226198554,0.12471549007967114,-0.4058455307081342
1772732460989868300,1.111868408203125,-0.6495557951331138,0.1391708625420928,-0.43278084737416356
1772732460999896000,1.12189599609375,-0.1160281796246767,0.11900719543546437,-0.4789302388044074
1772732461009924000,1.131924072265625,0.2197556806027889,0.10552753613740205,-0.5846057685777545
1772732461019952000,1.1419521484375,0.4223714258342981,0.10747516307383775,-0.6217593681257217
1772732461029979000,1.151978759765625,0.632822686997056,0.14065321005433798,-0.6065878832831978
1772732461040007200,1.162007080078125,0.854185802796483,0.1568757383197546,-0.5772854356270283
1772732461050035000,1.172034912109375,1.0255395638018845,0.1643111490175128,-0.5586944246646016
1772732461060062200,1.182062255859375,1.1967787585169076,0.17364684037864206,-0.581692000022903
1772732461070090000,1.192090087890625,1.269722414174676,0.19957067844718693,-0.6287476195778697
1772732461080118300,1.2021181640625,1.172872397750616,0.240281751281023,-0.7181037000499665
1772732461090146000,1.21214599609375,0.9211053758591413,0.3264589825212955,-0.8609545662790536
1772732461100173000,1.222173095703125,0.5439969870746135,0.4381199068471789,-0.9844762434642761
1772732461110201000,1.232201171875,0.15339257237911225,0.5107391528561711,-0.9893919994913041
1772732461120229000,1.24222900390625,-0.13553776673674583,0.5475254534617066,-0.9893678879633545
1772732461130256100,1.252256103515625,-0.3671048811644316,0.5564926037713885,-1.0000550669986754
1772732461140284200,1.2622841796875,-0.5346890605032444,0.5499053343355655,-0.9662314155910163
1772732461150312200,1.272312255859375,-0.6762836430609226,0.5199348512247205,-0.9433720796596259
1772732461160339200,1.282339111328125,-0.807202517825365,0.5202332496494054,-0.8954152734812348
1772732461170367000,1.292366943359375,-0.9053384824067353,0.5549091339722275,-0.8745457231275737
1772732461180395300,1.302395263671875,-0.8933049302637577,0.616673516228795,-0.8787504082757979
1772732461190423300,1.31242333984375,-0.7728741317659616,0.7078913719847798,-0.8893441368740052
1772732461200450300,1.3224501953125,-0.5815577791839838,0.707482498922944,-0.9654845427464693
1772732461210478300,1.332478271484375,-0.3138157740473747,0.6326520066052674,-1.0230839873433113
1772732461220506400,1.34250634765625,0.08004501209557056,0.5362900659590959,-0.9957037399213761
1772732461230533400,1.352533447265625,0.5227396795123815,0.3683911215826869,-0.962489379518479
1772732461240561200,1.36256103515625,0.9198591751903294,0.16458207491338253,-0.9434981171920895
1772732461250589400,1.37258935546875,1.197139993044734,-0.00997720413506031,-0.9528689529318362
1772732461260617200,1.3826171875,1.3721119445472956,-0.19602993710041045,-0.9344358359448611
1772732461270644500,1.39264453125,1.5330495254784822,-0.36256636095196004,-0.8848620230238884
1772732461280672300,1.40267236328125,1.6745312953114508,-0.5108785613268614,-0.8145341758877038
1772732461290700500,1.412700439453125,1.8103326814204452,-0.6539873478397726,-0.7159246755104511
1772732461300727300,1.422727294921875,1.8916051894843577,-0.8043763544887303,-0.6269172623455525
1772732461310755300,1.43275537109375,1.933874889937043,-0.881202404537797,-0.6353065397020429
1772732461320783400,1.442783447265625,1.9198902037262915,-0.8732914852827787,-0.6363510072536767
1772732461330811100,1.45281103515625,1.84538587462306,-0.8730544616565108,-0.6426800641447306
1772732461340838400,1.46283837890625,1.8354571858048438,-0.8362208147779107,-0.7099971851576119
1772732461350866400,1.472866455078125,1.8973995549768208,-0.8649502117864787,-0.7273601886950433
1772732461360894500,1.48289453125,1.9255670803189278,-0.914938377662003,-0.7484663973487913
1772732461370921500,1.49292138671875,1.6971745042741297,-0.9767601891942321,-0.7241190878819674
1772732461380949200,1.50294921875,1.1843670207113026,-1.0482703049175441,-0.6459544827055186
1772732461390977300,1.512977294921875,0.47624037866592406,-0.98965605725497,-0.6643680912744253
1772732461401004300,1.52300439453125,-0.05011339969038963,-0.8648173791870475,-0.7393793469864874
1772732461411032300,1.5330322265625,0.12433014402389525,-0.6260653216913342,-0.7542736223228276
1772732461421060400,1.543060302734375,0.8735194488197564,-0.5621656809717417,-0.6101741077395155
1772732461431088400,1.55308837890625,1.7123562913149595,-0.7112362984985112,-0.5138182315079495
1772732461441115400,1.563115478515625,2.577479083189368,-0.7925891783222556,-0.2597560113513842
1772732461451143200,1.57314306640625,3.178943924370408,-0.8975210866540669,-0.10105346859642304
1772732461461171500,1.58317138671875,3.383757471907139,-0.9703171505346894,-0.15930976053364573
1772732461471198200,1.5931982421875,3.201178552532196,-0.9782251471802592,-0.1686993009738624
1772732461481226500,1.6032265625,2.7869056774795053,-0.9971844069331883,-0.17898410975337029
1772732461491254300,1.613254150390625,2.3397160367310046,-1.0861094755768774,-0.2656316071202047
1772732461501282600,1.623282470703125,2.0022434927642343,-1.2124819390833377,-0.4706196892399341
1772732461511309300,1.633309326171875,1.6093717176586388,-1.2999506714388727,-0.6852312849525362
1772732461521337300,1.64333740234375,1.1177344478964806,-1.3179881401717661,-0.7690732051130383
1772732461531365400,1.653365478515625,0.4327326608508825,-1.3257520521715283,-0.7510315716616809
1772732461541392400,1.663392333984375,-0.4321750269681215,-1.3281199503466485,-0.6568932253491133
1772732461551420400,1.67342041015625,-1.5141659613102674,-1.2744888979241251,-0.5136081324212253
1772732461561448400,1.683448486328125,-2.6474995448768137,-1.2039753920227287,-0.36827359615024174
1772732461571476500,1.6934765625,-3.7168747432738543,-1.0866378833651542,-0.22138762918617574
1772732461581503500,1.70350341796875,-4.580309435930848,-0.9006555852875113,-0.08618333218749612
1772732461591531300,1.71353125,-5.119886268475652,-0.691482673497498,-0.11622209476158023
1772732461601559300,1.723559326171875,-5.256510076883435,-0.5401490794748067,-0.10586984676904976
1772732461611587300,1.73358740234375,-4.905931383106112,-0.45771804902553553,-0.08413483869247138
1772732461621614300,1.7436142578125,-4.062741606098413,-0.4994923671767115,-0.028262290953472255
1772732461631642400,1.753642333984375,-3.1205116091459986,-0.4108759260907769,-0.06390475528612732
1772732461641670100,1.763670166015625,-2.266657230260968,-0.36297874114513395,-0.02189662837907672
1772732461651697400,1.773697509765625,-1.489895443406701,-0.43087212767601013,0.03615918168313801
1772732461661725200,1.78372509765625,-1.2507722145110367,-0.4803948679968714,0.26413024438023563
1772732461671753500,1.79375341796875,-1.2799790197730063,-0.37033728721439835,0.6790089763715863
1772732461681781200,1.80378125,-1.6135650776952504,-0.2500704471066594,1.0384000682882963
1772732461691808300,1.813808349609375,-2.248235438385606,-0.06875351049154997,1.2514729101262987
1772732461701836300,1.823836181640625,-2.922052399072051,0.2005979756683111,1.2535928248897195
1772732461711864300,1.8338642578125,-3.6090059047073124,0.5192927539288997,0.998397289854288
1772732461721891300,1.843891357421875,-3.8904578707665203,0.8834761946886778,0.5871978308975696
1772732461731919400,1.85391943359375,-3.6438995234340426,1.1506374773278831,0.08403357027508318
1772732461741947400,1.863947509765625,-3.108879623541236,1.252489539822936,-0.45486105215921996
1772732461751974400,1.873974365234375,-2.538184014633298,1.3089119765296577,-0.8218310548976063
1772732461762002200,1.884002197265625,-1.961176738360524,1.3312833828136323,-0.9718252170100807
1772732461772030500,1.894030517578125,-1.3079109827935695,1.3619161292254924,-0.9008685704510658
1772732461782058200,1.904058349609375,-0.7109633267760277,1.3260428518116474,-0.6135591105353086
1772732461792085500,1.91408544921875,-0.189413733831048,1.2867808087423442,-0.16615502331852913
1772732461802113300,1.92411328125,0.26081132909059523,1.2163923905253409,0.2492455405898392
1772732461812141300,1.934141357421875,0.6621580870747565,1.17013245139271,0.5321764931604266
1772732461822168300,1.944168212890625,0.9217851748168467,1.127323529496789,0.80448434490785
1772732461832196400,1.9541962890625,1.18612526255548,1.0331877404674887,1.1648878287374973
1772732461842224400,1.964224365234375,1.4010457780867813,0.866013603234291,1.5679788000404833
1772732461852252200,1.974252197265625,1.5301578956902027,0.6485568472236395,1.9471005744740366
1772732461862279400,1.984279541015625,1.6490420492678879,0.43330841491222377,2.263522147105634
1772732461872307200,1.99430712890625,1.797986994588375,0.22751316286176443,2.5172733285516498
1772732461882335500,2.00433544921875,1.9153619126468895,0.08382569967806339,2.6558333657190203
1772732461892363300,2.01436328125,1.9977678086549042,0.003472644546627998,2.591149296623468
1772732461902390300,2.024390380859375,2.0396236676096917,0.01784691459685564,2.311117864886671
1772732461912418300,2.034418212890625,2.0479659640192986,0.08238894487321376,1.7465366472057997
1772732461922446300,2.0444462890625,2.106992153483629,0.18355419414788485,1.155755258733034
1772732461932473300,2.054473388671875,2.210986780965328,0.2867918657824397,0.6793740833569317
1772732461942501400,2.06450146484375,2.321560786837339,0.3957221961006522,0.2598378078833222
1772732461952529400,2.074529296875,2.3790169505059717,0.42405835600793357,-0.05977393909171223
1772732461962557400,2.084557373046875,2.4402064554840326,0.40680326982438564,-0.2953117107160389
1772732461972584200,2.094584228515625,2.543351188138127,0.4223930531442165,-0.5445478989556432
1772732461982612500,2.104612548828125,2.655285376447439,0.43746787267923354,-0.735212728826329
1772732461992640300,2.11464013671875,2.7240578839004037,0.421351435136795,-0.7787461656045168
1772732462002667500,2.12466748046875,2.733747503265738,0.361508960853517,-0.7850484075538814
1772732462012695300,2.1346953125,2.7063480396866795,0.28013971441686153,-0.7346752609487622
1772732462022723300,2.144723388671875,2.6213205630034206,0.1830699177622795,-0.5911801054667681
1772732462032751400,2.15475146484375,2.584219205099344,0.07347761640399694,-0.376576839191094
1772732462042778400,2.1647783203125,2.572814598509669,-0.08164455624669789,-0.2418519232071936
1772732462052806400,2.174806396484375,2.52117092051208,-0.30374563093185425,-0.16776742695122956
1772732462062834200,2.184834228515625,2.440675242039561,-0.5699301774933934,-0.00240844938121736
1772732462072861400,2.194861328125,2.3057032924920318,-0.8204545058473944,0.22713212765492496
1772732462082889200,2.20488916015625,2.146224678197503,-1.0386007054269313,0.3946414881918579
1772732462092917500,2.21491748046875,1.9920757344931364,-1.147713114313781,0.5914401446424424
1772732462102945300,2.2249453125,1.8737462921887635,-1.1815884959086775,0.736241341221705
1772732462112972300,2.23497216796875,1.7816045995861292,-1.2668813455298542,0.8810912723135202
1772732462123000300,2.245000244140625,1.7238497452318666,-1.4046914411127567,0.9801086228393018
1772732462133028400,2.2550283203125,1.597019601085782,-1.4632199101880192,0.8992146657641976
1772732462143055400,2.265055419921875,1.425439045587182,-1.380727504940331,0.6276770677369088
1772732462153083400,2.27508349609375,1.221788112089038,-1.2606871670648454,0.2592920836340636
1772732462163111400,2.285111328125,0.9342290613263845,-1.1809373385235666,0.06883373612090944
1772732462173139500,2.295139404296875,0.5406880086570978,-1.1647723856642842,0.007590382063761353
1772732462183166200,2.305166259765625,0.15536241114735602,-1.1442337477654219,-0.09643551733903587
1772732462193194200,2.3151943359375,-0.21027473555207252,-1.022062535341084,-0.2862771942585707
1772732462203222300,2.32522216796875,-0.6457698468536138,-0.908373612318933,-0.4786182137131691
1772732462213250000,2.33525,-1.1123866571277379,-0.777927615763247,-0.6064954557593911
1772732462223277300,2.34527734375,-1.55492993337512,-0.7019497069761157,-0.6229596838261932
1772732462233305000,2.35530517578125,-1.7897610180348156,-0.5759031144231558,-0.6939313087586313
1772732462243333000,2.3653330078125,-2.103452288919687,-0.48008477913439274,-0.6675946521054953
1772732462253360400,2.3753603515625,-2.5277561441212892,-0.496028198197484,-0.5494090021859854
1772732462263388200,2.38538818359375,-2.8683330838441847,-0.5707502617046236,-0.48651868463940917
1772732462273416200,2.395416259765625,-2.9142110379219055,-0.6610454496577381,-0.5333598577260971
1772732462283444200,2.4054443359375,-2.6020740107417106,-0.8713374286055564,-0.3816848298545927
1772732462293471000,2.415470947265625,-1.9699398905307053,-1.1563994018554686,0.06584361439421772
1772732462303499300,2.425499267578125,-1.2699223206609487,-1.3442685365930198,0.42058256965614854
1772732462313527000,2.435527099609375,-0.8700444661855697,-1.3560995519012211,0.4300633685763925
1772732462323554300,2.44555419921875,-0.8572662331551313,-1.3937334092468023,0.3402441641045734
1772732462333582000,2.45558203125,-0.9259943169444799,-1.4338044306114315,0.18804905788172036
1772732462343610400,2.4656103515625,-0.900585150399804,-1.3540683383345604,0.13245397537723183
1772732462353638100,2.47563818359375,-0.957654360577464,-1.0702487663611768,0.014913966417498885
1772732462363665200,2.4856650390625,-1.1905179445564746,-0.6062853932052851,-0.32124270917773246
1772732462373693200,2.495693115234375,-1.5382845035225152,-0.04508738822191954,-0.7828538931842893
1772732462383721200,2.50572119140625,-1.917397802388668,0.4467161780178547,-1.0635657814659178
1772732462393749200,2.515749267578125,-2.1514567336320876,0.7547174205675721,-1.2226366917423903
1772732462403776300,2.5257763671875,-2.2384879513531923,0.9194903418779372,-1.3388836286842822
1772732462413804300,2.53580419921875,-2.238424822989106,0.9286980229452252,-1.3302553549401461
1772732462423832000,2.54583203125,-2.1466355970859525,0.8546727095305919,-1.1440754884637891
1772732462433859000,2.555859130859375,-2.013713565805554,0.7392600314557551,-0.8531903620183467
1772732462443887400,2.565887451171875,-1.903734603217244,0.6486535855963825,-0.5076697918808087
1772732462453915100,2.5759150390625,-1.7390607583671807,0.5764265537753701,-0.11262549504172056
1772732462463943200,2.585943115234375,-1.307827980685234,0.6152814773485065,0.16207016515769063
1772732462473970200,2.59597021484375,-0.6842594442456961,0.6864622149869799,0.42979313680026676
1772732462483998200,2.605998291015625,0.003263385710120201,0.7589484822660684,0.7616825834050774
1772732462494026200,2.616026123046875,0.5765373206734657,0.8550164084017277,1.0598185577616095
1772732462504054300,2.62605419921875,1.0009452207714318,1.0376979113683105,1.2087160106785595
1772732462514081300,2.636081298828125,1.2334259429126977,1.2832999808892607,1.0806253450773655
1772732462524109000,2.646109130859375,1.1832277875483035,1.457462661835551,0.7751728371623903
1772732462534137300,2.656137451171875,0.9098580056577921,1.6115867633596062,0.37865368199776855
1772732462544164000,2.6661640625,0.6062935765117407,1.7583923585638404,0.07229085430484265
1772732462554192400,2.6761923828125,0.4835036476671695,1.7859435055732726,-0.1772513311440125
1772732462564220200,2.68622021484375,0.6206991184830665,1.7058718977317213,-0.33212763927485794
1772732462574248200,2.696248291015625,1.0354390265256166,1.4866478397876024,-0.28095506765404715
1772732462584275200,2.706275146484375,1.766128798034787,1.114784950441122,-0.030195396174211055
1772732462594303200,2.71630322265625,2.6089748761713505,0.6760881204888224,0.1719384655581787
1772732462604331300,2.726331298828125,3.386934932899475,0.23323884703218936,0.23056033027162773
1772732462614359000,2.736359130859375,4.045857106792926,-0.057907999089360236,0.18588453679159284
1772732462624386300,2.74638623046875,4.357201522290707,-0.2429340193554759,0.03868716579079628
1772732462634414000,2.7564140625,4.325795745679736,-0.37276480662226674,-0.23811693792995065
1772732462644442400,2.7664423828125,4.05567882810533,-0.39392479128986596,-0.6167513307053596
1772732462654469400,2.776469482421875,3.5568577843189235,-0.33736966811418534,-1.019526002600789
1772732462664497200,2.7864970703125,3.044885582536459,-0.34750644672513004,-1.3056243331611155
1772732462674525200,2.796525146484375,2.59084768332839,-0.4011965358585119,-1.3887990215845405
1772732462684553200,2.80655322265625,2.1466601470053193,-0.47079847987294193,-1.3799214492544531
1772732462694580200,2.816580322265625,1.796571282571554,-0.5294722026377916,-1.3615861666187643
1772732462704608300,2.826608154296875,1.5199106424421072,-0.5510954209029674,-1.4147311890900134
1772732462714636300,2.83663623046875,1.3449737622529268,-0.5949225799307227,-1.4799286145351827
1772732462724664300,2.846664306640625,1.2415209865629673,-0.6793222801044583,-1.489592222676426
1772732462734691000,2.856691162109375,1.0727689324885605,-0.7419193137928843,-1.566658949613571
1772732462744719400,2.86671923828125,0.8197656468003988,-0.6579290712028741,-1.9384432207658886
1772732462754747100,2.8767470703125,0.4517793066263199,-0.43722588061690326,-2.278876952625811
1772732462764774400,2.8867744140625,-0.12082125912010669,-0.2947521771371364,-2.2977388894841075
1772732462774802200,2.89680224609375,-0.7076157699137926,-0.3932257031098008,-1.978877522484958
1772732462784830200,2.906830322265625,-1.0669897645652293,-0.46796997844874855,-1.498621770697832
1772732462794858200,2.916858154296875,-1.2345470558971166,-0.46585663955658674,-1.0490477190308272
1772732462804885200,2.92688525390625,-1.2604302696943281,-0.45736412102133034,-0.5776918975360691
1772732462814913300,2.936913330078125,-1.159060145497322,-0.3925374285846948,-0.15451324697211383
1772732462824941000,2.946941162109375,-0.9931494523286819,-0.22229367464780805,0.1607034799143672
1772732462834968300,2.95696826171875,-1.0273393067002297,-0.04115297138243913,0.2359827389128506
1772732462844996000,2.96699609375,-1.2848504252016544,0.1684413806900382,0.257648773406446
1772732462855024000,2.977024169921875,-1.6624907289057969,0.42741029678434134,0.1548389717951417
1772732462865052200,2.98705224609375,-1.9590198525875806,0.6082116850927471,-0.17876082239151
1772732462875079200,2.9970791015625,-1.9270383219152687,0.5407531828477978,-0.5387156856708228
1772732462885107200,3.007107177734375,-1.576422218737006,0.3528942772433162,-0.658654024476558
1772732462895135200,3.01713525390625,-1.1568652658015488,0.3113786100283265,-0.4578188059862703
1772732462905163300,3.027163330078125,-0.4410317026406526,0.12316869902908802,-0.06017163317240774
1772732462915190300,3.037190185546875,0.44337914254963395,-0.31432430809140205,0.49172502111084754
1772732462925218000,3.047218017578125,1.1455950992465018,-0.6029547874778509,1.253020870220661
1772732462935246300,3.057246337890625,1.425793265852332,-0.7694327591404319,2.030994955474138
1772732462945274000,3.067274169921875,1.0831962184786796,-0.8470780166178942,2.400932137455046
1772732462955301400,3.07730126953125,-0.13922142368555068,-0.7467930573090911,2.2581316862389444
1772732462965329200,3.0873291015625,-1.9121750993043183,-0.2913078819021582,1.7587185217782855
1772732462975357200,3.097357177734375,-3.697670861110091,0.3531462061777711,1.072221089347452
1772732462985384200,3.10738427734375,-5.054265503051877,0.8817875109493732,0.21408596440330147
1772732462995412200,3.117412109375,-5.826238302063942,1.27386404402405,-0.40393772432543334
1772732463005440300,3.127440185546875,-5.9983320677816865,1.4190528516814112,-0.6474685405302792
1772732463015468000,3.137468017578125,-5.376440524643659,1.2884829364851116,-0.5587990175502374
1772732463025495300,3.147495361328125,-4.234564153659344,1.1310802516818046,-0.3180262313492596
1772732463035523000,3.157523193359375,-2.9842379293501375,0.9446133849576115,0.16836225103922187
1772732463045551400,3.16755126953125,-1.6871528764754533,0.6670376758098602,0.7287963589780032
1772732463055579100,3.1775791015625,-0.3874842368483543,0.32895781359970566,1.2612854252189396
1772732463065606100,3.187606201171875,0.7263496964782477,0.07237725394666195,1.7548441645629702
1772732463075634200,3.19763427734375,1.4079630101293326,-0.1591205946370959,2.0511171215265986
1772732463085662200,3.207662109375,1.4898708934873341,-0.24124358205050228,2.040908446723223
1772732463095690200,3.217690185546875,1.136372512871027,-0.14873656326681375,1.7629411079093813
1772732463105717200,3.22771728515625,0.4299567663967609,0.10993600022941827,1.3164619535177946
1772732463115745300,3.237745361328125,-0.4198112199574709,0.45528030048459767,1.009191874786839
1772732463125773300,3.247773193359375,-1.000253146854043,0.6586141308575868,0.9019798196285963
1772732463135800000,3.257800048828125,-1.15796358243227,0.7313283616736531,0.7969736770167947
1772732463145828400,3.267828369140625,-0.8898802165120839,0.6568018207386136,0.8935310671698301
1772732463155856100,3.277856201171875,-0.14609306302070618,0.48254386272430416,1.1132023574247956
1772732463165884200,3.28788427734375,0.8949299011170864,0.29185674795657396,1.3151564238771796
1772732463175911200,3.2979111328125,1.8352678007125853,0.20972382367104292,1.313247667646408
1772732463185940200,3.307940185546875,2.5253864923804996,0.16486118411570785,1.2591792467199265
1772732463195968500,3.317968505859375,2.962604189690947,0.1311941845744848,1.1432353113126008
1772732463205996300,3.327996337890625,3.2094220647424456,0.1180669919759035,0.8364103460006416
1772732463216023600,3.3380234375,3.2715871367543934,0.12219751590937375,0.46968467341214415
1772732463226051300,3.34805126953125,3.2037334977120158,0.21945611313432453,0.2558958653245121
1772732463236079400,3.358079345703125,3.1086002220779654,0.24252426951080558,0.22839118780530987
1772732463246107400,3.368107421875,2.951610501989722,0.09573241057097912,0.24819489902574568
1772732463256134100,3.378134033203125,2.8127742782294747,-0.03640431555062532,0.3154264606470242
1772732463266162400,3.388162353515625,2.7385323994547126,-0.12783698310106992,0.3933963469689712
1772732463276190200,3.398190185546875,2.6938585604697463,-0.23756547805964945,0.4183177665293216
1772732463286217500,3.408217529296875,2.696330503541231,-0.3938990723267197,0.5115501769781112
1772732463296245200,3.418245361328125,2.593704826325178,-0.5875690022975206,0.6865817497134208
1772732463306273500,3.4282734375,2.4959926401138306,-0.7426359376296401,0.808893101260811
1772732463316301300,3.43830126953125,2.4367735584259034,-0.8501441261902452,0.843689908549562
1772732463326328300,3.448328369140625,2.380191254982352,-0.9589476152583957,0.7234091129817068
1772732463336356400,3.4583564453125,2.220048623821139,-0.985946681343019,0.5318329038871452
1772732463346384400,3.46838427734375,1.8567676848590373,-0.9226467600822448,0.3046364057591185
1772732463356412400,3.478412353515625,1.4270219308644532,-0.8451715984746814,0.053630394835397596
1772732463366439400,3.488439453125,0.926546105608344,-0.7490639248505234,-0.3804715816073119
1772732463376467500,3.498467529296875,0.37500703259110446,-0.5762912369579076,-0.8972336480148136
1772732463386495200,3.5084951171875,-0.29983751757740973,-0.4283253658026457,-1.1788108478888868
1772732463396522200,3.518522216796875,-1.131941252425313,-0.4364414522409439,-1.118567099328339
1772732463406550500,3.528550537109375,-2.108779036900401,-0.5587193399101495,-0.7539820920303464
1772732463416578300,3.538578369140625,-2.910539655932784,-0.6316641646116972,-0.36359102782458064
1772732463426606300,3.5486064453125,-3.5259792464524504,-0.6455442214041948,0.23376586658097803
1772732463436633300,3.55863330078125,-3.9735242765098806,-0.7081549913570284,0.7994852214463055
1772732463446661400,3.568661376953125,-4.128089399799705,-0.7510904622420668,1.0521625631157308
1772732463456689400,3.578689453125,-3.850086112889647,-0.7616372829586266,1.1517816058617085
1772732463466717400,3.588717529296875,-3.187732210981846,-0.7282897246301173,1.1430481912426649
1772732463476744400,3.598744384765625,-2.290232751637697,-0.7944540954113006,1.000019557293877
1772732463486772200,3.608772216796875,-1.3293249422222375,-0.935229470540583,0.8282599189013242
1772732463496800500,3.618800537109375,-0.5754162076890468,-1.0180483312636612,0.7942209442425519
1772732463506828300,3.628828369140625,-0.03882862008810043,-1.0786015841647982,0.8944711244989186
1772732463516855600,3.63885546875,0.2780231606543064,-1.1003212485417724,0.8042378958661108
1772732463526883300,3.64888330078125,0.2975157966315746,-1.1275152526766061,0.6291808964285999
1772732463536911400,3.658911376953125,-0.010479892960190772,-1.0595222051635385,0.543219792157039
1772732463546939400,3.668939453125,-0.6026648646205663,-0.7536278717651963,0.4765305207189172
1772732463556966400,3.67896630859375,-1.3738240091621874,-0.2846870024576783,0.35760106669478114
1772732463566994400,3.688994384765625,-1.9397563491910694,0.04558861574232578,0.14605598241332918
1772732463577022200,3.699022216796875,-2.1292712053090335,0.19800942047983408,-0.13540849606757982
1772732463587049500,3.709049560546875,-1.8692162475436924,0.3666892861008644,-0.3757321319952607
1772732463597077200,3.7190771484375,-1.2800836491912602,0.5736377998396754,-0.5520782944604754
1772732463607105500,3.72910546875,-0.6902987244099378,0.7001271677240729,-0.7612092668049038
1772732463617133300,3.73913330078125,-0.40929508664011954,0.7398848853558302,-0.8887439790237694
1772732463627160300,3.749160400390625,-0.5401987638354301,0.7433151520654558,-0.8821955802936107
1772732463637188400,3.759188232421875,-0.924470468378067,0.7467980257451534,-0.8171580215852707
1772732463647216400,3.76921630859375,-1.2451976292490958,0.7630880662888289,-0.6625804772052913
1772732463657244400,3.779244384765625,-1.3080664656162262,0.7600593661174178,-0.4667665574757382
1772732463667271400,3.789271484375,-1.1775900739222764,0.7990367470264435,-0.3903242460472509
1772732463677299500,3.799299560546875,-0.885176568865776,0.8433627954870462,-0.2916262636689469
1772732463687327500,3.809327392578125,-0.4421919785916805,0.8543526837959885,-0.17006594968456773
1772732463697355300,3.819355224609375,0.03439092990159988,0.8773252708435058,-0.041820093521662056
1772732463707382500,3.829382568359375,0.44974517045021056,0.9398705743446946,0.09352510978505015
1772732463717410300,3.839410400390625,0.7396434778153896,0.9977928942203521,0.13000077353883535
1772732463727438300,3.849438232421875,0.8492278881281614,1.0553437504351137,0.17142149247936903
1772732463737465300,3.85946533203125,0.7596627680152654,1.1135010481104255,0.2659181507103145
1772732463747493400,3.869493408203125,0.4750982228934765,1.1629948545977473,0.338343773843348
1772732463757521400,3.879521484375,0.1813145985275507,1.2244175838097928,0.35059162632413204
1772732463767549200,3.889549072265625,0.09619885903894901,1.3238134853243828,0.27003186963945625
1772732463777576400,3.899576416015625,0.2415028175085783,1.4196952412381767,0.09652838325425982
1772732463787604200,3.909604248046875,0.49796881087124345,1.4898369912177323,-0.03201313138697296
1772732463797632500,3.919632568359375,0.8111030323952436,1.4871546202659607,-0.11406246904227882
1772732463807660300,3.929660400390625,1.1079121420621871,1.3987258107066154,-0.17208452296536414
1772732463817687300,3.939687255859375,1.377096162700653,1.26507078897655,-0.18915826123263685
1772732463827715300,3.94971533203125,1.7006407190799713,1.1804606609225272,-0.20440635497532783
1772732463837743400,3.959743408203125,2.048377467429638,1.081490583604574,-0.2660901828089729
1772732463847771400,3.969771484375,2.366580662781,0.9258286049887537,-0.3920071211002767
1772732463857798400,3.97979833984375,2.5737153467416762,0.7512091201856732,-0.3652115051658824
1772732463867826400,3.989826416015625,2.6173651033759118,0.557810116110742,-0.23286106322836128
1772732463877854500,3.9998544921875,2.5417244637191296,0.4229936493858695,-0.11990250030737369
1772732463887882500,4.009882568359375,2.329987838920951,0.36401509845554825,-0.100707751298137
1772732463897909500,4.019909423828125,2.0002391672044992,0.3892620601758361,-0.18304387000557035
1772732463907937300,4.029937255859375,1.6278794342517853,0.4070172048360109,-0.2807400914628059
1772732463917965300,4.03996533203125,1.3228946169137954,0.417192561891675,-0.36392847961802033
1772732463927993300,4.049993408203125,1.1146692151069642,0.3507894139185548,-0.41319107116535303
1772732463938020400,4.060020263671875,0.9846493350088595,0.25338731656968594,-0.35825025131851435
1772732463948048400,4.07004833984375,0.837361509245634,0.1282870649561286,-0.2750892626268789
1772732463958076400,4.080076416015625,0.6343237392097711,0.01283317808806896,-0.270447318572551
1772732463968103400,4.090103515625,0.45067806738615035,-0.045074236479401585,-0.3375224475231021
1772732463978131200,4.100131103515625,0.3429442533761263,-0.06854162130653858,-0.4603803635699674
1772732463988159500,4.110159423828125,0.3689221597194671,-0.061307286138832566,-0.630687136273086
1772732463998187300,4.120187255859375,0.37476387148499485,-0.06126520056277513,-0.8032534148734063
1772732464008214500,4.130214599609375,0.27479250817000866,-0.10575813002288341,-0.8522607530180364
1772732464018242300,4.1402421875,0.023227146330475807,-0.12227028888463973,-0.8576949799612164
1772732464028270600,4.1502705078125,-0.39344285299181936,-0.0637000264942646,-0.9328739934556186
1772732464038298400,4.16029833984375,-0.9887409882366657,-0.0071603931486606594,-0.9951739438936114
1772732464048325400,4.170325439453125,-1.739558186495304,0.030860709948837755,-0.9278309577871113
1772732464058353400,4.180353515625,-2.57995628695786,0.03839052093178034,-0.774706242563948
1772732464068381200,4.190381103515625,-3.2424048814117907,-0.13912790018320081,-0.5899145425103605
1772732464078409500,4.200409423828125,-3.5092443847507235,-0.3441273256808519,-0.2618203600026667
1772732464088436500,4.2104365234375,-3.426801079341769,-0.2689411517933011,0.1994104463841766
1772732464098464500,4.220464599609375,-3.190125828120112,0.07330255209803581,0.4649229389030486
1772732464108492300,4.2304921875,-2.8214287093281745,0.33224194983690974,0.3758765819672495
1772732464118520600,4.2405205078125,-2.4319278719604016,0.44945349402725693,0.09816833248101174
1772732464128547300,4.25054736328125,-2.130254955649376,0.6212704886302352,0.05789017117172479
1772732464138575400,4.260575439453125,-1.8772668675303459,0.5033306301653385,-0.10854447280578315
1772732464148603400,4.270603271484375,-1.7183786203444003,0.09503770630508661,-0.39777759426049886
1772732464158631400,4.28063134765625,-1.6488251916468142,-0.21144231802672148,-0.3431025857429951
1772732464168658400,4.290658447265625,-1.2218097393989562,1.1894640515893697,0.9682894440993666
1772732464178686500,4.3006865234375,-1.4870131659686565,0.6586161766842007,0.39395482110194857
1772732464188714000,4.3107138671875,-1.5411697035700083,-0.005203998383879661,-0.006875292596966028
1772732464198741000,4.320740966796875,-1.6613684468775987,0.13866905049979686,0.5008503576569259
1772732464208769000,4.33076904296875,-1.5471663136363027,0.3943357101783156,0.9504710980098694
1772732464218797000,4.340797119140625,-1.3267922088742254,0.32097996658831834,0.813714237806946
1772732464228824800,4.350824951171875,-1.131161500224471,0.3214166044399142,0.6269460500486195
1772732464238852000,4.36085205078125,-0.9643968205749988,0.4651768405988812,0.5267074871648103
1772732464248879900,4.3708798828125,-0.895702639055252,0.49141573596596716,0.40413777694217856
1772732464258908200,4.380908203125,-0.9927285965681075,0.43055911620408294,0.395656985377334
1772732464268936000,4.39093603515625,-1.328488491398096,0.4374672881573438,0.5446715253353118
1772732464278963000,4.400962890625,-1.7381898207515478,0.43407764571905133,0.5937932471072301
1772732464288991000,4.410990966796875,-1.956754830265045,0.41184973955899473,0.5894008573671803
1772732464299018800,4.421018798828125,-1.9025322416901587,0.37093349954187865,0.6141876907624304
1772732464309047000,4.431047119140625,-1.50071435906291,0.2572194420784712,0.7429354320328683
1772732464319073800,4.44107373046875,-0.7551420757204294,0.12154285139292478,0.9234805805578827
1772732464329102000,4.45110205078125,0.15921382587850094,-0.056092766360938545,1.075689934501797
1772732464339129900,4.4611298828125,1.0299334148466586,-0.24485446602404115,1.1621958131745458
1772732464349158100,4.471158203125,1.719097582268715,-0.3599532558441162,1.1985418226666749
1772732464359185000,4.481184814453125,2.2590713051766156,-0.4341773067012429,1.2171490541115402
1772732464369213000,4.491212890625,2.673981893610954,-0.46105391544997687,1.2057067458599806
1772732464379241000,4.501240966796875,2.9516724613100287,-0.44395460435003037,1.0614203669350593
1772732464389269000,4.51126904296875,3.089388741129637,-0.38649405676722526,0.8911755170196294
1772732464399296000,4.5212958984375,3.1215736854195595,-0.2830795672610402,0.7156802722953259
1772732464409324000,4.531323974609375,3.165459588897228,-0.17843641274273395,0.5440216100592166
1772732464419352000,4.54135205078125,3.164419139933586,-0.03144990801364183,0.371643730170466
1772732464429379000,4.551379150390625,3.1397476400136948,0.055092064885795114,0.2447122445417568
1772732464439406800,4.56140673828125,3.1150591889590022,0.07741349454820155,0.18326047189831732
1772732464449435000,4.571434814453125,3.104460638055205,0.05136047714203596,0.14621336493212728
1772732464459463000,4.581462890625,3.160136932569742,-0.008826280534267424,0.2547811090156436
1772732464469490200,4.591490234375,3.314667569068074,-0.03279898453503847,0.4213769349042326
1772732464479518000,4.60151806640625,3.5330770957589146,-0.01641483596712351,0.4305544400289654
1772732464489546000,4.6115458984375,3.6980285885065793,-0.04320055156201124,0.2945993611956015
1772732464499574000,4.621573974609375,3.7898593154639,-0.041463644766807556,0.10863920188453048
1772732464509600800,4.631600830078125,3.8217543368965385,-0.014931319411098955,-0.08034841548893601
1772732464519629000,4.641629150390625,3.832779588779807,0.014488544079661369,-0.20425134707670659
1772732464529656800,4.65165673828125,3.9019869805186986,0.03432517118901014,-0.2698575359858572
1772732464539685000,4.66168505859375,4.106503590935469,0.07542407429665327,-0.319312508300133
1772732464549712000,4.6717119140625,4.174447830870747,0.09155950880050659,-0.39456623099856075
1772732464559740200,4.681740234375,4.0110464901745315,0.06272767433077096,-0.4003883978134021
1772732464569768000,4.691767822265625,3.641839668294787,0.05806026704162359,-0.27810864698067306
1772732464579796000,4.7017958984375,3.1114070961922407,0.027274960416555402,-0.09699446639604865
1772732464589823000,4.711822998046875,2.6104969711720942,0.004192483253777027,0.16468173589557408
1772732464599851000,4.72185107421875,2.1631150227218865,-0.01710486405789852,0.4068592377953231
1772732464609879000,4.731879150390625,1.750852902969718,-0.04956891755014658,0.5594694276250899
1772732464619906000,4.741906005859375,1.6100848343640566,-0.1462783564597368,0.5911980064496397
1772732464629934000,4.75193408203125,1.708800644659996,-0.3723275842487812,0.5683510185431688
1772732464639961900,4.7619619140625,2.10650524674952,-0.7003732514396309,0.5933014084696769
1772732464649990100,4.771990234375,2.6560721429109573,-1.0228086775332688,0.6442339425232261
1772732464660017000,4.782016845703125,3.02979556543231,-1.2634656918674707,0.693357308262959
1772732464670045000,4.792044921875,3.268495600479841,-1.4425716744348407,0.6602293840344995
1772732464680073000,4.802072998046875,3.3308208314895627,-1.525994346269965,0.6079845252733678
1772732464690101000,4.81210107421875,3.2032664647221565,-1.5925331033214927,0.5278893904257566
1772732464700128000,4.8221279296875,2.954937600585818,-1.5626494217112659,0.46960758958794174
1772732464710156000,4.832156005859375,2.585597507715225,-1.4261922020420432,0.4041561893817037
1772732464720183800,4.842183837890625,2.0255413662433623,-1.3514236690446733,0.2689079801760614
1772732464730212000,4.852212158203125,1.382189686447382,-1.3205331484794616,0.0449035560876131
1772732464740238800,4.86223876953125,0.7206652211010456,-1.354650814397633,-0.44242754091322417
1772732464750267100,4.87226708984375,0.14027765474021434,-1.5352388522163032,-1.18035069774203
1772732464760295000,4.882294921875,-0.25783026745319365,-1.685064964285493,-1.7871030508719383
1772732464770323000,4.892322998046875,-0.5430144057780504,-1.697429940339923,-2.3048218334823845
1772732464780350000,4.902349853515625,-0.7303828975170851,-2.1123662477374077,-3.185170251539349
1772732464790377700,4.912377685546875,-0.9931441916316747,-2.807460681991279,-4.002173155628144
1772732464800406000,4.922406005859375,-1.7789719129949808,-2.7300238065674898,-4.138736466020346
1772732464810433800,4.932433837890625,-3.7296225811660286,-2.2022014169633386,-3.838497674165666
1772732464820461000,4.9424609375,-6.083565296170115,-1.7964041093111036,-3.2883605769008395
1772732464830488800,4.95248876953125,-8.09934690042138,-1.5577511282756924,-3.0920687739938497
1772732464840517000,4.96251708984375,-9.060210870695114,-1.3914616649225353,-2.8448543008401987
1772732464850545000,4.972544921875,-8.697907836854457,-1.150757012054324,-2.803329573535919
1772732464860572000,4.982572021484375,-7.0992398840397595,-0.9451488070085644,-3.1400276259988544
1772732464870600000,4.992599853515625,-5.105794030237197,-0.9348080302581191,-3.487033137464523
1772732464880628000,5.0026279296875,-3.314928850352764,-1.032871806386113,-3.3988065724790095
1772732464890656000,5.012656005859375,-2.1793951263934375,-1.2043845573455094,-3.0288825422406194
1772732464900683000,5.02268310546875,-1.918112088137865,-1.4170704456925391,-2.377143850110471
1772732464910711000,5.0327109375,-2.8115193097323177,-1.4161840182468295,-1.2717957133173943
1772732464920738800,5.04273876953125,-4.599975090387463,-1.159166528481245,0.12217077403292059
1772732464930765800,5.052765869140625,-6.452833492848277,-0.8348477728590369,1.000834673069045
1772732464940794000,5.062794189453125,-7.685361025616526,-0.217122117228806,1.5643474578008054
1772732464950822000,5.07282177734375,-8.010486129185557,0.6246361656710505,1.9462424963399767
1772732464960850000,5.082849853515625,-7.559305957496166,1.3840993194609879,2.086160085596144
1772732464970877000,5.092876953125,-6.355497738733887,1.9042229712560772,1.9580407784223555
1772732464980905000,5.102905029296875,-4.720830836299061,2.1041005236953496,1.6218214493870735
1772732464990933000,5.11293310546875,-3.0102362939596174,2.1718147542670367,1.5184360398449004
1772732465000961000,5.1229609375,-1.5067285047858952,2.2399922184363006,1.6312699534729123
1772732465010988000,5.132988037109375,-0.24734803640544414,2.1899214888438583,1.7825252215623855
1772732465021015800,5.143015869140625,0.7983335671931505,1.9431527136310933,1.9140709960535167
1772732465031044000,5.153044189453125,1.7111434083938597,1.6103963845312594,2.0014086493752896
1772732465041071900,5.16307177734375,2.6003631151705977,1.3376952956825494,2.023925163218379
1772732465051099100,5.17309912109375,3.405186044383049,1.1578019621297717,2.0482962188869713
1772732465061127000,5.183126953125,4.031741487678885,0.9579071662947535,2.023770557178557
1772732465071155000,5.193155029296875,4.512603680926561,0.7310027829810977,1.9541852720379829
1772732465081183000,5.203182861328125,4.9063025545060635,0.5887634727790951,1.8021962828464806
1772732465091210000,5.2132099609375,5.0873225540012115,0.5753007646158337,1.5690977210678159
1772732465101238000,5.223238037109375,5.0831291939646,0.5942907117679714,1.313807347355783
1772732465111265800,5.233265869140625,4.807173487234115,0.6198074303403497,1.0819659460313618
1772732465121294000,5.243294189453125,4.395840757286549,0.6364338632315397,0.9307185689873992
1772732465131320800,5.25332080078125,4.010940107190609,0.6823910200253128,0.7325064655423164
1772732465141349000,5.26334912109375,3.7591573032081125,0.7033350238546728,0.4757874472666532
1772732465151377000,5.273376953125,3.510643730154633,0.636584377618134,0.30908158513233064
1772732465161405000,5.283405029296875,3.150863492789864,0.4744990879565477,0.23044242124669254
1772732465171432000,5.293431884765625,2.878312041544914,0.26925942396223546,0.20734699327079578
1772732465181460000,5.3034599609375,2.7861206645816563,0.08771393928825855,0.15160822797929868
1772732465191487700,5.31348779296875,2.8319723151743412,-0.15531857200562954,0.13246849709292874
1772732465201514800,5.3235146484375,2.8451217196047303,-0.3107414811685681,0.2004231670906767
1772732465211542500,5.33354248046875,2.514473468700051,-0.3434063179299235,0.3980274043031037
1772732465221569800,5.34356982421875,1.610440223672986,-0.2997001549333334,0.6548721678502857
1772732465231597600,5.35359765625,0.19044132331311703,-0.2891255694270134,0.8978045797705649
1772732465241625900,5.3636259765625,-1.546119434931874,-0.42480391367822884,0.9338748410612344
1772732465251653600,5.373653564453125,-3.1667461215764283,-0.5782707203373313,0.783571539934352
1772732465261680600,5.3836806640625,-4.070657201528549,-0.4147901769250631,0.696505543160811
1772732465271708700,5.393708740234375,-4.084934148684144,-0.14488018009960651,0.7026765599459409
1772732465281736700,5.40373681640625,-3.299652370765805,0.061578796556591986,0.6720557962328195
1772732465291764700,5.4137646484375,-2.3681501040548083,0.22263971160650253,0.5110702845066786
1772732465301791700,5.423791748046875,-1.318531161007285,0.40028701979815956,0.4645709836602211
1772732465311819800,5.43381982421875,-0.3128857997208834,0.4740981059402227,0.45957986084204167
1772732465321847600,5.44384765625,0.3342535819202661,0.35075405034422874,0.5169410397036001
1772732465331875800,5.453875732421875,0.29339257922172546,0.22120178775787352,0.4138471969865262
1772732465341902800,5.46390283203125,-0.6192348911494017,0.1590568817511201,0.027312369817495345
1772732465351930600,5.4739306640625,-2.272894078823924,0.30279812094867226,-0.29223705251105125
1772732465361958700,5.483958740234375,-4.188585661816597,0.7187050269439816,-0.23429222854264078
1772732465371986700,5.493986572265625,-5.856591939273477,0.9974524102196097,-0.3117308575320989
1772732465382013700,5.504013671875,-7.033453698921203,1.1839517179086805,-0.2928138294856995
1772732465392041700,5.514041748046875,-7.555569693577289,1.3942963038265703,-0.07939465842805803
1772732465402069800,5.52406982421875,-7.263159695652127,1.5537600128129123,0.04637772029340267
1772732465412097800,5.534097900390625,-6.242782629179954,1.673044271624088,0.07674246341884136
1772732465422124500,5.54412451171875,-4.606884139123559,1.687440753506124,0.14454415307827292
1772732465432152800,5.55415283203125,-2.7761925602853297,1.494076820744574,0.21024671503398565
1772732465442180600,5.5641806640625,-1.2900427331477402,1.1629513077169655,0.3175994207719341
1772732465452208600,5.574208740234375,-0.10874152974784373,0.8479214817047118,0.5490970866926014
1772732465462235600,5.584235595703125,0.641550767853856,0.6473650070905685,0.626106165158376
1772732465472264000,5.594263916015625,0.9486194057285785,0.5139420405507087,0.6364438731689006
1772732465482291700,5.604291748046875,0.8774819227099419,0.4383440709918737,0.5391810381602495
1772732465492318700,5.614318603515625,0.6124041683465242,0.4696940257623791,0.4594054175905883
1772732465502346800,5.6243466796875,0.47296471799612044,0.5694669438958168,0.32300533493608236
1772732465512374500,5.63437451171875,0.5352221444666385,0.5601987648129463,0.2561815503980964
1772732465522402800,5.64440283203125,0.7944920893341303,0.5414817893832922,0.25519823844917117
1772732465532429600,5.6544296875,1.3132470831245182,0.5386880670115352,0.24432730034478006
1772732465542457900,5.664457763671875,2.1107120507895947,0.49510377682894463,0.26242212528809905
1772732465552485600,5.674485595703125,2.976709287410974,0.46396980289667844,0.3628966888848692
1772732465562514000,5.684513916015625,3.7126141632199285,0.3213105137169361,0.41317970952112226
1772732465572540700,5.694540771484375,4.297017394962906,0.1523372181072831,0.380859411881119
1772732465582570800,5.70457080078125,4.668406821578741,0.08564093240648507,0.22736410977989435
1772732465592597800,5.71459765625,4.78722784679234,-0.008407470600306987,0.056977367175742984
1772732465602625500,5.72462548828125,4.6810693192750215,-0.06280570800304412,-0.14940397766698152
1772732465612653800,5.73465380859375,4.396730984124541,0.051422144201397894,-0.3934075259501114
1772732465622680600,5.7446806640625,3.969652403512597,0.16431231806129215,-0.5001180247943848
1772732465632708900,5.754708984375,3.496841414773464,0.20986732379496095,-0.5311913180479779
1772732465642736600,5.764736572265625,2.9654724386036393,0.15205138690322637,-0.39042993491142985
1772732465652764700,5.7747646484375,2.3305267681032418,0.012712182056903838,-0.03358597019426524
1772732465662791700,5.784791748046875,1.8250374985992908,-0.13926818543672562,0.34507067094556987
1772732465672819700,5.79481982421875,1.4378683190494774,-0.24202976399213075,0.5396771511141211
1772732465682847700,5.80484765625,1.07237847186625,-0.35188626924455163,0.7161886602088808
1772732465692875500,5.81487548828125,0.8844044154495,-0.45074996357858177,0.8536427819609641
1772732465702902800,5.82490283203125,0.9221282891660928,-0.5558212803810835,0.8236814320046454
1772732465712930600,5.8349306640625,1.101897996339202,-0.717771837747097,0.7747973549135029
1772732465722958800,5.844958740234375,1.2458429414153098,-0.8403253274872898,0.735176999925822
1772732465732986600,5.854986572265625,1.2025550038307904,-0.9672609778344631,0.7472114288516343
1772732465743013600,5.865013671875,0.8950093960940837,-1.1718234732195734,0.7649612397495656
1772732465753041700,5.875041748046875,0.43344986920952794,-1.3844026863217354,0.8014636819124221
1772732465763069700,5.885069580078125,0.036086043381690976,-1.4445225162416695,0.7335396810475736
1772732465773097700,5.89509765625,-0.2592699448674917,-1.4010332108661532,0.524876107019186
1772732465783124700,5.905124755859375,-0.544950926798582,-1.3539789064854382,0.3084116499815136
1772732465793152800,5.91515283203125,-0.8929653230458497,-1.3030173655331134,0.0997703060512431
1772732465803180800,5.925180908203125,-1.2176380066722632,-1.2452189642980693,0.043375720899249424
1772732465813208800,5.935208740234375,-1.4720646031618116,-1.153472700753808,0.07635732285904231
1772732465823235800,5.94523583984375,-1.6682102755963801,-1.1061135682076215,0.14774593566111288
1772732465833263600,5.955263671875,-1.7596908739417791,-1.1190627738907932,0.03486010918277316
1772732465843291600,5.965291748046875,-1.6758394553005693,-1.198588730548322,-0.1634651083811186
1772732465853319700,5.975319580078125,-1.351431560090184,-1.2063152331471443,-0.33028277859315275
1772732465863346700,5.9853466796875,-0.8320154720425605,-1.1368033055037259,-0.5667442409336566
1772732465873374700,5.995374755859375,-0.26399989599883555,-1.1049652749553323,-0.9114777888793498
1772732465883402800,6.00540283203125,0.03465805640518665,-1.1261071394443511,-1.014032519751042
1772732465893430800,6.0154306640625,-0.03797112647593021,-1.1033397195801138,-0.7417964911308139
1772732465903457500,6.02545751953125,-0.6379840152829885,-0.8922285332038998,-0.1778703763578087
1772732465913485800,6.03548583984375,-1.7757196332007645,-0.4511974150851369,0.3328192017355934
1772732465923513600,6.045513671875,-3.082217242065072,0.002958265283703804,0.6829436854720116
1772732465933540900,6.055540771484375,-4.1603439021945,0.3457610643625259,0.6038762862369418
1772732465943568600,6.065568603515625,-4.739806170403957,0.611102730359137,0.36544546005222944
1772732465953597000,6.075596923828125,-4.632340651941299,0.8707564138472079,-0.013388035491853951
1772732465963624700,6.085624755859375,-3.9514971536189316,1.028929498501122,-0.455944792275317
1772732465973651700,6.095651611328125,-2.7926211325168606,1.1201228043377398,-0.7589243707381188
1772732465983679700,6.1056796875,-1.564326122751832,1.1086588687762617,-0.9986493649192154
1772732465993707800,6.115707763671875,-0.7081430086582898,0.923998466952145,-1.0227074091158808
1772732466003735800,6.12573583984375,-0.13694061927199364,0.6852826498135924,-0.7738790710248052
1772732466013762800,6.1357626953125,0.03536649693548679,0.5710837314426899,-0.5522638070952147
1772732466023790600,6.14579052734375,-0.20320669686198234,0.5302803041502833,-0.34044089225307106
1772732466033818600,6.155818603515625,-0.6664829645365477,0.5673556508302688,-0.13203752179713918
1772732466043846700,6.1658466796875,-1.025891445979476,0.6625272126480937,0.03836822233500425
1772732466053873700,6.175873779296875,-1.0292693979799747,0.7790531126618385,0.14853950632475316
1772732466063901700,6.185901611328125,-0.6681938601076602,0.8655822260797024,0.22862607427341863
1772732466073929700,6.1959296875,-0.15660802729427814,0.9496566398218274,0.2830077258675359
1772732466083957800,6.205957763671875,0.2794166608393192,1.031756830881536,0.32008031433485445
1772732466093984500,6.215984619140625,0.5359978050142526,1.0329556852772832,0.34231092390865087
1772732466104012800,6.2260126953125,0.619637042209506,1.0017746573328972,0.2771509809296578
1772732466114040600,6.23604052734375,0.6267196939468384,0.9515425996989011,0.17590484843850135
1772732466124068900,6.24606884765625,0.7077624849081039,0.8824342844203114,0.10596152537418528
1772732466134095600,6.256095703125,0.940281785494089,0.8247235614687204,0.02989908010875806
1772732466144124000,6.2661240234375,1.2443489034652708,0.7126938038304448,-0.054077755010407416
1772732466154151700,6.276151611328125,1.5576444530308247,0.5603302822381258,-0.06126474390504882
1772732466164179700,6.2861796875,1.8297469914644955,0.40241877112984653,-0.09244281270736827
1772732466174206700,6.296206787109375,2.0796616634875535,0.23514146578311917,-0.16317867438886313
1772732466184236300,6.306236328125,2.3651170199692246,0.0987134722083807,-0.258151663160976
1772732466194264300,6.316264404296875,2.664205765005946,-0.01056669446080923,-0.3534041264615953
1772732466204292400,6.326292236328125,2.8695611643344163,-0.04663374088108539,-0.37974779737740755
1772732466214319000,6.336319091796875,2.7993524865984916,-0.07288958738297224,-0.4507729791279882
1772732466224347400,6.346347412109375,2.4176865806400776,-0.10458528685122728,-0.5793289241533726
1772732466234375200,6.356375244140625,1.7439491149306297,-0.054822308033704754,-0.7170492956262081
1772732466244402400,6.36640234375,1.2160381702601908,0.0548529954329133,-0.7726816048685461
1772732466254430200,6.37643017578125,0.8534966514885425,0.14720803852528333,-0.9155891697209327
1772732466264458500,6.38645849609375,0.5596054750949144,0.1569546487748623,-1.1162248470511287
1772732466274486300,6.396486328125,0.37975744198858735,0.1696998563185334,-1.1994305881999432
1772732466284513300,6.40651318359375,0.253439339017868,0.1487228270024061,-1.2218822201132773
1772732466294541300,6.416541259765625,0.22767829029560088,0.0481932452827692,-1.2153950500510633
1772732466304569300,6.4265693359375,0.28336627524793145,-0.11310849278569221,-1.0640938239280133
1772732466314597400,6.436597412109375,0.3933013986945152,-0.3334419732764363,-0.7851204498767852
1772732466324624400,6.446624267578125,0.45817514514327046,-0.5347556959986687,-0.6036994683653116
1772732466334652400,6.45665234375,0.4793845219105482,-0.6859297155454754,-0.5014844177767634
1772732466344680200,6.46668017578125,0.44981472855508325,-0.7599278486922383,-0.3850263223022222
1772732466354708500,6.47670849609375,0.3467278635680675,-0.812944860869646,-0.2869687567193061
1772732466364735500,6.486735595703125,0.1129039101243019,-0.8329305410608648,-0.1777603401120752
1772732466374763300,6.49676318359375,-0.17616963685452938,-0.7803700404793024,-0.06715199357904493
1772732466384791300,6.506791259765625,-0.49485740085244173,-0.659357934962213,-0.04238638563491404
1772732466394819300,6.5168193359375,-0.8152759341657161,-0.5095771233394741,-0.0723816743934527
1772732466404846300,6.526846435546875,-1.203085165184736,-0.3603644669935107,-0.02359258210938424
1772732466414874400,6.536874267578125,-1.5919664093494414,-0.18391747450232504,0.035677791374363006
1772732466424902400,6.54690234375,-1.8882845206290482,-0.04663870931714773,-0.06668952716644853
1772732466434930400,6.556930419921875,-2.027136526480317,-0.09243395354747772,-0.3021720980048179
1772732466444957200,6.566957275390625,-1.9032336679577826,-0.08720365167856216,-0.45710656606368716
1772732466454985500,6.5769853515625,-1.5409417400330305,-0.004576806396245956,-0.3850152529189363
1772732466465013200,6.58701318359375,-1.0069663807570934,0.005986088672280311,-0.3120543538654223
1772732466475041300,6.597041259765625,-0.4490706321895122,-0.008041559897363186,-0.030787717777863145
1772732466485068300,6.607068359375,-0.04096329402923584,0.08139584218263625,0.6547666616491973
1772732466495096300,6.617096435546875,0.044103930142521855,0.18785773656070232,1.6136131546206771
1772732466505124400,6.627124267578125,-0.5661515357375144,0.22253449766635894,2.339435466223955
1772732466515152400,6.63715234375,-2.0999802288949487,0.26989479925632476,2.3885107550382614
1772732466525179400,6.647179443359375,-3.7713615357428787,0.6068553020477294,2.1903592957392335
1772732466535207200,6.657207275390625,-4.9261336286574595,1.1261708523303269,1.617098220257461
1772732466545235500,6.6672353515625,-5.335605240908265,1.6369535520672798,0.813533328282088
1772732466555262200,6.67726220703125,-4.8978521215468644,1.977639505122602,-0.0011512523943558335
1772732466565290500,6.68729052734375,-3.8354514383375644,2.123894772967696,-0.5693340747637674
1772732466575318300,6.697318359375,-2.6430612701684235,2.0430165249183774,-0.9878937968228012
1772732466585346300,6.70734619140625,-1.591827293139696,1.7997352995604277,-1.1065034443080424
1772732466595373300,6.717373291015625,-0.6481441747695207,1.5745125857234,-0.8889791029538959
1772732466605401300,6.7274013671875,0.1530623175114393,1.3208824003085493,-0.4982863523878157
1772732466615429400,6.737429443359375,0.7189128244757652,1.0910019237935542,-0.10984019343843683
1772732466625457400,6.74745751953125,1.0588093807190655,0.9814873638466,0.21792059239642694
1772732466635484400,6.757484375,1.213184534394741,0.9054881200104952,0.43548532055988903
1772732466645512400,6.767512451171875,1.2868097425758838,0.8395970132127404,0.5001207647407427
1772732466655540200,6.777540283203125,1.3276029407352208,0.7707420881733298,0.4940233246484771
1772732466665568300,6.787568359375,1.3462000891774892,0.6805436385929584,0.3702320367416367
1772732466675595300,6.79759521484375,1.3340882111012935,0.6269266146957874,0.24255090178940444
1772732466685623300,6.807623291015625,1.2741221104383469,0.5745514075532555,0.17070877763275055
1772732466695651300,6.8176513671875,1.2238888837605715,0.42606063574105496,0.2359813506733626
1772732466705679400,6.827679443359375,1.2453192098021506,0.17163082438111305,0.33247396849449723
1772732466715706400,6.837706298828125,1.4171832584172486,-0.03753974932134151,0.41222909426540133
1772732466725734100,6.847734130859375,1.7032915258497,-0.16240999157130717,0.4147746505623683
1772732466735762400,6.857762451171875,2.052510037189722,-0.26496143450737,0.3910195713676512
1772732466745789200,6.8677890625,2.2942636145889757,-0.3157113785356283,0.36247196066677567
1772732466755817500,6.8778173828125,2.3424609515249726,-0.2770794500634074,0.15518175735082476
1772732466765845200,6.88784521484375,2.1413339835464953,-0.14050795636475086,-0.08799925903566182
1772732466775873500,6.89787353515625,1.7226865466713905,0.008018763543665408,-0.19920425628758967
1772732466785900300,6.907900390625,1.2815747645318507,0.12099836925268173,-0.25863157389871777
1772732466795928300,6.91792822265625,0.9682926589697599,0.15836919174790381,-0.22130652677398174
1772732466805956400,6.927956298828125,0.9048340400159358,0.1621051634058356,-0.08593275495991111
1772732466815984000,6.937984130859375,1.0034697708129883,0.09240969588905572,0.05618095610104501
1772732466826011400,6.948011474609375,1.155244386601448,-0.03906652049720287,0.2811095092970878
1772732466836039400,6.958039306640625,1.2260948693722487,-0.20240034891515968,0.5469708517862484
1772732466846067500,6.9680673828125,1.205780395618081,-0.3046843730866909,0.7256507544286549
1772732466856095200,6.97809521484375,1.188984159117937,-0.34217765291780233,0.8719479617193341
1772732466866122200,6.988122314453125,1.2281880422592162,-0.40971155848652124,0.9564291296314448
1772732466876150300,6.998150390625,1.1868518232643603,-0.4568076561823487,0.9923840939793735
1772732466886178300,7.00817822265625,0.9828846634238958,-0.48488282706588504,1.0268259503506123
1772732466896206300,7.018206298828125,0.7050245843768119,-0.4988423788353801,1.0425995658047498
1772732466906233300,7.0282333984375,0.6117272919982671,-0.49851037040203805,1.057375110132247
1772732466916261400,7.038261474609375,0.7142769813686609,-0.49874914759397504,0.9631108724176883
1772732466926289400,7.048289306640625,0.9567880991369485,-0.5388099398255348,0.8326485092490911
1772732466936317400,7.0583173828125,1.2740332631111144,-0.5587582106158137,0.738090622350201
1772732466946344400,7.068344482421875,1.4941677138984202,-0.6041992345809937,0.594886997160688
1772732466956372200,7.078372314453125,1.5584090076625345,-0.637977585542202,0.44455636963546274
1772732466966400500,7.088400390625,1.4479402157306671,-0.6856462224289774,0.32403887923490254
1772732466976428300,7.09842822265625,1.2032640288829803,-0.7444272049605846,0.3113211807526648
1772732466986455600,7.10845556640625,0.9886907193541526,-0.735244950595498,0.30096907889060676
1772732466996483300,7.1184833984375,0.7992313928157091,-0.7404501180231571,0.22383900439366697
1772732467006511400,7.128511474609375,0.5480027155846356,-0.7089636773914099,0.221361033440195
1772732467016538400,7.138538330078125,0.27466683596372604,-0.6785530492976307,0.31809491267129775
1772732467026566100,7.148566162109375,-0.09469546873867511,-0.6624760669827461,0.5221154101341963
1772732467036594400,7.158594482421875,-0.5826812302559614,-0.5986249415799975,0.6473015864655375
1772732467046622200,7.168622314453125,-1.051492335703969,-0.5093012290075422,0.6479356465853751
1772732467056649500,7.1786494140625,-1.4297516480892896,-0.583278903888166,0.5222037460047751
1772732467066677200,7.18867724609375,-1.5560224047869442,-0.7565653865218163,0.3558751562176272
1772732467076705500,7.19870556640625,-1.383041919362545,-0.8454679510727524,0.17338859130125492
1772732467086733300,7.2087333984375,-0.960244961592555,-0.8516936937198042,-0.0802366804764606
1772732467096760300,7.21876025390625,-0.502876456657052,-0.9527525600105523,-0.3089785996818915
1772732467106788400,7.228788330078125,-0.24434885458946226,-1.0802890988603233,-0.3445071187786758
1772732467116816400,7.23881640625,-0.2509907768219709,-1.1115697877869009,-0.15550309825967995
1772732467126844400,7.248844482421875,-0.6200023683905601,-1.0153115997761488,0.1437415497248061
1772732467136871400,7.258871337890625,-1.4354823006957769,-0.7886454091325402,0.4251119932467118
1772732467146899200,7.268899169921875,-2.492149408689141,-0.4425359697237611,0.5268618374763057
1772732467156927200,7.27892724609375,-3.400623851034045,-0.12140081257373093,0.4851297510316595
1772732467166955300,7.288955322265625,-3.8153438853323456,0.08218406995087861,0.251924806269072
1772732467176982500,7.298982421875,-3.5827088494122026,0.2092708192065358,0.034016502532060254
1772732467187008300,7.30900830078125,-2.6879817773908377,0.2605851191192865,-0.16654603193011133
1772732467197036300,7.319036376953125,-1.457673674237728,0.18834464329481124,-0.49025776156987994
1772732467207064300,7.329064208984375,-0.5254688122153282,0.09792115278691053,-0.7578304380215704
1772732467217091300,7.33909130859375,-0.1097282026976347,0.027365853570401666,-0.8206175143893808
1772732467227119400,7.349119384765625,-0.06312134982347488,0.0036459552869200704,-0.8727480260558426
1772732467237147400,7.3591474609375,-0.5259487046867609,0.05628975023776293,-0.876308129690215
1772732467247174400,7.36917431640625,-1.2028197922468185,0.2513470429137349,-0.8075820917274803
1772732467257202400,7.379202392578125,-1.821094313931465,0.4408005242332816,-0.6456405944507568
1772732467267230200,7.389230224609375,-2.0861311517626047,0.638863428466022,-0.46315644068717954
1772732467277258500,7.399258544921875,-1.936036451885104,0.8099883491516113,-0.34551132738515733
1772732467287285200,7.40928515625,-1.5136679486602544,0.9198922006770968,-0.19316903124395757
1772732467297313500,7.4193134765625,-1.022560255730152,0.9674673140615224,-0.022324151342455297
1772732467307341300,7.42934130859375,-0.6315250484019518,0.9724518244758248,0.1838349107854068
1772732467317369300,7.439369384765625,-0.47933366850614545,0.9625026773914694,0.33499095628410575
1772732467327396400,7.449396240234375,-0.48926820254325865,0.9732298231109976,0.4617401441484689
1772732467337424400,7.45942431640625,-0.5162117390483617,0.9926356575876474,0.48680152016878125
1772732467347452400,7.469452392578125,-0.49479251892268655,1.024787284129858,0.44256490355730055
1772732467357480200,7.479480224609375,-0.25149171208143234,1.0657155068457127,0.3599033522877842
1772732467367507500,7.489507568359375,0.18387655797004698,1.1138470850691198,0.23565071221319958
1772732467377535200,7.49953515625,0.6844763018667698,1.0866504505857824,0.05325421846676617
1772732467387563500,7.5095634765625,1.1907400628745555,1.041743971888721,-0.09069761300785467
1772732467397591300,7.51959130859375,1.6188912411540746,1.0009332380726932,-0.12761223443448544
1772732467407618300,7.529618408203125,2.068289205601811,0.914805983453989,-0.2005974824779667
1772732467417646300,7.539646240234375,2.405693360507488,0.8294199025914073,-0.25530129696484655
1772732467427674400,7.54967431640625,2.6279770982831714,0.7317223294273019,-0.18002936275629325
1772732467437702400,7.559702392578125,2.8053075956106186,0.6253630186408757,-0.16931233657198025
1772732467447729400,7.5697294921875,2.874598573979735,0.5593672824248671,-0.19979051347663626
1772732467457757400,7.57975732421875,2.7432424768418073,0.5436904053434729,-0.30237039705589414
1772732467467785500,7.589785400390625,2.3831086037337776,0.5353539541527629,-0.40865101658292113
1772732467477813500,7.5998134765625,1.9285183313399552,0.4970210086271167,-0.4571394819526002
1772732467487840500,7.609840576171875,1.581249200502038,0.4385471923485398,-0.45391102142538875
1772732467497868300,7.619868408203125,1.4039835851043463,0.3719666419818997,-0.5320883764855563
1772732467507896300,7.629896240234375,1.3517740899175406,0.3595104805126786,-0.5954380551721901
1772732467517923300,7.63992333984375,1.3665373592853545,0.3058011021569371,-0.5916952884472906
1772732467527951400,7.649951416015625,1.258321314716339,0.21471037991195915,-0.5061041865319014
1772732467537979400,7.6599794921875,1.1132137556016444,0.10104483776539563,-0.3381346246046945
1772732467548007400,7.67000732421875,0.9209171598106622,0.021512451367080212,-0.18627640391970052
1772732467558034400,7.680034423828125,0.6394985114991665,-0.010690613101422787,-0.11934771596882492
1772732467568062200,7.690062255859375,0.4082809411615133,-0.0553498390391469,-0.10052013803785666
1772732467578090500,7.700090576171875,0.2562491357415914,-0.10405629454106091,-0.06510233104024082
1772732467588118300,7.7101181640625,0.14218144253492354,-0.11665244900286197,-0.08922903829263523
1772732467598145500,7.7201455078125,0.0024117373168468475,-0.07684270892292261,-0.17165488111013547
1772732467608173300,7.73017333984375,-0.20308277822136878,-0.01468669700026512,-0.15527513472270218
1772732467618201600,7.74020166015625,-0.5184843601554632,0.004382160606980323,-0.044463940827641636
1772732467628229400,7.7502294921875,-0.8843500549137592,0.007049333989620208,0.052206736974138766
1772732467638256400,7.76025634765625,-1.2133780111402273,0.08446165949404238,0.09701412094458937
1772732467648284400,7.770284423828125,-1.4944909545034168,0.22208850746452807,0.11181147524509578
1772732467658312400,7.7803125,-1.6354636057704686,0.3485711533471942,0.05338449378293007
1772732467668340500,7.790340576171875,-1.6864356681168078,0.3839981482982635,0.03159435798563063
1772732467678367500,7.800367431640625,-1.6708996608108282,0.39019963328689333,0.040297176537010815
1772732467688395500,7.8103955078125,-1.6913859840005636,0.3618608430311084,0.07645175511026754
1772732467698423300,7.82042333984375,-1.6761854922592638,0.24868805283755063,0.07438170737056062
1772732467708451300,7.830451416015625,-1.4683873759537935,0.03583323766440153,0.03192801038678735
1772732467718478300,7.840478271484375,-1.0192460166156292,-0.15969108800143003,-0.03664572309106588
1772732467728506400,7.85050634765625,-0.513012650746107,-0.16998218039125204,0.03141160356355831
1772732467738534400,7.860534423828125,-0.014202712875604628,-0.1948535867974162,0.16272967024603857
1772732467748561400,7.8705615234375,0.33732816706001756,-0.40489246776700016,0.35085473423972724
1772732467758589200,7.880589111328125,0.572543867123127,-0.5541960172668099,0.590972454065457
1772732467768617500,7.890617431640625,0.6735808138430118,-0.502589164148271,0.8591430598776787
1772732467778645200,7.900645263671875,0.5608300484538078,-0.33592736035138365,1.1298816895470023
1772732467788672500,7.910672607421875,0.18442191689312457,-0.09600596681535244,1.411008515305072
1772732467798700300,7.9207001953125,-0.5086047711759806,0.1582578403279185,1.69060009431988
1772732467808728600,7.930728515625,-1.3325649470567702,0.418328287923336,1.7055219152502714
1772732467818756400,7.94075634765625,-1.9569260951787233,0.6847998347327112,1.4052930602677165
1772732467828783400,7.950783447265625,-2.4339883116215466,0.949733796711266,0.9279609408423304
1772732467838811400,7.960811279296875,-2.627619955408573,1.186647532863915,0.45961113276313986
1772732467848839200,7.970839111328125,-2.5269214468628167,1.3221136956691741,0.03159444931717589
1772732467858867500,7.980867431640625,-2.0924726297438143,1.3757713438376784,-0.22647384640928356
1772732467868894500,7.99089453125,-1.364052556732297,1.3073302602961658,-0.21260073081422595
1772732467878922500,8.000922607421876,-0.7296756260305642,1.110290269370377,-0.011054149184189736
1772732467888950300,8.0109501953125,-0.2527361591845751,0.8667632525578141,0.2825985422784462
1772732467898978600,8.020978515625,0.03694002986252308,0.7116840422660112,0.5563408472757786
1772732467909005300,8.03100537109375,0.15425181955695152,0.6375394863858819,0.7898778735369444
1772732467919033300,8.041033447265624,0.12545067248642444,0.6095338736072182,0.9144424108386039
1772732467929061400,8.051061279296874,-0.04808920038640499,0.5545774177998304,0.8801999494969844
1772732467939088400,8.06108837890625,-0.20710545786619186,0.5637061884120106,0.6714269968099892
1772732467949116400,8.071116455078124,-0.27767653917372226,0.6948486427992582,0.3845995482575148
1772732467959144400,8.08114453125,-0.23894085806608198,0.8221306223660707,0.011820493914186953
1772732467969172500,8.09117236328125,-0.15445932482779026,0.8656377556592225,-0.27621424806881695
1772732467979199500,8.101199462890625,-0.10532558382451533,0.8552683373361826,-0.3670951634880155
1772732467989227300,8.111227294921875,0.03394669326543808,0.7163023497164249,-0.2468354837734252
1772732467999255300,8.12125537109375,0.3370657167315483,0.5664803293004632,-0.16473759426865725
1772732468009283300,8.131283447265625,0.8024012550234794,0.36635084792673583,-0.11384086218085139
1772732468019310600,8.141310546875,1.3543793039798735,0.17162001072615385,-0.0644433556748554
1772732468029338400,8.15133837890625,1.9593021766602992,0.06817483382076024,-0.04364562844838947
1772732468039366400,8.161366455078126,2.48114870672524,0.010512333925068378,-0.1215159999186173
1772732468049394400,8.17139453125,2.7653426649689674,-0.01578384458720684,-0.23556370978318153
1772732468059421200,8.181421142578126,2.7230565979033705,-0.04762947392016649,-0.3374080638958141
1772732468069449500,8.191449462890626,2.3857483045876027,-0.02648614812642336,-0.43778183399923143
1772732468079477200,8.201477294921874,1.905260205349326,0.032929917438328266,-0.5126235783632844
1772732468089505500,8.211505615234374,1.4621955355763434,0.06986731695234775,-0.5158061539221555
1772732468099532300,8.2215322265625,1.1249451099276542,0.032438919050991534,-0.3548082576384768
1772732468109560600,8.231560546875,0.9899871889054774,-0.09636515551656484,-0.09004252836629748
1772732468119588400,8.24158837890625,1.1114777255892754,-0.2532338795736432,0.180809754277952
1772732468129615400,8.251615478515625,1.398241826581955,-0.38089901323914527,0.4169792844671756
1772732468139643400,8.261643310546875,1.6637562187969683,-0.45816228566169737,0.5611937671996653
1772732468149671400,8.27167138671875,1.8769237531810998,-0.5263698527082801,0.6632716012746095
1772732468159699500,8.281699462890625,1.939789082416892,-0.6026657414034009,0.7550909300550818
1772732468169726500,8.2917265625,1.820240327450633,-0.7005524073988199,0.815923292158544
1772732468179754500,8.30175439453125,1.6091911003947257,-0.7568871658220887,0.8692704861383884
1772732468189782000,8.311781982421875,1.4310983865231275,-0.8023372498765587,0.8728458604071289
1772732468199810300,8.321810302734375,1.2554431289315222,-0.7821981326892972,0.6794353850901127
1772732468209837300,8.33183740234375,0.9895604879260063,-0.7887918318659066,0.4144641233084723
1772732468219865300,8.341865234375,0.7279086163580417,-0.7951885471656918,0.26914104001326483
1772732468229893000,8.35189306640625,0.41686522963345046,-0.7624041756778955,0.26929106120951474
1772732468239921400,8.36192138671875,0.08997019378244876,-0.7570391415134072,0.3820860310666263
1772732468249948200,8.3719482421875,-0.1628103890657425,-0.7373553668782115,0.384277988152951
1772732468259976200,8.38197607421875,-0.3632686640024185,-0.6115843763962387,0.2579003004821017
1772732468270004200,8.392004150390624,-0.638919250306487,-0.4103244296878576,0.010090436984878033
1772732468280032300,8.4020322265625,-0.9366326153367758,-0.27937019134908914,-0.132577072033938
1772732468290059300,8.412059326171875,-1.197992225959897,-0.16159458353519437,-0.18424159189015626
1772732468300087300,8.42208740234375,-1.37053724257648,-0.1189560497701168,-0.1334137603200972
1772732468310115300,8.432115234375,-1.4081705154001711,-0.18056641050875186,0.11601775869536213
1772732468320142300,8.442142333984375,-1.3606377798527478,-0.32421617203056813,0.5364658974500373
1772732468330170000,8.452170166015625,-1.2729957367569207,-0.535659366840124,0.9137385003529489
1772732468340198400,8.462198486328125,-1.0862719726622103,-0.7343976861163973,1.1270471967734397
1772732468350226200,8.47222607421875,-0.8537240305036305,-0.9085796562850474,1.2099061703111975
1772732468360253400,8.48225341796875,-0.4683341355860233,-1.113477374973893,1.1301434822883456
1772732468370281200,8.49228125,0.09459083932042121,-1.3295733640253542,0.9846262463942169
1772732468380309200,8.502309326171876,0.5816255837231874,-1.382269765946269,0.8090020415280014
1772732468390337300,8.512337158203126,0.8516191671788692,-1.4009750509381294,0.6655519672967494
1772732468400364300,8.5223642578125,0.8798895683735608,-1.367586576077342,0.6311233357332646
1772732468410392300,8.532392333984374,0.4858540101855993,-1.1803989938631654,0.6457767880510539
1772732468420420000,8.542420166015624,-0.5322475125700235,-0.9221095844656229,0.7470281812392174
1772732468430448400,8.552448486328124,-1.8340473190069198,-0.5564481801077723,0.9565762099519372
1772732468440475100,8.56247509765625,-3.0050650288015603,-0.23186843546181915,0.9503170034267008
1772732468450503400,8.57250341796875,-3.77059464302361,0.05972381633967161,0.6662761168528348
1772732468460531200,8.58253125,-4.0278392195433375,0.4084615584254265,0.294512559694983
1772732468470559200,8.592559326171875,-3.6583354605436322,0.6768921303480863,-0.10624702778467908
1772732468480586200,8.602586181640625,-2.769464713335037,0.6821852683201431,-0.4551139674743637
1772732468490614300,8.6126142578125,-1.5434177747577429,0.5533782711431384,-0.6427312828753143
1772732468500642300,8.622642333984375,-0.43517771591544147,0.37943390912264585,-0.6354510627392679
1772732468510669300,8.63266943359375,0.35640403892993927,0.23201836532652376,-0.5953289687745272
1772732468520697300,8.642697265625,0.7623965768933296,0.05834200659245252,-0.6151378310941159
1772732468530725000,8.65272509765625,0.6686632311850785,-0.04100888673663139,-0.6149255035176873
1772732468540753400,8.66275341796875,0.14418635261654852,0.018521160596609115,-0.5975454757802188
1772732468550780400,8.672780517578126,-0.6516518906295299,0.15573299802541732,-0.5638550222981721
1772732468560808200,8.68280810546875,-1.2871055106520652,0.37066988016963004,-0.5877432628858834
1772732468570836200,8.692836181640626,-1.512380246937275,0.6362725351899862,-0.5906908606451005
1772732468580864300,8.7028642578125,-1.2611556613594292,0.783887985472381,-0.5170035835457966
1772732468590891300,8.712891357421874,-0.7298673492103814,0.8445730480596423,-0.34544724917300046
1772732468600919300,8.722919189453124,-0.07951601978540421,0.8256494441419839,-0.09873229563985951
1772732468610947300,8.732947265625,0.4464613264739513,0.7671639374256134,0.1488547645526938
1772732468620975400,8.742975341796875,0.6931950303733349,0.7416001648411155,0.3494328116778284
1772732468631002000,8.753002197265625,0.705856359025836,0.7251695467829704,0.42080461490899324
1772732468641030400,8.763030517578125,0.5112169995009899,0.7664911527305841,0.3501611259523779
1772732468651058200,8.77305810546875,0.19039514608383176,0.8963502893090247,0.19346974948989226
1772732468661086200,8.783086181640625,-0.18948796811103819,1.0283584206148981,0.01570365549046546
1772732468671113200,8.79311328125,-0.42428164336979385,1.1511667618989945,-0.1942884637279436
1772732468681141500,8.8031416015625,-0.3547106790155172,1.2702289023920892,-0.3505736522760242
1772732468691169300,8.813169189453125,0.048584290426969524,1.242106677496433,-0.42551987992785867
1772732468701197000,8.823197021484376,0.7119897472143173,1.1215367627888917,-0.48197877618744966
1772732468711224300,8.833224365234376,1.412889360615611,0.9790145439922809,-0.4754355285564437
1772732468721252000,8.843252197265626,1.939738813534379,0.8129220645159483,-0.4330134140210226
1772732468731280400,8.8532802734375,2.2629285651266575,0.6594266162842511,-0.24439110456230118
1772732468741307100,8.86330712890625,2.528485627439618,0.5461646865025163,-0.1919642950966954
1772732468751335200,8.873335205078124,2.558656309297681,0.44243952361196276,-0.2669738885746337
1772732468761363200,8.88336328125,2.3722043478816746,0.415331151933968,-0.2505954938940704
1772732468771391200,8.89339111328125,2.090442000699043,0.36837650853544474,-0.21994017032422125
1772732468781418200,8.903418212890625,1.8350123646467924,0.35210897208452224,-0.3000601838847622
1772732468791446300,8.9134462890625,1.6675649634301661,0.33374270978868004,-0.4093941265678033
1772732468801474300,8.923474365234375,1.6359633719861506,0.28928514390289783,-0.41674218777567146
1772732468811502300,8.93350244140625,1.691974597543478,0.1771487110197544,-0.35456118754222987
1772732468821529000,8.943529052734375,1.7049726108044385,0.0681198887631297,-0.3344357335541397
1772732468831557400,8.953557373046875,1.6840157474935054,-0.010244330638647079,-0.2540148373508826
1772732468841585200,8.963585205078125,1.6573779159367084,-0.1186313478603959,-0.20002090643271803
1772732468851613200,8.97361328125,1.5506021333038806,-0.21755495568811892,-0.2687372632516548
1772732468861640200,8.98364013671875,1.4104624257296323,-0.24005875618010758,-0.28023396857157346
1772732468871668200,8.993668212890626,1.0969196234047411,-0.23149726406186819,-0.2696358925918117
1772732468881696300,9.0036962890625,0.6565531066745519,-0.2230135133549571,-0.24013083503562957
1772732468891723300,9.01372314453125,0.17664543767273425,-0.2006371386349201,-0.400129491148889
1772732468901751300,9.023751220703126,-0.1848702451825142,-0.2205792719453573,-0.678364248727262
1772732468911779000,9.033779052734374,-0.5484288320422173,-0.32623364933282134,-0.8932554650988429
1772732468921807400,9.043807373046874,-0.9811690916776656,-0.38430297646373507,-0.9159262196555733
1772732468931834000,9.053834228515624,-1.3587795847654343,-0.433563558717072,-0.8094821531951427
1772732468941862400,9.0638623046875,-1.5825959389358757,-0.4439376532152295,-0.7989837747301906
1772732468951890200,9.07389013671875,-1.6670160973757504,-0.4171212502211332,-0.7373237296309322
1772732468961918500,9.08391845703125,-1.519869725909829,-0.41158962731808424,-0.6223525117132812
1772732468971945200,9.0939453125,-1.183174596056342,-0.4175514583319425,-0.5796892088331281
1772732468981973200,9.10397314453125,-0.9013672406882047,-0.41054070278704163,-0.6108064508263021
1772732468992001300,9.114001220703125,-0.9566817161530256,-0.3436538629502058,-0.5316405596528202
1772732469002029000,9.124029052734375,-1.2810159616053103,-0.30509061580002306,-0.36626981857977803
1772732469012056300,9.134056396484375,-1.7571780143380165,-0.33069004421979187,-0.34449203080739826
1772732469022084400,9.14408447265625,-1.9992296979010105,-0.35417554922550915,-0.3510204827280715
1772732469032112400,9.1541123046875,-1.835548371219635,-0.38083325452655553,-0.3006290150149725
1772732469042140200,9.16414013671875,-1.2975859881341456,-0.39199090061783787,-0.23209574141167102
1772732469052167200,9.174167236328126,-0.6357979034155606,-0.46586306929737326,-0.22044547123154623
1772732469062195200,9.1841953125,-0.08554302498996258,-0.624250965745747,-0.1331045847730711
1772732469072223200,9.19422314453125,0.1725818414956331,-0.7318947633847593,0.17231318062208592
1772732469082250200,9.204250244140624,0.08865794214010238,-0.7555237685143947,0.7119695812091231
1772732469092278300,9.2142783203125,-0.2378735210955143,-0.760551241287589,1.2128379129141569
1772732469102306300,9.224306396484375,-0.6154337453007698,-0.6568111730888485,1.4387420331440866
1772732469112334300,9.234334228515625,-0.9980921694278716,-0.3000505758062005,1.3865227472156285
1772732469122361000,9.244361083984375,-1.2793705324858426,0.1988143071219325,1.3288131933078169
1772732469132389400,9.254389404296875,-1.4795669416159392,0.6606736937358975,1.4841758967161178
1772732469142417200,9.264417236328125,-1.8496207357138394,0.9212827782526611,1.36656906959787
1772732469152445400,9.274445556640625,-2.373395018970966,1.0988263338088988,1.063390863290429
1772732469162472200,9.28447216796875,-2.722223654210567,1.317102589508891,0.7006280299182981
1772732469172500500,9.29450048828125,-2.770148019424081,1.5305156230866908,0.2576606465073302
1772732469182528300,9.3045283203125,-2.421068624293804,1.623778428673744,-0.09738996851965784
1772732469192556500,9.314556640625,-1.7002034967064856,1.5018343030035495,-0.22851068599913268
1772732469202582500,9.32458251953125,-0.6187748724222183,1.3153227203547955,-0.08109393662661314
1772732469212610800,9.33461083984375,0.3620569501250982,1.1955866261228918,0.0467147702280432
1772732469222637600,9.344637451171875,1.2078811672896146,1.0955842831477522,0.1218515520159155
1772732469232665900,9.354665771484376,1.7648206380456686,0.9986299295663833,0.19286325323041528
1772732469242693600,9.364693603515626,2.012256352734566,0.888140094846487,0.28069146654810756
1772732469252721700,9.3747216796875,2.098530614608526,0.7990665576428174,0.38556937967035915
1772732469262748700,9.384748779296874,1.9375562087982892,0.7559811568930744,0.5456533394468948
1772732469272776700,9.394776611328124,1.4951748451143503,0.7337664024755358,0.7338820647444576
1772732469282804700,9.4048046875,0.9089806383013724,0.722333738835156,0.8688857976697385
1772732469292832500,9.41483251953125,0.4213391601771116,0.7627022818416357,0.8581265032462775
1772732469302859800,9.42485986328125,0.15733809513449667,0.8785641649886965,0.729885907780379
1772732469312887600,9.434887451171875,0.07801555209457874,0.9621724225237965,0.5951381954427808
1772732469322915800,9.444915771484375,0.07554010189175606,1.0135404984503984,0.4987932789966464
1772732469332943600,9.454943603515625,0.14863924037218093,0.9966223891362548,0.4302847562421113
1772732469342970600,9.464970703125,0.2938520134270191,0.9335422481060027,0.35014863179698585
1772732469352998700,9.47499853515625,0.47975569331049916,0.8148606313630938,0.29438780080415305
1772732469363026700,9.485026611328125,0.7406810041695833,0.6450368564039468,0.2545870842808857
1772732469373053700,9.4950537109375,1.052187916752696,0.5146764923050999,0.1769164731664583
1772732469383081700,9.505081787109376,1.344732354712486,0.40802725866138934,0.1254929772581905
1772732469393109800,9.51510986328125,1.5503484508037566,0.3050201809123158,0.006196553085185587
1772732469403137800,9.5251376953125,1.6022680231332778,0.21675883687436578,-0.11942406914066522
1772732469413164500,9.53516455078125,1.579984295132756,0.20312486379742622,-0.1873892057335004
1772732469423192800,9.54519287109375,1.5409937624812124,0.2221317620843649,-0.28929953775443135
1772732469433220600,9.555220703125,1.5158219118237495,0.25004326683878897,-0.41241190348640083
1772732469443248600,9.56524853515625,1.554154272827506,0.289745454891026,-0.5018313315182924
1772732469453275600,9.575275634765624,1.5254355433434248,0.2944526096686721,-0.472111316037178
1772732469463303700,9.5853037109375,1.3649182336509227,0.17247925790399313,-0.3657246788524091
1772732469473331700,9.595331787109375,1.1047966403901577,0.06516045443564653,-0.18361023518405853
1772732469483359700,9.60535986328125,0.8557809630334376,0.027342764955759047,-0.07974182789791374
1772732469493386800,9.61538671875,0.6725871266305447,-0.06754355017989873,-0.05766007047658786
1772732469503414500,9.62541455078125,0.6138602123737334,-0.14019406810998916,0.05157302391417324
1772732469513442800,9.63544287109375,0.5486030195653439,-0.21563801615089176,0.1667751462445594
1772732469523470600,9.645470703125,0.4668862748652696,-0.3316460297703743,0.23943185645341872
1772732469533497900,9.655497802734375,0.347661345025897,-0.42918052132725715,0.3615134178329259
1772732469543526700,9.665526611328126,0.2404956862926483,-0.5164353186711669,0.49681518385671075
1772732469553554700,9.6755546875,0.1360392865180969,-0.6000573124706745,0.527142663711682
1772732469563582700,9.685582763671874,0.08205226026475429,-0.6789455557465552,0.49476336589343844
1772732469573610800,9.69561083984375,0.010343114838004111,-0.7015317738249898,0.3942142757557332
1772732469583637800,9.7056376953125,-0.0750806676864624,-0.7131994152650236,0.2541566752406768
1772732469593665500,9.71566552734375,-0.17538345491290092,-0.7125047109991312,0.10852857198375276
1772732469603693800,9.72569384765625,-0.18713819011449812,-0.6737889036357403,0.007810938612418249
1772732469613721600,9.7357216796875,-0.21992110029757023,-0.6536413108810782,-0.0710662626796402
1772732469623748900,9.745748779296875,-0.34689620587229725,-0.6561898263201117,-0.016167802403494715
1772732469633776600,9.755776611328125,-0.5035317056953906,-0.6435664915904402,0.07884213911183179
1772732469643804700,9.7658046875,-0.6344207698434591,-0.5802493269339204,0.138300345051568
1772732469653832700,9.775832763671875,-0.6897989581942557,-0.5043681565195322,0.17439168566288427
1772732469663859700,9.785859619140625,-0.6953466554492712,-0.4216916268765926,0.22060641568060962
1772732469673887700,9.7958876953125,-0.7372954533845186,-0.38040889163464303,0.30178085193121806
1772732469683915500,9.80591552734375,-0.7840870151758194,-0.33602994394302366,0.2752696606950834
1772732469693942800,9.81594287109375,-0.7235165188789368,-0.36609307377338407,0.18642626071916893
1772732469703970600,9.825970458984376,-0.4920850135296583,-0.43910628753602504,0.029529296948295085
1772732469713998800,9.835998779296874,-0.17511515936553476,-0.4645832586199045,-0.11123663449920713
1772732469724026600,9.846026611328124,0.1259931088000536,-0.41380116588771343,-0.24107986112246288
1772732469734053600,9.8560537109375,0.2985042231470346,-0.4061462672203779,-0.33890169998705383
1772732469744081700,9.86608154296875,0.304902399751544,-0.4678355384141206,-0.31418099063057453
1772732469754109700,9.876109619140625,0.1304103407204151,-0.5188236751124262,-0.27047093691015617
1772732469764137700,9.8861376953125,-0.19047230297327042,-0.4388274705946445,-0.20448316480489445
1772732469774164700,9.896164794921875,-0.5359434444785118,-0.3146203684285283,-0.12957997257718815
1772732469784192800,9.90619287109375,-0.9315431832432747,-0.19846154816150663,-0.05031465788353234
1772732469794220800,9.916220703125,-1.3682014931052922,-0.10695055467784405,0.039562943978328255
1772732469804248800,9.926248779296875,-1.6565905649513004,-0.04709697447866201,0.0978818802224472
1772732469814275800,9.93627587890625,-1.811418723091483,0.10160480973571538,-0.02668112270925194
1772732469824303600,9.9463037109375,-1.9456407310545443,0.33645167648643254,-0.13834931702613829
1772732469834331600,9.95633154296875,-2.0064292540162803,0.4491856368713081,-0.28469361486155537
1772732469844359700,9.966359619140626,-2.070481162688136,0.47141427368372674,-0.39458500876426694
1772732469854386700,9.97638671875,-1.9974311240464449,0.5486351682692766,-0.45979280947297807
1772732469864414700,9.986414794921876,-1.7372370500713585,0.5894682600475848,-0.5219997843978926
1772732469874442800,9.99644287109375,-1.268009765037894,0.5859355558767915,-0.5730483825791627
1772732469884469800,10.0064697265625,-0.7056646358460188,0.5486816377595066,-0.5469399817239493
1772732469894497500,10.01649755859375,-0.22978373814225195,0.5445265639066695,-0.475708025354892
1772732469904525800,10.02652587890625,0.0936024128049612,0.5715107246831059,-0.43398609497807916
1772732469914553600,10.0365537109375,0.23920330839455126,0.6516568590655922,-0.38498314074762163
1772732469924580900,10.046580810546875,0.27441315346360207,0.7446060686588287,-0.35504484287332744
1772732469934608600,10.056608642578125,0.2676063960582018,0.8343971064820885,-0.29150661934465166
1772732469944637000,10.066636962890625,0.22510347137153147,0.9548720363825559,-0.21070138173261657
1772732469954664700,10.076664794921875,0.24602292528152464,1.030930609190464,-0.0921532917088829
1772732469964691700,10.086691650390625,0.2805599856555462,1.0820946869775652,0.05560930282608605
1772732469974719700,10.0967197265625,0.3006155162125826,1.120732460668683,0.22679723314475267
1772732469984747800,10.106747802734375,0.2476537413537502,1.1027534441247582,0.4349551226733252
1772732469994775800,10.11677587890625,0.028830373165011403,1.1194237161576748,0.619726474058628
1772732470004802800,10.126802734375,-0.28183775050640103,1.1502347417458891,0.6620430823929607
1772732470014830800,10.136830810546876,-0.5768886183291674,1.2595862200856207,0.5344530232576653
1772732470024858600,10.146858642578126,-0.8075579071342944,1.4238874322310089,0.28147689957106486
1772732470034886700,10.15688671875,-0.8746762176394463,1.5343556396409868,0.06950825611529872
1772732470044913700,10.16691357421875,-0.7108218724787235,1.5975737278372049,-0.034963679155102
1772732470054941700,10.176941650390624,-0.29520518160164355,1.581047248189151,-0.04455382933449
1772732470064969700,10.1869697265625,0.16670388937294484,1.5054899029016493,0.034270445327088235
1772732470074997800,10.196997802734375,0.6309884573072194,1.418484111882746,0.07560576470622327
1772732470085024800,10.207024658203125,0.9634849664270877,1.3582435781925917,0.07835669368244708
1772732470095052800,10.217052734375,1.0878665483772754,1.303616792730987,0.14527770065036602
1772732470105080600,10.22708056640625,1.1769652200222014,1.1966314590007066,0.2674420906082727
1772732470115107800,10.23710791015625,1.2961515714168548,1.0504472105652094,0.32786925117801874
1772732470125135600,10.247135498046875,1.3776035277009009,1.0041931166514755,0.3425120359713211
1772732470135164000,10.257163818359375,1.3933213213145732,1.0153247515186667,0.285606711118482
1772732470145191700,10.267191650390625,1.2907014893174171,1.0033572503492236,0.29767478658556934
1772732470155218700,10.27721875,1.036903838381171,0.9655430680006742,0.37053832621183247
1772732470165246700,10.287246826171875,0.6944207727760077,0.9521779749929904,0.37791250824164596
1772732470175274500,10.2972744140625,0.43049920271039005,0.9087056207522749,0.38521629191637036
1772732470185302300,10.30730224609375,0.3253776170253753,0.8868930173948406,0.3710310781648382
1772732470195329300,10.317329345703126,0.3621136487483978,0.8461863284751773,0.3854867428882047
1772732470205357300,10.327357421875,0.4312906453490257,0.7930261084347963,0.36153592192567885
1772732470215385000,10.337385009765624,0.4569014719456434,0.7319061615616083,0.3566208600183949
1772732470225413400,10.347413330078124,0.39788814196288586,0.6651365183636546,0.3938392318982631
1772732470235440000,10.357440185546874,0.2732031931519508,0.5886234797865152,0.39583325525969265
1772732470245468200,10.36746826171875,0.16902444127500058,0.5507905927374959,0.34928931155391035
1772732470255496200,10.37749609375,0.11508359225094318,0.5226859034985304,0.3021438217584044
1772732470265524200,10.387524169921875,0.05197451738715172,0.4922524790510535,0.30514925065208226
1772732470275551200,10.39755126953125,0.002482464465498924,0.4119695665463805,0.28136520109120755
1772732470285579300,10.407579345703125,-0.06702478700280189,0.3614271277889609,0.23489130868064237
1772732470295607300,10.417607177734375,-0.09810089326798915,0.34544659158587454,0.15240610035872085
1772732470305634300,10.42763427734375,-0.1250081894159317,0.292287540589273,0.11216876425016671
1772732470315662000,10.437662109375,-0.19780279199182987,0.24709113903492688,0.1441838501322083
1772732470325690400,10.4476904296875,-0.3157002726197243,0.19523060341626405,0.15705021810382605
1772732470335718100,10.45771826171875,-0.3911182094365358,0.14508505502194166,0.2402930763926357
1772732470345745400,10.467745361328125,-0.47525370571613307,0.10560907694101333,0.3118849521152675
1772732470355773200,10.477773193359376,-0.5267898316860199,0.08356149578392505,0.38214795385431494
1772732470365801200,10.48780126953125,-0.6124228730469942,0.11459785456061362,0.3676081179788336
1772732470375829200,10.497829345703124,-0.8202560606658458,0.1545905499920249,0.33088764915112406
1772732470385856300,10.507856201171874,-1.1411392888814211,0.20396160688251255,0.3122549544714391
1772732470395884300,10.51788427734375,-1.4435159695476292,0.27499796761423345,0.188587165080104
1772732470405912000,10.527912109375,-1.5948258904337882,0.3670072660088539,-0.03338745194748044
1772732470415940400,10.5379404296875,-1.4443138419270514,0.37353111481964585,-0.32790874293819067
1772732470425967000,10.547967041015625,-0.9471505022197961,0.324561332206428,-0.47238973111975935
1772732470435995100,10.5579951171875,-0.46631870411038395,0.30559008975476026,-0.44628878291863944
1772732470446023200,10.568023193359375,-0.13315876264572143,0.15970803913623094,-0.37556886772494763
1772732470456051200,10.57805126953125,-0.08959668429493904,-0.07035597725212574,-0.19292132182689384
1772732470466078200,10.588078125,-0.24203940860331058,-0.1829302170306444,0.17283769768653437
1772732470476106200,10.598106201171875,-0.4865449150592088,-0.16637655711472032,0.6970135657481848
1772732470486134300,10.60813427734375,-0.8765928649157285,-0.06535159309357404,1.197757321225479
1772732470496161300,10.618161376953125,-1.473033740454912,0.09912409883588552,1.4727400182053445
1772732470506189000,10.62818896484375,-2.126691710209846,0.3651400108322501,1.5644732761375606
1772732470516217300,10.63821728515625,-2.583309689038992,0.7605266913682222,1.4816965009905396
1772732470526245000,10.6482451171875,-2.670748318517208,1.1636698312498628,1.1017822610050438
1772732470536272400,10.6582724609375,-2.4100059630095956,1.4336172374762595,0.6416114850651472
1772732470546300200,10.668300048828126,-1.7487199825942514,1.5831974119603633,0.26073537777755407
1772732470556328200,10.678328125,-0.8149515245169401,1.5504919509276747,-0.05641971502667292
1772732470566356200,10.688356201171874,0.11370061345994471,1.374655199289322,-0.2202107308939099
1772732470576383200,10.69838330078125,0.8877268378704786,1.1644906461134552,-0.13655682585248724
1772732470586411300,10.708411376953125,1.4800029949456452,0.9914818113774061,-0.014070793591625988
1772732470596439000,10.71843896484375,1.7825117775589228,0.823019680160284,0.023947587825823576
1772732470606467300,10.72846728515625,1.9226672672241925,0.7746496170058846,0.08739811480473726
1772732470616494000,10.738494140625,1.9334066879034042,0.808310186806321,0.20295312395971268
1772732470626522400,10.7485224609375,1.726385985711217,0.7806079408884048,0.48442993219923225
1772732470636550100,10.758550048828125,1.3719851032972334,0.6676061233475804,0.850191910854727
1772732470646578400,10.768578369140625,1.016845969736576,0.5590013717219233,1.1401808921780436
1772732470656605200,10.778605224609375,0.7200590719014406,0.5118538360998034,1.3584781176008283
1772732470666633200,10.78863330078125,0.44280864918529983,0.42583296446502206,1.5766608497984707
1772732470676661200,10.7986611328125,0.13875146808624267,0.326144802005589,1.7502730572551488
1772732470686688300,10.808688232421876,-0.1338964292705059,0.3328592049524188,1.7506832454912364
1772732470696716300,10.81871630859375,-0.46888475520610806,0.42861558092087504,1.647951039160788
1772732470706744300,10.828744384765624,-0.7351198629111051,0.49174160691946744,1.4962925970979033
1772732470716772400,10.8387724609375,-0.9690092828065157,0.5189011242628098,1.350289258187264
1772732470726799400,10.84879931640625,-1.0674065286725758,0.5985735036537051,1.1331721093945204
1772732470736827100,10.8588271484375,-0.9871218626022338,0.6769663646280765,0.8298726147949695
1772732470746855200,10.868855224609375,-0.6716460463881492,0.7219236967295408,0.6381018695089966
1772732470756883200,10.87888330078125,-0.1762730972290039,0.7147004674777389,0.5124653555942699
1772732470766910200,10.88891015625,0.3977981255918741,0.6859013662338257,0.31680980476420373
1772732470776938200,10.898938232421875,0.834133194848895,0.6531044275254011,0.21502395763946697
1772732470786966300,10.90896630859375,1.0857517481803893,0.6227914145871997,0.12355376195707357
1772732470796994300,10.918994384765625,1.2481529719233513,0.5920251049235463,0.046365422500832934
1772732470807021000,10.92902099609375,1.291113577249646,0.51628948045969,0.10139030846850947
1772732470817049300,10.93904931640625,1.1496037503659724,0.40886107913702724,0.261463144062832
1772732470827077000,10.9490771484375,1.0214660307526588,0.34451837082505227,0.61046538230367
1772732470837104400,10.9591044921875,1.0392214676737785,0.2569727738410234,0.9910681890752165
1772732470847132200,10.969132080078126,1.0464221928328274,0.1557408890709281,1.1891914451930672
1772732470857160400,10.979160400390626,0.9256021027565002,0.05170855992734432,1.4421655778519809
1772732470867188200,10.989188232421874,0.7705097407221794,-0.07473813785910606,1.628250167260319
1772732470877215200,10.99921533203125,0.5642477479428053,-0.13457739727199078,1.8724604901619255
1772732470887243300,11.0092431640625,0.31410978855788707,-0.036516251492500304,2.1302659154348076
1772732470897271000,11.01927099609375,0.1533592546314001,0.025397476106882092,2.201532577791065
1772732470907299300,11.02929931640625,-0.05855389577746391,0.08521364690512419,2.139247094269842
1772732470917326300,11.039326416015625,-0.33263971698284145,0.16305939539074896,1.9682889084532855
1772732470927354000,11.04935400390625,-0.5869137532591819,0.2880477110624313,1.7662499401964247
1772732470937382100,11.059382080078125,-0.7611322560459375,0.4870192545726895,1.5494437570489943
1772732470947410200,11.06941015625,-0.8998200112462044,0.6129664784044027,1.3866723848193883
1772732470957437200,11.079437255859375,-1.007062242347002,0.6936759457580745,1.1761351989388464
1772732470967465200,11.08946533203125,-0.9161796098947524,0.7248140113435685,0.9936096902515739
1772732470977493200,11.0994931640625,-0.7267272976189851,0.72802376717031,0.8205999787326902
1772732470987521300,11.109521240234375,-0.4498597367405891,0.654520870194584,0.6969087901994585
1772732470997548000,11.119548095703125,-0.1550941155999899,0.5636604495741426,0.5712766601989046
1772732471007576300,11.129576416015626,0.09310849180817604,0.4965906543858349,0.4807722134092822
1772732471017604000,11.13960400390625,0.28892332485318184,0.3596488660700619,0.44370932435207067
1772732471027632000,11.149632080078124,0.45216392202973366,0.2153041080214083,0.410921007341519
1772732471037659100,11.1596591796875,0.6500596530020236,0.06193082486465573,0.3710817489061504
1772732471047687200,11.169687255859374,0.8222498648315668,-0.04866071666404605,0.3529917462684214
1772732471057715200,11.179715087890624,0.929852745938301,-0.18189605167731643,0.4353192432779818
1772732471067742200,11.1897421875,0.9470265835791826,-0.3171386348597705,0.37671851268410683
1772732471077770200,11.199770263671875,0.9450555757671594,-0.41029096580967306,0.28223416594546286
1772732471087798000,11.209798095703125,0.8866974948227405,-0.3376774188891053,0.32080676544588055
1772732471097826300,11.219826416015625,0.7427408593088388,-0.29868980884701013,0.29850484420154244
1772732471107853000,11.22985302734375,0.4957318455994129,-0.2421387773245573,0.1785758577460423
1772732471117881300,11.23988134765625,0.22689386191964148,-0.09683262689784168,0.009981569782923907
1772732471127909000,11.2499091796875,-0.16453414411842823,0.04847600774690509,-0.17482731886748223
1772732471137937400,11.2599375,-0.6188309865236282,0.15229367122650145,-0.31136326632872224
1772732471147964200,11.269964111328125,-0.9838011937469243,0.33454204347282646,-0.42090559106543657
1772732471157992200,11.2799921875,-1.2064829909294843,0.5217321099050343,-0.6362420669864863
1772732471168020200,11.290020263671876,-1.2073983522087335,0.6173572607092559,-0.9088156569980085
1772732471178048300,11.30004833984375,-0.9846247850894927,0.6747434278815985,-1.032503703726083
1772732471188076000,11.310075927734376,-0.6164876382678747,0.5584650728881358,-1.0155008387379347
1772732471198103800,11.320103759765624,-0.1020464160233736,0.39799847046956416,-0.9326328781761228
1772732471208132000,11.330132080078124,0.3988479269057512,0.28878830029666425,-0.7773407557860016
1772732471218158800,11.340158935546874,0.7376163559019565,0.20194149923175572,-0.6158624921068548
1772732471228187100,11.350187255859375,0.9520143088638782,0.15482406648695468,-0.49925826615989205
1772732471238215000,11.36021484375,1.012422308075428,0.11837635018602014,-0.38513307061232627
1772732471248243000,11.370242919921875,0.9689864864528178,0.08562062027081847,-0.33411724218949673
1772732471258270000,11.38027001953125,0.8804542165189981,0.07193257891908288,-0.26775815255381163
1772732471268298000,11.390298095703125,0.725716659271717,0.10056143816262483,-0.2168641969449818
1772732471278326000,11.400325927734375,0.5217319637745619,0.1442421744570136,-0.23024704480506478
1772732471288353800,11.410353759765625,0.4019587524026632,0.29979426295757294,-0.3638016018353402
1772732471298380800,11.420380859375,0.3278933992385864,0.4229508331574499,-0.46040056610777974
1772732471308409000,11.4304091796875,0.2550140409886837,0.40600948909819123,-0.5125231867287308
1772732471318436900,11.440436767578126,0.15882102716863156,0.39386867718845603,-0.40420229354575277
1772732471328465000,11.45046484375,-0.05729308206140995,0.3801971485801041,-0.14753822032772004
1772732471338492000,11.460491943359376,-0.4585188440144062,0.3819603588603437,0.13088051551543176
1772732471348520000,11.47052001953125,-1.074455862662196,0.4539535819254815,0.2952858456224203
1772732471358548000,11.4805478515625,-1.7380799306362866,0.6475117220848798,0.3095110625907779
1772732471368576000,11.490575927734374,-2.2545710711479185,0.815537215450406,0.18510427313409744
1772732471378603000,11.50060302734375,-2.4262995106846095,0.9654621117189526,0.028884441439807413
1772732471388630800,11.510630859375,-2.2394442291647194,1.1053484290540219,-0.1102979654096067
1772732471398659000,11.5206591796875,-1.829296909609437,1.1684713863126932,-0.17469773767106234
1772732471408685800,11.530685791015625,-1.378994689798355,1.1658302241541445,-0.17988310441970823
1772732471418714000,11.540714111328125,-1.0215034401535987,1.144090686032921,-0.24369718574769794
1772732471428742000,11.550741943359375,-0.8056020968914032,1.165870263903588,-0.292468815440312
1772732471438770200,11.560770263671875,-0.7382856334656477,1.1726219301208853,-0.3927621772512793
1772732471448797000,11.570796875,-0.7263193013399839,1.1662678849190473,-0.5056083658389747
1772732471458825000,11.580824951171875,-0.6988134547770023,1.1505628046564758,-0.5260295148380101
1772732471468853000,11.59085302734375,-0.580264816763997,1.1425101388432084,-0.4731994035348296
1772732471478880800,11.600880859375,-0.30598025811612606,1.108519314175099,-0.4281852266795933
1772732471488908000,11.610907958984376,0.10119359858632088,1.0021651179552078,-0.29946356969848276
1772732471498936000,11.62093603515625,0.5715618703484535,0.8673286313556134,-0.1724088960815221
1772732471508964000,11.630964111328124,0.9325830476850271,0.7655500724881887,-0.05558920075297355
1772732471518992000,11.640991943359374,1.196768821644783,0.6626246816731989,0.054616921654716134
1772732471529019000,11.651018798828124,1.3476099559754133,0.6247504397004843,0.04080547311902046
1772732471539047000,11.661046875,1.4493056588649749,0.5998505378521979,0.04415244545936584
1772732471549075000,11.671074951171875,1.5607400809586047,0.6072846333757043,0.012689897159859537
1772732471559102000,11.68110205078125,1.605893227893114,0.5760010218396783,0.03780950617343187
1772732471569130000,11.6911298828125,1.5720774675309657,0.5559846542492508,0.006215294318273663
1772732471579158000,11.701157958984375,1.298818160277605,0.6408459805853665,-0.1276721479281783
1772732471589186000,11.71118603515625,0.4314958125323057,0.654176002279669,-0.20467370067462323
1772732471599212800,11.721212890625,0.3395966965138912,0.8311844280458986,-0.5424889205992222
1772732471609241000,11.731240966796875,0.38786300703287124,1.0967080264806748,-0.6239810627631843
1772732471619268900,11.741268798828125,0.28088439530432224,1.0458617824710905,-0.35457686003539707
1772732471629297000,11.751296875,0.45647243287861344,0.8650343829385936,-0.11787165206689387
1772732471639324000,11.761323974609375,0.49935938844680783,0.6657078885108232,0.03461334048062563
1772732471649352200,11.771352294921876,0.3540343871891498,0.5661475902147591,0.31253450206518174
1772732471659380000,11.7813798828125,0.03204875068962574,0.5274523872479796,0.6082111736360937
1772732471669408000,11.791407958984376,-0.4442039029359817,0.569360268650949,0.7553913743063807
