time,seconds_elapsed,z,y,x
1772732118838252000,0.081251953125,0.48365445431470866,-0.33737814368158575,-0.6256733266990632
1772732118848280000,0.091280029296875,0.48555882663130756,-0.33748394214361904,-0.5834671564692631
1772732118858308000,0.10130810546875,0.37075697393119333,-0.286797857131809,-0.6358655618242919
1772732118868335900,0.1113359375,0.17312778494060038,-0.20277648875117302,-0.7053679909870028
1772732118878363000,0.12136279296875,0.16249357820153235,-0.11976605097874998,-0.7141472175091504
1772732118888391000,0.131390869140625,0.8107523192614317,-0.09114026047512888,-0.4357729053296149
1772732118898419000,0.1414189453125,1.2285282339990138,-0.8593195124231279,-0.19065810786895454
1772732118908447000,0.151447021484375,1.253772565370798,-0.44344270930513735,-0.49163781775142995
1772732118918475000,0.16147509765625,1.911060416060686,0.06070084467828273,0.26603458016421644
1772732118928503000,0.1715029296875,1.0848749653458594,-0.38433103351444003,-0.19858530240533873
1772732118938530800,0.18153076171875,0.7773106529086827,-0.4488330240413546,-0.4772010769242421
1772732118948559000,0.19155908203125,0.3290530906677246,-0.09891177125945687,-0.12672398035787044
1772732118958587000,0.2015869140625,0.03761164551377296,-0.0373702379733324,-0.10547949574459344
1772732118968615200,0.211615234375,0.011328618744015693,-0.06304959976151585,-0.28470212696157393
1772732118978643000,0.221642822265625,-0.04331073393821716,0.02926686488613486,-0.36778555690497156
1772732118988671000,0.2316708984375,-0.18017010466754435,0.1802433160342276,-0.3998206443954259
1772732118998699000,0.241698974609375,-0.22752982173562047,0.41675899277999995,-0.38711043509989973
1772732119008727000,0.25172705078125,-0.0025818331867456436,0.5511291770420969,-0.3421308181013912
1772732119018755000,0.261755126953125,0.45328328144848345,0.4635315576098859,-0.1945001885161735
1772732119028783000,0.271783203125,0.9401216264963149,0.28493907752260567,-0.06836438330980017
1772732119038811000,0.281810791015625,1.2316022346168756,0.2055753256894648,-0.04197400544174015
1772732119048839000,0.2918388671875,1.2641741323977709,-0.1709844893015921,-0.1982655871979892
1772732119058867000,0.301866943359375,0.9204097948104143,-0.38424072488248345,-0.3621060134312138
1772732119068895000,0.31189501953125,0.9744260471582412,0.9016802521601319,0.9177967627678066
1772732119078923000,0.321923095703125,-0.03464636596739292,0.5794387412033974,1.4494343998111783
1772732119088950800,0.33195068359375,-1.0615677395164966,-0.6539582678757607,0.20120394220482557
1772732119098979000,0.34197900390625,-0.5966331832408904,-0.16856456867828964,0.6866400557719171
1772732119109006800,0.3520068359375,-0.6194891581714153,0.8036451176047325,1.3841916739195586
1772732119119035000,0.362034912109375,-0.6046919865339994,0.8411248073019086,1.2240892286382614
1772732119129063000,0.37206298828125,-0.33831016383469104,0.619510200959444,0.8662230082012713
1772732119139091000,0.382091064453125,0.08477145609557628,0.3280035816147923,0.5807613681092858
1772732119149119000,0.392118896484375,0.5727829365760088,0.14906155743747948,0.4531920595010742
1772732119159147000,0.40214697265625,0.8717360725343227,0.007291326051950454,0.478943280949071
1772732119169174000,0.412174072265625,0.9287228651255368,0.020406535951793193,0.5913816559208557
1772732119179202000,0.4222021484375,0.7741291002631187,0.20290625261068343,0.5560939598426222
1772732119189230000,0.43222998046875,0.2996387801349163,-0.18623568831682205,0.1891893322243355
1772732119199257900,0.4422578125,-0.2177519395649433,-0.7353691614970564,0.02095514627788216
1772732119209286000,0.452285888671875,-0.757860102507472,-0.7990595433801412,0.32134616955220696
1772732119219314000,0.46231396484375,-1.2728747407257557,-0.6597535101510584,0.8157830069050193
1772732119229342000,0.472342041015625,-1.760996695843339,-0.7404609316781163,1.1533788849905133
1772732119239370000,0.482369873046875,-2.205232747483253,-0.8527065240241587,1.1922444760881363
1772732119249398000,0.49239794921875,-2.431212417167425,-0.9726653210960328,1.1994429362248629
1772732119259425800,0.50242578125,-2.520370710045099,-1.0493122151859104,1.123228807529062
1772732119269454000,0.5124541015625,-2.525910223993659,-1.0408673351846636,1.0569899832721799
1772732119279481900,0.52248193359375,-2.5402082139372824,-0.9264597424991429,1.0003680054053663
1772732119289510000,0.532510009765625,-2.588600781184435,-0.8891708991989493,0.9494240731749684
1772732119299538000,0.542537841796875,-2.602805832147598,-1.0520331645824015,0.8684682298447937
1772732119309566000,0.55256591796875,-2.543150112608075,-1.2997238769456743,0.8139870633989572
1772732119319594000,0.562593994140625,-2.3708114322185514,-1.4691322029717266,0.7858302786465734
1772732119329622000,0.5726220703125,-2.3339234248042104,-1.5782038414567707,0.7809532471947371
1772732119339649800,0.58264990234375,-2.3740818321913477,-1.609612979068607,0.803586373154819
1772732119349678000,0.592677978515625,-2.3648078078895804,-1.7161255807206033,0.7979586694661528
1772732119359705900,0.602705810546875,-2.3665642961680886,-2.01838389570415,0.7953251060921699
1772732119369734100,0.612734130859375,-2.46803729621768,-2.412207126315683,0.8290124908342957
1772732119379762000,0.622761962890625,-3.0484739624172446,-2.9904017126768827,1.1971859510783105
1772732119389790000,0.6327900390625,-4.2652755182653665,-3.674082480251789,1.848606882496178
1772732119399818000,0.64281787109375,-5.800905707886815,-4.32656351518184,2.5207962419807908
1772732119409846000,0.652845947265625,-7.680683096933365,-4.79449988362193,2.7975656031817198
1772732119419874000,0.6628740234375,-10.17308560360074,-4.826661447036266,2.594197578278184
1772732119429902000,0.672902099609375,-13.45006846191883,-4.4019829133033745,1.7631635184884071
1772732119439929900,0.682929931640625,-16.648525480532644,-3.904420052884519,0.29625332068139687
1772732119449956900,0.692956787109375,-19.002409158825873,-3.2370600132524965,-1.2203194277759641
1772732119459985000,0.70298486328125,-20.539033035659788,-2.5106685234591364,-2.3574216431610284
1772732119470013000,0.713012939453125,-21.225766761064527,-1.792222439712286,-2.6034219182193277
1772732119480041000,0.723041015625,-20.604218916797638,-1.0122627335995436,-1.8599653118565678
1772732119490069000,0.733069091796875,-18.763145644676683,-0.48965515603423115,-0.8010131616659462
1772732119500097000,0.743096923828125,-16.44496690149307,-0.15648849256783723,0.32165932715460654
1772732119510124800,0.753124755859375,-14.32572784537673,0.06700228291004896,1.4196188150011002
1772732119520153000,0.763153076171875,-11.894073529660702,0.4588233799189329,2.3141915732435883
1772732119530180900,0.773180908203125,-8.197509168487787,1.5454168396204708,3.630323418024182
1772732119540209200,0.783209228515625,-4.843627779406309,2.2805577453196046,3.065185735504329
1772732119550237000,0.79323681640625,-3.23544965544641,0.4706073412150144,-0.24201902340240775
1772732119560265000,0.803264892578125,-3.124856360352039,2.9737989529222246,0.7737144550476223
1772732119570293000,0.81329296875,-3.963812445312738,4.006122477775812,0.1696547020025551
1772732119580321000,0.823321044921875,-5.022139010950923,4.713908928081393,-0.7311977210313081
1772732119590349000,0.83334912109375,-5.961351705908775,5.973084813800454,-0.7318668524645269
1772732119600377000,0.843377197265625,-5.953811373531818,6.522604363688826,-0.33705062876027075
1772732119610404900,0.85340478515625,-4.638239062330126,6.950192647388577,-0.26301126855397594
1772732119620433000,0.863432861328125,-3.0134663619220254,8.023399386772512,-0.2282563459118828
1772732119630461000,0.8734609375,-1.975800306996703,8.408917876505852,-0.024729933842550962
1772732119640489000,0.883489013671875,-0.9764315417617558,7.923288322725892,0.24180037568304685
1772732119650517000,0.89351708984375,0.008518237498402595,7.580647436210513,0.3576235707875341
1772732119660544800,0.903544677734375,0.9291457667127251,7.3084636492341755,1.0412659791134298
1772732119670573000,0.913572998046875,2.4788980051890013,7.171102174201607,1.415727798911929
1772732119680600800,0.923600830078125,10.375146637558936,8.64702695992291,-3.029488983701169
1772732119690629000,0.933629150390625,10.491931773030757,10.330068309426307,-4.3840696554720395
1772732119700657000,0.943656982421875,7.340414200246333,8.292713755792379,-2.5256632634952663
1772732119710685000,0.953684814453125,7.228071431136131,8.878309412190317,-2.4952000284314155
1772732119720713000,0.963712890625,4.566169851419329,7.811159488627314,-0.20687747606290502
1772732119730741000,0.973740966796875,3.488126485659182,8.530062376230955,0.1987934104643762
1772732119740769000,0.98376904296875,1.8810954859077929,10.061581038880348,1.5353078257992863
1772732119750796000,0.993796142578125,1.3067068677008151,9.406885542771219,1.1317910302996634
1772732119760824000,1.003823974609375,2.9972748133167624,10.149785392034053,1.935974784825742
1772732119770851800,1.013851806640625,3.9957986521601674,9.758004334774613,2.3133774803817273
1772732119780880000,1.0238798828125,5.26912581282854,9.60244844688177,0.6205586140338331
1772732119790908000,1.033907958984375,7.551468103477358,11.516007109498977,1.8454367280274628
1772732119800936000,1.04393603515625,8.662489901992679,11.621489929711817,1.558266676582396
1772732119810964000,1.0539638671875,9.515740469765662,11.958435234934091,-0.3969415087625384
1772732119820992000,1.063991943359375,10.613075103712081,11.289176375943422,-1.3855983258470892
1772732119831019800,1.074019775390625,11.841440840625761,9.748390703254938,-0.7326540573194622
1772732119841048000,1.084048095703125,11.287702211737631,10.503875893324613,-1.741930468584597
1772732119851076400,1.094076416015625,10.066134464401006,10.687681139624118,-1.9834440997481344
1772732119861104000,1.104104248046875,10.908224755734205,10.542661258792876,-1.9710712326481936
1772732119871132400,1.11413232421875,11.552189014470576,10.163166267132759,-1.7717681190960108
1772732119881160200,1.12416015625,12.300725408315659,9.642624974447488,-0.6319910584785043
1772732119891188200,1.134188232421875,13.775712620925903,9.494489007422327,0.5659790287148208
1772732119901216300,1.14421630859375,15.146917972022294,9.594268647557497,0.9268466959901154
1772732119911244000,1.154244140625,16.178712504565716,9.637029346397519,1.124642108393088
1772732119921272300,1.164272216796875,16.38760075419545,9.84870634996295,1.4074245193384587
1772732119931300000,1.174300048828125,16.08077118577361,10.111409191888571,1.3691317596927284
1772732119941328400,1.184328369140625,15.956566129434108,10.35527756948471,1.2902687969885767
1772732119951356200,1.194356201171875,15.755425132930277,10.716802020168304,1.2285843481004237
1772732119961384200,1.20438427734375,14.955684621548652,11.127611018502712,0.9078328565057366
1772732119971412200,1.214412109375,14.199998355948924,11.557881088632344,0.4777583820134401
1772732119981440300,1.224440185546875,13.809358869940041,12.044066522729397,0.3944982072636485
1772732119991468300,1.23446826171875,13.22509300084114,12.448556839436291,0.4002995139535516
1772732120001496300,1.244496337890625,12.541039892822504,12.699320237243175,0.6945438146337867
1772732120011524000,1.254524169921875,12.075144382560252,13.095342000812291,0.9511418368782848
1772732120021552400,1.264552490234375,11.712262672048807,13.663475065755843,1.17313514034003
1772732120031579100,1.2745791015625,11.254509551709889,14.067314225077629,1.4694482831835747
1772732120041607200,1.284607177734375,10.42228715891838,14.542647425770758,1.54526954010427
1772732120051635200,1.29463525390625,8.838480090627074,15.493493859899043,1.105946394947171
1772732120061663200,1.304663330078125,7.047323818841576,15.992546958875655,0.44028789853602646
1772732120071691300,1.314691162109375,6.246551626324654,16.559301721203326,0.06872391907088458
1772732120081719000,1.324718994140625,4.9210003574222325,17.489342683190106,-0.42928734270259733
1772732120091747300,1.334747314453125,3.596928513422608,18.605292001235483,-0.3952132236652076
1772732120101775000,1.344775146484375,3.4002199464082716,19.8436250054121,1.2346461323574185
1772732120111803400,1.354803466796875,-0.18545476707220077,19.414272634649276,3.296128872814774
1772732120121831200,1.3648310546875,-6.1268473885357375,18.15939181577563,4.396355136549473
1772732120131859200,1.374859130859375,-10.66300496352911,17.166158192294834,3.907181334291398
1772732120141887200,1.38488720703125,-13.818466890025139,15.859237389582395,2.8806568511053916
1772732120151915300,1.394915283203125,-15.062885936117171,14.077211349713801,2.3737173827931284
1772732120161943300,1.404943359375,-13.71217742960453,12.579824089246987,2.1097038966603576
1772732120171971300,1.414971435546875,-11.28013382230997,11.408216596865653,2.903838404728472
1772732120181999000,1.4249990234375,-11.180199283874034,8.94204860165119,3.1003862282231447
1772732120192027400,1.43502734375,-14.73666076235175,8.192838838589191,2.3099323083639143
1772732120202055200,1.44505517578125,-20.304034193217753,8.649455063852667,1.2790205500043927
1772732120212083500,1.45508349609375,-25.791743135738372,7.944049371203779,0.557235823354125
1772732120222111200,1.465111328125,-28.35105352503061,7.142305703306198,0.11403817485123872
1772732120232139300,1.47513916015625,-27.124979113924503,6.0260009959518905,-0.06155804602950811
1772732120242167300,1.485167236328125,-25.239468149662017,4.390897163404524,2.932632245275378
1772732120252195300,1.4951953125,-25.670885051739216,2.193204163776338,6.655467942780255
1772732120262223400,1.505223388671875,-27.1442659981966,0.12334960855394601,8.603711549809574
1772732120272251400,1.51525146484375,-28.0753883256793,-1.4456345691367982,8.428995034372806
1772732120282279200,1.525279052734375,-29.18825487527847,-2.484844638633728,6.92334847960472
1772732120292307200,1.53530712890625,-30.678713213264942,-3.5651559493258596,5.045042916676402
1772732120302335200,1.545335205078125,-30.597621322464942,-4.714817859619855,4.058277320165932
1772732120312363300,1.55536328125,-28.49239091795683,-5.72597876945734,4.210534458774328
1772732120322391300,1.565391357421875,-25.623774925518035,-6.772129159611463,4.374040428888797
1772732120332419000,1.575419189453125,-22.491658803296087,-7.66519443590045,4.630373443521559
1772732120342446300,1.5854462890625,-20.016229643261433,-8.200521794307232,4.872533848156035
1772732120352474000,1.59547412109375,-18.230093245464563,-8.590332428276538,4.946661452901363
1772732120362502400,1.60550244140625,-16.426533419179915,-8.913286033025383,4.8466661241889
1772732120372530200,1.6155302734375,-14.571599964010714,-9.093905050504206,5.314281882372498
1772732120382558500,1.625558349609375,-13.318216690218447,-8.857698001316189,6.260000305962563
1772732120392586200,1.635586181640625,-13.70160225957632,-8.569632754597068,7.067745844623446
1772732120402614300,1.6456142578125,-15.295556043350695,-7.821551703304052,7.374908006000519
1772732120412642300,1.655642333984375,-17.885888178372383,-6.594261486667394,7.1055305086165665
1772732120422670300,1.66567041015625,-20.838846003317833,-5.184695132994651,6.526900015056133
1772732120432698400,1.675698486328125,-23.410625413560865,-3.48280529063642,5.836178681319952
1772732120442726400,1.685726318359375,-24.493379733490944,-1.4924753768973051,5.212204486688972
1772732120452754200,1.695754150390625,-24.714621268737314,0.5333023919178173,4.881926530401408
1772732120462782200,1.7057822265625,-24.96028646662235,2.3469835435159503,4.913240829336643
1772732120472810200,1.715810302734375,-24.758338829910755,4.177171702876687,4.939609780824184
1772732120482838300,1.72583837890625,-23.435745826292038,6.270020180195569,4.651071655896306
1772732120492866300,1.7358662109375,-21.828801628041266,8.10973794605434,4.209340280553699
1772732120502894000,1.74589404296875,-20.714854881989954,10.01053123512268,4.213810703966021
1772732120512922400,1.75592236328125,-19.783091918516156,12.038449267369508,4.204270137682557
1772732120522950100,1.7659501953125,-18.474174389028548,14.230771095353363,3.9750095466315742
1772732120532978200,1.775978271484375,-16.805992170482874,16.124611496543885,3.2783900947675106
1772732120543006200,1.786006103515625,-14.529074827492236,17.88313040409684,2.633884276500344
1772732120553034200,1.7960341796875,-11.827741985619067,19.255168114364146,3.023376346039772
1772732120563062300,1.806062255859375,-9.63094622709155,20.115179846835137,3.739348148627579
1772732120573090300,1.81609033203125,-8.02860689228773,20.87519858868122,3.702722883802652
1772732120583118000,1.8261181640625,-5.317141947978735,21.675168232643603,3.187431182208657
1772732120593146400,1.836146484375,-3.20779183319211,22.031139725375173,2.2243922059834
1772732120603174100,1.846174072265625,-1.4984487522184848,22.366407452774048,2.01755898918733
1772732120613202400,1.856202392578125,0.8018617413192987,22.395965555691717,2.5480484060436486
1772732120623230200,1.866230224609375,2.706899243828654,22.13357134132385,2.634558230239153
1772732120633257200,1.87625732421875,4.50855762040615,21.852392931509016,2.7721795252516865
1772732120643285200,1.88628515625,6.4652358783036465,21.58492506713867,2.7676065182477236
1772732120653313300,1.896313232421875,8.171612510687112,20.868621548378467,3.0140222422391174
1772732120663341300,1.90634130859375,10.009380896043776,19.768067367863654,3.5457127054482696
1772732120673369000,1.916369140625,11.565385180652141,18.62703270840049,3.3944407784849404
1772732120683397400,1.9263974609375,12.56275488102436,17.56326716657877,3.2528625625401735
1772732120693425200,1.936425048828125,13.412539818513393,16.31784975709915,3.5770670441329475
1772732120703453200,1.946453125,14.19998900359869,15.150416920053958,4.432888046915829
1772732120713481200,1.956481201171875,14.135098890537023,14.281089077705143,4.528543008336425
1772732120723509200,1.96650927734375,13.695717293190956,13.642273287773131,4.124862254446745
1772732120733537300,1.976537353515625,13.729458234751224,12.921931891798973,3.4965257729530332
1772732120743565300,1.9865654296875,14.03845988651514,12.164349437189102,2.9863100594490763
1772732120753593000,1.996593017578125,14.980186610120533,11.560850459831952,2.8123943390011785
1772732120763621400,2.006621337890625,16.207036097252367,11.092335122460126,2.8621231232881543
1772732120773649200,2.016649169921875,16.732343581426143,10.629047748869658,2.9174206476181745
1772732120783677400,2.026677490234375,17.525823863369226,10.405174696075916,2.9110163335338233
1772732120793705200,2.036705322265625,19.059909746158123,10.4644358633399,2.8620804531902073
1772732120803733200,2.046733154296875,20.523229901850222,10.479465090167523,3.070712097710371
1772732120813761300,2.05676123046875,21.292535527479647,10.655808330023287,3.147839176532626
1772732120823789300,2.066789306640625,21.20125892727375,10.81830073918104,2.871678887140751
1772732120833817300,2.0768173828125,20.622126329410076,11.072641410952805,2.7374288221269842
1772732120843845400,2.086845458984375,19.75026516919136,11.283072798371315,2.5811916739717122
1772732120853873000,2.096872802734375,19.352741184365748,11.549584384930133,2.3713968308910727
1772732120863901000,2.10690087890625,19.258628483951092,11.887806285959481,2.6375749477118253
1772732120873929000,2.116928955078125,18.992900156724453,12.380739440751075,3.1246821728289125
1772732120883957000,2.12695703125,18.245938464850187,13.102240528154372,3.3715640530273316
1772732120893985000,2.136985107421875,17.16903988521099,13.895819009774922,3.5827556111633774
1772732120904012800,2.1470126953125,15.703991882812977,14.521035313421487,3.5146412753582
1772732120914040000,2.1570400390625,14.411113633978365,15.069743546926974,3.1376994753122327
1772732120924068000,2.167068115234375,13.845139792895317,15.629502751278876,3.3225124373495576
1772732120934096100,2.17709619140625,14.050533770668507,16.15869029175639,4.125065083542466
1772732120944124000,2.1871240234375,13.780297610628605,16.69741839851737,4.663448614649474
1772732120954152200,2.197152099609375,12.177884626066684,17.50155334546566,4.747254440583289
1772732120964180000,2.207179931640625,10.151964489638805,18.203131588780877,4.50708520976603
1772732120974208000,2.2172080078125,8.140327730107307,18.338123412072658,3.2639620487034318
1772732120984236000,2.227236083984375,8.243402904656529,18.894471346676347,2.5666870555400845
1772732120994263800,2.237263916015625,9.599200258740781,20.036124430298806,1.129811254659295
1772732121004292000,2.2472919921875,10.440949773812294,21.647183662652967,0.09066793025564401
1772732121014319900,2.25731982421875,9.32823870703578,22.863639181542396,0.9324473655413835
1772732121024348000,2.267347900390625,5.902542374065518,24.063169284594057,4.057626455041766
1772732121034376000,2.2773759765625,0.4980664260268211,24.8789935002923,9.073052232089639
1772732121044404000,2.287404052734375,-9.157472390529513,23.928053542661665,12.446242132753133
1772732121054432000,2.297431884765625,-20.825904688680172,21.71701064759493,11.785348951047657
1772732121064460000,2.3074599609375,-28.237541712141034,19.045263965690136,7.880379739847779
1772732121074487800,2.31748779296875,-26.55345231488943,16.316650318181512,1.8760187671653925
1772732121084516000,2.32751611328125,-17.716352280443907,14.604086521595715,-2.7752079331621524
1772732121094544000,2.3375439453125,-7.711329579609632,13.511293622732161,-3.5760777408346534
1772732121104572200,2.347572265625,-2.547342888122797,11.987716274476051,-0.735186352276057
1772732121114600000,2.357599853515625,-7.847846420511603,10.759757364797592,6.067863869169354
1772732121124628000,2.3676279296875,-19.230272158038616,9.811941092145442,12.663673754322527
1772732121134656000,2.377656005859375,-28.064766393899916,8.463644907471537,13.98722771192789
1772732121144684000,2.38768408203125,-30.757448311805724,7.113969251137972,10.536676923686265
1772732121154712000,2.397712158203125,-27.893538889622686,6.164297706007957,5.221052394533157
1772732121164740000,2.407739990234375,-23.211644809961317,4.908831780722737,2.039930249340832
1772732121174767900,2.417767822265625,-20.169472578036785,2.9810970009759066,3.6950460655644535
1772732121184796200,2.427796142578125,-20.19029090965986,0.8046984260499477,7.393738378676772
1772732121194824000,2.437823974609375,-21.78297043571472,-1.3296087275996804,10.24065282691717
1772732121204851000,2.447850830078125,-22.965692027306556,-2.92330327591598,11.373135931134223
1772732121214879000,2.45787890625,-23.5906488032341,-3.7716114188507195,10.490222631025313
1772732121224907000,2.467906982421875,-24.41503509557247,-4.119083671045303,8.552041568326949
1772732121234935000,2.47793505859375,-25.645432630574703,-4.609511857278645,5.793265422266721
1772732121244962800,2.487962890625,-25.764766281485556,-5.043876210984587,3.763841369371116
1772732121254991000,2.4979912109375,-24.725329709756373,-5.711760859012603,2.9310338701680303
1772732121265019000,2.508018798828125,-24.040796124744414,-6.797417914646863,3.5625375835210082
1772732121275047200,2.518047119140625,-24.518067600023745,-8.010092161431908,5.551894122183323
1772732121285075000,2.528074951171875,-25.559966177952287,-9.001401538851857,6.726112089323997
1772732121295103000,2.53810302734375,-26.03841371127367,-8.805071742022037,5.519174340364336
1772732121305131000,2.548131103515625,-25.236966395974157,-7.907678665661812,4.159121666923165
1772732121315159000,2.558158935546875,-24.689727650499343,-7.704252188569307,4.7950922965571285
1772732121325187000,2.56818701171875,-24.84247491071224,-7.58982910605371,6.115750240460038
1772732121335215000,2.578215087890625,-25.109521919322013,-6.879888692584633,6.515594192665815
1772732121345243000,2.588242919921875,-25.674759262824058,-5.4604602855890985,5.631495482164621
1772732121355271200,2.598271240234375,-26.25746212038994,-3.4664591359913346,4.7601592226028435
1772732121365299000,2.608298828125,-26.233202123880385,-1.244676820245385,4.643951010236144
1772732121375327200,2.6183271484375,-25.779367638289926,0.840403361159563,4.986583713445067
1772732121385355000,2.62835498046875,-25.822979985523222,2.928778784717619,5.335457356870174
1772732121395383000,2.638383056640625,-25.628937422847745,5.373834141537547,5.0082542779833075
1772732121405411000,2.6484111328125,-24.787448020017145,7.9566370500981805,4.107466883009672
1772732121415438800,2.65843896484375,-23.442068015050886,10.528241103774308,3.6896316393002864
1772732121425467100,2.668467041015625,-22.125769143140314,13.0412047524333,3.6645720168456433
1772732121435495000,2.678494873046875,-21.293141092157363,15.24414968124032,3.7557404805019496
1772732121445523000,2.68852294921875,-19.820101506483553,17.486164053153992,3.2337478199645875
1772732121455551000,2.698551025390625,-18.39293052253723,19.708364302051066,2.2442886004559695
1772732121465579000,2.7085791015625,-17.32044157603383,21.412727256524562,2.40015033942759
1772732121475607000,2.71860693359375,-15.767253517889976,22.924796537816523,3.579959842965007
1772732121485635000,2.728635009765625,-14.462892921054362,24.296433266067503,4.026708461947739
1772732121495662000,2.738662109375,-13.166599895340203,25.33985393899679,4.23739645447582
1772732121505690000,2.748690185546875,-11.417342152607441,26.153225500845906,4.637811192306876
1772732121515718000,2.7587177734375,-9.059458006501197,27.012458650159836,4.293368224805593
1772732121525746200,2.76874609375,-7.035294358351826,27.608530692386626,3.3040172879770395
1772732121535774000,2.77877392578125,-5.217324898442626,28.215173228466508,2.646225287157297
1772732121545802200,2.78880224609375,-3.227698895189166,28.818086514890194,2.595259070029855
1772732121555830000,2.798830078125,-1.8070482529222964,28.934612122642992,2.493410222405195
1772732121565857800,2.80885791015625,0.728732499961555,28.74345242192745,3.5483670193493366
1772732121575886000,2.818885986328125,4.241404813334346,28.227321931421756,5.285947183769941
1772732121585913900,2.828913818359375,7.620994644168019,27.622021457600592,6.413255515697598
1772732121595942100,2.838942138671875,11.551669959032536,26.291738484001158,7.397425542756914
1772732121605970000,2.848969970703125,15.392003324192762,24.147852477884292,7.442481074535846
1772732121615998000,2.858998046875,17.546992908126114,22.343152833914754,6.329063905316591
1772732121626026000,2.86902587890625,17.859142794787882,20.74011557997465,5.4103714358180754
1772732121636054000,2.879053955078125,16.712481527614592,19.34216367624998,4.703092350512743
1772732121646082000,2.88908203125,15.426791728979348,18.12170535145998,4.322243021634221
1772732121656110000,2.899110107421875,16.23481842266917,16.777847441494465,4.437461930702627
1772732121666137900,2.909137939453125,18.595309536403416,15.555086100459098,4.32581591168493
1772732121676166100,2.919166259765625,20.48516817448139,14.598731132042406,3.7749911244168874
1772732121686194000,2.92919384765625,22.0516774864912,13.536516911315918,3.4149048898428678
1772732121696222000,2.939221923828125,23.349002777862548,12.63483695141673,3.6915175991773603
1772732121706250000,2.94925,24.43389177173376,11.817746661305426,3.6855022844105956
1772732121716278000,2.959278076171875,25.722206073653698,11.289315492153166,3.1446774976313114
1772732121726306000,2.96930615234375,27.040896809136864,10.895043787121772,2.874509434391558
1772732121736334000,2.979333984375,27.374403956604002,10.9435170183897,3.2440815824523566
1772732121746361900,2.98936181640625,26.90179462791681,11.270240204805136,4.037423624968529
1772732121756390100,2.99939013671875,26.828383354747295,11.892593520236014,5.237304441154003
1772732121766418000,3.00941796875,26.807179238677023,13.002751395398377,6.882313289383053
1772732121776446200,3.0194462890625,26.88546074823141,14.212046521139143,8.287742981642484
1772732121786473000,3.029472900390625,26.229907758510112,16.04826124731302,8.920061226248741
1772732121796501000,3.0395009765625,25.119940437483788,18.37211920517683,8.563912038862705
1772732121806529000,3.049529052734375,22.975967922127246,20.52634891065359,7.657268319076299
1772732121816557000,3.05955712890625,20.340262859940527,22.21658280200958,6.717801357096433
1772732121826585000,3.069585205078125,17.78367634265423,23.343978227698802,6.260421161723136
1772732121836612900,3.07961279296875,15.533850420206784,23.97190905100107,6.171094526541233
1772732121846641400,3.089641357421875,13.62854871380329,24.655072516703605,5.613668733572959
1772732121856669400,3.09966943359375,11.772280210638046,25.316344468593595,4.863700845620036
1772732121866697200,3.109697265625,9.905098683792351,25.86490890971422,4.333711048848927
1772732121876725500,3.1197255859375,7.940025522515177,26.51745745692253,4.019250254896283
1772732121886753300,3.129753173828125,7.105512388437986,27.044261317133902,4.043207176806033
1772732121896781600,3.139781494140625,7.902417968654632,28.378327316403386,4.166853137958049
1772732121906809300,3.149809326171875,9.78428853058815,29.766237134063243,3.9381183243468403
1772732121916837400,3.15983740234375,10.79435638449192,29.65660187034607,5.43930819196701
1772732121926865400,3.169865478515625,7.400565594348311,30.858285352039335,12.057023034936188
1772732121936893400,3.1798935546875,-1.6303180595755575,30.899505835700033,15.02914967073202
1772732121946921500,3.18992138671875,-12.309098099863528,29.315007278013226,15.132408969676494
1772732121956949500,3.199949462890625,-21.568072132015228,27.84705537086725,19.019879349064826
1772732121966977300,3.209977294921875,-30.961179909324645,26.86621594953537,16.93797838221788
1772732121977005600,3.220005615234375,-36.78840488433838,25.120202303290366,4.907218500307202
1772732121987033300,3.230033447265625,-36.126501648807526,22.855285194694993,-3.5040257733196016
1772732121997061400,3.240061279296875,-33.2027816087842,19.82003370194435,-2.1108558431744573
1772732122007089400,3.25008935546875,-31.462942851781843,14.580870481181144,2.41020353140831
1772732122017117400,3.260117431640625,-29.613770444357392,9.99009050464034,6.46433513007164
1772732122027145500,3.2701455078125,-26.460389415788647,6.552652880471944,9.536267709487676
1772732122037173200,3.28017333984375,-25.93765850410461,4.481507700917125,13.22578273667097
1772732122047201300,3.290201171875,-28.917480955100057,1.785070229870081,17.12502772500515
1772732122057229300,3.300229248046875,-29.48788781019449,-1.1272051638141274,16.008679763031004
1772732122067257300,3.31025732421875,-25.307583654510974,-2.2376406868740917,11.160862130719423
1772732122077285400,3.320285400390625,-22.82795762730837,-3.1739126522049306,8.594409468457103
1772732122087312400,3.3303125,-23.395385758852957,-4.714264609651267,9.080837479138374
1772732122097340400,3.34034033203125,-22.79706915256977,-6.272361774885654,10.978665488660335
1772732122107368400,3.350368408203125,-21.105827545475957,-7.390829213231801,11.14402673125267
1772732122117396500,3.360396484375,-20.00306621030569,-7.8480749685704705,9.384733332195877
1772732122127424500,3.370424560546875,-20.8693790887475,-7.763596357941627,6.90895112093985
1772732122137452300,3.380452392578125,-22.49025595076084,-7.620782462722063,4.892663612993061
1772732122147480600,3.39048046875,-23.14490877677202,-7.822066082566976,3.59063116684407
1772732122157508400,3.40050830078125,-22.063026563501356,-8.00285168878436,3.249116069488227
1772732122167536400,3.410536376953125,-20.102554174017904,-8.666558758866787,4.500273483924567
1772732122177564400,3.420564453125,-19.09887163723707,-9.117391140031813,6.221015034008026
1772732122187592200,3.43059228515625,-19.563197121703624,-9.058556673747301,7.002456503111124
1772732122197620500,3.440620361328125,-20.22520557117462,-8.556840493041276,7.5018065392076965
1772732122207648300,3.450648193359375,-20.941925269520283,-8.178624435275793,8.309230590829253
1772732122217676300,3.46067626953125,-22.22359472659826,-7.720939119476079,9.526798454874754
1772732122227704300,3.470704345703125,-23.675194049358367,-6.67200231347382,10.098679474174975
1772732122237732400,3.480732421875,-25.63870361458063,-4.826258126932382,9.206139098542929
1772732122247760400,3.490760498046875,-27.78718630083799,-2.5585166085660456,7.8370356881618495
1772732122257788400,3.500788330078125,-28.80438298370838,-0.4178741144150495,7.784762480089068
1772732122267816200,3.510816162109375,-29.869519813883304,2.086891322480142,7.826899494072794
1772732122277844500,3.520844482421875,-31.7957742919445,5.303251369792223,6.834120044100284
1772732122287872300,3.530872314453125,-33.204504779314995,8.943100156530738,5.1404000641942025
1772732122297900500,3.540900634765625,-32.956298080253596,12.522657848435639,4.378507052908837
1772732122307928300,3.55092822265625,-30.818166107618808,15.810342133510112,4.703588901858032
1772732122317956400,3.560956298828125,-28.63170118896961,19.12323334055543,6.259525089666247
1772732122327984400,3.570984375,-27.416938445472717,22.382687556445596,6.670970047816634
1772732122338012400,3.581012451171875,-25.88978849942684,26.062795288336275,5.7038563694983715
1772732122348040400,3.59104052734375,-23.815093518435955,29.250483075654504,6.017762159916758
1772732122358068500,3.601068359375,-20.316510228431223,31.448951735830306,6.524716241276264
1772732122368096300,3.61109619140625,-14.884153170776367,33.41935865935087,7.695845010229945
1772732122378124500,3.62112451171875,-11.689459304088354,34.35857076978683,9.181339003807306
1772732122388152300,3.63115234375,-9.45205680988431,35.0159334392786,9.979484939473867
1772732122398179300,3.641179443359375,-6.639839581015706,35.50749998189211,10.180270546668767
1772732122408207400,3.651207275390625,-3.65311801815629,35.50958789408207,10.224117871701717
1772732122418235400,3.6612353515625,-0.7757824204280972,35.09183477569818,9.553982814398408
1772732122428263400,3.671263427734375,2.4745520849391816,34.67943120164871,8.552684542405604
1772732122438291200,3.681291259765625,5.9428808141946785,34.08268111402988,7.646129669946432
1772732122448319500,3.691319580078125,9.913919119107723,32.725341791200634,7.585963662797212
1772732122458347300,3.70134716796875,14.451273794931172,29.86327945818901,8.02409555234313
1772732122468375600,3.71137548828125,18.05657558442354,27.012327717256543,6.621019729733467
1772732122478403300,3.7214033203125,19.495791226428747,24.812874722218513,4.559711761321127
1772732122488431400,3.731431396484375,18.58602966688275,23.082818523561954,3.194495713767409
1772732122498459400,3.74145947265625,16.181711101859808,21.643613402950763,2.1154349876582623
1772732122508487400,3.7514873046875,14.886298366111516,20.668864699709413,2.014239343245327
1772732122518515500,3.761515380859375,15.298586204826831,19.218614453470707,1.6405512842983005
1772732122528543500,3.77154345703125,17.351313684159518,17.956849135780335,0.19731939238905905
1772732122538571300,3.7815712890625,18.929093747246263,17.44741025186777,-1.3411597569227218
1772732122548599600,3.791599609375,19.00026863966584,16.886552146363258,-1.4344596796497702
1772732122558627300,3.80162744140625,19.550996980822084,16.383327899181843,-0.5861626426309346
1772732122568655600,3.811655517578125,20.378644905304906,16.071981145596503,0.4948670454636216
1772732122578683400,3.821683349609375,21.140349408280848,15.746456229054926,1.981759215401113
1772732122588711400,3.83171142578125,21.78466788728237,15.471405946731567,3.063438015054166
1772732122598739500,3.841739501953125,21.992664156508443,15.29797245684266,3.9840059230357405
1772732122608767200,3.851767333984375,21.717555421996117,15.135322226774692,4.952641111832857
1772732122618795500,3.86179541015625,21.023793405389785,15.314335562622546,5.330826774460077
1772732122628823300,3.8718232421875,20.17024648501873,15.666015495640039,5.488794984191656
1772732122638851300,3.881851318359375,18.843884484255312,16.27594888995886,5.345338114893436
1772732122648879400,3.89187939453125,17.24912289122939,17.12878853884339,5.100639716213942
1772732122658907400,3.901907470703125,15.871342837917803,17.916804710161685,5.018547123938799
1772732122668935400,3.911935302734375,15.738984870260953,18.65906801508665,5.1739855229318135
1772732122678963500,3.92196337890625,15.25190628671646,19.528464831018447,5.476418317699432
1772732122688991200,3.9319912109375,14.176998588633536,20.359647943890092,5.81443446702361
1772732122699018500,3.9420185546875,12.808962515223026,21.117235074675083,6.391424207639694
1772732122709046300,3.95204638671875,11.570048496288061,21.57157458717823,7.0636349021732805
1772732122719074600,3.962074462890625,10.47888992062807,21.98998237007856,7.051306750997901
1772732122729102300,3.972102294921875,8.7672993529886,22.623185580825805,6.26580402380526
1772732122739130600,3.982130615234375,7.371068866229057,23.148074547326562,5.244422748726606
1772732122749158400,3.992158447265625,6.988264311629534,23.292781124424934,4.519217838369309
1772732122759186200,4.002186279296875,7.345650347334146,23.67564997643232,3.643939855444431
1772732122769214500,4.01221435546875,7.878660660970211,24.290239672124386,3.0784689954474564
1772732122779242200,4.0222421875,8.496172966110706,25.8430501291275,4.111397208195925
1772732122789270500,4.0322705078125,8.308197156128287,27.18446006141901,5.361392593115568
1772732122799298300,4.04229833984375,4.757628242820501,26.540330967509746,7.172268295371532
1772732122809326300,4.052326416015625,-0.6668132194042206,26.28370247706175,10.414013836091756
1772732122819354400,4.062354248046875,-5.392420768585801,26.789381716179847,11.714541138374805
1772732122829382400,4.07238232421875,-11.442920830500125,26.40540694875717,10.071028081661462
1772732122839410400,4.082410400390625,-20.270679036104678,25.166566579580305,7.395764331546426
1772732122849438700,4.092438720703125,-25.07614104324579,23.49327680876255,5.349224600937962
1772732122859466800,4.102466796875,-22.86991694663763,21.295956149578092,3.4322578834429383
1772732122869494800,4.112494873046875,-19.609671288108824,20.402149699532984,2.8657243626505133
1772732122879522800,4.122522705078125,-21.58121218409538,19.98134070070982,4.68056779949367
1772732122889550600,4.132550537109375,-28.88019547280073,17.630805163800716,7.0426984971284865
1772732122899579000,4.142578857421875,-33.2375068852067,13.928169958281517,9.459461533182859
1772732122909606700,4.152606689453125,-30.441483835291862,10.184059417557716,11.084003347444535
1772732122919635000,4.162635009765625,-23.0015653047204,6.877206321632862,12.811060948807
1772732122929662700,4.172662841796875,-15.86681863849163,4.96119500516653,13.94196467487812
1772732122939690800,4.182690673828125,-12.950261329704523,3.368979589492082,15.632679043227434
1772732122949718800,4.19271875,-14.732144746232033,1.543055663447082,18.50675096298456
1772732122959746600,4.20274658203125,-19.994735604333876,-0.7534297188445925,19.7585092659235
1772732122969774800,4.21277490234375,-25.435729557430744,-2.406126491227746,18.354823202461002
1772732122979802600,4.222802734375,-28.7626855301857,-3.3129414759278295,15.31681159734726
1772732122989830700,4.23283056640625,-29.48552166558504,-3.784188576351106,13.256671211409568
1772732122999857700,4.242857666015625,-28.36763290390968,-5.0190731936395165,13.119743451619147
1772732123009885700,4.2528857421875,-26.578130829072,-6.51870034198761,13.346000184679031
1772732123019913700,4.262913818359375,-25.688264056563376,-7.553494640868902,12.654741090804338
1772732123029941800,4.272941650390625,-25.606688181638717,-8.45138572987914,11.272117689114808
1772732123039969800,4.2829697265625,-25.20956634787321,-8.895303801611066,9.485700136289
1772732123049997800,4.292997802734375,-24.18668343605995,-8.761930519431829,7.826302697223425
1772732123060025600,4.303025634765625,-22.752371932709217,-8.557377084136009,7.011911729198694
1772732123070054000,4.313053955078125,-22.061184150505063,-8.56231687862575,7.005141796672344
1772732123080081700,4.32308154296875,-22.590915296339986,-8.635939164197444,7.549080331557989
1772732123090110000,4.33310986328125,-24.50075172356367,-8.396270576378702,8.149431074017286
1772732123100137700,4.3431376953125,-27.98864995342493,-7.379583596596121,9.198794580999015
1772732123110165500,4.35316552734375,-31.6898472350955,-5.753717840254306,10.555608418649435
1772732123120193800,4.36319384765625,-34.80048334691524,-3.240284528256953,11.06604917308092
1772732123130221600,4.3732216796875,-37.178926296925546,0.4750964693278074,10.047524456477165
1772732123140249900,4.383249755859375,-38.421968209445474,4.778900747951865,7.419260357946157
1772732123150277600,4.393277587890625,-37.962398395073414,8.87147810486555,4.468439545029401
1772732123160305700,4.4033056640625,-35.71914132962227,12.667802816951275,2.55283856292963
1772732123170333700,4.413333740234375,-33.49288683689832,16.03399657511711,2.012879014677554
1772732123180361700,4.42336181640625,-30.784860050344466,19.2558169336617,2.924428188292682
1772732123190389800,4.4333896484375,-27.163732915210723,22.212212916362283,4.924184832677245
1772732123200417800,4.443417724609375,-22.74675350830555,24.773882436001298,7.21072749762535
1772732123210445600,4.453445556640625,-17.480564333450793,27.31398075982332,8.057091813015937
1772732123220473900,4.463473876953125,-15.638939272665976,29.17150949218273,7.365884157067537
1772732123230501600,4.473501708984375,-14.48674842841625,30.769346839392185,6.7506982490479945
1772732123240529700,4.48352978515625,-11.660492737323045,32.1164804100275,7.04245007532537
1772732123250557700,4.4935576171875,-8.657154970705509,33.14063757956028,6.855375013574958
1772732123260585700,4.503585693359375,-5.162454075092077,33.89740170352459,7.041234854316711
1772732123270613800,4.51361376953125,-3.4591455981075763,34.15596846855879,7.019682947722077
1772732123280641800,4.523641845703125,-3.226131792002916,33.98761915006637,6.958585797202587
1772732123290669600,4.533669677734375,-2.580352592799067,34.05146998320818,6.078225104185939
1772732123300697900,4.54369775390625,-0.9237190654888748,34.08415878536701,5.412859160980582
1772732123310725600,4.5537255859375,3.030651013217866,33.958145218300814,5.566532888388633
1772732123320752600,4.563752685546875,7.292673959428072,33.5832749638319,5.614913180676102
1772732123330780700,4.57378076171875,10.675158342659472,32.26215729346275,4.52023402967453
1772732123340808700,4.58380859375,13.010164302003384,30.114394738173484,2.6281355037152765
1772732123350836700,4.593836669921875,14.137632208406924,28.347141904544827,1.2470426725938915
1772732123360864500,4.603864501953125,13.381371942311524,26.656173853695392,0.24782018396183847
1772732123370892800,4.613892822265625,11.44979597696662,25.02207276844978,-0.09531535420268773
1772732123380920600,4.623920654296875,10.767843640619516,23.507494719207287,-0.4064320984244346
1772732123390948900,4.633948974609375,11.653612914681434,22.02983974869251,-0.5764020038560033
1772732123400976600,4.6439765625,14.242895248389242,20.30912888600826,-0.12607333442941307
1772732123411004700,4.654004638671875,18.001157064062355,18.633585198783873,0.5492214437246322
1772732123421032700,4.66403271484375,20.918023000407217,16.932278124749658,0.8321814762592316
1772732123431060700,4.674060791015625,22.894714703285693,15.516515839046239,1.1395255700744689
1772732123441088800,4.6840888671875,24.042025958800313,14.138233096909522,1.7226514753580093
1772732123451116800,4.69411669921875,24.753103851866722,12.9080787230134,1.9865784522511063
1772732123461144600,4.70414453125,25.598804150390624,12.07760872684717,1.6230726184919475
1772732123471172900,4.7141728515625,26.814357167482374,11.691226898282766,1.6963643569350242
1772732123481200600,4.72420068359375,27.608642920589446,11.330723022818566,2.806483653652668
1772732123491229000,4.73422900390625,27.032575555515287,11.047876387530565,4.391111975198984
1772732123501256700,4.744256591796875,26.09009012249708,11.176464188998937,5.813918334195018
1772732123511284700,4.75428466796875,24.33468671661615,11.564120275282859,7.090237662416696
1772732123521312800,4.764312744140625,22.542963458597658,12.055469375753402,8.708935426825285
1772732123531340500,4.774340576171875,20.41197200536728,12.878763781201839,9.706130939674377
1772732123541368800,4.784368896484375,18.190643863129615,14.049077142119407,9.839142402803898
1772732123551396600,4.794396728515625,16.311238814526796,15.369357777142524,9.368113036784528
1772732123561424600,4.804424560546875,14.951034165394306,16.55854885700941,8.81368408754468
1772732123571452700,4.81445263671875,14.030370103561877,17.696524128901956,8.007491039022803
1772732123581480700,4.824480712890625,13.269804249227047,18.70552347679138,6.959934289202094
1772732123591508700,4.8345087890625,11.951737783122063,19.50290485782623,6.174566002044081
1772732123601536800,4.844536865234375,10.563248119747637,20.128684640574455,5.404662410521507
1772732123611564500,4.854564453125,9.618095513346791,20.58621564259529,4.351418262714147
1772732123621592800,4.8645927734375,9.360541140225529,21.199474966466425,3.666306877814233
1772732123631619600,4.87461962890625,9.41553763578236,22.10402726693153,3.8043835153788326
1772732123641647900,4.88464794921875,8.82821062554717,22.97275538982153,4.739932427132129
1772732123651675600,4.894675537109375,7.211861470091343,23.268525804090498,5.073567584893107
1772732123661704000,4.904703857421875,5.904723225235939,23.53911735343933,4.332916099078953
1772732123671731700,4.914731689453125,6.602156039309501,24.72382164328098,3.757675540217757
1772732123681759500,4.924759521484375,8.207287050658463,25.698502541983125,2.9631039559066292
1772732123691787800,4.934787841796875,10.00295700047612,26.87326060734987,3.143666859284043
1772732123701815600,4.944815673828125,12.53990825844407,29.062989496231076,6.21736937098205
1772732123711843800,4.95484375,4.763555879303813,31.1557391893506,11.255062509417533
1772732123721871600,4.96487158203125,-15.459112282347679,29.82092266397476,20.67817964054346
1772732123731899600,4.974899658203125,-31.51169665355682,26.978479223668575,24.478359859013555
1772732123741927700,4.984927734375,-36.8197679908514,24.054707745718954,16.480338659125565
1772732123751955700,4.994955810546875,-34.18546344311237,20.785963138914106,7.180873042109608
1772732123761983700,5.004983642578125,-30.32585605316162,17.769658338695763,4.5361198733314865
1772732123772011800,5.01501171875,-25.447854879510402,14.602534031456708,7.055110234934091
1772732123782039600,5.02503955078125,-22.232825496280192,11.226451331961155,10.936156718754768
1772732123792067800,5.03506787109375,-21.466865673947332,7.672435493069886,13.721746052938698
1772732123802095600,5.045095703125,-20.726066011834142,4.548146995733678,16.348838769602775
1772732123812123600,5.05512353515625,-20.191202763807773,1.6069921290457247,16.981414203840494
1772732123822151700,5.065151611328125,-18.57618982539177,-0.4521205212794244,15.107113200378418
1772732123832179700,5.0751796875,-15.846722775924205,-1.6908857793934642,12.884838132679462
1772732123842207700,5.085207763671875,-13.689052574604748,-2.5291017135113476,12.881940073150396
1772732123852235300,5.0952353515625,-13.71814189096689,-3.9804473537713285,14.277545706009864
1772732123862263600,5.105263671875,-12.77115330131054,-5.243939933645725,14.111190776205062
1772732123872291300,5.115291259765625,-11.474103904271125,-5.800109589073061,13.784199878764152
1772732123882319400,5.1253193359375,-12.150414435338973,-6.456845066577196,14.205350238370894
1772732123892347400,5.135347412109375,-14.483893623507022,-7.076327795007824,14.001888689965009
1772732123902375200,5.145375244140625,-17.12931110141277,-7.42680828910768,13.0346756429255
1772732123912403500,5.155403564453125,-20.11452050614357,-7.759963554397225,12.029227850037813
1772732123922431200,5.16543115234375,-23.155949226224422,-7.876678547242284,10.796860476267337
1772732123932459300,5.175459228515625,-25.3327859003067,-7.560123119097947,9.491289919120073
1772732123942486300,5.185486328125,-25.928006878662107,-7.09043639985919,8.036527163892984
1772732123952514300,5.195514404296875,-25.762231794571875,-6.775839704567193,6.730275054222345
1772732123962542300,5.205542236328125,-25.179285775899885,-6.508961622783541,6.092075934883952
1772732123972570400,5.2155703125,-24.64331427437067,-6.278387611046433,5.911954930055141
1772732123982598400,5.225598388671875,-23.576650673019884,-5.8740410867244,5.471918668192624
1772732123992626400,5.23562646484375,-21.61821709588766,-5.481666155225038,5.154663567346335
1772732124002654200,5.245654296875,-20.177676927280427,-5.058873289108276,5.119741891568899
1772732124012682500,5.2556826171875,-19.455246450072526,-4.470799844419956,4.9951124723374845
1772732124022710300,5.265710205078125,-18.84485829772353,-3.740907068507373,5.41426201351583
1772732124032738600,5.275738525390625,-18.825249926412106,-2.8946564426243304,6.850866596239805
1772732124042766300,5.285766357421875,-18.82734835999608,-2.113620631712675,8.48717717422843
1772732124052794400,5.29579443359375,-18.275362127733228,-1.0465459653429687,10.503445685213803
1772732124062822400,5.305822509765625,-19.104055177354812,0.3465326332569122,10.681361288952827
1772732124072850200,5.31585009765625,-20.451345399856567,2.3659105084344745,9.468570722311735
1772732124082878500,5.32587841796875,-22.430496770846844,4.492625891780853,7.943823161232471
1772732124092906200,5.33590625,-25.770859337663648,6.68421882096827,5.983758768028021
1772732124102934300,5.345934326171875,-28.777214406275746,8.824744410741328,5.508893184846639
1772732124112962300,5.35596240234375,-28.2692368270874,10.908049399167298,6.495674855709075
1772732124122990300,5.365990234375,-25.423922215259072,13.112717498505114,7.32477473256588
1772732124133018400,5.376018310546875,-22.02801370230913,14.886298366111516,8.426934010189772
1772732124143046400,5.38604638671875,-19.184527474951743,16.572211471658942,9.407900272771716
1772732124153074200,5.39607421875,-16.0554263166368,18.46694034612179,9.911260713553428
1772732124163102500,5.4061025390625,-12.674999450457095,20.16841810054779,9.631443655219673
1772732124173130200,5.416130126953125,-10.464744490897655,21.66389397443533,9.375785471108555
1772732124183158300,5.426158203125,-7.6038868575006715,23.234745115041733,8.932785098743437
1772732124193186300,5.436186279296875,-4.962571554216742,24.208338803029058,7.9011513097196815
1772732124203214300,5.44621435546875,-3.5070874989777803,24.935304001057148,7.430178057801723
1772732124213242400,5.456242431640625,-3.073421941190958,25.539998910200595,6.818920136880874
1772732124223270400,5.4662705078125,-2.0508347974538803,25.93092948811054,6.723902596580982
1772732124233298200,5.476298095703125,-0.11543313634097575,25.593503705894946,7.274509357184171
1772732124243326500,5.486326416015625,2.2757424539923665,25.514534798598287,7.8451658031255
1772732124253354200,5.496354248046875,4.953163674402236,25.237338151895997,7.324605221217871
1772732124263381200,5.50638134765625,7.283543727511167,24.823391440057755,7.385335876512527
1772732124273409300,5.5164091796875,9.992155035954713,24.33789691083431,7.992711403042078
1772732124283437300,5.526437255859375,11.82473169788718,23.858266305208204,7.856549366927147
1772732124293465300,5.53646533203125,12.619350628471373,23.144649249053,7.080346382999419
1772732124303493400,5.546493408203125,13.272185591405629,22.483592401218413,5.806838020545244
1772732124313521400,5.556521484375,14.024294583040476,21.700919929015637,4.6271436678200955
1772732124323549200,5.566549072265625,14.978193390476703,21.09135478348732,3.3690023858457803
1772732124333577500,5.576577392578125,14.783482134759426,20.33579711270332,1.8339651936814187
1772732124343605200,5.586605224609375,14.128105670648813,19.422242006093263,0.5531321874275803
1772732124353633300,5.59663330078125,14.43178817321658,18.338292923420667,0.020850772587954997
1772732124363661300,5.606661376953125,15.015537324964999,17.3030438665092,0.00867138223350048
1772732124373689300,5.616689453125,16.43465242822766,16.393334913933277,-0.24946926634311675
1772732124383717400,5.62671728515625,18.183165490072966,15.716598850929737,-1.327358026063442
1772732124393745400,5.636745361328125,20.007665228533742,14.999315673482418,-2.2998773628175257
1772732124403773200,5.646773193359375,21.061932289648055,14.256889871472119,-3.642283612670004
1772732124413801500,5.656801513671875,21.78698259396553,13.7906354647696,-5.617586783799529
1772732124423829200,5.666829345703125,23.19668806384802,13.22977385213375,-7.1112710980951785
1772732124433857500,5.676857421875,24.45400166282654,12.757276751649378,-7.613228101819753
1772732124443885300,5.68688525390625,26.039645883417126,12.552268558323382,-6.656870795315504
1772732124453913300,5.696913330078125,27.095820823979377,12.4886375054121,-4.561492799519002
1772732124463941400,5.70694140625,27.58621598472595,12.481244472551346,-1.4632789468988776
1772732124473969200,5.71696923828125,27.300284242904183,12.723489048337935,1.2894611338675022
1772732124483997400,5.72699755859375,26.267670210671422,13.167563187414407,3.9072164056047796
1772732124494025200,5.737025146484375,25.037249294793604,13.82400231232047,5.913724277815223
1772732124504053200,5.74705322265625,23.225806606304644,14.726032985353468,6.846834564244746
1772732124514081300,5.757081298828125,21.239954276371,15.790281342256069,6.999874669924378
1772732124524109300,5.767109375,19.49007343330383,16.681252861136198,6.9696198169142
1772732124534137300,5.777137451171875,18.255411226594447,17.398071928203105,7.146017417305708
1772732124544165400,5.787165283203125,17.314347350811957,18.016458678090572,7.503548998960852
1772732124554193200,5.797193115234375,16.152586714184284,18.369666551327704,7.988808550384641
1772732124564221400,5.807221435546875,14.561749601125717,18.414439759033918,8.312818386188148
1772732124574249200,5.817249267578125,12.610334962844847,18.48289545562267,8.078537921148538
1772732124584277500,5.827277587890625,10.38688734423518,18.635273298001287,7.843772887462377
1772732124594305300,5.83730517578125,8.04403242495656,18.493496344614027,7.3496712734133
1772732124604333300,5.847333251953125,5.878313941738009,18.946209717220068,6.480828584232926
1772732124614361300,5.857361328125,5.33865352256298,19.876196903192994,5.960200197786093
1772732124624389400,5.867389404296875,6.96044457681179,20.45435919471979,6.687465840065479
1772732124634417400,5.87741748046875,8.727546019271015,20.698612187719345,9.386469946730136
1772732124644445400,5.887445556640625,8.36158680101037,22.053744355893134,14.753775563281774
1772732124654473200,5.89747314453125,3.803050805470347,24.23428222258091,20.40110925056934
1772732124664501500,5.90750146484375,-8.023556038638949,23.804111521172523,22.53117482112646
1772732124674529300,5.917529296875,-22.867950615000723,23.455114543628692,19.66730514643192
1772732124684557300,5.927557373046875,-31.625570870018002,21.048291886830327,9.675338911047577
1772732124694585300,5.93758544921875,-31.69441352009773,17.686082229864596,-0.24493264582678675
1772732124704613400,5.94761328125,-23.985696753335,15.626567282348871,-4.008498851518333
1772732124714641400,5.957641357421875,-14.06848794503212,13.946899208670853,-2.9074428589612245
1772732124724669400,5.96766943359375,-6.895674875259399,11.87352174001932,0.7208091596163809
1772732124734697200,5.977697265625,-4.668036234700679,10.512731399953365,6.98362788400054
1772732124744724200,5.98772412109375,-9.501965626913309,9.473400042164325,12.66206631912589
1772732124754752500,5.99775244140625,-18.013989657628535,10.082664743441343,13.408091606932878
1772732124764780300,6.0077802734375,-26.175593984520432,10.838501815688609,10.062588754618167
1772732124774808300,6.017808349609375,-30.076534086334703,10.515620107132197,4.655293949766457
1772732124784836400,6.02783642578125,-30.047422558140752,9.793501764613389,0.3990685839191079
1772732124794864400,6.037864501953125,-29.40483660202026,7.994420545047521,0.31826427788883443
1772732124804892400,6.047892333984375,-28.666496608018875,5.210296022719144,2.7618314419776198
1772732124814920400,6.05792041015625,-28.655545005893707,2.6884818358674645,4.130013061338663
1772732124824948200,6.0679482421875,-28.568523725044727,0.7141606615126133,3.860028245711326
1772732124834976500,6.0779765625,-28.417069427251814,-0.6565335251912474,2.8379642490655184
1772732124845004300,6.08800439453125,-28.300931942033767,-1.675584896017611,1.8694982793554662
1772732124855032800,6.09803271484375,-27.29415143923759,-2.7851205476284027,1.008990872322023
1772732124865060900,6.108060791015625,-25.096798046827313,-3.7964723038628696,0.49995618529617786
1772732124875089000,6.1180888671875,-22.568991049301623,-4.682997949250042,0.48502574266791343
1772732124885117000,6.128116943359375,-20.14663180067539,-5.565263306844234,0.9032578767403959
1772732124895145000,6.13814501953125,-18.730912769591807,-6.156995274040103,1.1852800439029931
1772732124905172700,6.1481728515625,-18.24975539278984,-6.396975996547937,1.449568401454389
1772732124915201000,6.158200927734375,-17.825496545773742,-6.45616643666327,2.099344561339915
1772732124925228800,6.168228759765625,-17.532091107070446,-6.089063309064507,2.588039347909391
1772732124935256800,6.1782568359375,-18.540625175535677,-5.470442165899277,2.846075659328699
1772732124945284900,6.188284912109375,-20.441857440543174,-4.301726595567167,2.789565836599469
1772732124955312600,6.198312744140625,-22.603711649549005,-3.0628505705550313,2.719801687760651
1772732124965341000,6.2083408203125,-23.462848937273023,-1.6259242085307835,2.3908228313729167
1772732124975368700,6.21836865234375,-23.08798569706678,-0.18175649707615374,2.8360201292604206
1772732124985396700,6.228396728515625,-22.779589609980583,1.0904777537889778,4.339885938091576
1772732124995424800,6.2384248046875,-23.75808860566616,2.5491195424064994,5.7709314253836865
1772732125005452800,6.248452880859375,-26.08143686044216,4.518467604523897,6.076325992566347
1772732125015480800,6.258480712890625,-28.24298010380268,6.970258114817738,5.771567385199666
1772732125025508900,6.2685087890625,-28.10287955919504,9.227558903190493,5.478693276894092
1772732125035536600,6.27853662109375,-25.957438724851606,11.47170970261097,5.385929068478942
1772732125045565000,6.28856494140625,-25.06959205999374,13.859241968005895,5.392299772554636
1772732125055592700,6.2985927734375,-25.607663164150715,16.228389850926398,5.0704573439180844
1772732125065621000,6.30862109375,-25.26195119962692,18.349245694589612,5.580175044772028
1772732125075647700,6.318647705078125,-24.531462503647802,20.79017637269497,6.184572432273626
1772732125085676000,6.328676025390625,-23.762615143179893,23.38186226041317,6.4227417214453215
1772732125095703800,6.338703857421875,-21.496362986588476,25.895341457378862,6.409794561588764
1772732125105731800,6.34873193359375,-17.962792554354667,27.852157077920435,5.855399514618516
1772732125115759900,6.358759765625,-13.154812426912784,29.13859623361826,6.012199265092611
1772732125125787600,6.36878759765625,-7.927993723937869,29.586674347639082,6.459402934366464
1772732125135816000,6.37881591796875,-5.533723674720526,29.70555207147598,6.737865070959925
1772732125145843700,6.38884375,-4.011127738717198,29.570775352239608,7.219945407825708
1772732125155871700,6.398871826171875,-1.567024860316515,29.020906258261203,7.874911537569761
1772732125165899800,6.408899658203125,1.6586866604477166,28.156791182124614,8.464510584390164
1772732125175927800,6.418927734375,6.368951094546913,27.318427802360056,9.185866125842928
1772732125185955800,6.428955810546875,12.23179040377736,26.305383562994002,10.417481219941378
1772732125195984000,6.43898388671875,16.66702092216611,24.915229181277752,10.329939714610576
1772732125206011600,6.44901171875,19.222303955638406,23.914139583599567,9.708508190199732
1772732125216040000,6.4590400390625,17.1242596632421,23.364976592063904,7.9632626057177776
1772732125226067700,6.469067626953125,12.265993117630481,23.25767006355524,4.180922579842806
1772732125236096000,6.479095947265625,8.247795002135634,22.49493446396589,-0.25551468398720023
1772732125246123800,6.489123779296875,6.491928654918074,21.120585554146764,-4.13127708992511
1772732125256151800,6.49915185546875,7.151511338546872,19.262909522271155,-6.647129153501987
1772732125266179800,6.509179931640625,11.08955162922144,17.293953382080794,-6.097317342668771
1772732125276207900,6.519207763671875,17.360584201329946,15.839098272395134,-3.567165243321657
1772732125286236000,6.52923583984375,24.681457834804057,15.105476539087295,-0.7843737231627106
1772732125296264000,6.539263916015625,29.858467673993108,15.052811116826533,-0.6728712042689323
1772732125306291700,6.549291748046875,31.929449771940707,14.789148489958047,-2.7993080629348754
1772732125316320000,6.559320068359375,31.275587219524382,14.254951596885919,-5.437739335215092
1772732125326347800,6.56934765625,29.567887814104555,13.582590095704793,-6.939530383598804
1772732125336376000,6.5793759765625,28.14648489216566,12.90201723101735,-6.102585053938627
1772732125346403800,6.58940380859375,27.177691297936438,12.104479198116064,-2.915873710437119
1772732125356431600,6.599431640625,26.3451474181056,11.239348222935199,1.3642542167842386
1772732125366460000,6.6094599609375,25.68090843310356,10.216213966709375,5.882355326083302
1772732125376487700,6.61948779296875,24.34013212254047,9.27126068227291,9.439931487804651
1772732125386516000,6.629515869140625,21.92075393555164,8.425880701744555,11.486769324576853
1772732125396543700,6.639543701171875,19.877054981327056,7.838163230887055,12.863701821148394
1772732125406571000,6.649571044921875,18.30042642636299,7.920878338974714,13.151565992337465
1772732125416598800,6.659598876953125,16.04268373944163,8.811975530061126,12.450533692467213
1772732125426626800,6.669626708984375,14.285593403387068,9.517893263885378,11.317533870899677
1772732125436654800,6.67965478515625,13.806160366159677,10.06262382593155,11.112912631064653
1772732125446683000,6.689682861328125,13.856473672336339,11.048633927899598,11.001701496332883
1772732125456711000,6.6997109375,13.516103068840502,11.982345687353611,10.183832623064518
1772732125466739000,6.709739013671875,13.638126689487695,12.653650372958182,9.205766758099198
1772732125476766700,6.7197666015625,14.370494038820265,13.374147251754998,8.762569401857256
1772732125486795000,6.729794921875,14.106299497032165,14.336742575865983,8.119383141756057
1772732125496822800,6.73982275390625,12.750327955424785,15.134999570691585,6.834136995235085
1772732125506851000,6.74985107421875,11.177964072167873,16.10638025880456,5.028287012186646
1772732125516878800,6.75987890625,9.285160028287768,16.944805597889424,3.5542905641794205
1772732125526906600,6.76990673828125,7.109510518163442,17.44008385450244,2.1174499807424843
1772732125536935000,6.779934814453125,5.6515071735799305,18.022713062310217,0.9596355244573205
1772732125546962700,6.789962646484375,6.759221747243404,19.311381584495305,1.0281285573817789
1772732125556991000,6.799990966796875,8.61433348158896,21.24579715718031,2.171350497756153
1772732125567018800,6.810018798828125,8.408425709074734,22.58986549502611,4.440613380470872
1772732125577046800,6.820046875,6.275186769178509,24.395273579525945,6.9235033779054875
1772732125587074800,6.83007470703125,2.1940262938141823,26.87258957622051,9.567290624260902
1772732125597102800,6.840102783203125,-7.629834368705749,26.293174069762227,10.940170046049357
1772732125607131000,6.850130859375,-19.72138978784084,23.620068958985804,9.329684229668974
1772732125617159000,6.860158935546875,-25.658911705350874,20.148682303464412,4.116143818201125
1772732125627186700,6.870186767578125,-22.810279347276687,17.79200811766982,-1.548503407458961
1772732125637215000,6.880215087890625,-14.002834446382522,15.991746163886784,-3.72287865986377
1772732125647242800,6.89024267578125,-4.077721733087301,14.00632404206395,-1.479145501333475
1772732125657270800,6.900270751953125,0.3657674950808286,12.552618102413415,4.358945735609531
1772732125667298800,6.910298828125,-5.7031724788874385,12.52282735978365,9.962524452322722
1772732125677326800,6.920326904296875,-19.192911856937407,12.604089930975437,14.096011911773681
1772732125687355000,6.93035498046875,-33.23778511762619,10.65054529492855,17.750690603375435
1772732125697383000,6.9403828125,-39.59000427308082,6.377371132367849,17.476570879900454
1772732125707410700,6.95041064453125,-33.390848019659515,3.258561066442728,13.343518304735422
1772732125717439000,6.96043896484375,-23.32218257547617,1.3705430877953766,9.637781041547656
1772732125727466800,6.970466796875,-17.867737604653833,-0.3621867139846086,8.65083219742477
1772732125737495000,6.9804951171875,-17.047169409298895,-1.9486790758371353,9.429268639492989
1772732125747522800,6.990522705078125,-18.631021485775708,-3.241087076811492,9.87749989824891
1772732125757549800,7.0005498046875,-20.83314574584961,-3.7745176616862413,9.668877021557092
1772732125767577900,7.010577880859375,-23.24464925394058,-4.366021665345132,9.556336684048174
1772732125777606000,7.02060595703125,-25.120403378820416,-5.216023168194294,9.800231949651241
1772732125787634000,7.030634033203125,-25.89730077475309,-5.134271936702728,7.663430348837375
1772732125797661700,7.04066162109375,-26.29147661819458,-4.523498584428429,4.714182192064821
1772732125807690000,7.05068994140625,-26.328937457060814,-4.457472160813212,2.9708403953775764
1772732125817717800,7.0607177734375,-25.754228520858288,-4.579221640694141,2.594594176380336
1772732125827745800,7.070745849609375,-24.693903474879264,-4.486359232601523,2.8927836344897746
1772732125837773800,7.08077392578125,-25.1816028206706,-4.036903985008597,3.8612709392488003
1772732125847801900,7.0908017578125,-27.382397877967357,-3.56003582983315,5.573187085580826
1772732125857829600,7.10082958984375,-28.962220260536668,-3.023092852923274,7.066697796875238
1772732125867857400,7.110857421875,-28.66110965428352,-2.2362442640796303,8.59445272307694
1772732125877885700,7.1208857421875,-28.2808384175539,-1.1989803602144122,11.101565892142057
1772732125887913500,7.13091357421875,-29.044062677443026,0.09854366859942675,13.46372055517435
1772732125897941200,7.140941162109375,-29.697261212992668,2.124075390231609,13.713802400457858
1772732125907969500,7.150969482421875,-28.85941455057859,4.2035616971522565,11.923110239052772
1772732125917997300,7.160997314453125,-26.453008073365687,6.398143286761641,9.120638743650913
1772732125928025600,7.171025634765625,-22.679390867650508,8.488293611037731,6.500774224674701
1772732125938053400,7.181053466796875,-19.62952165148258,10.425146640002726,5.50801406392455
1772732125948081400,7.191081298828125,-19.876409669160843,12.27149697574377,6.866986540913581
1772732125958109400,7.201109375,-21.677917823612688,14.279327328729629,9.596376433491706
1772732125968137500,7.211137451171875,-23.05443647868633,17.078284678530693,10.483746128487587
1772732125978165500,7.22116552734375,-24.058217215144634,20.1338167427659,8.59163591209054
1772732125988193500,7.231193603515625,-22.23260337796211,23.82035655353069,6.587211568155884
1772732125998221300,7.24122119140625,-17.912347146230935,27.179617882084845,6.448150887989997
1772732126008249600,7.25124951171875,-14.966301877152919,29.360667789947986,7.243129884058237
1772732126018277400,7.26127734375,-11.378992840468882,31.321832253348827,9.219882961735129
1772732126028305400,7.271305419921875,-9.161327312391997,32.49336609597206,9.372442590421437
1772732126038333400,7.28133349609375,-8.043624428677559,33.656227971839904,10.731327389127015
1772732126048361500,7.291361572265625,-6.544757743307947,34.33836735519171,12.017490650492906
1772732126058389500,7.301389404296875,-4.1524908506065605,35.208891129326815,11.31308799740672
1772732126068417500,7.31141748046875,-0.9106213912457227,35.66505668821335,10.830366440027952
1772732126078445300,7.3214453125,1.7506693630963563,35.21285652582645,10.357297677135467
1772732126088473600,7.3314736328125,4.588780911678075,34.62305991060734,9.832474177086352
1772732126098501400,7.34150146484375,6.549339810401201,33.31946153031588,9.416654072591662
1772732126108528400,7.3515283203125,7.624971146583556,31.77728001935482,9.469805232542752
1772732126118556400,7.361556396484375,9.713150463047622,30.279402929544446,9.615350014030932
1772732126128584400,7.37158447265625,12.424950338399409,28.706945522785187,9.493023026522993
1772732126138612500,7.381612548828125,14.392426469165086,26.683606635022162,8.861684440603852
1772732126148640500,7.391640625,16.877621820932625,24.61630936306715,7.714316486465931
1772732126158668500,7.40166845703125,18.525171585816143,22.631387591981888,6.112029174110293
1772732126168696300,7.4116962890625,18.215524621886015,20.67623668978214,3.7511505223631856
1772732126178724600,7.421724609375,17.667566914486883,18.727015177631376,1.467662568810582
1772732126188752400,7.43175244140625,18.334101901471612,16.424125188994406,0.2757669061601162
1772732126198780400,7.441780517578125,19.529938995224235,13.815855246222018,0.3005859978571534
1772732126208808400,7.451808349609375,20.84841813378334,11.610643541526795,1.0235238400653004
1772732126218836500,7.46183642578125,22.867057465553284,9.79355378706157,1.7156255222439765
1772732126228864500,7.471864501953125,24.665088883805275,8.450824588865041,2.2817440324947236
1772732126238892500,7.481892578125,26.19888133660555,7.861293346583842,2.5153929216325284
1772732126248920300,7.49192041015625,26.918572744238375,7.894609340730309,2.4905258991405366
1772732126258948600,7.501948486328125,26.561913853764533,8.650672038426995,2.4682506467074155
1772732126268976400,7.511976318359375,24.453349336397647,9.650806527337432,2.492284140984714
1772732126279004700,7.522004638671875,21.18810952284336,10.51258994565606,2.6399250179693103
1772732126289032400,7.532032470703125,17.952817103785275,11.342302401453257,3.1434441564440725
1772732126299060500,7.542060546875,15.382627593082189,12.07578268046379,3.8556542684108015
1772732126309088500,7.552088623046875,13.77976452666521,12.789384539049863,4.542636707879603
1772732126319116300,7.5621162109375,12.960073114144802,13.413161749804019,5.257139606958628
1772732126329144600,7.57214453125,13.057044126600026,13.961283123332262,5.9664569200932975
1772732126339172400,7.58217236328125,14.245890338551998,14.865845945191383,6.66530661522746
1772732126349200400,7.592200439453125,15.38574192571044,15.975853013706207,7.087083582299948
1772732126359228400,7.602228515625,15.941801106500625,16.950120070910454,6.918644247436523
1772732126369256400,7.61225634765625,15.912068816059827,18.176783680081368,6.267303322452307
1772732126379284500,7.622284423828125,15.394026938974857,19.38512720418572,5.981980067917704
1772732126389312500,7.6323125,14.726353303349017,20.518488260281085,5.7404316577017305
1772732126399340300,7.64234033203125,14.141881682544946,21.35174525681734,5.67047607794404
1772732126409368600,7.65236865234375,15.2405291526556,22.238191407227514,6.609943624445796
1772732126419396400,7.662396240234375,16.932785489749907,23.17971588625908,8.6362477917552
1772732126429423600,7.672423583984375,16.549044531083105,23.801062654995917,10.801325054460763
1772732126439451400,7.682451416015625,14.86928293390274,23.828352812981603,13.502459158891439
1772732126449479700,7.692479736328125,12.644653412032127,23.923985270309448,14.964011720389127
1772732126459507500,7.702507568359375,10.157197129595279,24.27263854898214,14.10843534001708
1772732126469535200,7.71253515625,8.319795239463447,24.74262220534086,11.606637228494883
1772732126479563500,7.7225634765625,7.575994057446718,25.55623225212097,8.781345998519658
1772732126489591300,7.73259130859375,7.708495817488432,24.90945176692009,6.968484090882539
1772732126499619600,7.74261962890625,6.5409028214454645,23.97819616844654,7.480040697601437
1772732126509647400,7.7526474609375,3.888400938236713,24.966954692339897,9.338839011505245
1772732126519675400,7.76267529296875,-2.3535732971698042,26.643466347813604,14.267054707133768
1772732126529703400,7.772703369140625,-15.51690396158099,24.8308756583333,22.25929030935764
1772732126539731500,7.7827314453125,-29.351979456579684,21.04668562067747,30.036524732029438
1772732126549759500,7.792759521484375,-37.65203831443787,16.101811635714768,25.65313662908077
1772732126559787500,7.80278759765625,-35.65274899530411,14.051519274574517,14.006740221649407
1772732126569815300,7.812815185546875,-28.302963740122316,13.885317489504814,5.126217225062847
1772732126579843600,7.822843505859375,-23.015914148068426,11.785286991727352,2.1608356796130535
1772732126589871400,7.832871337890625,-21.4651331510663,9.480586154276132,6.329851840823888
1772732126599899600,7.842899658203125,-24.47320203785896,6.817720697963237,13.1836141585052
1772732126609927400,7.852927490234375,-27.42642172861099,4.004721671067178,13.723077593803405
1772732126619955500,7.86295556640625,-27.35962256705761,3.0029870534837246,11.423830345582962
1772732126629983500,7.8729833984375,-25.726575959300995,2.2506221873916683,11.92962181290388
1772732126640011500,7.883011474609375,-25.93115394451618,-0.23423063454851506,16.900784085333346
1772732126650039600,7.89303955078125,-25.558088693642613,-3.3144591870144007,18.006794193166492
1772732126660067600,7.903067626953125,-24.002320555877684,-4.223349516683816,14.394319151043891
1772732126670095400,7.913095458984375,-24.98952658963203,-4.545854793143272,10.16948611780405
1772732126680123600,7.92312353515625,-26.878673280048368,-4.960190212038159,7.270833883541822
1772732126690151400,7.9331513671875,-27.47780587888956,-5.240457352226972,5.12596938778162
1772732126700179500,7.943179443359375,-26.672428238403796,-5.679721460673212,4.069456593567133
1772732126710207500,7.95320751953125,-24.94212654055357,-6.38919250306487,5.039364286518096
1772732126720235300,7.9632353515625,-22.65554938881397,-7.198868717527389,6.370780063539743
1772732126730263600,7.973263671875,-19.537005864870547,-7.76452340965867,6.062693188533187
1772732126740291300,7.983291259765625,-15.499147355616092,-8.155547511070965,5.458991382080316
1772732126750319400,7.9933193359375,-12.436430348312854,-8.43145002630949,5.4795437562435865
1772732126760347400,8.003347412109376,-11.338857229435444,-8.35105137847066,6.465644459104538
1772732126770375400,8.01337548828125,-12.779874367904663,-8.175230701184272,8.137920668965577
1772732126780402400,8.02340234375,-16.876985861116648,-7.518758843052387,9.268063347536325
1772732126790430500,8.033430419921874,-21.836379369819163,-6.729542063772678,9.091672761407494
1772732126800458500,8.04345849609375,-25.79789698219299,-5.986614157459139,8.472099432083963
1772732126810486500,8.053486572265625,-26.63396435997486,-4.944487615993618,7.902507985025644
1772732126820514600,8.0635146484375,-25.739295155620574,-4.212506927891075,8.079743789806962
1772732126830542600,8.07354248046875,-25.49476393020153,-3.8529599147602913,8.676185834389925
1772732126840570400,8.0835703125,-27.43239320423603,-2.8500638521820303,10.28690721309185
1772732126850597600,8.09359765625,-32.2585613147974,-0.8339264202304184,12.27187106975317
1772732126860625700,8.103625732421875,-36.45916942284107,2.286938532397896,12.556284223705529
1772732126870653700,8.11365380859375,-36.6323352017045,7.066338315913081,9.459075748735666
1772732126880681700,8.123681640625,-34.70909218041896,12.623425915086269,6.215811620146035
1772732126890709800,8.133709716796876,-32.67107477896214,17.37316077430844,4.568600001175701
1772732126900737800,8.14373779296875,-29.761135427010057,21.42526408201456,7.3685565911471835
1772732126910765600,8.153765625,-26.574499779093262,24.71901687334776,11.730573404765128
1772732126920793900,8.1637939453125,-22.24913365700245,28.137392069649696,14.52237269950509
1772732126930821600,8.173821533203125,-16.452738704538344,30.9544041315794,15.71397902382016
1772732126940849700,8.183849609375,-11.329622952622174,32.84937266001701,16.4181011063993
1772732126950877700,8.193877685546875,-7.46673873295784,33.45671896045208,17.88345189113617
1772732126960905700,8.20390576171875,-4.294430301079154,33.61461936564445,19.243775782734154
1772732126970933800,8.213933837890625,-2.2478964156895875,33.464182135939595,19.530324779671428
1772732126980961800,8.2239619140625,-1.01717447103858,33.257233329939844,20.024702872574327
1772732126990989600,8.233989501953126,0.24290683908760546,32.778341559982294,20.59462340545654
1772732127001017900,8.244017822265626,3.094128629133105,32.353352060604095,20.519453890442847
1772732127011045600,8.254045654296876,6.377262995818257,32.27305745766163,19.577016388219594
1772732127021074000,8.264073974609374,10.003505282008648,31.44799311993122,17.298146742117403
1772732127031101700,8.274101806640624,14.225008878564834,30.442914744877815,13.463256444793938
1772732127041129700,8.284129638671875,16.140981616586444,28.88168483457565,9.639448097977041
1772732127051157800,8.29415771484375,14.968113895010948,27.11011589131355,8.091389803937076
1772732127061185500,8.304185546875,13.757125993877649,25.37573189258575,6.976043127959966
1772732127071213800,8.3142138671875,13.339177645182609,23.957588264703748,5.404926029893756
1772732127081241600,8.32424169921875,11.61747777146101,22.56334456784725,3.149154350784421
1772732127091269600,8.33426953125,9.64109118900895,21.140407860469818,1.3399895440995693
1772732127101297700,8.344297607421876,8.859099100285768,19.684929650449753,1.275425301991403
1772732127111325700,8.35432568359375,9.453982224988938,17.83137800502777,1.9827555329620836
1772732127121353700,8.364353759765624,10.875285778206587,16.10690165233016,2.406928162999451
1772732127131380700,8.374380615234376,12.223227158093453,14.779004697084426,2.852054733738303
1772732127141408800,8.38440869140625,13.641158020007609,13.20314069675207,4.036580744403601
1772732127151436800,8.394436767578124,14.898146624815464,11.766201182985306,4.900736152550578
1772732127161464600,8.404464599609375,15.335485902678966,10.647314057922364,5.148115168616175
1772732127171492900,8.414492919921875,16.294936499023436,9.300880159989,5.543844671240449
1772732127181520600,8.424520751953125,17.181178066772222,8.137865139386058,5.978952829051018
1772732127191549000,8.434548828125,17.60979393995404,7.082261276710033,6.608601562187075
1772732127201576700,8.44457666015625,18.29494361103773,6.057385729774833,7.8231030243992805
1772732127211604700,8.454604736328125,19.505550403898955,5.714215850949287,8.802977984613179
1772732127221632800,8.4646328125,20.462652391290664,6.201469206538796,8.785399073302745
1772732127231660500,8.47466064453125,21.724041276884076,7.336601363959908,7.814061055287718
1772732127241688800,8.484688720703126,23.239159424352646,8.824931457746029,7.2155112247705455
1772732127251716600,8.494716552734374,23.80122632112503,10.9020416831851,6.998658279871941
1772732127261744600,8.50474462890625,22.971637783968447,13.357051155525445,7.177599135005473
1772732127271772700,8.514772705078125,20.949898148095606,15.58214128064513,7.408816120821237
1772732127281800700,8.52480078125,18.458081332361697,17.74307194506526,7.364795192787051
1772732127291828700,8.534828857421875,15.720157420194148,19.43257986023426,7.075805816960334
1772732127301856800,8.544856689453125,12.888491394490003,20.707024626755715,6.718263713911175
1772732127311884500,8.554884521484375,10.422376006245612,21.754361596345902,6.420202558356523
1772732127321912800,8.564912841796875,9.05309256312251,22.401427328228948,6.663633713579178
1772732127331940600,8.574940673828126,9.230593156319856,23.177686426258084,6.9922606877893205
1772732127341969000,8.584968994140626,9.915001653647423,23.97034720851183,7.508330972540378
1772732127351996700,8.59499658203125,10.566755251085757,24.73448799872398,7.910390847229957
1772732127362024700,8.605024658203124,11.427269672381877,26.09873870837688,7.888336251810193
1772732127372052700,8.615052734375,10.379102681708336,28.51413513225317,6.277239025533199
1772732127382080800,8.625080810546875,8.376746960741281,30.98004827592373,3.5602237536206838
1772732127392108800,8.63510888671875,6.381800054726004,31.75612500312328,2.212981169652939
1772732127402136800,8.64513671875,3.840463129019737,32.483658356428144,7.2619836376100775
1772732127412164600,8.65516455078125,-2.7278315572202203,32.872398146295545,14.40209913739562
1772732127422193000,8.66519287109375,-12.244070039635895,31.448547246682644,21.943929059433934
1772732127432220700,8.675220703125,-24.15115853369236,28.824754740607737,28.040298307597634
1772732127442248700,8.685248779296876,-38.092751452648635,26.343929274487493,22.035334254455567
1772732127452276700,8.69527685546875,-45.02258812522888,23.408198478674887,9.087294107931852
1772732127462304800,8.7053046875,-43.52588007919788,18.536651595729587,-2.4520173047870397
1772732127472332800,8.715332763671874,-37.9193705697298,14.002571411532163,-4.312981272292137
1772732127482359600,8.725359619140624,-31.29910838036537,8.862521475949883,1.6911571436807513
1772732127492387800,8.735387939453124,-25.447144100892544,3.7450168419137593,9.087842389464377
1772732127502415600,8.74541552734375,-24.37788288426399,-0.5378507394045591,16.62040763955116
1772732127512444000,8.75544384765625,-27.27041985051632,-3.7443610083535313,20.09983731627464
1772732127522471700,8.7654716796875,-28.04773108794689,-5.186249961221217,19.832703798425197
1772732127532499700,8.775499755859375,-25.841165630555153,-6.535581334161758,17.932307399719953
1772732127542527700,8.78552783203125,-23.005670986473557,-7.05904757438302,13.626340390104055
1772732127552555800,8.7955556640625,-21.374300787496566,-6.948363678395748,9.814975929796695
1772732127562583800,8.805583740234376,-20.786007562577723,-7.042328494772315,8.269183242601155
1772732127572611800,8.81561181640625,-20.853166789615152,-7.571931045791506,8.346426641279459
1772732127582639600,8.8256396484375,-20.101885480976105,-7.795514760249852,8.265940315157174
1772732127592668000,8.83566796875,-19.095397239124775,-7.4004112805694335,7.383144503948092
1772732127602695700,8.84569580078125,-17.567480400359628,-6.843811417031287,5.876086913338304
1772732127612723700,8.8557236328125,-15.62414502363801,-6.203387022858858,4.464673762755096
1772732127622751700,8.865751708984375,-13.66866445109248,-5.891512446007132,3.7631113015308975
1772732127632779500,8.875779541015625,-11.436053867340087,-5.678640679699182,3.8764176549762484
1772732127642807800,8.885807861328125,-9.729299633815884,-5.486797088372707,4.310122667990624
1772732127652835600,8.895835693359375,-8.23547503426671,-5.058860429626703,4.146859858982265
1772732127662863600,8.905863525390625,-7.507230317822098,-4.5532530867010355,3.617809681148827
1772732127672891600,8.9158916015625,-7.526919353154301,-3.9601811030730603,3.0973896767556663
1772732127682919700,8.925919677734376,-7.971435975301265,-3.3360581476211544,2.9036250542387365
1772732127692947700,8.93594775390625,-8.532229783397913,-2.6758319053918123,3.185903826510906
1772732127702975700,8.945975830078124,-8.855749789857864,-1.8635504768669604,2.5242618722647427
1772732127713003500,8.95600341796875,-8.74618700685501,-0.8789582788728177,1.5379675465278326
1772732127723031800,8.96603173828125,-7.894110159036517,0.053139323382824656,0.8987858458928764
1772732127733059600,8.9760595703125,-6.730037153813242,0.9672823128834366,0.43071196867823597
1772732127743087900,8.986087890625,-5.556744484823942,1.9809917381599544,0.5616377115748822
1772732127753115600,8.99611572265625,-4.737185758772492,2.6602675487741827,1.1376273352377115
1772732127763143700,9.006143798828125,-4.16317824883759,3.1545763758331535,1.3420014684438704
1772732127773171700,9.016171630859375,-3.1498651294022797,3.676775372597575,0.7056361404038966
1772732127783199700,9.02619970703125,-1.8421628209233283,4.491990808747708,-0.5545943689346313
1772732127793227800,9.036227783203126,-0.8933879323720931,5.28622775427699,-1.5712009769573807
1772732127803254500,9.046254638671876,-0.03403904772400856,5.798337318703532,-1.7292070344813166
1772732127813282800,9.05628271484375,0.721637865525484,6.142385149407386,-1.3234409987501798
1772732127823310600,9.066310546875,1.450049755230546,6.198771053496003,-0.552636512865126
1772732127833338600,9.076338623046874,2.365322187152505,6.0908490234374995,0.22510668624192476
1772732127843366700,9.08636669921875,2.9490795222073793,6.015158114898204,1.2141980953514575
1772732127853395500,9.0963955078125,2.94913388274312,5.987572188836336,1.2949804818108677
1772732127863423500,9.106423583984375,3.504901971632242,5.955088553860783,0.38990284229740496
1772732127873451500,9.116451416015625,4.681863684523106,6.056945584791898,-0.4755294539175927
1772732127883479600,9.1264794921875,4.8292836122334,5.781915176212787,-1.2978804410360754
1772732127893507600,9.136507568359375,4.489653013449907,5.538906045794486,-1.363162622155249
1772732127903535600,9.14653564453125,5.303645337545872,5.4464639089405535,-0.7629590330816804
1772732127913563400,9.1565634765625,5.61189529415965,4.940111885127425,-0.272988381357491
1772732127923591700,9.166591796875,5.466468001571298,4.5875610144943,0.05754559551775455
1772732127933619500,9.176619384765624,5.482186964228749,4.212355536721646,0.2172261621251702
1772732127943647700,9.186647705078125,5.201490200451016,3.734500416335463,0.5098934958122671
1772732127953675500,9.196675537109375,4.826402503839135,3.3406384611487385,0.8702125892940908
1772732127963703300,9.206703369140625,4.931880647876858,3.031746407239139,1.1240417313471436
1772732127973731600,9.216731689453125,5.214181339719891,2.9527713624626397,0.2965036239143461
1772732127983759400,9.22675927734375,5.535480162999034,2.885065315197408,-0.48721397342719136
1772732127993787600,9.23678759765625,5.003632463401556,2.6494322665050625,-0.47268465894572437
1772732128003815400,9.2468154296875,3.873227334502339,2.2602798041835426,-0.41016609732098874
1772732128013843500,9.256843505859376,2.7487773146152494,2.0846824142590163,-0.2920705368377268
1772732128023871500,9.26687158203125,1.6670833173930644,1.733039890642464,0.05678476721309125
1772732128033899500,9.2768994140625,1.1706669966608285,1.4595155027121305,0.24275201385207473
1772732128043927600,9.286927490234374,1.516033508747816,1.1704708895668388,0.3092925244692713
1772732128053955600,9.29695556640625,2.6398160046368835,0.8806196362137794,1.045961370388046
1772732128063983400,9.3069833984375,3.2173844219237564,0.5582943924963474,1.4443345924541353
1772732128074011600,9.31701171875,3.1136656887739895,0.2753954424992204,1.322910106743872
1772732128084039400,9.327039306640625,3.062645111110806,0.211653914950788,0.9703306676033884
1772732128094066700,9.337066650390625,2.5734049656182525,0.10635901852548121,0.5964401448868215
1772732128104094500,9.347094482421875,1.6232336542725563,-0.11631371856778859,0.34000334108602254
1772732128114122500,9.35712255859375,1.2571721446812152,-0.19141075286716222,0.24698859197590498
1772732128124150500,9.367150634765625,1.5064052641808985,-0.3117281541183591,0.35597017755731936
1772732128134178300,9.37717822265625,2.1557576456964016,-0.40363194631189103,0.7664344541072845
1772732128144206600,9.38720654296875,2.4825743556141853,-0.5049599849328399,1.1088514687389135
1772732128154234400,9.397234375,2.5745208179056642,-0.6356120254546404,1.4531823541678488
1772732128164262700,9.4072626953125,2.7548423137426377,-0.6155845519483089,1.5588023908942936
1772732128174290400,9.41729052734375,2.6844331449985503,-0.6208680453091859,1.571117244196683
1772732128184318500,9.427318359375,2.6485738961100576,-0.5442997694134711,1.32886769997403
1772732128194346500,9.437346435546875,2.395654781574011,-0.3526414715260267,0.8171988650523125
1772732128204374500,9.44737451171875,1.7856477374970912,-0.2091162131667137,0.46054037643726914
1772732128214402600,9.457402587890625,1.3448083425581454,-0.18918518577218055,0.3448682071760297
1772732128224430600,9.4674306640625,1.357653211084008,-0.16791911038160323,0.3891292641090229
1772732128234458400,9.477458251953125,1.8356945016920565,-0.03446107252836227,0.616221900003776
1772732128244486700,9.487486572265626,2.1784487854540346,0.07430325357317924,1.0619080773867666
1772732128254514400,9.497514404296876,1.9660399604827163,0.14285130462050438,1.0267647216826676
1772732128264541400,9.50754150390625,1.9998066210061312,0.3022352263689041,0.832726104529947
1772732128274569500,9.517569580078124,1.9218805007606743,0.2941267387151718,0.7392721602849662
1772732128284597500,9.527597412109374,1.7352923457443714,0.2127408334046602,0.5820642674013972
1772732128294625500,9.53762548828125,1.928027917474508,0.18519874648451803,0.2732858299341053
1772732128304655600,9.547655517578125,2.2481904302000997,0.15029402184188365,0.0659332289064303
1772732128314683400,9.557683349609375,2.3296716125786303,0.026346739655733108,-0.0937981180401519
1772732128324711700,9.567711669921875,2.4415514403522014,-0.11860650568008423,-0.2599350211801007
1772732128334739500,9.577739501953126,2.559158998122811,-0.399400300091505,-0.40357546688430007
1772732128344767500,9.587767578125,2.242699431568384,-0.8605582604378461,-0.3463705745629966
1772732128354795500,9.59779541015625,1.7477426619946956,-1.4995733723342417,-0.3217386029358953
1772732128364823600,9.607823486328124,1.3133470363676547,-2.326775891137123,-0.32369865096248684
1772732128374851600,9.6178515625,-0.21962767030894756,-3.4515637646764517,-0.4218765549894422
1772732128384879600,9.627879638671875,-2.523283967143297,-4.823333179396391,-0.6962255571756512
1772732128394907400,9.637907470703125,-4.764261397224664,-6.2474891994357105,-0.2925241988893598
1772732128404934400,9.647934326171875,-6.841130799645185,-7.412416775661707,1.1678555194366722
1772732128414962400,9.65796240234375,-10.414627584075927,-8.523529759591817,3.8804169537454842
1772732128424990500,9.667990478515625,-15.318632967555523,-9.158974027264117,6.739378398132324
1772732128435018500,9.6780185546875,-20.536426068031787,-9.687656540828943,8.81901784978807
1772732128445046500,9.688046630859375,-25.90816352955103,-9.59267874801755,9.4607287766397
1772732128455074600,9.698074462890625,-30.52451400067806,-8.824323554980754,8.983121785795689
1772732128465102300,9.708102294921876,-33.32312531352043,-7.228830140548944,7.337574008384347
1772732128475130600,9.718130615234376,-33.50343161178827,-4.548514952263236,6.794307089149951
1772732128485158400,9.728158447265624,-32.3858210825324,-1.7571406049370764,7.27537094244957
1772732128495186700,9.738186767578124,-30.634857704925537,1.4080103564023971,7.553812620776891
1772732128505214500,9.74821435546875,-28.26414447238445,5.009599847373366,7.660579635581374
1772732128515242500,9.758242431640625,-26.47454185978174,8.539407127681374,7.020513553327322
1772732128525270500,9.7682705078125,-24.415678069651126,12.182809807509184,5.870403022482991
1772732128535298600,9.778298583984375,-21.185532950353622,15.97226638739109,4.933427292796969
1772732128545326600,9.78832666015625,-18.303161988806725,19.278541975688935,4.419051537004113
1772732128555354600,9.798354736328125,-15.961515860795974,21.9865968192935,3.92281641805768
1772732128565382400,9.80838232421875,-12.302760713535546,24.171261410522458,3.5664708313167095
1772732128575410700,9.81841064453125,-8.37508808761835,25.606173802375793,3.7297102594494818
1772732128585438500,9.8284384765625,-4.457495833949745,26.093994728720187,4.41624057123661
1772732128595466500,9.838466552734374,-0.18181947930976747,26.10711841418743,5.111871888846158
1772732128605494500,9.84849462890625,2.2439548384569585,25.562531060004233,5.288455951720476
1772732128615522600,9.8585224609375,3.452472696214914,24.64922729780674,5.692671543139219
1772732128625550600,9.868550537109375,5.110168592059612,23.607917917943,6.320015506464243
1772732128635578400,9.878578369140625,6.932859819793701,22.677606906843184,6.713446084496378
1772732128645606400,9.8886064453125,9.157192404544354,21.611810735976693,6.685445732414722
1772732128655634400,9.898634521484375,11.666733093017339,20.45262900992632,6.0458116118371485
1772732128665662500,9.908662353515625,13.751234013229608,19.153821371042728,4.577648984549939
1772732128675690500,9.9186904296875,15.281471403896807,17.77624590039253,3.2742350209146736
1772732128685718500,9.928718505859376,17.246649194592237,16.13437067401409,2.360744796234369
1772732128695746300,9.938746337890626,19.16400491140485,14.533568631780147,1.9088892095014451
1772732128705774600,9.948774658203124,19.75609635956287,13.075172488486766,0.963456617115438
1772732128715801600,9.958801513671874,19.969996299874783,11.912017182630299,-0.7685232430800795
1772732128725829600,9.96882958984375,20.122484032368657,11.085476342606544,-1.7457076490357517
1772732128735857400,9.978857421875,20.592203484833238,10.164234773147106,-2.1272247941732405
1772732128745885700,9.9888857421875,21.813938405430317,9.549802313843369,-1.769125934024155
1772732128755913500,9.99891357421875,23.27157700835466,9.152336196684837,-0.9809724000617861
1772732128765941500,10.00894140625,24.232446823847294,9.373273196026682,0.00048632221221923825
1772732128775969500,10.018969482421875,23.773068732655048,9.879218392604589,0.5869403490051627
1772732128785997300,10.028997314453125,22.234798842179774,10.783345161134005,2.0183435636937617
1772732128796025600,10.039025634765625,19.990805279147622,11.621651257753372,3.6080353061094876
1772732128806053400,10.049053466796876,17.198067242252826,12.687950117444991,4.559064403328299
1772732128816081400,10.059081298828126,14.89916135481596,14.094683878040312,4.532575917114317
1772732128826109400,10.069109375,13.798856180626153,15.380567737942933,4.0626965979129075
1772732128836137500,10.079137451171874,13.6859721442461,16.699944702124593,3.7390231544569135
1772732128846165500,10.08916552734375,13.854305096125602,18.005747898983955,3.7422003231883045
1772732128856193500,10.099193603515625,14.777154100781678,19.298419227069616,3.93586148533076
1772732128866221600,10.1092216796875,15.758991885501146,20.854282057380676,4.409420662088692
1772732128876249600,10.11924951171875,16.26366925410032,22.806683368611335,5.046676655358076
1772732128886277600,10.129277587890625,16.336936734884976,24.785413883841038,5.554394706827402
1772732128896305700,10.1393056640625,15.527752687853575,26.63010183932781,5.634880448427796
1772732128906333700,10.149333740234376,13.928100984698533,28.281493082070348,5.506490215358138
1772732128916361500,10.159361572265626,12.324343599790334,29.639921953701972,5.318238511043787
1772732128926389800,10.1693896484375,11.431225716531277,30.74585607368946,5.5776545863837
1772732128936417500,10.17941748046875,10.993336988091468,31.45133190896511,6.328705008876323
1772732128946445800,10.18944580078125,11.149487334746121,32.145757942438124,7.119170911434292
1772732128956473600,10.1994736328125,11.598667857050895,33.00007643170357,8.111108649885654
1772732128966501400,10.20950146484375,10.841399875217675,34.078329933083054,9.910748672378062
1772732128976529700,10.21952978515625,9.099396633657813,35.26212938303947,11.505562872374057
1772732128986557400,10.229557373046875,7.667484008142352,35.979251232445236,13.031046931034325
1772732128996585700,10.239585693359375,3.9310406410455703,35.79284252564907,14.528670338344574
1772732129006613500,10.249613525390625,-5.458260145196318,35.18054181767702,16.79874293000698
1772732129016641500,10.2596416015625,-16.346133602297304,32.3934385717988,16.195372547465563
1772732129026669600,10.269669677734376,-25.51067227795124,29.891025543248652,15.549903729385136
1772732129036697600,10.279697509765626,-35.77675180706978,26.29574128990173,14.713250660669802
1772732129046725600,10.2897255859375,-46.31453113903999,22.53536935020685,14.675242709314823
1772732129056753700,10.299753662109374,-54.14342560632228,16.802543491333722,13.016804470670223
1772732129066780700,10.30978076171875,-46.842270234274864,11.308970625215768,14.515392339098453
1772732129076808700,10.31980859375,-27.010387104582787,4.816196751645207,18.392308591246604
1772732129086836500,10.32983642578125,-10.32312535842061,-1.712510020571947,24.450307484483716
1772732129096864800,10.33986474609375,-5.575666042914986,-5.239339746373892,29.600637406539914
1772732129106892500,10.349892578125,-18.356802393579482,-6.159574769139289,26.996024232709406
1772732129116920600,10.359920654296875,-31.776335431981085,-4.026173624418676,19.675680176067353
1772732129126948600,10.369948486328125,-33.845547597646714,-3.05551394405663,11.29632274056673
1772732129136976400,10.379976318359375,-25.325575238275526,-3.2502553026512264,6.082540629297495
1772732129147004700,10.390004638671876,-16.537316683888434,-3.7026422197818754,4.141531649696827
1772732129157032400,10.400032470703126,-12.28652854065895,-3.8616324660375714,4.540467547146975
1772732129167060700,10.410060791015624,-10.912110657256841,-4.5604351071596145,5.614845960658788
1772732129177088500,10.420088623046874,-11.29410506451726,-5.214328054714202,6.607382249525189
1772732129187116500,10.430116455078124,-11.509784289461374,-5.789703345870971,7.888463093060254
1772732129197144600,10.44014453125,-11.822912665766477,-6.5803229776859276,9.056994831258057
1772732129207172600,10.450172607421875,-12.479391538161039,-6.838369518238306,8.57055863727033
1772732129217200600,10.46020068359375,-12.536112373292445,-6.756643421187997,6.920824514085054
1772732129227228700,10.470228759765625,-12.45894613150358,-6.730846716630459,5.5305801159977905
1772732129237256400,10.48025634765625,-12.466811458051204,-6.7433239208877085,4.694338258431851
1772732129247284700,10.49028466796875,-11.827945399236679,-6.781200939339399,4.809590192987025
1772732129257312500,10.5003125,-10.79849713755846,-6.938265478229522,5.738459480845928
1772732129267340500,10.510340576171876,-9.82343513058424,-7.04192575919032,6.692046153593063
1772732129277368600,10.52036865234375,-9.307000688695908,-7.186677928996086,7.697360090968012
1772732129287396600,10.530396728515624,-9.682313426235318,-6.937533072301745,7.840196782541274
1772732129297424600,10.540424560546874,-10.768120703995228,-6.0865703232049935,7.219470776051282
1772732129307452700,10.55045263671875,-13.272704646843671,-4.8892742628157135,6.405536904144287
1772732129317480400,10.56048046875,-17.098567588102817,-3.729224521759152,6.045522858023643
1772732129327508700,10.5705087890625,-20.483124685955048,-3.0178865164518354,6.328418593150377
1772732129337536500,10.58053662109375,-22.101165447759627,-2.3036885916687546,6.588405161854625
1772732129347564800,10.590564697265625,-22.497864087677,-1.2497978165209294,6.701306149369477
1772732129357592600,10.600592529296875,-23.39627657021284,-0.2696221745937131,6.364740783375502
1772732129367619600,10.61061962890625,-24.561448476588726,0.6242731775775552,6.751356420695782
1772732129377647600,10.620647705078126,-23.46244678621292,1.654340740197897,7.162749940919876
1772732129387675600,10.630675537109376,-20.6299121609807,2.835123472681641,7.340713475453853
1772732129397703700,10.64070361328125,-19.149742577296493,3.7963866714060304,7.413008311814069
1772732129407731500,10.6507314453125,-18.56618748681545,4.871715809771418,8.089802827006578
1772732129417759700,10.660759765625,-18.18998335339427,6.521987693095207,8.186227311494946
1772732129427787500,10.67078759765625,-18.805198487508296,8.615216109642386,7.557039181607961
1772732129437815600,10.680815673828125,-20.397938803839683,10.726818387269972,6.32559710598886
1772732129447843600,10.690843505859375,-20.476648183417318,13.61581198182702,6.019763562867045
1772732129457871600,10.70087158203125,-20.381990708601474,16.130819119012354,5.5287476398736235
1772732129467899600,10.710899658203125,-19.63179661067724,17.970142332595586,4.812716800574958
1772732129477927700,10.720927734375,-16.006444551324844,19.941625945436954,4.887730832765996
1772732129487955500,10.73095556640625,-13.466913213735818,21.291144365382195,4.63907259054482
1772732129497983700,10.740983642578126,-10.970136145246029,22.207541417419908,4.0962399710744615
1772732129508011500,10.751011474609374,-7.237585109412669,22.71540209223032,3.345136357089877
1772732129518039800,10.761039794921874,-4.1753947563320395,22.786758186435698,2.9507290429800745
1772732129528067600,10.771067626953124,-3.773571028485894,22.243005529510974,2.597209911836684
1772732129538095400,10.781095458984375,-4.301208416911959,21.75354326570034,2.7347224857777355
1772732129548123600,10.79112353515625,-4.040772350874543,21.435065345060824,2.925478574128449
1772732129558151400,10.8011513671875,-3.8932735127091407,21.376900740861892,3.1724466713055968
1772732129568179700,10.8111796875,-3.2251556404471398,21.047585784387586,3.119942577086389
1772732129578207500,10.82120751953125,-1.501931918159127,20.767779831969737,2.93724499976784
1772732129588235500,10.831235595703125,0.03722234480208717,20.32063695297241,2.542237966199219
1772732129598263600,10.841263671875,0.6519032350420951,19.89250740200281,1.9990246768482027
1772732129608291600,10.85129150390625,0.2598223180532455,19.676767386782167,1.79593079271093
1772732129618319600,10.861319580078124,0.158648593211174,19.912584559869764,1.9093810846716164
1772732129628347600,10.87134765625,2.3522492089591918,20.022633665084836,2.0266151329547166
1772732129638375400,10.88137548828125,5.1970419888705015,20.16662946356535,1.8255539236888287
1772732129648403700,10.89140380859375,6.713485247462987,20.382175417518614,0.2808531964484602
1772732129658431500,10.901431396484375,7.941993607717752,20.4931761243701,-1.7369529724329709
1772732129668459800,10.911459716796875,8.882780420124531,19.84164932142496,-2.2538576621815563
1772732129678486500,10.921486572265625,8.596123871159554,19.116687864434716,-2.024900145730376
1772732129688514600,10.9315146484375,8.727391120970248,18.575322394907474,-1.5311792015619574
1772732129698542600,10.94154248046875,9.765027949801087,17.82216594004631,-0.8118671486355364
1772732129708570400,10.9515703125,10.824674365866183,17.11349627716541,-0.762186733534932
1772732129718598700,10.9615986328125,11.988726328301428,16.64435900850296,-1.3651643173664807
1772732129728626400,10.97162646484375,13.08378132687807,16.07933560001254,-1.979989283119142
1772732129738654700,10.98165478515625,13.96979259300232,15.439231523835659,-1.9445913681320846
1772732129748682500,10.9916826171875,14.516763627451658,14.892130725526808,-1.6893179455548524
1772732129758710500,11.00171044921875,13.768362842684983,14.47339561036825,-1.5309712578997015
1772732129768738600,11.011738525390625,12.424619499009847,13.957989927005768,-1.0459351399682462
1772732129778766600,11.0217666015625,12.530688010156155,13.569755164051054,-0.20164397758990524
1772732129788794600,11.031794677734375,13.030995493108033,13.533685487282275,0.2569933782376349
1772732129798822700,11.04182275390625,12.978525301158427,13.5341998665452,0.5778090941749513
1772732129808850400,11.051850341796875,12.984364674836396,13.744482785403727,0.31440541050359605
1772732129818878700,11.061878662109375,13.18066816818118,14.15679517403841,0.10023395977392792
1772732129828906500,11.071906494140626,13.552335242694616,14.568614226198196,0.21108196028172968
1772732129838934800,11.081934814453126,13.778320757597685,15.342949078166484,0.23793621106818316
1772732129848962600,11.091962646484374,13.35495506002903,16.02512119474411,0.48175388139039277
1772732129858990300,11.101990234375,12.734259448677301,16.60088577747941,0.9116618402093648
1772732129869018600,11.1120185546875,12.282498846751452,17.25693561080694,1.6181332623936235
1772732129879046400,11.12204638671875,12.00228255996704,17.817448848396538,2.4977584807425735
1772732129889074700,11.13207470703125,11.592203044950962,18.52406216326952,2.985578238043189
1772732129899102500,11.1421025390625,10.78581301255226,19.37037737882137,3.0150089151889086
1772732129909130500,11.152130615234375,10.22847606691122,20.135151790761945,2.7105110045850274
1772732129919158500,11.162158447265625,10.516971521741151,20.925030248820782,2.2327261729560792
1772732129929186600,11.1721865234375,10.638028343182802,22.081548893141747,1.7638919788934289
1772732129939214600,11.182214599609376,9.394609414044021,23.579561592030522,1.561022258900851
1772732129949242400,11.192242431640626,7.36533821362257,25.130178922903536,1.6500215618245302
1772732129959270400,11.2022705078125,5.638455968827009,26.13684485940933,2.0465191262118516
1772732129969297400,11.21229736328125,4.851089785850048,26.265799740624427,3.2031074747681614
1772732129979325400,11.222325439453124,4.557878408414125,26.794541875422,5.547319069352746
1772732129989353500,11.232353515625,2.1071055507302283,28.06302451866865,8.762688059800864
1772732129999381500,11.242381591796875,-4.200909721338749,29.271130726885794,12.137530403846501
1772732130009409500,11.252409423828125,-15.081469056034088,29.740882912576197,12.867847250390051
1772732130019437600,11.2624375,-28.26599389964342,29.096751480579375,10.850387483793497
1772732130029465300,11.27246533203125,-38.79252235428095,26.193587906372546,5.9608653836965555
1772732130039493600,11.28249365234375,-42.401966065883634,21.330260570240018,-0.8495632575623691
1772732130049521400,11.292521484375,-37.05068687050343,16.971860778075456,-5.210418772315979
1772732130059549700,11.3025498046875,-27.378967903518674,13.081493508201836,-3.1165748542189595
1772732130069577500,11.312577392578126,-21.603620415258405,8.794474944683909,2.0465558049604295
1772732130079605500,11.32260546875,-21.117602154421807,5.119307591804862,7.271758597171306
1772732130089633500,11.332633544921874,-23.87707388153076,2.3384466013170777,10.568196682065725
1772732130099661300,11.342661376953124,-27.524375906884668,0.4398485938033089,11.464054803943633
1772732130109689600,11.352689697265625,-29.265290184164044,-0.7231445437613874,11.509205612790584
1772732130119717400,11.36271728515625,-27.901892876470086,-1.7890467322856187,9.4058947781682
1772732130129745400,11.372745361328125,-24.58497197551727,-2.168021937855333,6.031008010458946
1772732130139773400,11.3827734375,-20.902741260123253,-2.320379175837338,4.282954967340827
1772732130149801500,11.392801513671875,-18.23193916559219,-2.6761893405273556,3.9295071478679775
1772732130159829500,11.40282958984375,-16.788905426603556,-3.25548005156219,4.076564087484777
1772732130169857500,11.412857421875,-15.551957739305495,-3.668646134416759,4.408111040794849
1772732130179885300,11.42288525390625,-14.50663152501583,-3.9618177643641825,4.345791947264969
1772732130189913600,11.43291357421875,-13.381235164189338,-3.9129870979607104,3.8229239651978015
1772732130199941400,11.44294140625,-11.673342866545916,-3.6663504246950147,3.2797353718966242
1772732130209969400,11.452969482421874,-9.44237537382543,-3.4240438895881176,2.4252903336420655
1772732130219997400,11.46299755859375,-7.109187277558446,-3.2602529650524255,1.673766448418796
1772732130230025500,11.473025390625,-4.770426349595189,-2.97200827011317,1.3918627930693328
1772732130240053500,11.483053466796875,-3.1003882740497586,-2.7435072652578354,1.24378644727692
1772732130250081500,11.49308154296875,-2.2474930955857038,-2.51285317402184,1.1514639912799
1772732130260109300,11.503109375,-1.704779718580842,-2.236923478515446,1.2026852791469544
1772732130270137600,11.5131376953125,-1.4104384603321551,-2.015910783588886,1.0328399499431251
1772732130280164600,11.52316455078125,-1.4084773893922566,-1.810467705976963,0.5876830571312457
1772732130290192400,11.5331923828125,-0.9158078539729118,-1.520957959537953,0.5356221035696566
1772732130300220400,11.543220458984376,-0.4462625890314579,-1.2548643061302602,0.7036029540758579
1772732130310248400,11.55324853515625,-0.7404588858515023,-0.983861399501562,0.7370685858260839
1772732130320276500,11.5632763671875,-1.2852291953861712,-0.8626547943256795,1.0775356354337184
1772732130330304500,11.573304443359374,-2.022518803551793,-0.8553989779785275,1.6569835097916423
1772732130340332500,11.58333251953125,-2.7776275615245103,-0.8162973131027073,1.756736700311303
1772732130350360300,11.5933603515625,-3.207354610818624,-0.5211681193467229,1.2451672341108322
1772732130360388600,11.603388671875,-3.1064515196114777,-0.1510314053388778,0.6430731551155447
1772732130370416400,11.61341650390625,-2.7928870899766682,0.02949229853930883,0.42662418790794904
1772732130380444400,11.6234443359375,-2.984129208278656,-0.03343026817589998,0.3162292649298906
1772732130390472400,11.633472412109375,-3.244004717823863,-0.034772768826037644,0.7414187438596039
1772732130400500500,11.64350048828125,-3.5557378403782844,-0.05914897559378296,1.344328157825768
1772732130410528500,11.653528564453126,-4.485442702278495,-0.24109960700254887,1.2421700981214643
1772732130420556500,11.663556640625,-5.36894286236465,-0.07847929714880883,0.8263228864241391
1772732130430584300,11.673584228515624,-5.716719358202814,0.2946121476119384,0.1709042271396145
1772732130440612600,11.683612548828124,-5.503755237436295,0.5046753227725624,-0.4382911717608571
1772732130450640400,11.693640380859375,-4.600803357905149,0.6067066873572766,-0.5774736151428893
1772732130460668700,11.703668701171875,-3.8168916992962356,0.4182845218468457,-0.11713234147429466
1772732130470696400,11.713696533203125,-3.4432045171320436,0.35985724812373515,0.33683658415079115
1772732130480724500,11.723724365234375,-3.235371329513192,0.45656434894576664,0.22744130320195108
1772732130490752500,11.73375244140625,-3.1295354580789803,0.7087608482956886,0.11918605913370847
1772732130500780500,11.743780517578125,-3.069246116811037,0.885194250652939,0.29580413387548177
1772732130510808600,11.75380859375,-2.9800398931384087,0.7616957351475954,0.4348025259274989
1772732130520836400,11.76383642578125,-2.123516587305069,0.8950773467637598,0.5590961738659068
1772732130530864400,11.773864501953126,-1.2176356685847043,0.9937617390081286,0.2935162421340123
1772732130540892400,11.783892333984374,-0.5096341142237186,1.1539698366209863,0.15118107034210115
1772732130550919400,11.79391943359375,0.4087918132930994,1.3051666525214909,0.3856011630481109
1772732130560947500,11.803947509765624,1.3099544713199138,1.2823603619515895,0.7788708879627287
1772732130570975500,11.8139755859375,1.7905092060536145,1.3048375666975973,1.033333067222312
1772732130581003500,11.82400341796875,2.2035703672289846,1.47892192171067,1.0252185882192104
1772732130591031600,11.834031494140625,2.2276053228110073,1.611719449828565,0.8228373093307018
1772732130601059300,11.844059326171875,1.7842554063558578,1.7598019331008194,0.5826686995679512
1772732130611087600,11.854087646484375,1.5586679508596657,1.8546534691840408,0.5442434361163526
1772732130621115400,11.864115478515625,1.9078630813241004,2.061172651594877,0.5719920784592628
1772732130631143700,11.874143798828126,2.350368363648653,2.128939489136636,0.6711376584745943
1772732130641171500,11.88417138671875,2.7191198429763315,2.042942290638387,0.4685151912413537
1772732130651199500,11.894199462890626,3.2903064502716064,2.0371587388008834,0.2867967976858839
1772732130661227500,11.9042275390625,3.355647229710221,2.0451009299769995,0.3260253403443843
1772732130671255300,11.91425537109375,2.844274162864685,1.955721395564079,0.5759432272378355
1772732130681283600,11.92428369140625,2.4680267748236653,1.8149784613996742,0.5627800865430385
1772732130691311400,11.934311279296875,2.112387290525436,1.7359955255776642,0.33521965047344565
1772732130701339400,11.94433935546875,2.172754373204708,1.8119094292178748,0.2761825925552286
1772732130711367400,11.954367431640625,2.5844571055084464,1.82830263787508,0.07398129160981624
1772732130721395500,11.9643955078125,2.8177561582952735,1.763260549122095,-0.26016523147309195
1772732130731423500,11.974423583984375,3.1762346654117106,1.7492098119378088,-0.33140564514324067
1772732130741451500,11.984451416015625,3.6398026095092293,1.6178361791431903,-0.2429199177648872
1772732130751479300,11.994479248046876,3.915443843463063,1.4313655130267142,0.02699910261724144
1772732130761507600,12.004507568359376,3.8717157608956096,1.222188509583473,0.42195984935872255
1772732130771535400,12.014535400390624,3.5091865170836445,1.0713333467274904,0.5798379696540534
1772732130781563600,12.024563720703124,2.8652205047816035,0.92653499969244,0.5252519545942544
1772732130791591400,12.03459130859375,2.492781861373782,0.8680208514034747,0.3076253584420308
1772732130801619500,12.044619384765625,2.556496500915289,0.8047866888552904,0.3154947401102632
1772732130811647500,12.0546474609375,2.6836475475788113,0.6990127767413854,0.8435953621339053
1772732130821675500,12.064675537109375,2.5572820983350275,0.4565314695894718,0.9426333170562982
1772732130831703600,12.07470361328125,1.9415484933048486,0.3405266708403826,0.7816703094229102
1772732130841730300,12.084730224609375,1.2094289812535046,0.4136404223680496,0.791956141115725
1772732130851758600,12.094758544921875,0.3943336643517017,0.3517833933919668,0.5796412415055557
1772732130861786000,12.1047861328125,-0.3754506847053766,0.1737286734431982,0.0232790957134217
1772732130871814000,12.11481396484375,-0.4353244309097528,0.2966495351910591,-0.48126916661337016
1772732130881842200,12.12484228515625,-0.12526187191605567,0.3752846804887056,-0.6123413322433829
1772732130891870000,12.134869873046876,0.4590981052070856,0.37138825757205485,-0.343728097230196
1772732130901898200,12.144898193359374,1.2830851690948009,0.25592940226793287,-0.03424764897339046
1772732130911926000,12.154926025390624,1.7799457264631986,0.18256605989336966,0.1894515816234052
1772732130921954000,12.1649541015625,1.7675374957889318,0.13575111722648142,0.05761281553506851
1772732130931982000,12.174982177734375,1.7567174110889434,0.1430804372012615,-0.19008849128745495
1772732130942010000,12.185010009765625,1.8570868338108062,0.21465338902771472,-0.32332134208269414
1772732130952038100,12.1950380859375,1.881266750821471,0.1772702915728092,-0.2972651828713715
1772732130962066200,12.205066162109375,2.2567519223183394,0.1386357327520847,-0.148777552864328
1772732130972094000,12.215093994140625,2.875844774648547,0.2338596092790365,0.02293357021138072
1772732130982122200,12.225122314453126,3.0715339354872704,0.28842589672505853,-0.020262378240749238
1772732130992150000,12.23514990234375,3.1780548665761947,0.40969489961266514,-0.08428491468764841
1772732131002178300,12.24517822265625,3.4345623609930276,0.5809855322539806,0.07605082789286971
1772732131012206000,12.2552060546875,2.782363357874751,0.6695154641002417,-0.03389467081725597
1772732131022234000,12.265234130859374,1.5832663855433464,0.7695669069141149,-0.1714227345883846
1772732131032262100,12.27526220703125,1.218322481805086,0.8413561318397521,-0.32385311087183655
1772732131042290000,12.2852900390625,1.426407013836503,0.9510434180051088,-0.3080951313782483
1772732131052318200,12.295318115234375,1.3152660217314958,1.0123685320615767,-0.21167028156369924
1772732131062346000,12.305345947265625,0.6666805329352616,0.9858218859195709,-0.1051680551752448
1772732131072374000,12.3153740234375,0.00907528685927391,1.0747054535090923,-0.023914909398928284
1772732131082402000,12.325402099609375,-0.5099053323805331,1.057771854364872,-0.0944544265244156
1772732131092430000,12.33543017578125,-0.5397171177983283,1.0359639271825551,-0.2986054184991866
1772732131102458000,12.3454580078125,-0.5204524453580379,0.9814736275821924,-0.4625027990840375
1772732131112485000,12.355485107421876,-0.6575169832706451,0.8838947123616934,-0.48168731896020467
1772732131122513200,12.36551318359375,-0.5734685807526111,0.7832213382571935,-0.4851793257944286
1772732131132541200,12.375541259765624,-0.3285691065430641,0.7006564522951841,-0.4753980826228857
1772732131142569000,12.38556884765625,0.024915830069780348,0.5734148047387599,-0.23895897824466228
1772732131152597200,12.39559716796875,0.49274318517744536,0.39510289515852925,0.1304670393437147
1772732131162625000,12.405625,0.8443599898308515,0.33782617971003054,0.40320210352726277
1772732131172653300,12.4156533203125,1.0151794978290796,0.25578853249251843,0.4501669029936194
1772732131182681000,12.42568115234375,1.1773550961226225,0.22947569510638713,0.405836470618844
1772732131192709000,12.435709228515625,1.5218161838024853,0.3494090654760599,0.4100432015936821
1772732131202737200,12.445737060546875,1.666143990716338,0.38484687408208845,0.4912722358420491
1772732131212765000,12.455764892578125,1.41229431733191,0.33217443755865095,0.5472928137496114
1772732131222793200,12.465793212890626,1.1006178934007882,0.3458811836108565,0.5526913117922843
1772732131232821000,12.475821044921876,1.261021805846691,0.4284136286079883,0.6223110837243497
1772732131242849000,12.48584912109375,1.3441203602939844,0.4147869620546698,0.7011288921125233
1772732131252877000,12.495876953125,1.0386252553462982,0.3675014792665839,0.7196219956584274
1772732131262905000,12.505905029296875,0.6186626442193984,0.39117783066928385,0.6633461278155446
1772732131272933000,12.51593310546875,0.3584568798065185,0.41019963426440953,0.4833298985354602
1772732131282961200,12.525961181640625,0.3011363252162933,0.41637686159461734,0.25900764066949483
1772732131292989000,12.535989013671875,0.5275181459605693,0.4267559245288372,0.11625468185693025
1772732131303017200,12.546017333984375,0.9669038349598645,0.44382396370768545,0.028562954400479793
1772732131313045000,12.556044921875,1.4727835650861263,0.35829905889630315,0.063797203258425
1772732131323073000,12.566072998046875,2.2383137638300656,0.33972470680773253,0.15675664198473094
1772732131333101000,12.57610107421875,3.164844087347388,0.3012631664663553,0.12958441129028797
1772732131343129000,12.586129150390626,4.1689498179763556,0.3099287034809589,-0.03192176330909133
1772732131353157000,12.5961572265625,5.107477453279495,0.3795692259401083,-0.2639166016295552
1772732131363185200,12.60618505859375,5.889639053350686,0.4630582410097122,-0.4716974745392799
1772732131373212200,12.616212158203124,6.650337594154477,0.6052054890140891,-0.5589877815879881
1772732131383240000,12.626239990234374,7.251279872766137,0.8127706733465194,-0.5544742496863008
1772732131393268200,12.636268310546875,7.520427653047442,0.9560185760691762,-0.5307520133152603
1772732131403296000,12.6462958984375,7.586413160130381,1.1367758329749107,-0.4590070659227669
1772732131413324000,12.656323974609375,7.561239555907249,1.4022192057803273,-0.3276457080878317
1772732131423352000,12.66635205078125,7.505648017066717,1.7573603851675985,-0.1865897624514997
1772732131433380000,12.676380126953125,7.11984720326066,2.009476658888161,-0.07614040587246418
1772732131443408100,12.686408203125,6.582673340204358,2.2919173437237736,-0.0950147638209164
1772732131453436200,12.696436279296876,6.306167598375677,2.6136928446039556,-0.13505042161121963
1772732131463464000,12.7064638671875,6.432731785061955,2.711553207114339,0.049007922666519876
1772732131473492200,12.7164921875,6.855440480026602,3.0294825539603827,0.7751226413451134
1772732131483520000,12.72652001953125,6.239963480105995,3.252818431137502,1.0655505255423485
1772732131493548000,12.736548095703125,3.979609149381518,3.3061712511405346,1.0769298515602945
1772732131503576000,12.746576171875,1.1042764159083365,3.3706893160194156,1.8310770710244775
1772732131513604000,12.75660400390625,-1.626277844274044,3.3699382053911684,2.4757623375117777
1772732131523632000,12.766632080078125,-4.941290865778923,3.3072809659481046,1.916218383345753
1772732131533660200,12.77666015625,-8.62192349832654,3.2951945145741104,0.8085022022470831
1772732131543688000,12.78668798828125,-10.418085615575313,3.3558541504591703,-0.10057371312230824
1772732131553716200,12.79671630859375,-9.74767992463708,2.870758849686384,-1.119260196159035
1772732131563744000,12.806743896484376,-7.878622082525491,2.535190093514323,-1.9109476033359765
1772732131573772300,12.816772216796876,-6.588187719711661,2.3328508271366357,-1.5141149617753922
1772732131583800000,12.826800048828124,-5.316691281601786,2.0379189095184205,-0.20876666907668112
1772732131593828000,12.836828125,-4.967456403648853,1.4571467277541756,1.516400588494539
1772732131603856100,12.846856201171875,-6.538091271156072,0.6830049141399562,2.813257093310356
1772732131613884000,12.8568837890625,-8.31585673097074,0.3581251636341214,3.5121839453339576
1772732131623912200,12.866912109375,-8.898943034896254,-0.22517419852018355,3.7461154508054255
1772732131633940000,12.87693994140625,-8.13845550649464,-0.503200500979647,3.012286504487693
1772732131643968000,12.886968017578125,-7.095783606106043,-0.43668161767236885,1.7425483082219957
1772732131653995000,12.8969951171875,-6.301373934358358,-0.366322133288905,0.7491995339289307
