time,seconds_elapsed,z,y,x
1772732007974742300,0.0717421875,-0.08395756036043167,-0.0037586530670523643,-0.008853425271809101
1772732007984769000,0.08176904296875,-0.08447287976741791,-0.012836569920182228,-0.02632136456668377
1772732007994797300,0.09179736328125,-0.10265181958675385,-0.030318589881062508,-0.03951660171151161
1772732008004825000,0.1018251953125,-0.12935878336429596,-0.018453674390912056,-0.049042996019124985
1772732008014853000,0.11185302734375,-0.15802612900733948,-0.0151554886251688,-0.05698930099606514
1772732008024881200,0.121881103515625,-0.18335358798503876,0.014050334692001343,-0.02359193190932274
1772732008034909200,0.1319091796875,-0.1990526020526886,0.050330594182014465,0.023568086326122284
1772732008044937200,0.141937255859375,-0.22926802933216095,0.04080340266227722,0.05122501030564308
1772732008054965000,0.151965087890625,-0.2669040858745575,0.017489291727542877,0.039218682795763016
1772732008064992300,0.1619921875,-0.28744131326675415,0.000723361037671566,0.018025781959295273
1772732008075020000,0.17202001953125,-0.2757263481616974,-0.005365690682083368,-0.0009356591617688537
1772732008085048300,0.18204833984375,-0.19479261338710785,0.17739559710025787,-0.03963511809706688
1772732008095076000,0.192076171875,-0.07388556003570557,0.28136107325553894,-0.08019015192985535
1772732008105104100,0.202104248046875,-0.0019181545358151197,0.35367149114608765,-0.12864449620246887
1772732008115132200,0.212132080078125,0.04106494411826134,0.3676569163799286,-0.18186287581920624
1772732008125160200,0.22216015625,0.07376802712678909,0.3501990735530853,-0.22572167217731476
1772732008135188200,0.232188232421875,0.07825179398059845,0.34752902388572693,-0.23842716217041016
1772732008145216300,0.24221630859375,0.07008440792560577,0.3317447304725647,-0.22101940214633942
1772732008155243300,0.2522431640625,0.06277425587177277,0.30802595615386963,-0.20464813709259033
1772732008165271000,0.26227099609375,0.06607498228549957,0.21539536118507385,-0.2119888812303543
1772732008175299000,0.272299072265625,0.08611008524894714,0.0903131291270256,-0.26348811388015747
1772732008185327000,0.2823271484375,0.0921541303396225,-0.0030343937687575817,-0.3073138892650604
1772732008195355100,0.292355224609375,0.07616327702999115,-0.03160553425550461,-0.3332686126232147
1772732008205383200,0.302383056640625,0.06251458078622818,-0.062199659645557404,-0.3409406542778015
1772732008215411200,0.3124111328125,0.0470769889652729,-0.09229671955108643,-0.3627530038356781
1772732008225439000,0.32243896484375,0.02466648817062378,-0.11454183608293533,-0.4020695388317108
1772732008235466200,0.33246630859375,-0.013451996259391308,-0.1046631783246994,-0.46496978402137756
1772732008245494000,0.342493896484375,-0.05152880772948265,-0.05088703706860542,-0.49915891885757446
1772732008255522300,0.352522216796875,-0.07460015267133713,0.015384090133011341,-0.5494465827941895
1772732008265550000,0.362550048828125,-0.07558685541152954,0.09377210587263107,-0.6355393528938293
1772732008275578000,0.372578125,-0.05918633192777634,0.17962533235549927,-0.7142162322998047
1772732008285606100,0.382606201171875,-0.014270524494349957,0.2604658603668213,-0.8658662438392639
1772732008295634000,0.392634033203125,0.05472249910235405,0.2357598841190338,-1.0728354454040527
1772732008305662200,0.402662109375,0.09707821160554886,0.2120143473148346,-1.2614485025405884
1772732008315689000,0.41268896484375,0.08860829472541809,0.27649134397506714,-1.3781028985977173
1772732008325717200,0.42271728515625,0.06809423118829727,0.33800262212753296,-1.442164659500122
1772732008335745000,0.4327451171875,0.051569901406764984,0.41270288825035095,-1.4746499061584473
1772732008345773300,0.442773193359375,0.05582323670387268,0.4939122498035431,-1.5065205097198486
1772732008355801000,0.452801025390625,0.08873116225004196,0.5004110336303711,-1.576907992362976
1772732008365829000,0.4628291015625,0.14788982272148132,0.4297563135623932,-1.6425056457519531
1772732008375857200,0.472857177734375,0.22111143171787262,0.3066325783729553,-1.6133328676223755
1772732008385885200,0.48288525390625,0.25050926208496094,0.1816890686750412,-1.4781800508499146
1772732008395913200,0.492913330078125,0.22276224195957184,0.05165989696979523,-1.3148949146270752
1772732008405940000,0.50293994140625,0.16473941504955292,-0.037941623479127884,-1.1978029012680054
1772732008415968300,0.51296826171875,0.11997496336698532,-0.06655297428369522,-1.1989073753356934
1772732008425996000,0.52299609375,0.07455261796712875,-0.09048786759376526,-1.1926604509353638
1772732008436024000,0.533024169921875,-0.019772954285144806,-0.14942196011543274,-1.1366444826126099
1772732008446052000,0.543052001953125,-0.09777002036571503,-0.14971570670604706,-1.1176680326461792
1772732008456080100,0.553080078125,-0.10235825926065445,-0.10425044596195221,-1.192597508430481
1772732008466108200,0.563108154296875,-0.004359794314950705,-0.09725698083639145,-1.4658596515655518
1772732008476136200,0.57313623046875,0.1909278929233551,-0.2293696403503418,-1.7688159942626953
1772732008486164000,0.5831640625,0.4959312081336975,-0.23843318223953247,-1.93209969997406
1772732008496191000,0.59319091796875,0.7000710368156433,0.274603933095932,-1.5678784847259521
1772732008506219300,0.60321923828125,0.6958816051483154,0.936634361743927,-0.7801883816719055
1772732008516247000,0.6132470703125,0.4773901104927063,1.5530909299850464,-0.0009842413710430264
1772732008526275000,0.623275146484375,0.13595184683799744,2.2205920219421387,1.1455351114273071
1772732008536303000,0.63330322265625,-0.12190519273281097,1.9971259832382202,2.4124820232391357
1772732008546331100,0.6433310546875,-0.3355892598628998,0.810542106628418,3.198190689086914
1772732008556359200,0.653359130859375,-0.4468187689781189,-0.4955175518989563,3.701090097427368
1772732008566387200,0.66338720703125,-0.5076517462730408,-1.5750752687454224,4.322969436645508
1772732008576414200,0.673414306640625,-0.5606370568275452,-2.326613664627075,5.044543266296387
1772732008586442200,0.683442138671875,-0.5227853059768677,-2.681352138519287,5.753583908081055
1772732008596470000,0.693469970703125,-0.40813449025154114,-2.7309858798980713,6.3857526779174805
1772732008606498300,0.703498291015625,-0.13055162131786346,-2.645073413848877,6.91507625579834
1772732008616526000,0.713526123046875,0.20240284502506256,-2.5108585357666016,7.3501458168029785
1772732008626554400,0.723554443359375,0.5443497896194458,-2.318793296813965,7.534602642059326
1772732008636582100,0.73358203125,0.8546423316001892,-2.199904203414917,7.510830879211426
1772732008646610000,0.74360986328125,1.0084853172302246,-2.3161263465881348,7.323585510253906
1772732008656638200,0.75363818359375,0.9747095108032227,-2.5816948413848877,6.91730260848999
1772732008666665000,0.7636650390625,0.8647183179855347,-2.7013156414031982,6.3845367431640625
1772732008676693200,0.773693359375,0.7469289898872375,-2.448887348175049,5.871179103851318
1772732008686721000,0.783720947265625,0.7004011273384094,-1.884174108505249,5.330997467041016
1772732008696749300,0.793749267578125,0.7182342410087585,-1.4625449180603027,4.728675842285156
1772732008706777000,0.803777099609375,0.7005974650382996,-1.5217432975769043,4.0650835037231445
1772732008716805000,0.81380517578125,0.6690343618392944,-1.829635500907898,3.267681121826172
1772732008726833200,0.823833251953125,0.651217520236969,-1.9856213331222534,2.5164504051208496
1772732008736860000,0.83385986328125,0.5456236004829407,-1.9809293746948242,1.8819074630737305
1772732008746887700,0.8438876953125,0.314117968082428,-1.8179148435592651,1.4308364391326904
1772732008756915000,0.8539150390625,0.03944317623972893,-1.499845266342163,1.1461817026138306
1772732008766942700,0.863942626953125,-0.2311752587556839,-1.1895753145217896,1.011733055114746
1772732008776970800,0.873970703125,-0.402929425239563,-0.9075283408164978,0.8854363560676575
1772732008786998800,0.883998779296875,-0.3778885006904602,-0.4834417700767517,0.708981454372406
1772732008797026800,0.89402685546875,-0.18168342113494873,-0.05790556222200394,0.3860303461551666
1772732008807054800,0.904054931640625,0.05036846548318863,0.26335716247558594,-0.033357057720422745
1772732008817083000,0.914082763671875,0.15597018599510193,0.48236843943595886,-0.4851606786251068
1772732008827110700,0.924110595703125,0.10693579912185669,0.6362557411193848,-0.9877127408981323
1772732008837137700,0.9341376953125,-0.05325274541974068,0.7338638305664062,-1.5489565134048462
1772732008847165700,0.944165771484375,-0.20889881253242493,0.7504504919052124,-2.1169309616088867
1772732008857193700,0.95419384765625,-0.3387181758880615,0.7668231725692749,-2.622384548187256
1772732008867221800,0.9642216796875,-0.4155557155609131,0.8229138255119324,-3.0012974739074707
1772732008877249800,0.974249755859375,-0.3891940116882324,0.8963126540184021,-3.313336133956909
1772732008887277800,0.98427783203125,-0.23709608614444733,0.9886487126350403,-3.61773681640625
1772732008897305600,0.9943056640625,0.045316267758607864,1.1130313873291016,-3.9673900604248047
1772732008907334000,1.004333984375,0.3695390820503235,1.2200859785079956,-4.30755090713501
1772732008917361700,1.014361572265625,0.6455320715904236,1.3739744424819946,-4.5987982749938965
1772732008927389000,1.024388916015625,0.8968237042427063,1.6121602058410645,-4.787656307220459
1772732008937416700,1.034416748046875,1.120330572128296,1.8406652212142944,-4.903790473937988
1772732008947445000,1.044445068359375,1.2909585237503052,2.0487377643585205,-4.903054714202881
1772732008957472800,1.05447265625,1.3774685859680176,2.243741750717163,-4.737414360046387
1772732008967500800,1.064500732421875,1.389148473739624,2.3931996822357178,-4.395956516265869
1772732008977528800,1.07452880859375,1.3345195055007935,2.5067532062530518,-3.8804800510406494
1772732008987556600,1.084556640625,1.237144112586975,2.597853422164917,-3.2126405239105225
1772732008997585000,1.0945849609375,1.1242700815200806,2.6833572387695312,-2.4141716957092285
1772732009007611600,1.104611572265625,0.9496685266494751,2.7623040676116943,-1.508740782737732
1772732009017640000,1.114639892578125,0.6744662523269653,2.8299386501312256,-0.6036121845245361
1772732009027667700,1.124667724609375,0.19217556715011597,3.042996644973755,0.1355028748512268
1772732009037696000,1.134696044921875,-0.7266468405723572,3.4542760848999023,0.4243289530277252
1772732009047723800,1.144723876953125,-2.1053006649017334,3.979344129562378,-0.51609867811203
1772732009057751800,1.154751708984375,-3.344222068786621,4.274181842803955,-2.8440816402435303
1772732009067779800,1.16477978515625,-4.085221290588379,3.8187217712402344,-4.810995578765869
1772732009077807900,1.174807861328125,-4.5364603996276855,2.8120601177215576,-5.719470024108887
1772732009087836000,1.1848359375,-4.331835746765137,1.6254477500915527,-5.814892292022705
1772732009097862700,1.194862548828125,-3.024211883544922,0.9697498083114624,-4.79444694519043
1772732009107891000,1.204890869140625,-1.6885216236114502,1.2599058151245117,-3.499763250350952
1772732009117918700,1.214918701171875,-1.4269901514053345,2.237159252166748,-3.524667501449585
1772732009127946800,1.22494677734375,-1.8682974576950073,2.6159605979919434,-4.206587314605713
1772732009137974800,1.234974853515625,-2.392587661743164,2.1662585735321045,-4.243535041809082
1772732009148002800,1.2450029296875,-2.859440565109253,1.2688597440719604,-3.678868293762207
1772732009158030800,1.25503076171875,-3.218843936920166,0.3942379653453827,-3.0259716510772705
1772732009168059000,1.265058837890625,-3.43792724609375,-0.1792048215866089,-2.575908660888672
1772732009178086700,1.275086669921875,-3.393881320953369,-0.5172076225280762,-2.2927703857421875
1772732009188113700,1.28511376953125,-2.913105010986328,-0.6868070363998413,-2.0044617652893066
1772732009198141700,1.2951416015625,-2.137812614440918,-0.5963917374610901,-1.765153408050537
1772732009208169700,1.305169677734375,-1.3311591148376465,-0.3341422975063324,-1.692395567893982
1772732009218197800,1.31519775390625,-0.6280774474143982,-0.24562928080558777,-1.679327130317688
1772732009228225800,1.325225830078125,-0.06695341318845749,-0.5064480900764465,-1.6081968545913696
1772732009238253800,1.33525390625,0.27414843440055847,-0.8669188618659973,-1.4008880853652954
1772732009248281600,1.345281494140625,0.3025134801864624,-1.1585341691970825,-0.9229497313499451
1772732009258310000,1.355309814453125,0.11705821007490158,-1.3585418462753296,-0.31149592995643616
1772732009268337700,1.365337646484375,-0.13533781468868256,-1.4776841402053833,0.22143936157226562
1772732009278365000,1.375364990234375,-0.2413908839225769,-1.497304081916809,0.7041347026824951
1772732009288392700,1.385392822265625,-0.11557622998952866,-1.2439874410629272,1.1349049806594849
1772732009298421000,1.3954208984375,0.17295655608177185,-0.7241877913475037,1.4979387521743774
1772732009308448800,1.40544873046875,0.5221555829048157,-0.14257045090198517,1.818806767463684
1772732009318476800,1.415476806640625,0.8111175298690796,0.09795890003442764,2.0591933727264404
1772732009328504800,1.4255048828125,1.073333978652954,-0.02954765595495701,2.2196500301361084
1772732009338532600,1.43553271484375,1.391694188117981,-0.4834977090358734,2.505467653274536
1772732009348561000,1.445560791015625,1.5336182117462158,-1.1954163312911987,2.8011202812194824
1772732009358587600,1.455587646484375,1.384191632270813,-1.9117448329925537,3.058445930480957
1772732009368616000,1.465615966796875,1.1329394578933716,-2.345348834991455,3.427424430847168
1772732009378643700,1.475643798828125,0.9668717980384827,-2.6461026668548584,3.914915084838867
1772732009388672000,1.485672119140625,0.9235602617263794,-3.048950433731079,4.249326705932617
1772732009398699800,1.49569970703125,0.9724423289299011,-3.3386242389678955,4.248253345489502
1772732009408727800,1.505727783203125,0.8749451041221619,-3.6259806156158447,4.477659702301025
1772732009418755800,1.515755859375,0.5056908130645752,-3.817082166671753,5.090782165527344
1772732009428783900,1.525783935546875,-0.11142673343420029,-3.74757719039917,5.875556468963623
1772732009438812000,1.53581201171875,-0.6926813125610352,-3.5022692680358887,6.361300468444824
1772732009448838700,1.545838623046875,-1.044136643409729,-3.2450015544891357,6.665405750274658
1772732009458867000,1.555866943359375,-1.2483057975769043,-2.973163366317749,6.910741329193115
1772732009468894700,1.565894775390625,-1.4015153646469116,-2.6295197010040283,7.0864338874816895
1772732009478922800,1.5759228515625,-1.3653879165649414,-2.1097829341888428,7.063486576080322
1772732009488950800,1.58595068359375,-1.0334824323654175,-1.537907600402832,6.912598133087158
1772732009498978800,1.595978759765625,-0.6469079256057739,-1.1797927618026733,6.732726097106934
1772732009509006800,1.6060068359375,-0.38828620314598083,-1.0537205934524536,6.388685703277588
1772732009519035000,1.616034912109375,-0.28976649045944214,-1.2267818450927734,5.818244934082031
1772732009529062700,1.626062744140625,-0.33632922172546387,-1.5196118354797363,5.230197429656982
1772732009539090000,1.63608984375,-0.42698636651039124,-1.6069602966308594,4.74233341217041
1772732009549117700,1.64611767578125,-0.47839468717575073,-1.0999077558517456,4.434595108032227
1772732009559145700,1.656145751953125,-0.357562392950058,-0.22270065546035767,4.218728065490723
1772732009569173800,1.666173828125,-0.09377654641866684,0.4552871584892273,3.8223583698272705
1772732009579201800,1.676201904296875,0.19381389021873474,0.7235786318778992,3.2798125743865967
1772732009589229800,1.686229736328125,0.3418174684047699,0.7142967581748962,2.6875929832458496
1772732009599257600,1.696257568359375,0.28648167848587036,0.5412456393241882,2.0902254581451416
1772732009609286000,1.706285888671875,0.25432080030441284,0.4948427379131317,1.5563266277313232
1772732009619313700,1.716313720703125,0.255137175321579,0.5820696949958801,1.2345101833343506
1772732009629341000,1.7263408203125,0.19751033186912537,0.7336717247962952,1.1243271827697754
1772732009639368700,1.73636865234375,0.10320758074522018,0.9035612940788269,1.1470245122909546
1772732009649397000,1.74639697265625,0.09204573929309845,1.2248003482818604,1.2430341243743896
1772732009659424800,1.7564248046875,0.15441596508026123,1.591497778892517,1.1830923557281494
1772732009669452800,1.766452880859375,0.23443304002285004,1.8135079145431519,0.8498790264129639
1772732009679480800,1.776480712890625,0.2453453540802002,1.9227478504180908,0.27264705300331116
1772732009689508900,1.7865087890625,0.20016375184059143,1.9758259057998657,-0.5115942358970642
1772732009699537000,1.796536865234375,0.09651339054107666,1.8411706686019897,-1.3861631155014038
1772732009709563600,1.806563720703125,-0.10541360825300217,1.465009093284607,-2.2239999771118164
1772732009719592000,1.816592041015625,-0.3059241473674774,1.155182123184204,-2.8369293212890625
1772732009729619700,1.82661962890625,-0.44875800609588623,1.1281933784484863,-3.1217522621154785
1772732009739647700,1.836647705078125,-0.4586637020111084,1.3033407926559448,-3.215703010559082
1772732009749675500,1.846675537109375,-0.4176608622074127,1.4361680746078491,-3.3979921340942383
1772732009759703300,1.856703369140625,-0.33957111835479736,1.3844047784805298,-3.796046495437622
1772732009769731600,1.866731689453125,-0.139785036444664,1.3723562955856323,-4.510855674743652
1772732009779759400,1.87675927734375,0.2740929126739502,1.4827769994735718,-5.374536037445068
1772732009789787600,1.88678759765625,0.5575829744338989,1.6459510326385498,-6.007291316986084
1772732009799814400,1.896814453125,0.6521139144897461,2.075303554534912,-6.313450813293457
1772732009809842700,1.9068427734375,0.46821120381355286,2.7108113765716553,-6.390499114990234
1772732009819870500,1.916870361328125,0.11926735937595367,3.3047258853912354,-6.3926167488098145
1772732009829898500,1.9268984375,-0.27285435795783997,3.641347885131836,-6.324895858764648
1772732009839926500,1.936926513671875,-0.7379468083381653,3.7259387969970703,-6.267611980438232
1772732009849954600,1.94695458984375,-1.224063754081726,3.5824146270751953,-6.234226226806641
1772732009859982600,1.956982666015625,-1.5701169967651367,3.441192150115967,-6.169561862945557
1772732009870010600,1.9670107421875,-1.7953697443008423,3.1962618827819824,-6.275147438049316
1772732009880038400,1.977038330078125,-1.949587106704712,2.843048334121704,-6.443719863891602
1772732009890065400,1.9870654296875,-2.10163950920105,2.476716995239258,-6.387331008911133
1772732009900093400,1.997093505859375,-2.3744189739227295,2.091292142868042,-6.360743522644043
1772732009910121500,2.00712158203125,-2.658881425857544,1.5984357595443726,-6.749478816986084
1772732009920149500,2.0171494140625,-2.828582525253296,1.1647967100143433,-7.651325702667236
1772732009930177500,2.027177490234375,-2.6913399696350098,0.8652665615081787,-7.793820858001709
1772732009940205600,2.03720556640625,-2.3233802318573,0.7310757637023926,-6.318226337432861
1772732009950233300,2.0472333984375,-2.0393214225769043,1.0413440465927124,-3.8696341514587402
1772732009960261600,2.05726171875,-1.7941502332687378,1.7635358572006226,-2.032984972000122
1772732009970289400,2.067289306640625,-1.1184557676315308,2.2265450954437256,-1.8793548345565796
1772732009980316400,2.07731640625,-0.13586848974227905,2.434638023376465,-2.8597326278686523
1772732009990344400,2.087344482421875,0.40379658341407776,2.2086822986602783,-3.979398012161255
1772732010000372500,2.09737255859375,0.2396981567144394,1.4583303928375244,-4.343605995178223
1772732010010400500,2.107400390625,-0.26869264245033264,0.5354501605033875,-3.6408653259277344
1772732010020428500,2.117428466796875,-0.8765789270401001,-0.283456027507782,-2.391819715499878
1772732010030456600,2.12745654296875,-1.3793758153915405,-0.7649033069610596,-1.6561347246170044
1772732010040484400,2.137484375,-1.4991124868392944,-0.9405473470687866,-1.6127458810806274
1772732010050512600,2.1475126953125,-0.9699572324752808,-1.0540945529937744,-1.7396713495254517
1772732010060540400,2.15754052734375,-0.1218402236700058,-1.1134182214736938,-1.8533947467803955
1772732010070567700,2.167567626953125,0.5608834624290466,-1.0798232555389404,-1.7947272062301636
1772732010080595500,2.177595458984375,0.728539228439331,-1.086876392364502,-1.5399349927902222
1772732010090623700,2.187623779296875,0.5278151631355286,-1.1416040658950806,-1.192967176437378
1772732010100651500,2.197651611328125,0.22446617484092712,-1.3143770694732666,-0.6495463848114014
1772732010110679600,2.207679443359375,-0.10711896419525146,-1.5053565502166748,-0.02711826004087925
1772732010120707600,2.21770751953125,-0.3733197748661041,-1.5395925045013428,0.47247666120529175
1772732010130735400,2.2277353515625,-0.5104193091392517,-1.3303005695343018,0.8720406293869019
1772732010140763600,2.237763671875,-0.5064814686775208,-0.9380925297737122,1.2451908588409424
1772732010150791400,2.24779150390625,-0.3684932291507721,-0.4754777252674103,1.6583986282348633
1772732010160818700,2.257818603515625,-0.169369637966156,-0.06719033420085907,2.0839052200317383
1772732010170846500,2.267846435546875,-0.06207699328660965,0.10277366638183594,2.3967771530151367
1772732010180874500,2.27787451171875,-0.054426081478595734,0.042831212282180786,2.556544780731201
1772732010190902500,2.287902587890625,0.04079604148864746,-0.13480828702449799,2.6676011085510254
1772732010200930600,2.2979306640625,0.2770214378833771,-0.4340344965457916,2.816148281097412
1772732010210958600,2.30795849609375,0.5713704824447632,-1.021370768547058,2.8497743606567383
1772732010220986600,2.317986572265625,0.8201670050621033,-2.1360816955566406,2.4768998622894287
1772732010231014400,2.328014404296875,0.9948373436927795,-3.642291307449341,1.7677711248397827
1772732010241041400,2.33804150390625,0.9237138628959656,-5.070435047149658,1.329682469367981
1772732010251069400,2.3480693359375,0.4358086884021759,-5.745611190795898,1.6761099100112915
1772732010261097500,2.358097412109375,-0.36605551838874817,-5.277934551239014,2.880833864212036
1772732010271125500,2.36812548828125,-1.216347575187683,-3.9504201412200928,4.637382984161377
1772732010281153500,2.378153564453125,-1.7813363075256348,-2.4909281730651855,6.376832962036133
1772732010291181600,2.388181640625,-1.997620940208435,-1.4203264713287354,7.760737895965576
1772732010301209300,2.398209228515625,-1.969516634941101,-0.8016547560691833,8.50248908996582
1772732010311237600,2.408237548828125,-1.7534080743789673,-0.6403894424438477,8.617782592773438
1772732010321265400,2.418265380859375,-1.3771754503250122,-0.6954914927482605,8.39040470123291
1772732010331292400,2.42829248046875,-1.0072959661483765,-0.7902832627296448,8.141427040100098
1772732010341320400,2.438320556640625,-0.7019007802009583,-0.8103839755058289,7.982840061187744
1772732010351348500,2.448348388671875,-0.4596191942691803,-0.8236140608787537,7.7324934005737305
1772732010361376500,2.45837646484375,-0.20573464035987854,-0.9140148758888245,7.3800458908081055
1772732010371404300,2.468404296875,-0.023944618180394173,-0.95125412940979,7.068640232086182
1772732010381432600,2.4784326171875,0.14259018003940582,-0.9506344795227051,6.721927642822266
1772732010391460400,2.48846044921875,0.40568917989730835,-0.7221709489822388,6.31519889831543
1772732010401488600,2.498488525390625,0.7042088508605957,-0.38186657428741455,5.791658878326416
1772732010411516400,2.508516357421875,0.9644342660903931,-0.230901300907135,5.142806053161621
1772732010421543700,2.518543701171875,1.0699658393859863,-0.4755100905895233,4.419867992401123
1772732010431571500,2.528571533203125,0.987417459487915,-1.110835313796997,3.717284679412842
1772732010441599500,2.538599609375,0.8749539256095886,-1.8924833536148071,2.9935598373413086
1772732010451627500,2.54862744140625,0.8718510866165161,-2.125570297241211,2.1982784271240234
1772732010461655600,2.558655517578125,0.9166480898857117,-1.724074125289917,1.4095957279205322
1772732010471683600,2.56868359375,0.9501698017120361,-1.125508427619934,0.8025791645050049
1772732010481711600,2.578711669921875,0.9530754089355469,-0.8090473413467407,0.3740849792957306
1772732010491739400,2.588739501953125,0.8576653003692627,-0.7256733775138855,0.1322483867406845
1772732010501767400,2.598767333984375,0.7567203044891357,-0.5839800238609314,0.05572240799665451
1772732010511794700,2.608794677734375,0.7230491638183594,-0.12029753625392914,0.15391315519809723
1772732010521822500,2.618822509765625,0.6966007947921753,0.5147933959960938,0.4079747498035431
1772732010531850500,2.6288505859375,0.6228141784667969,1.0408215522766113,0.555499255657196
1772732010541878500,2.63887841796875,0.4445795714855194,1.2919355630874634,0.3579663038253784
1772732010551906600,2.648906494140625,0.17378750443458557,1.3361005783081055,-0.1804225891828537
1772732010561934600,2.6589345703125,-0.1554613560438156,1.3553184270858765,-0.8985561728477478
1772732010571962600,2.668962646484375,-0.4561295509338379,1.546298861503601,-1.6200294494628906
1772732010581990400,2.678990478515625,-0.6250581741333008,1.9388375282287598,-2.242551803588867
1772732010592017400,2.689017333984375,-0.7135486006736755,2.318591594696045,-2.7582180500030518
1772732010602045400,2.69904541015625,-0.8160306811332703,2.5496320724487305,-3.1913063526153564
1772732010612073500,2.709073486328125,-0.9162589907646179,2.5770113468170166,-3.580371856689453
1772732010622101500,2.7191015625,-0.9551827311515808,2.419450044631958,-3.937486410140991
1772732010632129500,2.729129638671875,-0.8991847038269043,2.22404146194458,-4.214724063873291
1772732010642157600,2.739157470703125,-0.7642333507537842,2.0700843334198,-4.363483428955078
1772732010652185300,2.749185302734375,-0.5758697986602783,2.0193235874176025,-4.36786413192749
1772732010662213600,2.759213623046875,-0.3660537004470825,2.1046433448791504,-4.258333683013916
1772732010672241400,2.769241455078125,-0.1674404740333557,2.2456042766571045,-4.068171501159668
1772732010682268700,2.7792685546875,-0.0005815553013235331,2.344874143600464,-3.8219003677368164
1772732010692296400,2.78929638671875,0.16179537773132324,2.3651297092437744,-3.6033828258514404
1772732010702324500,2.799324462890625,0.28990501165390015,2.3126301765441895,-3.4269168376922607
1772732010712352500,2.8093525390625,0.4233429729938507,2.1151416301727295,-3.3386549949645996
1772732010722380300,2.81938037109375,0.5327494144439697,1.8071128129959106,-3.3001279830932617
1772732010732408600,2.82940869140625,0.5387385487556458,1.5398691892623901,-3.152904748916626
1772732010742436600,2.8394365234375,0.399671733379364,1.2765374183654785,-2.7826147079467773
1772732010752464600,2.849464599609375,0.08091185241937637,1.1604176759719849,-2.1441848278045654
1772732010762492700,2.85949267578125,-0.39401775598526,1.2550710439682007,-1.3854154348373413
1772732010772519700,2.869519775390625,-1.0221320390701294,1.5306037664413452,-0.8262255787849426
1772732010782547700,2.879547607421875,-1.6100932359695435,1.9902136325836182,-0.7456661462783813
1772732010792575500,2.889575439453125,-2.0583479404449463,2.575697660446167,-1.2956112623214722
1772732010802603800,2.899603759765625,-2.313246726989746,3.3296725749969482,-2.6708974838256836
1772732010812631600,2.909631591796875,-2.287020683288574,4.251743793487549,-4.353877544403076
1772732010822659800,2.919659912109375,-2.068063735961914,5.060826778411865,-5.444612503051758
1772732010832687600,2.9296875,-1.6928348541259766,5.831167697906494,-6.122714042663574
1772732010842715600,2.939715576171875,-1.3679375648498535,6.265707492828369,-6.264518737792969
1772732010852743700,2.94974365234375,-1.1220059394836426,6.31097412109375,-5.552114486694336
1772732010862770400,2.9597705078125,-0.961305558681488,5.367691516876221,-4.406155109405518
1772732010872798700,2.969798828125,-1.2725682258605957,3.3934645652770996,-3.7929084300994873
1772732010882826500,2.979826416015625,-2.0755462646484375,1.1658376455307007,-3.901690721511841
1772732010892854800,2.989854736328125,-2.8869738578796387,-0.6180376410484314,-4.238119125366211
1772732010902882600,2.999882568359375,-3.2792727947235107,-1.6379964351654053,-4.430445671081543
1772732010912910600,3.00991064453125,-3.138173818588257,-1.8951927423477173,-4.202725410461426
1772732010922938600,3.019938720703125,-2.5263113975524902,-1.5176249742507935,-3.3492932319641113
1772732010932966700,3.029966552734375,-1.792694091796875,-0.7961054444313049,-2.1614787578582764
1772732010942994700,3.03999462890625,-1.3249907493591309,-0.15949700772762299,-1.1298620700836182
1772732010953021400,3.050021484375,-1.136846899986267,0.030824728310108185,-0.5227270722389221
1772732010963049700,3.0600498046875,-1.0283459424972534,-0.3319602310657501,-0.22665314376354218
1772732010973077500,3.070077392578125,-0.9129586815834045,-0.9905596971511841,-0.10841359198093414
1772732010983105500,3.08010546875,-0.748494029045105,-1.6679940223693848,-0.09492628276348114
1772732010993133600,3.090133544921875,-0.5436801314353943,-2.172926187515259,-0.12882833182811737
1772732011003161600,3.10016162109375,-0.32947927713394165,-2.4346091747283936,-0.10908833891153336
1772732011013189600,3.110189697265625,-0.1194823682308197,-2.3366830348968506,0.07292061299085617
1772732011023217700,3.1202177734375,0.04487402364611626,-1.9679903984069824,0.4887770116329193
1772732011033245400,3.130245361328125,0.14912772178649902,-1.3771952390670776,1.0255796909332275
1772732011043272700,3.140272705078125,0.2105253040790558,-0.6220992803573608,1.5643609762191772
1772732011053300700,3.15030078125,0.42272117733955383,0.2216108739376068,2.0103836059570312
1772732011063328800,3.160328857421875,0.8010774850845337,0.8715841770172119,2.4708826541900635
1772732011073356500,3.1703564453125,1.1488702297210693,1.207114815711975,2.975217342376709
1772732011083384800,3.180384765625,1.4241242408752441,1.209542155265808,3.5406479835510254
1772732011093412600,3.19041259765625,1.5162792205810547,0.8303974270820618,4.231060028076172
1772732011103440600,3.200440673828125,1.4116744995117188,-0.04947326332330704,4.710531234741211
1772732011113468700,3.21046875,1.1938163042068481,-1.2716742753982544,4.873423099517822
1772732011123496400,3.220496337890625,0.9983494281768799,-2.493178606033325,4.900452613830566
1772732011133523700,3.230523681640625,0.9503307938575745,-3.4645323753356934,4.785887241363525
1772732011143551500,3.240551513671875,1.05498206615448,-3.8205466270446777,4.82233190536499
1772732011153579800,3.250579833984375,1.1018941402435303,-3.519329309463501,5.423713684082031
1772732011163607600,3.260607666015625,1.1300692558288574,-2.6378602981567383,6.323661804199219
1772732011173635800,3.2706357421875,1.204668402671814,-1.4705191850662231,7.356700420379639
1772732011183663600,3.28066357421875,1.255002498626709,-0.6225720047950745,8.137261390686035
1772732011193691600,3.290691650390625,1.286136507987976,-0.2726137042045593,8.457602500915527
1772732011203719700,3.3007197265625,1.3114670515060425,-0.3118758201599121,8.390886306762695
1772732011213747700,3.310747802734375,1.313191533088684,-0.8394078016281128,8.002924919128418
1772732011223774700,3.320774658203125,1.3689138889312744,-1.7370140552520752,7.275123119354248
1772732011233802500,3.330802490234375,1.3770540952682495,-2.628054141998291,6.528832912445068
1772732011243830800,3.340830810546875,1.2624893188476562,-3.061415910720825,5.963740825653076
1772732011253858600,3.350858642578125,0.9558995962142944,-2.9389612674713135,5.559719562530518
1772732011263886600,3.360886474609375,0.5898193717002869,-2.373643398284912,5.349635601043701
1772732011273914600,3.37091455078125,0.2966327369213104,-1.7230180501937866,5.281499862670898
1772732011283942700,3.380942626953125,0.19475434720516205,-1.315349817276001,5.21373987197876
1772732011293970700,3.390970703125,0.19587020576000214,-1.1337834596633911,5.002230644226074
1772732011303998700,3.400998779296875,0.2229890525341034,-1.0971238613128662,4.681445121765137
1772732011314025700,3.411025634765625,0.18646007776260376,-0.8735432028770447,4.198946475982666
1772732011324053500,3.421053466796875,0.1706721931695938,-0.5840044021606445,3.677381753921509
1772732011334081500,3.43108154296875,0.2356967329978943,-0.3081786632537842,3.1245594024658203
1772732011344109600,3.441109619140625,0.42638665437698364,-0.028392616659402847,2.521242380142212
1772732011354137600,3.4511376953125,0.6573764085769653,0.2464493364095688,1.8357645273208618
1772732011364165600,3.46116552734375,0.8295983672142029,0.5352761149406433,1.1172220706939697
1772732011374193700,3.471193603515625,0.902290403842926,0.7186342477798462,0.4654383957386017
1772732011384221400,3.481221435546875,0.8534923791885376,0.786601185798645,-0.012658512219786644
1772732011394248700,3.491248779296875,0.6780571937561035,0.8456847667694092,-0.27653783559799194
1772732011404276700,3.50127685546875,0.4714491367340088,0.9481539726257324,-0.436541885137558
1772732011414304800,3.5113046875,0.26337262988090515,1.1291624307632446,-0.5099425911903381
1772732011424332500,3.52133251953125,0.07288150489330292,1.3661175966262817,-0.5074467062950134
1772732011434360800,3.53136083984375,-0.12395831942558289,1.5568315982818604,-0.5019264817237854
1772732011444388600,3.541388671875,-0.28469499945640564,1.6913259029388428,-0.555535614490509
1772732011454416600,3.551416748046875,-0.37210342288017273,1.76176917552948,-0.7143380641937256
1772732011464444700,3.561444580078125,-0.42585885524749756,1.7288726568222046,-1.0172778367996216
1772732011474472400,3.571472412109375,-0.46417880058288574,1.5909651517868042,-1.4841856956481934
1772732011484499700,3.581499755859375,-0.49402472376823425,1.387502670288086,-2.032193899154663
1772732011494527500,3.591527587890625,-0.5155308246612549,1.1671454906463623,-2.6009860038757324
1772732011504555800,3.6015556640625,-0.5332911014556885,1.0232384204864502,-3.07529878616333
1772732011514583600,3.61158349609375,-0.5276777148246765,0.9432607889175415,-3.3954379558563232
1772732011524611600,3.621611572265625,-0.5047550797462463,0.9107101559638977,-3.601970672607422
1772732011534639600,3.6316396484375,-0.5038663744926453,0.9003613591194153,-3.757678508758545
1772732011544667600,3.641667724609375,-0.5157970190048218,0.8420476317405701,-3.9374539852142334
1772732011554695700,3.65169580078125,-0.5275303721427917,0.7275431752204895,-4.144809246063232
1772732011564723700,3.6617236328125,-0.546744167804718,0.6036413908004761,-4.31815767288208
1772732011574750700,3.671750732421875,-0.5423699021339417,0.49859538674354553,-4.476626396179199
1772732011584778500,3.681778564453125,-0.4309345781803131,0.3437613844871521,-4.683591842651367
1772732011594806800,3.691806884765625,-0.2852351665496826,0.15205109119415283,-4.922361850738525
1772732011604834600,3.70183447265625,-0.17376726865768433,0.01732539013028145,-5.113353729248047
1772732011614862600,3.711862548828125,-0.13089117407798767,-0.062714584171772,-5.2706780433654785
1772732011624890600,3.721890625,-0.2352382391691208,0.020258774980902672,-5.362381458282471
1772732011634918700,3.731918701171875,-0.5007485151290894,0.32620006799697876,-5.381266117095947
1772732011644946700,3.74194677734375,-0.8416154384613037,0.9109558463096619,-5.39021635055542
1772732011654974700,3.751974609375,-1.075650691986084,1.6678988933563232,-5.412250518798828
1772732011665001700,3.762001708984375,-1.0612285137176514,2.0852832794189453,-5.397497177124023
1772732011675029500,3.772029541015625,-0.7258683443069458,2.058406352996826,-5.473120212554932
1772732011685057500,3.7820576171875,-0.3752978444099426,2.29170823097229,-5.7533769607543945
1772732011695085600,3.79208544921875,-0.2679460644721985,3.019392490386963,-5.659832000732422
1772732011705113600,3.802113525390625,-0.7142634987831116,3.9808971881866455,-4.868762969970703
1772732011715141600,3.8121416015625,-1.3912712335586548,4.580549240112305,-3.90519642829895
1772732011725169700,3.822169677734375,-1.932527780532837,4.772918224334717,-3.42100191116333
1772732011735197400,3.832197509765625,-1.980928659439087,4.755771636962891,-3.4604907035827637
1772732011745226200,3.842226318359375,-1.6236536502838135,4.501660346984863,-3.4237964153289795
1772732011755253000,3.8522529296875,-1.3917866945266724,3.592468500137329,-3.169274091720581
1772732011765281000,3.862281005859375,-1.5167946815490723,2.2544097900390625,-3.0177929401397705
1772732011775309000,3.87230908203125,-1.7884069681167603,0.7975907921791077,-2.8693814277648926
1772732011785337000,3.882337158203125,-1.9867377281188965,-0.39294305443763733,-2.6660547256469727
1772732011795365000,3.892365234375,-2.045100688934326,-1.0578781366348267,-2.2751107215881348
1772732011805393000,3.902392822265625,-1.9707074165344238,-1.1845511198043823,-1.6963789463043213
1772732011815421200,3.912421142578125,-1.791269302368164,-1.047851800918579,-1.009384274482727
1772732011825449000,3.922448974609375,-1.5469577312469482,-0.9163833260536194,-0.48444950580596924
1772732011835477000,3.93247705078125,-1.3141167163848877,-0.9301484227180481,-0.24097587168216705
1772732011845504000,3.94250390625,-1.053992509841919,-0.9365774989128113,-0.10457689315080643
1772732011855532300,3.9525322265625,-0.7424304485321045,-0.848431408405304,0.12898419797420502
1772732011865560000,3.96256005859375,-0.5375506281852722,-0.5346413254737854,0.44611674547195435
1772732011875587800,3.972587890625,-0.3547813296318054,-0.3312663435935974,0.7205339074134827
1772732011885616000,3.9826162109375,-0.24797184765338898,-0.19499710202217102,0.9057677984237671
1772732011895644000,3.992643798828125,-0.14057588577270508,-0.15268905460834503,1.0458452701568604
1772732011905672200,4.002672119140625,0.007070844992995262,-0.17193715274333954,1.1834142208099365
1772732011915700000,4.012699951171875,0.2130272090435028,-0.30454447865486145,1.3070446252822876
1772732011925728000,4.02272802734375,0.41422995924949646,-0.645114541053772,1.3127210140228271
1772732011935755000,4.032755126953125,0.5733966827392578,-0.886074960231781,1.34723961353302
1772732011945783000,4.042782958984375,0.7546036243438721,-0.9175549149513245,1.5468637943267822
1772732011955811000,4.05281103515625,1.049457311630249,-0.9996604323387146,1.7454584836959839
1772732011965839000,4.062839111328125,1.3668917417526245,-1.2698311805725098,1.9116835594177246
1772732011975867100,4.0728671875,1.5234260559082031,-1.8436717987060547,1.9836562871932983
1772732011985895200,4.082895263671875,1.491165280342102,-2.3826897144317627,2.162621021270752
1772732011995923000,4.0929228515625,1.3548955917358398,-2.5402934551239014,2.728424549102783
1772732012005951200,4.102951171875,1.1199067831039429,-2.432427167892456,3.659402847290039
1772732012015979000,4.11297900390625,0.9074128866195679,-2.1939094066619873,4.715956687927246
1772732012026006000,4.123006103515625,0.8226187229156494,-2.076223134994507,5.541228294372559
1772732012036034000,4.133033935546875,0.7841054201126099,-2.163508653640747,5.840318202972412
1772732012046062000,4.14306201171875,0.642244815826416,-2.5072414875030518,5.912180423736572
1772732012056090000,4.153090087890625,0.35640883445739746,-2.8270108699798584,6.0919342041015625
1772732012066118000,4.163117919921875,0.009749975986778736,-2.8664445877075195,6.537431240081787
1772732012076146200,4.173146240234375,-0.19593527913093567,-2.704261302947998,7.179173469543457
1772732012086174000,4.183174072265625,-0.2931741178035736,-2.450918674468994,7.832472324371338
1772732012096202200,4.1932021484375,-0.3322930335998535,-2.1475298404693604,8.283007621765137
1772732012106230000,4.20322998046875,-0.3641093671321869,-1.8139127492904663,8.603227615356445
1772732012116257000,4.213257080078125,-0.3028843402862549,-1.5699570178985596,8.745469093322754
1772732012126285000,4.22328515625,-0.06997119635343552,-1.393452763557434,8.683138847351074
1772732012136313000,4.23331298828125,0.27065908908843994,-1.322834849357605,8.284406661987305
1772732012146341000,4.243341064453125,0.5345833897590637,-1.5419096946716309,7.555070877075195
1772732012156369000,4.253368896484375,0.6736970543861389,-1.881264567375183,6.677438259124756
1772732012166397200,4.263397216796875,0.8546335101127625,-1.964097023010254,5.7169671058654785
1772732012176425000,4.273425048828125,1.1802093982696533,-1.819885492324829,4.74550724029541
1772732012186453000,4.283452880859375,1.623565435409546,-1.7966352701187134,3.727699041366577
1772732012196481000,4.29348095703125,1.8884801864624023,-1.9971423149108887,2.51261305809021
1772732012206508000,4.303508056640625,1.8269529342651367,-2.2421157360076904,1.234521746635437
1772732012216536000,4.3135361328125,1.7362902164459229,-2.4395453929901123,0.1151709333062172
1772732012226564000,4.323564208984375,1.578997015953064,-2.4240164756774902,-0.7206750512123108
1772732012236592000,4.333592041015625,1.3411961793899536,-2.2143115997314453,-1.229559063911438
1772732012246620000,4.343619873046875,1.0617789030075073,-1.8127185106277466,-1.4186450242996216
1772732012256648000,4.35364794921875,0.7354532480239868,-1.300034999847412,-1.3399566411972046
1772732012266676000,4.363676025390625,0.4613374173641205,-0.7744114398956299,-1.160048246383667
1772732012276704000,4.3737041015625,0.2836126983165741,-0.204350084066391,-0.9122637510299683
1772732012286732000,4.38373193359375,0.14361810684204102,0.28201866149902344,-0.7134164571762085
1772732012296759000,4.393759033203125,-0.02984076924622059,0.590939462184906,-0.5104042291641235
1772732012306787000,4.403787109375,-0.22193071246147156,0.794450581073761,-0.4393962621688843
1772732012316815000,4.413815185546875,-0.3855244517326355,0.9607087969779968,-0.6031137704849243
1772732012326843100,4.423843017578125,-0.5242525935173035,1.0154565572738647,-0.9744134545326233
1772732012336871200,4.43387109375,-0.6724425554275513,1.0044959783554077,-1.488392949104309
1772732012346899000,4.44389892578125,-0.833059549331665,0.8985989689826965,-2.092111110687256
1772732012356927200,4.45392724609375,-0.9479208588600159,0.8275375366210938,-2.7136614322662354
1772732012366955000,4.463955078125,-0.9072651267051697,0.9151614308357239,-3.2635152339935303
1772732012376983000,4.473983154296875,-0.6884734034538269,1.1112043857574463,-3.700824022293091
1772732012387010000,4.484010009765625,-0.4342803359031677,1.1524115800857544,-4.0706329345703125
1772732012397038000,4.4940380859375,-0.22882278263568878,1.1583070755004883,-4.369740009307861
1772732012407066000,4.504066162109375,-0.04692494869232178,1.1978871822357178,-4.563132286071777
1772732012417094000,4.514093994140625,0.15257804095745087,1.2881842851638794,-4.7271013259887695
1772732012427122200,4.5241220703125,0.3674056828022003,1.426287293434143,-4.911759376525879
1772732012437150000,4.53414990234375,0.5911788940429688,1.5922672748565674,-5.079805850982666
1772732012447178200,4.54417822265625,0.8263925313949585,1.7333251237869263,-5.210901260375977
1772732012457206000,4.5542060546875,1.0414073467254639,1.8473713397979736,-5.250683784484863
1772732012467233000,4.56423291015625,1.2445611953735352,1.9497216939926147,-5.1479573249816895
1772732012477261000,4.574260986328125,1.4325915575027466,2.211759567260742,-4.9477081298828125
1772732012487288800,4.584288818359375,1.5501137971878052,2.565661668777466,-4.562389373779297
1772732012497317000,4.594317138671875,1.542646050453186,2.900045871734619,-3.9657788276672363
1772732012507345000,4.604344970703125,1.383335828781128,3.1824302673339844,-3.2670223712921143
1772732012517373200,4.614373291015625,1.1107001304626465,3.2972776889801025,-2.600252866744995
1772732012527401000,4.62440087890625,0.6900472044944763,3.107311487197876,-2.175870895385742
1772732012537429000,4.634428955078125,0.11808007955551147,2.654582977294922,-2.0386962890625
1772732012547457000,4.64445703125,-0.5751811265945435,1.9448975324630737,-2.093229055404663
1772732012557484000,4.654484130859375,-1.362932801246643,0.9970818161964417,-2.4917125701904297
1772732012567512000,4.664511962890625,-2.1387851238250732,0.04561368376016617,-3.439704179763794
1772732012577540000,4.6745400390625,-2.3788344860076904,-0.5441369414329529,-4.909170627593994
1772732012587568000,4.684568115234375,-1.9051809310913086,-0.07175599783658981,-6.415343761444092
1772732012597596200,4.69459619140625,-1.0021666288375854,1.3560571670532227,-7.000359535217285
1772732012607624000,4.7046240234375,0.36431634426116943,3.042850971221924,-6.602284908294678
1772732012617652000,4.71465185546875,1.6106292009353638,4.64476203918457,-5.430267333984375
1772732012627680000,4.724679931640625,1.6440024375915527,5.4271063804626465,-4.38532829284668
1772732012637708000,4.7347080078125,0.8599411249160767,4.869205951690674,-4.374138355255127
1772732012647736000,4.744736083984375,-0.08873074501752853,3.329092025756836,-4.729153633117676
1772732012657763000,4.75476318359375,-1.024416446685791,2.069425106048584,-4.442450046539307
1772732012667791000,4.764791015625,-1.745995283126831,1.5582726001739502,-3.368128776550293
1772732012677819100,4.774819091796875,-2.0781660079956055,1.5743213891983032,-2.104950428009033
1772732012687847200,4.78484716796875,-2.003678798675537,1.7096891403198242,-1.0193196535110474
1772732012697875000,4.794875,-1.6782745122909546,1.7865139245986938,-0.3175574839115143
1772732012707903200,4.8049033203125,-1.2920023202896118,1.642142653465271,-0.007986597716808319
1772732012717931000,4.814930908203125,-0.9686327576637268,1.034110188484192,0.12332535535097122
1772732012727959000,4.824958984375,-0.7834465503692627,0.0028943971265107393,0.051856879144907
1772732012737987300,4.8349873046875,-0.6713104248046875,-1.08591628074646,-0.13975916802883148
1772732012748014300,4.845014404296875,-0.5474538207054138,-1.8633110523223877,-0.23391856253147125
1772732012758042000,4.8550419921875,-0.38019290566444397,-2.1367766857147217,-0.044575273990631104
1772732012768070100,4.865070068359375,-0.16422045230865479,-1.8950368165969849,0.39983895421028137
1772732012778098200,4.87509814453125,0.12253274768590927,-1.2811033725738525,0.9182783961296082
1772732012788126200,4.885126220703125,0.4615519344806671,-0.6522714495658875,1.294460654258728
1772732012798154200,4.895154296875,0.6706079244613647,-0.43759778141975403,1.4836944341659546
1772732012808182300,4.905182373046875,0.7861724495887756,-0.48023268580436707,1.553143858909607
1772732012818210000,4.9152099609375,0.92227703332901,-0.5927547216415405,1.684123158454895
1772732012828238300,4.92523828125,1.1502976417541504,-0.7683839201927185,1.9394359588623047
1772732012838265000,4.93526513671875,1.481244683265686,-0.8264663815498352,2.2642719745635986
1772732012848293000,4.945293212890625,1.6809194087982178,-0.853264570236206,2.51011061668396
1772732012858321200,4.955321044921875,1.7180765867233276,-1.161845088005066,2.5759148597717285
1772732012868349200,4.96534912109375,1.6278626918792725,-1.8108757734298706,2.6545748710632324
1772732012878377200,4.975377197265625,1.4226826429367065,-2.6014816761016846,2.8514609336853027
1772732012888405000,4.985405029296875,1.1417763233184814,-3.3619701862335205,3.01377010345459
1772732012898433300,4.995433349609375,0.7774263024330139,-4.161595821380615,3.266430377960205
1772732012908461000,5.0054609375,0.4544323980808258,-4.54417085647583,3.7214889526367188
1772732012918489300,5.0154892578125,0.21884331107139587,-4.461423397064209,4.229328155517578
1772732012928516000,5.02551611328125,-0.1595822423696518,-4.085294246673584,4.874581813812256
1772732012938544400,5.03554443359375,-0.6109984517097473,-3.466434955596924,5.519168376922607
1772732012948572200,5.045572265625,-0.9380061030387878,-2.7349090576171875,6.1511054039001465
1772732012958600200,5.05560009765625,-1.0688313245773315,-2.0723540782928467,6.747043609619141
1772732012968628200,5.065628173828125,-1.089921236038208,-1.6504614353179932,7.5492143630981445
1772732012978656300,5.07565625,-0.9770141243934631,-1.398677945137024,8.473630905151367
1772732012988684300,5.085684326171875,-0.7372599244117737,-1.2966835498809814,9.282760620117188
1772732012998712000,5.095712158203125,-0.38552796840667725,-1.163487434387207,9.726534843444824
1772732013008740000,5.105739990234375,0.08366049081087112,-1.021094560623169,9.880101203918457
1772732013018767000,5.11576708984375,0.4845120310783386,-0.9196867346763611,9.993728637695312
1772732013028795100,5.125795166015625,0.8552981019020081,-0.8813776969909668,9.893616676330566
1772732013038823200,5.1358232421875,1.19504714012146,-1.0291664600372314,9.497970581054688
1772732013048851200,5.145851318359375,1.5173014402389526,-1.3761041164398193,8.8434419631958
1772732013058879200,5.155879150390625,1.694338083267212,-1.7536667585372925,7.9052252769470215
1772732013068907300,5.1659072265625,1.7237719297409058,-2.070822238922119,6.854322910308838
1772732013078935000,5.17593505859375,1.81784188747406,-2.202730178833008,5.64985990524292
1772732013088963300,5.18596337890625,1.9946105480194092,-2.008441925048828,4.465590476989746
1772732013098991000,5.1959912109375,2.2192726135253906,-1.3928990364074707,3.3994534015655518
1772732013109018000,5.20601806640625,2.3246452808380127,-0.6244326829910278,2.421159267425537
1772732013119046100,5.216046142578125,2.182711362838745,-0.058365315198898315,1.6406211853027344
1772732013129074200,5.22607421875,1.7452819347381592,0.36110779643058777,1.042574405670166
1772732013139102200,5.236102294921875,1.1584900617599487,0.8500644564628601,0.5525532364845276
1772732013149130000,5.2461298828125,0.6162335276603699,1.2897098064422607,0.06623443961143494
1772732013159158300,5.256158203125,0.15956182777881622,1.5490643978118896,-0.48688119649887085
1772732013169186000,5.26618603515625,-0.27484020590782166,1.6297963857650757,-1.0742369890213013
1772732013179214300,5.27621435546875,-0.6655336618423462,1.8068866729736328,-1.7131510972976685
1772732013189242000,5.2862421875,-0.9881789088249207,2.1068332195281982,-2.3031976222991943
1772732013199269400,5.296269287109375,-1.2689170837402344,2.319547414779663,-2.770759344100952
1772732013209297200,5.306297119140625,-1.4972585439682007,2.360708236694336,-3.138904094696045
1772732013219325200,5.3163251953125,-1.6281592845916748,2.2590794563293457,-3.4162259101867676
1772732013229353200,5.326353271484375,-1.6906890869140625,2.1727981567382812,-3.6543850898742676
1772732013239381000,5.336381103515625,-1.730403184890747,2.0824124813079834,-3.884812355041504
1772732013249408300,5.346408203125,-1.7874362468719482,1.9635831117630005,-4.15122652053833
1772732013259436000,5.35643603515625,-1.8707619905471802,1.793529987335205,-4.460952281951904
1772732013269464300,5.36646435546875,-1.8979663848876953,1.6706504821777344,-4.812646389007568
1772732013279492000,5.3764921875,-1.856046438217163,1.5227537155151367,-5.1169257164001465
1772732013289520400,5.386520263671875,-1.8032976388931274,1.362692952156067,-5.293445587158203
1772732013299548200,5.396548095703125,-1.7171303033828735,1.2505592107772827,-5.34876823425293
1772732013309576200,5.406576171875,-1.6007360219955444,1.144344449043274,-5.360657215118408
1772732013319604200,5.416604248046875,-1.470175862312317,1.0551464557647705,-5.336273670196533
1772732013329632300,5.42663232421875,-1.4314484596252441,0.9707770943641663,-5.2681989669799805
1772732013339659300,5.4366591796875,-1.528740406036377,0.8398507237434387,-5.188046455383301
1772732013349687000,5.44668701171875,-1.715990424156189,0.6156588792800903,-5.271132469177246
1772732013359715300,5.45671533203125,-1.8057671785354614,0.28209981322288513,-5.532137393951416
1772732013369743000,5.4667431640625,-1.6345127820968628,0.03125569969415665,-5.825254917144775
1772732013379771100,5.476771240234375,-1.1850364208221436,0.2636500597000122,-6.0877509117126465
1772732013389799200,5.486799072265625,-0.6231715679168701,1.1449514627456665,-6.124028205871582
1772732013399827200,5.4968271484375,-0.30489614605903625,2.5702953338623047,-5.738174915313721
1772732013409855200,5.506855224609375,-0.43317246437072754,3.710207939147949,-5.019913196563721
1772732013419883300,5.51688330078125,-1.0920418500900269,3.9055817127227783,-4.062067031860352
1772732013429910300,5.52691015625,-1.9634373188018799,3.4659359455108643,-3.326655864715576
1772732013439938000,5.53693798828125,-2.6114795207977295,3.0503158569335938,-3.357872247695923
1772732013449966000,5.546966064453125,-2.744356870651245,2.7401700019836426,-3.9563372135162354
1772732013459994000,5.556994140625,-2.445972204208374,1.7798619270324707,-4.688515663146973
1772732013470022100,5.567022216796875,-2.0147504806518555,0.4119594991207123,-5.272645473480225
1772732013480050200,5.57705029296875,-1.697798490524292,-0.5100492238998413,-5.819834232330322
1772732013490078200,5.587078125,-1.4471135139465332,-0.6201176643371582,-5.9820075035095215
1772732013500106000,5.59710595703125,-1.2980393171310425,-0.279617577791214,-5.1058526039123535
1772732013510134300,5.60713427734375,-1.2660170793533325,0.2113463431596756,-3.6822237968444824
1772732013520162000,5.617162109375,-1.2360503673553467,0.4859475791454315,-2.513826847076416
1772732013530189300,5.627189208984375,-1.1147305965423584,0.20471400022506714,-1.6732598543167114
1772732013540217000,5.637217041015625,-0.8657730221748352,-0.46557462215423584,-1.1680175065994263
1772732013550245400,5.647245361328125,-0.6080581545829773,-1.117637276649475,-0.9710050225257874
1772732013560273200,5.657273193359375,-0.4874853789806366,-1.5439765453338623,-0.8348666429519653
1772732013570301200,5.66730126953125,-0.4593314230442047,-1.716430425643921,-0.53322833776474
1772732013580329200,5.6773291015625,-0.44070208072662354,-1.6746779680252075,-0.040364813059568405
1772732013590357000,5.68735693359375,-0.31417667865753174,-1.3971590995788574,0.48989003896713257
1772732013600386000,5.697385986328125,-0.07930213212966919,-0.9457504153251648,0.9476186633110046
1772732013610414300,5.707414306640625,0.1838875412940979,-0.4029504656791687,1.305044412612915
1772732013620441000,5.717441162109375,0.40241456031799316,0.0840495303273201,1.6478172540664673
1772732013630469000,5.72746923828125,0.588597297668457,0.3045445680618286,1.967002034187317
1772732013640497200,5.7374970703125,0.7528594732284546,0.17972061038017273,2.1200385093688965
1772732013650525200,5.747525146484375,0.8978424072265625,-0.1128878965973854,2.094780206680298
1772732013660553200,5.75755322265625,1.075714111328125,-0.35487231612205505,2.0964155197143555
1772732013670581000,5.7675810546875,1.273972988128662,-0.39284610748291016,2.199423313140869
1772732013680609300,5.777609375,1.477382779121399,-0.08489575237035751,2.5431690216064453
1772732013690637000,5.787636962890625,1.644529938697815,0.35573408007621765,2.9777464866638184
1772732013700664300,5.797664306640625,1.7489711046218872,0.5752879977226257,3.3860132694244385
1772732013710692000,5.807692138671875,1.8669956922531128,0.5231338739395142,3.6457223892211914
1772732013720720400,5.817720458984375,2.21399188041687,0.43459516763687134,3.870706796646118
1772732013730748200,5.827748046875,2.696331024169922,0.16074930131435394,4.524587631225586
1772732013740776000,5.83777587890625,3.1237733364105225,0.09821321070194244,5.632881164550781
1772732013750803700,5.8478037109375,3.04451322555542,0.18870005011558533,6.802196502685547
1772732013760831700,5.857831787109375,2.414630651473999,0.04342382401227951,7.5973944664001465
1772732013770859800,5.86785986328125,1.7072616815567017,-0.3382222354412079,8.159843444824219
1772732013780887800,5.8778876953125,1.2788006067276,-0.6550558805465698,8.577024459838867
1772732013790915800,5.887915771484375,1.1459003686904907,-0.6820412278175354,8.640401840209961
1772732013800942600,5.897942626953125,1.3199025392532349,-0.8427677750587463,8.529218673706055
1772732013810971000,5.907970947265625,1.5008184909820557,-1.1940670013427734,8.36771011352539
1772732013820998700,5.91799853515625,1.4600601196289062,-1.857212781906128,7.979674339294434
1772732013831026700,5.928026611328125,1.2929869890213013,-2.6143527030944824,7.466615676879883
1772732013841054700,5.9380546875,1.1195733547210693,-3.1016299724578857,7.058891773223877
1772732013851082800,5.948082763671875,0.9479881525039673,-3.363147497177124,6.827803611755371
1772732013861110800,5.95811083984375,0.8464516997337341,-3.336883544921875,6.601267337799072
1772732013871138800,5.968138916015625,0.8340579867362976,-3.110971450805664,6.395210266113281
1772732013881166600,5.97816650390625,0.8941665887832642,-2.87558650970459,6.098482608795166
1772732013891195000,5.98819482421875,0.9574370384216309,-2.787951946258545,5.594709873199463
1772732013901221600,5.9982216796875,1.0623706579208374,-2.844794750213623,4.888371467590332
1772732013911250000,6.00825,1.134156346321106,-2.897279739379883,4.125500202178955
1772732013921277700,6.018277587890625,1.172132134437561,-2.9074666500091553,3.475564956665039
1772732013931305700,6.0283056640625,1.2063090801239014,-2.8327860832214355,2.964557409286499
1772732013941333800,6.038333740234375,1.2108968496322632,-2.4667418003082275,2.624019145965576
1772732013951361500,6.048361572265625,1.2014211416244507,-2.058854818344116,2.347234010696411
1772732013961389800,6.058389892578125,1.1822556257247925,-1.7163640260696411,2.0303947925567627
1772732013971417600,6.06841748046875,1.2349101305007935,-1.391715168952942,1.6345728635787964
1772732013981446000,6.07844580078125,1.3090778589248657,-0.9788340926170349,1.1968131065368652
1772732013991472600,6.08847265625,1.371004581451416,-0.40581178665161133,0.8316670060157776
1772732014001501000,6.0985009765625,1.3885871171951294,0.11186996847391129,0.4852027893066406
1772732014011528700,6.10852880859375,1.2432688474655151,0.4453218877315521,0.08677389472723007
1772732014021556700,6.118556640625,0.9514757990837097,0.6473599076271057,-0.33138927817344666
1772732014031584800,6.128584716796875,0.6281813383102417,0.8543895483016968,-0.7637950778007507
1772732014041612800,6.13861279296875,0.30726540088653564,1.1280019283294678,-1.2155581712722778
1772732014051640800,6.148640869140625,-0.03285626694560051,1.427024483680725,-1.6820597648620605
1772732014061668900,6.1586689453125,-0.3370097577571869,1.5929298400878906,-2.196514129638672
1772732014071696600,6.168696533203125,-0.5187574028968811,1.6932182312011719,-2.7307357788085938
1772732014081723600,6.1787236328125,-0.5066312551498413,1.9108381271362305,-3.1631903648376465
1772732014091752000,6.188751953125,-0.3553098142147064,2.225550413131714,-3.4273393154144287
1772732014101779700,6.19877978515625,-0.18964974582195282,2.522242307662964,-3.584465980529785
1772732014111807700,6.208807861328125,-0.07363023608922958,2.644529104232788,-3.698045253753662
1772732014121835800,6.218835693359375,-0.07181848585605621,2.5834953784942627,-3.815063953399658
1772732014131863800,6.22886376953125,-0.16893579065799713,2.4407403469085693,-3.9203672409057617
1772732014141891800,6.238891845703125,-0.2700035572052002,2.3387610912323,-4.033353805541992
1772732014151919900,6.248919921875,-0.3415544331073761,2.200383186340332,-4.278160095214844
1772732014161947600,6.25894775390625,-0.401448130607605,2.0186195373535156,-4.659661293029785
1772732014171974700,6.268974609375,-0.44171908497810364,1.8134480714797974,-5.091800212860107
1772732014182002700,6.279002685546875,-0.4202111065387726,1.6363236904144287,-5.53087854385376
1772732014192030700,6.28903076171875,-0.264993816614151,1.5473936796188354,-5.909948348999023
1772732014202058800,6.299058837890625,-0.11792099475860596,1.5440622568130493,-6.094038486480713
1772732014212086800,6.309086669921875,-0.11338906735181808,1.6021589040756226,-5.988313674926758
1772732014222114800,6.31911474609375,-0.31834834814071655,1.5199137926101685,-5.609878063201904
1772732014232142600,6.329142578125,-0.7479758858680725,1.1091276407241821,-5.067547798156738
1772732014242171000,6.3391708984375,-1.3408098220825195,0.43685439229011536,-4.479211807250977
1772732014252198700,6.34919873046875,-1.7468918561935425,-0.4273945987224579,-3.9675426483154297
1772732014262227000,6.35922705078125,-1.7999268770217896,-0.9790230989456177,-3.6244194507598877
1772732014272253700,6.369253662109375,-1.0866637229919434,0.420053094625473,-3.5914857387542725
1772732014282282000,6.379281982421875,-0.3018280863761902,3.670952796936035,-3.6851999759674072
1772732014292309800,6.389309814453125,-0.21457718312740326,7.141854763031006,-3.3751046657562256
1772732014302337500,6.399337646484375,-1.0901411771774292,8.66243839263916,-2.8499414920806885
1772732014312365800,6.40936572265625,-2.2059218883514404,7.735182762145996,-2.848508834838867
1772732014322393600,6.4193935546875,-3.3307299613952637,6.08394718170166,-3.1051793098449707
1772732014332422000,6.429421875,-4.015982151031494,4.628000259399414,-3.332465648651123
1772732014342449700,6.43944970703125,-3.694438934326172,3.0554354190826416,-3.91150164604187
1772732014352477700,6.449477783203125,-2.6937978267669678,1.7477271556854248,-4.909595012664795
1772732014362504700,6.459504638671875,-1.9036415815353394,0.44211187958717346,-5.799597263336182
1772732014372532700,6.46953271484375,-1.437736988067627,-0.6415020227432251,-5.922145366668701
1772732014382560800,6.479560791015625,-1.321764588356018,-0.8997548222541809,-5.269357204437256
1772732014392588800,6.4895888671875,-1.6892396211624146,-0.6248123049736023,-3.9531338214874268
1772732014402616800,6.499616943359375,-2.1564247608184814,-0.2358216792345047,-2.4656028747558594
1772732014412644900,6.509644775390625,-2.439868211746216,-0.2263164520263672,-1.4847660064697266
1772732014422672600,6.519672607421875,-2.3464083671569824,-0.6506352424621582,-1.231296420097351
1772732014432701000,6.529700927734375,-1.8852410316467285,-1.1969523429870605,-1.2764531373977661
1772732014442728700,6.539728759765625,-1.1955206394195557,-1.644335389137268,-1.3232033252716064
1772732014452756700,6.5497568359375,-0.5183278322219849,-1.8250771760940552,-1.3179548978805542
1772732014462783700,6.55978369140625,-0.09833751618862152,-1.7892318964004517,-1.2070976495742798
1772732014472811800,6.569811767578125,0.12665271759033203,-1.5769251585006714,-0.9318111538887024
1772732014482839800,6.57983984375,0.36498939990997314,-1.2368289232254028,-0.5494912266731262
1772732014492867600,6.58986767578125,0.5810976028442383,-0.9252283573150635,-0.17103728652000427
1772732014502895900,6.599895751953125,0.7175782322883606,-0.749292254447937,0.06671774387359619
1772732014512923600,6.609923583984375,0.9105640053749084,-0.5308557152748108,0.27197012305259705
1772732014522952000,6.619951904296875,1.176461935043335,-0.12655138969421387,0.6828732490539551
1772732014532979700,6.629979736328125,1.5302406549453735,0.36491766571998596,1.3675153255462646
1772732014543007700,6.6400078125,2.037569284439087,0.7913614511489868,2.2363178730010986
1772732014553034800,6.65003466796875,2.4652915000915527,0.47310370206832886,2.8431079387664795
1772732014563062800,6.660062744140625,2.717811107635498,-0.9070084095001221,2.966850519180298
1772732014573090800,6.6700908203125,2.776630163192749,-2.9930615425109863,3.117138147354126
1772732014583118600,6.68011865234375,2.627877712249756,-4.67976188659668,3.4075939655303955
1772732014593147000,6.69014697265625,2.57991099357605,-5.423242092132568,3.7267696857452393
1772732014603174700,6.700174560546875,2.704390525817871,-5.348820686340332,4.319687843322754
1772732014613202700,6.71020263671875,2.5984854698181152,-4.768910884857178,5.133671760559082
1772732014623230700,6.720230712890625,2.189631700515747,-3.89007306098938,6.256774425506592
1772732014633258800,6.7302587890625,1.7830970287322998,-3.058614730834961,7.63828706741333
1772732014643286800,6.740286865234375,1.408677339553833,-2.5094382762908936,8.893717765808105
1772732014653313800,6.750313720703125,1.178544282913208,-2.3408114910125732,9.544205665588379
1772732014663341800,6.760341796875,1.0431758165359497,-2.4303126335144043,9.884180068969727
1772732014673369600,6.77036962890625,0.9446642398834229,-2.6018524169921875,10.028632164001465
1772732014683398000,6.78039794921875,0.9293912649154663,-2.6666815280914307,9.946419715881348
1772732014693425700,6.79042578125,1.0297573804855347,-2.531952142715454,9.895377159118652
1772732014703453700,6.80045361328125,1.2677584886550903,-2.2903809547424316,9.794426918029785
1772732014713481700,6.810481689453125,1.611410140991211,-1.9345606565475464,9.526333808898926
1772732014723509800,6.820509765625,1.8898098468780518,-1.5572941303253174,9.006878852844238
1772732014733537800,6.830537841796875,2.0394022464752197,-1.3847358226776123,8.35178279876709
1772732014743565600,6.840565673828125,2.0637223720550537,-1.5129265785217285,7.587367534637451
1772732014753592600,6.850592529296875,2.072721004486084,-1.902847409248352,6.639934062957764
1772732014763620600,6.86062060546875,2.062511682510376,-2.4302947521209717,5.436100959777832
1772732014773648400,6.8706484375,1.9923183917999268,-2.6582727432250977,3.9465060234069824
1772732014783676700,6.8806767578125,1.938446044921875,-2.2209928035736084,2.4172568321228027
1772732014793704400,6.890704345703125,1.9510676860809326,-1.4032377004623413,1.2305301427841187
1772732014803732700,6.900732666015625,1.9355132579803467,-0.7158949375152588,0.3678857386112213
1772732014813760500,6.910760498046875,1.7881757020950317,-0.3432297706604004,-0.315273642539978
1772732014823788500,6.92078857421875,1.4913980960845947,-0.3260861933231354,-1.0573667287826538
1772732014833816600,6.930816650390625,1.0528749227523804,-0.3523868918418884,-1.9952956438064575
1772732014843843600,6.940843505859375,0.5704371333122253,-0.148683562874794,-3.0071215629577637
1772732014853871600,6.95087158203125,0.06374545395374298,0.6021178960800171,-4.012874603271484
1772732014863899400,6.9608994140625,-0.4512456953525543,1.8090912103652954,-4.781065464019775
1772732014873927700,6.970927734375,-0.9753023386001587,2.8243823051452637,-5.093675136566162
1772732014883955500,6.98095556640625,-1.6415823698043823,3.475687265396118,-4.972311973571777
1772732014893983500,6.9909833984375,-2.2822980880737305,4.154069423675537,-4.611795902252197
1772732014904011500,7.001011474609375,-2.7467260360717773,4.838398456573486,-4.165173053741455
1772732014914039600,7.01103955078125,-3.160466432571411,5.141794204711914,-3.822796106338501
1772732014924067600,7.021067626953125,-3.5728254318237305,5.101624011993408,-3.74009370803833
1772732014934094600,7.031094482421875,-3.973513126373291,4.926260948181152,-3.914161443710327
1772732014944122600,7.04112255859375,-4.22798490524292,4.66972017288208,-4.333551406860352
1772732014954150400,7.051150390625,-4.284088611602783,4.354129791259766,-4.887397289276123
1772732014964178700,7.0611787109375,-4.130260944366455,4.021176815032959,-5.413619518280029
1772732014974206500,7.07120654296875,-3.783701181411743,3.748518705368042,-5.73799467086792
1772732014984234500,7.081234375,-3.371539354324341,3.5329301357269287,-5.782495021820068
1772732014994262500,7.091262451171875,-2.996950387954712,3.3287689685821533,-5.580547332763672
1772732015004290600,7.10129052734375,-2.7102110385894775,3.217099666595459,-5.197902202606201
1772732015014318600,7.111318603515625,-2.4271240234375,3.0994839668273926,-4.827812194824219
1772732015024346600,7.1213466796875,-2.226870059967041,2.869800090789795,-4.640047550201416
1772732015034373600,7.13137353515625,-2.114560604095459,2.5967719554901123,-4.643016815185547
1772732015044401700,7.141401611328125,-2.107015371322632,2.179194450378418,-4.777402400970459
1772732015054429400,7.151429443359375,-2.211357831954956,1.576472520828247,-4.966139316558838
1772732015064457700,7.161457763671875,-2.277961254119873,1.2100319862365723,-5.105016708374023
1772732015074485500,7.171485595703125,-1.9815691709518433,1.3185997009277344,-5.17881965637207
1772732015084513800,7.181513671875,-1.4739089012145996,1.5963541269302368,-4.966294288635254
1772732015094541600,7.19154150390625,-0.9175587296485901,1.355769157409668,-4.531918048858643
1772732015104569300,7.2015693359375,-0.5053948760032654,0.7809261679649353,-4.08562707901001
1772732015114597600,7.21159765625,-0.4771101176738739,0.0685800313949585,-3.8641107082366943
1772732015124624400,7.221624267578125,-0.8683313727378845,-0.7725951075553894,-4.214992523193359
1772732015134652700,7.231652587890625,-1.5614705085754395,-1.4332798719406128,-4.639102935791016
1772732015144680400,7.241680419921875,-2.0055885314941406,-1.4656881093978882,-4.9435529708862305
1772732015154708700,7.251708740234375,-1.757482647895813,-0.6463672518730164,-5.1050286293029785
1772732015164736500,7.261736572265625,-0.8574572205543518,0.5848685503005981,-4.7396769523620605
1772732015174764500,7.2717646484375,0.42051780223846436,2.121948480606079,-4.158449649810791
1772732015184792600,7.28179248046875,1.4759324789047241,3.5644328594207764,-4.246326446533203
1772732015194820600,7.291820556640625,1.3248956203460693,3.8209714889526367,-4.5716872215271
1772732015204848600,7.3018486328125,0.06461094319820404,2.367527723312378,-4.204482078552246
1772732015214876700,7.311876708984375,-1.3494151830673218,0.2352619618177414,-3.0073301792144775
1772732015224904400,7.321904541015625,-2.2140374183654785,-0.9017291069030762,-1.822237491607666
1772732015234931500,7.331931396484375,-2.4775805473327637,-1.1637017726898193,-1.0531642436981201
1772732015244959500,7.34195947265625,-2.324084520339966,-0.8740118741989136,-0.676007091999054
1772732015254987500,7.351987548828125,-2.0194196701049805,-0.4751726984977722,-0.4124988317489624
1772732015265015600,7.362015625,-1.895613193511963,-0.15471506118774414,-0.10252366960048676
1772732015275043600,7.372043701171875,-1.944759488105774,-0.15436726808547974,0.3157513737678528
1772732015285071600,7.382071533203125,-1.9960825443267822,-0.2390531301498413,0.7940162420272827
1772732015295099400,7.392099365234375,-1.8591655492782593,-0.2878621220588684,1.2093814611434937
1772732015305127700,7.402127685546875,-1.5334234237670898,-0.30737295746803284,1.5308165550231934
1772732015315155500,7.412155517578125,-1.1711089611053467,-0.39678889513015747,1.738623857498169
1772732015325182500,7.422182373046875,-0.8117313385009766,-0.5635131597518921,1.8428648710250854
1772732015335210500,7.43221044921875,-0.3809872567653656,-0.8696266412734985,1.8400006294250488
1772732015345238500,7.442238525390625,0.04563888907432556,-1.306075096130371,1.8245444297790527
1772732015355266600,7.4522666015625,0.3834567666053772,-1.7305172681808472,1.807957649230957
1772732015365294300,7.46229443359375,0.6327571868896484,-1.8891876935958862,1.9136797189712524
1772732015375322600,7.472322509765625,0.8038296699523926,-1.7849034070968628,2.3383662700653076
1772732015385350400,7.482350341796875,0.9061486124992371,-1.5841362476348877,2.905217409133911
1772732015395378700,7.492378662109375,1.0315580368041992,-1.4315239191055298,3.341787576675415
1772732015405406500,7.502406494140625,1.209928035736084,-1.5300729274749756,3.6279819011688232
1772732015415434500,7.5124345703125,1.3876136541366577,-1.9009957313537598,3.9034883975982666
1772732015425461500,7.52246142578125,1.5151301622390747,-2.4395172595977783,4.086809158325195
1772732015435489500,7.532489501953125,1.5431920289993286,-2.9621031284332275,4.2709879875183105
1772732015445517600,7.542517578125,1.5136524438858032,-3.0977511405944824,4.523533344268799
1772732015455545600,7.552545654296875,1.6398463249206543,-2.789140224456787,4.792669773101807
1772732015465573600,7.56257373046875,1.727524757385254,-2.4981484413146973,5.2497663497924805
1772732015475601400,7.572601318359375,1.6326547861099243,-2.3038957118988037,5.743902206420898
1772732015485629400,7.58262939453125,1.462328314781189,-2.182091474533081,6.012424945831299
1772732015495657500,7.592657470703125,1.3219058513641357,-2.1828527450561523,6.105323314666748
1772732015505685500,7.602685546875,1.161827564239502,-2.3427202701568604,6.255757808685303
1772732015515713500,7.612713623046875,0.9487098455429077,-2.6090598106384277,6.484979629516602
1772732015525740500,7.622740478515625,0.7690173387527466,-2.7327768802642822,6.682169437408447
1772732015535768600,7.6327685546875,0.5338950157165527,-2.8093066215515137,6.738497257232666
1772732015545796600,7.642796630859375,0.349729984998703,-2.746786594390869,6.746510028839111
1772732015555824600,7.65282470703125,0.27970215678215027,-2.4760148525238037,6.922726631164551
1772732015565852700,7.662852783203125,0.2205943614244461,-2.0570316314697266,7.166713237762451
1772732015575880400,7.67288037109375,0.17419041693210602,-1.5517677068710327,7.3760833740234375
1772732015585908700,7.68290869140625,0.2118901163339615,-0.8907269239425659,7.487666606903076
1772732015595936500,7.6929365234375,0.5300276279449463,-0.17139114439487457,7.4640727043151855
1772732015605964500,7.702964599609375,1.3433151245117188,0.514866828918457,7.1620073318481445
1772732015615991600,7.712991455078125,2.3120296001434326,0.9469556212425232,6.762020587921143
1772732015626019600,7.72301953125,3.0239360332489014,0.8497723340988159,6.158233642578125
1772732015636047600,7.733047607421875,3.3788340091705322,0.3336227238178253,5.2211737632751465
1772732015646075400,7.743075439453125,3.394559144973755,-0.21084804832935333,4.110991954803467
1772732015656103700,7.753103759765625,3.1587445735931396,-0.5198560357093811,3.240408420562744
1772732015666131500,7.76313134765625,2.8425562381744385,-0.7059603929519653,2.6906180381774902
1772732015676159700,7.77315966796875,2.543530225753784,-0.9298770427703857,2.484032154083252
1772732015686187500,7.7831875,2.391594409942627,-0.8719930052757263,2.57800555229187
1772732015696215600,7.793215576171875,2.4508063793182373,-0.21210314333438873,2.9784324169158936
1772732015706243600,7.80324365234375,2.6212339401245117,1.0971609354019165,3.424670934677124
1772732015716270300,7.813270263671875,2.736365556716919,2.1538736820220947,3.616391181945801
1772732015726298600,7.823298583984375,2.4931247234344482,2.475994825363159,3.0004851818084717
1772732015736326400,7.833326416015625,1.8523597717285156,2.287888526916504,1.6363484859466553
1772732015746355000,7.84335498046875,0.9100785255432129,1.936935305595398,-0.14031226933002472
1772732015756383000,7.853383056640625,-0.11724738031625748,1.6848626136779785,-1.8161563873291016
1772732015766411000,7.863410888671875,-1.0270577669143677,1.6436325311660767,-3.004406690597534
1772732015776439000,7.87343896484375,-1.7592408657073975,1.7163270711898804,-3.6369261741638184
1772732015786467000,7.883467041015625,-2.2879855632781982,1.8550854921340942,-3.8077034950256348
1772732015796494800,7.893494873046875,-2.582611560821533,2.034060001373291,-3.707294464111328
1772732015806523100,7.903523193359375,-2.593665361404419,2.1904423236846924,-3.6093668937683105
1772732015816550100,7.913550048828125,-2.355400323867798,2.3351070880889893,-3.676874876022339
1772732015826578000,7.923577880859375,-2.022630453109741,2.4194376468658447,-3.9474499225616455
1772732015836606000,7.93360595703125,-1.7389112710952759,2.4260284900665283,-4.39238166809082
1772732015846634000,7.943634033203125,-1.6313203573226929,2.335155487060547,-4.890517234802246
1772732015856662000,7.953662109375,-1.6937531232833862,2.257934808731079,-5.3328657150268555
1772732015866690000,7.96368994140625,-1.8933902978897095,2.217533588409424,-5.628137111663818
1772732015876718000,7.973718017578125,-2.094397783279419,2.1823668479919434,-5.83118200302124
1772732015886745900,7.983745849609375,-2.0751216411590576,2.172412633895874,-6.0228166580200195
1772732015896774100,7.993774169921875,-1.7350573539733887,2.2429583072662354,-6.239645004272461
1772732015906802000,8.003802001953124,-1.063313603401184,2.3584582805633545,-6.482110023498535
1772732015916829200,8.0138291015625,-0.30191004276275635,2.590210437774658,-6.578397750854492
1772732015926857000,8.02385693359375,0.3859389126300812,3.479929208755493,-6.3033318519592285
1772732015936885000,8.033885009765624,0.902676522731781,4.995327472686768,-5.497029781341553
1772732015946913000,8.0439130859375,0.9526712894439697,6.390079498291016,-4.430444717407227
1772732015956941000,8.053941162109375,0.4259900152683258,7.114320755004883,-3.805720567703247
1772732015966969000,8.063968994140625,-0.48990729451179504,6.877002239227295,-3.7788684368133545
1772732015976996900,8.073996826171875,-1.348039150238037,6.030900001525879,-4.070528507232666
1772732015987025000,8.08402490234375,-2.0577309131622314,5.188825607299805,-4.479003429412842
1772732015997053000,8.094052978515625,-2.727914571762085,4.4026947021484375,-4.973513126373291
1772732016007081000,8.1040810546875,-3.14367938041687,3.909174919128418,-5.265834331512451
1772732016017108000,8.11410791015625,-3.1699578762054443,4.1966376304626465,-4.9098920822143555
1772732016027136000,8.124135986328126,-3.133334159851074,4.713812828063965,-4.207529544830322
1772732016037164000,8.1341640625,-2.674118757247925,4.908048152923584,-3.5058021545410156
1772732016047192000,8.144192138671874,-1.856420874595642,4.596151828765869,-2.4939780235290527
1772732016057220000,8.15422021484375,-1.1361554861068726,4.250343322753906,-1.4927886724472046
1772732016067248000,8.164248046875,-1.117449164390564,3.8507158756256104,-0.6787397861480713
1772732016077276000,8.17427587890625,-1.7343088388442993,3.0414257049560547,-0.5017256140708923
1772732016087304200,8.18430419921875,-2.483497142791748,1.7325160503387451,-1.0914407968521118
1772732016097332000,8.19433203125,-2.7727205753326416,0.49279624223709106,-1.9396976232528687
1772732016107360000,8.204360107421875,-2.4515175819396973,-0.23900206387043,-2.557171583175659
1772732016117387000,8.214386962890625,-1.7528661489486694,-0.7244638204574585,-2.8278908729553223
1772732016127415000,8.2244150390625,-1.0340923070907593,-1.0904170274734497,-2.8015031814575195
1772732016137443000,8.234443115234376,-0.7800670266151428,-1.280261516571045,-2.4334816932678223
1772732016147470800,8.244470947265626,-0.8796870708465576,-1.5009515285491943,-1.7680766582489014
1772732016157499100,8.2544990234375,-1.1695283651351929,-1.8524889945983887,-0.9461617469787598
1772732016167527000,8.26452685546875,-1.4359982013702393,-2.1989834308624268,-0.11904732137918472
1772732016177555200,8.27455517578125,-1.5242704153060913,-2.3759210109710693,0.5309596061706543
1772732016187583000,8.2845830078125,-1.3871740102767944,-2.256655216217041,0.9362096786499023
1772732016197611000,8.294611083984375,-1.0011653900146484,-1.870391845703125,1.2269138097763062
1772732016207638000,8.304637939453125,-0.6713655591011047,-1.6337209939956665,1.410754680633545
1772732016217665800,8.314665771484375,-0.6020907759666443,-1.741217017173767,1.4899344444274902
1772732016227694000,8.324694091796875,-0.6766198873519897,-1.909460425376892,1.5587953329086304
1772732016237721900,8.334721923828125,-0.6773501634597778,-2.035670518875122,1.6861194372177124
1772732016247750100,8.344750244140625,-0.5034210085868835,-2.085186004638672,1.9333683252334595
1772732016257778000,8.35477783203125,-0.22884400188922882,-2.1514945030212402,2.233638286590576
1772732016267806000,8.364805908203126,-0.034506216645240784,-2.268686056137085,2.5908901691436768
1772732016277834000,8.374833984375,0.06396009773015976,-2.4524099826812744,2.957331418991089
1772732016287862000,8.384862060546874,0.09270119667053223,-2.631784439086914,3.290675401687622
1772732016297890000,8.39489013671875,0.04243439808487892,-3.035256862640381,3.6842291355133057
1772732016307917000,8.4049169921875,0.0038438632618635893,-3.5483646392822266,4.062387943267822
1772732016317945000,8.414945068359375,0.15477092564105988,-4.0270676612854,4.344119548797607
1772732016327973000,8.42497314453125,0.2704911530017853,-4.205044269561768,4.835753440856934
1772732016338001000,8.4350009765625,0.365700364112854,-3.9196665287017822,5.5035400390625
1772732016348029000,8.44502880859375,0.5061461329460144,-3.582359790802002,6.165814399719238
1772732016358057000,8.455056884765625,0.5939496159553528,-3.442396402359009,6.659808158874512
1772732016368085000,8.4650849609375,0.501373827457428,-3.4250104427337646,6.897289752960205
1772732016378113000,8.475113037109375,0.3004625737667084,-3.422022581100464,6.88081693649292
1772732016388140800,8.485140869140626,0.14464181661605835,-3.365093231201172,6.7020721435546875
1772732016398169000,8.495169189453126,0.10456592589616776,-3.1927924156188965,6.5796799659729
1772732016408196000,8.505196044921876,0.24622344970703125,-2.9518589973449707,6.400577068328857
1772732016418224000,8.51522412109375,0.42311111092567444,-2.8728151321411133,5.976535320281982
1772732016428252000,8.525251953125,0.4655725359916687,-3.1112544536590576,5.291850566864014
1772732016438280200,8.5352802734375,0.3867833912372589,-3.493330955505371,4.348641395568848
1772732016448308000,8.545307861328125,0.16583050787448883,-3.757354974746704,3.2482752799987793
1772732016458336000,8.5553359375,-0.12999318540096283,-3.617335081100464,2.116971969604492
1772732016468364000,8.565364013671875,-0.3051000237464905,-2.988978385925293,1.3667205572128296
1772732016478392000,8.57539208984375,-0.3641705811023712,-2.100904703140259,1.162202000617981
1772732016488420000,8.585420166015625,-0.31344908475875854,-1.2348276376724243,1.4187341928482056
1772732016498448000,8.59544775390625,-0.12198697030544281,-0.5868662595748901,1.8918516635894775
1772732016508476000,8.605475830078126,0.22415074706077576,-0.2696576714515686,2.270712375640869
1772732016518503000,8.6155029296875,0.5765573382377625,-0.27051451802253723,2.450479030609131
1772732016528531200,8.62553125,0.8574172258377075,-0.14924800395965576,2.5431015491485596
1772732016538559000,8.63555908203125,0.9592458009719849,0.13601967692375183,2.6155409812927246
1772732016548587000,8.6455869140625,0.8958727121353149,0.5744465589523315,2.681544542312622
1772732016558615000,8.655614990234374,0.6882505416870117,0.9117884635925293,2.568176031112671
1772732016568643000,8.66564306640625,0.3932177722454071,0.9891389012336731,2.2533981800079346
1772732016578671000,8.675671142578125,0.049003150314092636,0.9137601852416992,1.8469270467758179
1772732016588699100,8.68569921875,-0.32752999663352966,0.78211510181427,1.3559812307357788
1772732016598727000,8.695726806640625,-0.7225776314735413,0.6906300783157349,0.8597142100334167
1772732016608754000,8.70575390625,-1.06804621219635,0.6357764005661011,0.343469500541687
1772732016618782000,8.715781982421875,-1.2852845191955566,0.7025059461593628,-0.14619889855384827
1772732016628810000,8.72581005859375,-1.3622580766677856,0.8106127381324768,-0.5500749945640564
1772732016638838000,8.735838134765626,-1.3155187368392944,0.8891143798828125,-0.8871930241584778
1772732016648866000,8.745865966796876,-1.1590343713760376,0.9639377593994141,-1.2062923908233643
1772732016658894000,8.75589404296875,-0.9192556142807007,1.0204523801803589,-1.5339617729187012
1772732016668921900,8.765921875,-0.6898986101150513,1.0131855010986328,-1.8680038452148438
1772732016678950100,8.7759501953125,-0.5241568088531494,0.9338474273681641,-2.228048324584961
1772732016688978000,8.78597802734375,-0.3941119909286499,0.9463611245155334,-2.577349901199341
1772732016699006200,8.796006103515625,-0.2432154268026352,1.1054725646972656,-2.8799757957458496
1772732016709033000,8.806032958984375,-0.09681452810764313,1.1292580366134644,-3.3177802562713623
1772732016719061000,8.81606103515625,0.05368633195757866,1.0337467193603516,-3.879748582839966
1772732016729089000,8.826089111328125,0.2602677345275879,1.0317476987838745,-4.3839111328125
1772732016739116800,8.83611669921875,0.56522136926651,1.2341521978378296,-4.743239402770996
1772732016749145000,8.84614501953125,0.9759633541107178,1.6324574947357178,-4.912742614746094
1772732016759173000,8.856173095703125,1.4013454914093018,2.0209767818450928,-4.910210609436035
1772732016769201200,8.866201171875,1.7971234321594238,2.2975196838378906,-4.7670698165893555
1772732016779229200,8.876229248046876,2.142759323120117,2.5868804454803467,-4.458144664764404
1772732016789257000,8.886257080078124,2.4067158699035645,3.018563747406006,-3.9155519008636475
1772732016799285200,8.89628515625,2.5861613750457764,3.522726058959961,-3.2008004188537598
1772732016809312000,8.90631201171875,2.581881523132324,3.805879831314087,-2.617502450942993
1772732016819340300,8.91634033203125,2.3268065452575684,3.757441282272339,-2.2241532802581787
1772732016829368000,8.9263681640625,1.8399672508239746,3.451982021331787,-2.0381691455841064
1772732016839396400,8.936396240234375,1.1530238389968872,3.2313244342803955,-1.8900305032730103
1772732016849424100,8.946424072265625,0.3035085201263428,3.6773672103881836,-1.4624626636505127
1772732016859452200,8.9564521484375,-0.6173941493034363,5.652767658233643,-0.8605795502662659
1772732016869480200,8.966480224609375,-1.3845288753509521,8.609674453735352,-0.5828267335891724
1772732016879508000,8.976508056640625,-2.2772042751312256,9.812145233154297,-0.561236560344696
1772732016889536300,8.986536376953126,-3.545717477798462,8.01272201538086,-1.3216004371643066
1772732016899564000,8.99656396484375,-4.685987949371338,5.024754047393799,-3.1640875339508057
1772732016909591300,9.00659130859375,-5.1659979820251465,2.6001393795013428,-5.4839887619018555
1772732016919619000,9.016619140625,-5.32669734954834,1.5035462379455566,-6.096921920776367
1772732016929647000,9.026647216796874,-5.384200096130371,1.707737684249878,-4.540471076965332
1772732016939675100,9.036675048828124,-4.930601119995117,2.4945499897003174,-1.7718532085418701
1772732016949703200,9.046703125,-4.414716720581055,3.117241859436035,0.46286511421203613
1772732016959731200,9.056731201171875,-4.394010066986084,2.73496413230896,1.228016972541809
1772732016969759200,9.06675927734375,-4.55233907699585,1.1656614542007446,0.7205780744552612
1772732016979787000,9.076787109375,-4.3615312576293945,-0.7307860255241394,-0.39818689227104187
1772732016989815300,9.086815185546875,-3.695582866668701,-2.047752618789673,-1.2331047058105469
1772732016999843000,9.096843017578125,-2.797508955001831,-2.5875625610351562,-1.3993360996246338
1772732017009870000,9.1068701171875,-1.9867711067199707,-2.55605149269104,-1.1244821548461914
1772732017019898000,9.116898193359376,-1.393671989440918,-2.2443881034851074,-0.8209476470947266
1772732017029926100,9.126926025390626,-0.9088225364685059,-2.0681867599487305,-0.6231815814971924
1772732017039954200,9.1369541015625,-0.48609659075737,-2.020486831665039,-0.5452992916107178
1772732017049982000,9.14698193359375,-0.07385019212961197,-2.039583683013916,-0.5332058668136597
1772732017060010200,9.15701025390625,0.2694154977798462,-2.0969905853271484,-0.4734346568584442
1772732017070038000,9.1670380859375,0.5221513509750366,-2.0913636684417725,-0.3783068060874939
1772732017080066300,9.17706640625,0.7137747406959534,-1.9215117692947388,-0.13314087688922882
1772732017090094000,9.187093994140625,0.8541103005409241,-1.5914009809494019,0.34190794825553894
1772732017100122000,9.1971220703125,0.921792209148407,-1.137402892112732,0.9086219668388367
1772732017110149000,9.207149169921875,0.9898682236671448,-0.7456734776496887,1.3904577493667603
1772732017120177200,9.21717724609375,1.0921589136123657,-0.6575909852981567,1.663140058517456
1772732017130205200,9.227205078125,1.2442352771759033,-0.8982637524604797,1.787454605102539
1772732017140233000,9.23723291015625,1.3633369207382202,-1.1705043315887451,1.8800127506256104
1772732017150261200,9.24726123046875,1.5183619260787964,-1.317707896232605,2.023979663848877
1772732017160289000,9.2572890625,1.7005083560943604,-1.2416472434997559,2.333991765975952
1772732017170317000,9.267317138671874,1.8117190599441528,-1.1216208934783936,2.727250099182129
1772732017180345000,9.277344970703124,1.8246389627456665,-1.1039999723434448,3.058516263961792
1772732017190373000,9.287373046875,1.7104554176330566,-1.236222267150879,3.2809479236602783
1772732017200401200,9.297401123046875,1.541509747505188,-1.5124545097351074,3.4661834239959717
1772732017210428200,9.30742822265625,1.4477688074111938,-1.808455228805542,3.6270382404327393
1772732017220456200,9.317456298828125,1.387303113937378,-2.205134391784668,3.8088738918304443
1772732017230483000,9.32748291015625,1.375036597251892,-2.4454784393310547,3.9699742794036865
1772732017240511200,9.33751123046875,1.4103634357452393,-2.3812246322631836,4.189233303070068
1772732017250539000,9.3475390625,1.4159460067749023,-2.216573715209961,4.48063850402832
1772732017260567300,9.3575673828125,1.4462413787841797,-2.039283275604248,4.879033088684082
1772732017270595000,9.367594970703125,1.3542933464050293,-2.032244920730591,5.279827117919922
1772732017280623000,9.377623046875,1.1694047451019287,-2.283545970916748,5.567728042602539
1772732017290651100,9.387651123046876,1.127241611480713,-2.583045482635498,5.51101016998291
1772732017300679200,9.39767919921875,1.2632524967193604,-2.908947467803955,5.18472957611084
1772732017310706200,9.4077060546875,1.485788106918335,-3.123638391494751,4.888904094696045
1772732017320734000,9.41773388671875,1.646040439605713,-3.0639023780822754,4.8137946128845215
1772732017330762200,9.42776220703125,1.699829339981079,-2.7026100158691406,4.958767890930176
1772732017340790000,9.4377900390625,1.7098498344421387,-2.2047977447509766,5.119718074798584
1772732017350818000,9.447818115234375,1.7803986072540283,-1.7676093578338623,5.0371222496032715
1772732017360846000,9.45784619140625,1.8979568481445312,-1.6031755208969116,4.766899585723877
1772732017370874000,9.4678740234375,2.0297772884368896,-1.7060973644256592,4.128870964050293
1772732017380902100,9.477902099609375,2.2034919261932373,-2.15558123588562,2.9957950115203857
1772732017390930200,9.48793017578125,2.2459022998809814,-2.8750545978546143,1.7831448316574097
1772732017400958000,9.4979580078125,2.1197867393493652,-3.215308904647827,1.123267650604248
1772732017410985200,9.507985107421876,1.9190624952316284,-2.9531471729278564,1.0843911170959473
1772732017421013000,9.518012939453126,1.7243704795837402,-2.4632768630981445,1.4549986124038696
1772732017431041300,9.528041259765626,1.5187281370162964,-2.110605001449585,1.8330103158950806
1772732017441069000,9.538069091796874,1.2566999197006226,-1.995421290397644,2.085732936859131
1772732017451097300,9.548097412109374,0.9461061358451843,-1.8095334768295288,2.2367467880249023
1772732017461125000,9.558125,0.6400378346443176,-1.528204321861267,2.4113025665283203
1772732017471153000,9.56815283203125,0.35491716861724854,-1.3259990215301514,2.460345983505249
1772732017481181200,9.57818115234375,0.13790516555309296,-1.3217843770980835,2.125438928604126
1772732017491209000,9.588208984375,0.022703472524881363,-1.3544808626174927,1.491049885749817
1772732017501237200,9.5982373046875,-0.023391420021653175,-1.215081810951233,0.8014006614685059
1772732017511264000,9.608263916015625,-0.03984815999865532,-1.03151273727417,0.22669367492198944
1772732017521292300,9.618292236328125,-0.024191895499825478,-0.7655667066574097,-0.21282781660556793
1772732017531320000,9.628320068359375,0.05093348026275635,-0.4828055799007416,-0.5394376516342163
1772732017541348000,9.63834814453125,0.16633756458759308,-0.11346616595983505,-0.8213119506835938
1772732017551376100,9.648376220703126,0.2691129744052887,0.3267040252685547,-1.144609808921814
1772732017561404200,9.658404052734374,0.3315454423427582,0.7935461401939392,-1.5046316385269165
1772732017571432200,9.66843212890625,0.3852062523365021,1.134932279586792,-1.942086935043335
1772732017581460200,9.678460205078125,0.443479984998703,1.3475275039672852,-2.4331910610198975
1772732017591488000,9.688488037109375,0.5207465291023254,1.4782320261001587,-2.8742570877075195
1772732017601517300,9.698517333984375,0.577693521976471,1.6085484027862549,-3.197115898132324
1772732017611544000,9.7085439453125,0.6146180033683777,1.8214542865753174,-3.3936779499053955
1772732017621572000,9.718572021484375,0.649333119392395,2.0338268280029297,-3.5549020767211914
1772732017631600000,9.72860009765625,0.6693454384803772,2.2030975818634033,-3.6447596549987793
1772732017641628000,9.7386279296875,0.6944612264633179,2.38381290435791,-3.6548514366149902
1772732017651656200,9.74865625,0.8070748448371887,2.6433475017547607,-3.6530120372772217
1772732017661684000,9.75868408203125,0.969631016254425,2.9133048057556152,-3.6052324771881104
1772732017671712300,9.768712158203124,1.0774059295654297,3.2246766090393066,-3.491420030593872
1772732017681740000,9.778739990234374,1.094567894935608,3.557954788208008,-3.283940315246582
1772732017691768000,9.78876806640625,0.9968695044517517,3.8165431022644043,-3.034195899963379
1772732017701796000,9.798796142578125,0.7550562620162964,3.9588139057159424,-2.7372515201568604
1772732017711823000,9.808822998046875,0.4600544571876526,4.119571208953857,-2.300079345703125
1772732017721851100,9.81885107421875,0.15586857497692108,4.372614860534668,-1.7337515354156494
1772732017731879200,9.828879150390625,-0.25360018014907837,4.632152557373047,-1.3697443008422852
1772732017741906700,9.83890673828125,-0.8326106071472168,4.733729362487793,-1.3891913890838623
1772732017751934700,9.848934814453125,-1.5704388618469238,5.003891944885254,-1.722885251045227
1772732017761962800,9.858962646484375,-2.542341947555542,5.650012016296387,-2.3536787033081055
1772732017771990800,9.86899072265625,-3.418854236602783,6.3204264640808105,-3.5046327114105225
1772732017782018600,9.8790185546875,-3.8798067569732666,6.3963093757629395,-4.54969596862793
1772732017792046800,9.889046875,-3.875397205352783,5.758403301239014,-5.158365726470947
1772732017802074600,9.89907470703125,-3.2900209426879883,5.238002300262451,-5.400304317474365
1772732017812102000,9.909101806640624,-2.3269591331481934,4.520670413970947,-5.0896453857421875
1772732017822129700,9.919129638671874,-1.797218918800354,3.3896820545196533,-5.030125141143799
1772732017832158000,9.929157958984375,-1.9929758310317993,2.3370766639709473,-5.715497970581055
1772732017842185700,9.939185791015625,-2.289426565170288,1.679276704788208,-5.735503673553467
1772732017852213800,9.9492138671875,-2.52439546585083,1.1216682195663452,-4.292140007019043
1772732017862241800,9.95924169921875,-3.0307857990264893,0.6676210761070251,-2.3774523735046387
1772732017872269800,9.969269775390625,-3.409271240234375,0.2506038248538971,-1.1159663200378418
1772732017882297900,9.9792978515625,-3.4909026622772217,-0.4196784198284149,-0.6328122615814209
1772732017892326000,9.989325927734376,-3.1425278186798096,-1.2370315790176392,-0.5715776085853577
1772732017902353700,9.999353759765626,-2.531442642211914,-1.8133012056350708,-0.5724464058876038
1772732017912381700,10.009381591796876,-2.088090419769287,-2.062666654586792,-0.4941729009151459
1772732017922408700,10.01940869140625,-1.8498159646987915,-2.056831121444702,-0.2524646818637848
1772732017932436700,10.029436767578124,-1.6924362182617188,-1.9804292917251587,0.16857628524303436
1772732017942464800,10.03946484375,-1.5762269496917725,-1.860166311264038,0.544780969619751
1772732017952492800,10.049492919921875,-1.4448484182357788,-1.727700114250183,0.7685394883155823
1772732017962520800,10.059520751953125,-1.2413877248764038,-1.6059443950653076,0.9398372769355774
1772732017972548600,10.069548583984375,-0.896105170249939,-1.4916033744812012,1.1336860656738281
1772732017982577000,10.079576904296875,-0.5189771056175232,-1.3607590198516846,1.245821475982666
1772732017992604700,10.089604736328125,-0.23896998167037964,-1.2294728755950928,1.2271462678909302
1772732018002633000,10.099633056640625,-0.066515251994133,-1.0740013122558594,1.2935256958007812
1772732018012660700,10.10966064453125,-0.0010861747432500124,-0.9046354293823242,1.4999321699142456
1772732018022687700,10.119687744140625,0.04381811246275902,-0.6921939849853516,1.797695279121399
1772732018032715800,10.1297158203125,0.09575587511062622,-0.522930920124054,2.1465699672698975
1772732018042743800,10.139743896484376,0.14028199017047882,-0.48642855882644653,2.4438588619232178
1772732018052771800,10.149771728515624,0.21188294887542725,-0.5571392178535461,2.6467111110687256
1772732018062799600,10.159799560546874,0.2696860134601593,-0.6747557520866394,2.8318705558776855
1772732018072828000,10.169827880859375,0.3115738034248352,-0.6284564137458801,3.1411237716674805
1772732018082855700,10.179855712890625,0.3584248423576355,-0.5564483404159546,3.4521870613098145
1772732018092883700,10.1898837890625,0.48469674587249756,-0.5471038222312927,3.582334518432617
1772732018102911700,10.199911865234375,0.6361426115036011,-0.7661362290382385,3.522371530532837
1772732018112939800,10.209939697265625,0.7157040238380432,-1.3428131341934204,3.276050090789795
1772732018122966800,10.219966796875,0.6868913769721985,-2.046132802963257,2.953902006149292
1772732018132994600,10.22999462890625,0.5614431500434875,-2.5293655395507812,2.7947309017181396
1772732018143022800,10.24002294921875,0.44004175066947937,-2.717763662338257,2.8669638633728027
1772732018153050600,10.250050537109376,0.3021342158317566,-2.80259108543396,3.039311647415161
1772732018163079000,10.260078857421876,0.09158522635698318,-2.6911494731903076,3.2235560417175293
1772732018173106700,10.270106689453126,-0.09672211855649948,-2.2907400131225586,3.536890983581543
1772732018183134700,10.280134765625,-0.1890305131673813,-1.8568732738494873,3.88905668258667
1772732018193162800,10.290162841796874,-0.2262716293334961,-1.5489917993545532,4.186436653137207
1772732018203190800,10.300190673828125,-0.18209853768348694,-1.4357260465621948,4.340646266937256
1772732018213218800,10.31021875,-0.056562721729278564,-1.3719425201416016,4.414196968078613
1772732018223246800,10.320246826171875,0.04514230042695999,-1.3638644218444824,4.404090881347656
1772732018233273900,10.33027392578125,0.12911869585514069,-1.3988783359527588,4.37034797668457
1772732018243302000,10.340302001953125,0.2687920033931732,-1.2338751554489136,4.40911865234375
1772732018253329700,10.35032958984375,0.48462072014808655,-0.8694615960121155,4.547698497772217
1772732018263358000,10.36035791015625,0.6271616220474243,-0.54838627576828,4.662594795227051
1772732018273385700,10.3703857421875,0.7023277282714844,-0.5113558173179626,4.612573146820068
1772732018283413800,10.380413818359376,0.790320634841919,-0.6953372955322266,4.376749515533447
1772732018293441800,10.39044189453125,0.9538411498069763,-1.0376880168914795,4.01001501083374
1772732018303469600,10.400469482421874,1.1208726167678833,-1.2514541149139404,3.7763726711273193
1772732018313497900,10.410497802734374,1.1872416734695435,-1.1920554637908936,3.698856830596924
1772732018323525600,10.420525634765625,1.2561386823654175,-0.8659997582435608,3.714406728744507
1772732018333553700,10.4305537109375,1.2971844673156738,-0.5582209229469299,3.6217870712280273
1772732018343580700,10.44058056640625,1.1812474727630615,-0.40074390172958374,3.3160617351531982
1772732018353609000,10.45060888671875,1.0094925165176392,-0.28272831439971924,2.9516706466674805
1772732018363636700,10.46063671875,0.9941086769104004,-0.10761340707540512,2.5428545475006104
1772732018373664800,10.470664794921875,1.0844699144363403,0.09985243529081345,2.2909762859344482
1772732018383692800,10.48069287109375,1.2435622215270996,0.49031004309654236,2.2141764163970947
1772732018393720800,10.490720947265626,1.3461363315582275,0.6935640573501587,2.0173168182373047
1772732018403748900,10.500748779296876,1.260589361190796,0.4030536711215973,1.3494865894317627
1772732018413777000,10.51077685546875,1.0516945123672485,-0.1816508024930954,0.4419798254966736
1772732018423804700,10.5208046875,0.8013655543327332,-0.5528855323791504,-0.47959259152412415
1772732018433832700,10.530832763671874,0.6047224998474121,-0.5028676390647888,-1.1784664392471313
1772732018443859700,10.540859619140624,0.5043435096740723,-0.2179967314004898,-1.5934139490127563
1772732018453887700,10.5508876953125,0.4820701777935028,0.04393661022186279,-1.782474398612976
1772732018463915800,10.560915771484375,0.5175058245658875,0.15385307371616364,-1.8381351232528687
1772732018473943800,10.57094384765625,0.6731944680213928,0.19857792556285858,-1.8831830024719238
1772732018483971800,10.580971923828125,0.9042123556137085,0.2944500744342804,-2.014190912246704
1772732018493999600,10.59099951171875,1.0958691835403442,0.4951099455356598,-2.209930419921875
1772732018504028000,10.60102783203125,1.2441521883010864,0.9189333915710449,-2.4623970985412598
1772732018514055700,10.6110556640625,1.3500492572784424,1.437840223312378,-2.7789306640625
1772732018524084000,10.621083984375,1.4102013111114502,1.838208556175232,-3.134732723236084
1772732018534111700,10.63111181640625,1.3697129487991333,2.138054132461548,-3.4335269927978516
1772732018544138800,10.641138671875,1.2687262296676636,2.4734950065612793,-3.653170585632324
1772732018554166800,10.651166748046874,1.1080824136734009,2.837883234024048,-3.746450662612915
1772732018564194600,10.661194580078124,0.8745675086975098,3.1520376205444336,-3.7340567111968994
1772732018574222800,10.671222900390624,0.5867370367050171,3.3715460300445557,-3.638051748275757
1772732018584250600,10.681250732421875,0.2453414350748062,3.481243133544922,-3.425215244293213
1772732018594279000,10.69127880859375,-0.19538696110248566,3.4788854122161865,-3.1151609420776367
1772732018604306700,10.701306640625,-0.7835826277732849,3.4170420169830322,-2.7856507301330566
1772732018614334700,10.711334716796875,-1.4330040216445923,3.103430986404419,-2.5473523139953613
1772732018624362800,10.72136279296875,-2.184892416000366,2.6211390495300293,-2.4511828422546387
1772732018634390800,10.731390869140625,-3.1016037464141846,2.2251696586608887,-2.6331591606140137
1772732018644418800,10.741418701171876,-4.0548319816589355,2.0356767177581787,-3.322605848312378
1772732018654445600,10.751445556640626,-4.874047756195068,1.8986250162124634,-4.544473171234131
1772732018664473900,10.761473876953126,-5.0536723136901855,1.733842372894287,-6.322734832763672
1772732018674501600,10.771501708984376,-4.19470739364624,1.7045187950134277,-7.869007587432861
1772732018684529700,10.78152978515625,-2.6530725955963135,2.5122647285461426,-7.985028266906738
1772732018694557700,10.7915576171875,-0.9673155546188354,4.478654861450195,-6.602231025695801
1772732018704585700,10.801585693359375,-0.022415170446038246,7.054281711578369,-4.572472095489502
1772732018714613800,10.81161376953125,-0.27444928884506226,8.635302543640137,-2.805910348892212
1772732018724641800,10.821641845703125,-1.7232367992401123,7.602531909942627,-1.7057075500488281
1772732018734669600,10.831669677734375,-3.5265114307403564,4.1466803550720215,-1.4893115758895874
1772732018744698400,10.841698486328125,-4.348604202270508,0.7697079181671143,-1.6339046955108643
1772732018754726400,10.851726318359376,-4.152500629425049,-1.2781583070755005,-2.0455894470214844
1772732018764753400,10.86175341796875,-3.494384765625,-1.6798676252365112,-2.2015178203582764
1772732018774781200,10.87178125,-2.5326478481292725,-1.320065975189209,-1.7765607833862305
1772732018784809500,10.8818095703125,-1.6291640996932983,-0.7330700159072876,-0.8671379685401917
1772732018794837200,10.891837158203124,-1.2678064107894897,-0.4940425455570221,-0.17793478071689606
1772732018804865300,10.901865234375,-1.3137911558151245,-0.7414641976356506,0.07305587828159332
1772732018814893300,10.911893310546875,-1.3678117990493774,-1.1976388692855835,0.2733663320541382
1772732018824921300,10.92192138671875,-1.2849798202514648,-1.4326808452606201,0.5423448085784912
1772732018834949400,10.931949462890625,-1.1095129251480103,-1.3967207670211792,0.7241183519363403
1772732018844977400,10.941977294921875,-0.9517726302146912,-1.242227554321289,0.734512209892273
1772732018855005200,10.952005126953125,-0.7939414381980896,-1.0443602800369263,0.7148202657699585
1772732018865033500,10.962033447265625,-0.5893115401268005,-0.7945402264595032,0.7429866194725037
1772732018875060200,10.972060302734375,-0.3930424749851227,-0.5677754878997803,0.7774543166160583
1772732018885088300,10.982088134765625,-0.28509169816970825,-0.5639819502830505,0.7519515156745911
1772732018895116300,10.9921162109375,-0.27141237258911133,-0.6845896244049072,0.7385377287864685
1772732018905144300,11.002144287109376,-0.31356266140937805,-0.8277851939201355,0.7656422257423401
1772732018915172400,11.01217236328125,-0.3701561689376831,-0.8449116945266724,0.7841445207595825
1772732018925200100,11.0222001953125,-0.4106367826461792,-0.7026195526123047,0.8227894306182861
1772732018935228400,11.032228515625,-0.4173503518104553,-0.5002637505531311,0.9353245496749878
1772732018945256200,11.042256103515625,-0.43676647543907166,-0.42146065831184387,1.080113172531128
1772732018955284500,11.052284423828125,-0.4536453187465668,-0.4641689658164978,1.1771657466888428
1772732018965312300,11.062312255859375,-0.43570539355278015,-0.5237376689910889,1.1699825525283813
1772732018975339500,11.072339599609375,-0.36791276931762695,-0.5605382919311523,1.0876892805099487
1772732018985367300,11.0823671875,-0.1949034482240677,-0.5640891194343567,1.0280686616897583
1772732018995395000,11.09239501953125,0.018787790089845657,-0.6779478192329407,0.8969108462333679
1772732019005423400,11.10242333984375,0.10468947887420654,-0.8463680744171143,0.7366235852241516
1772732019015451100,11.112451171875,0.14013242721557617,-0.8445903658866882,0.6341126561164856
1772732019025479400,11.1224794921875,0.18826110661029816,-0.6715272068977356,0.6506681442260742
1772732019035507200,11.132507080078126,0.20962178707122803,-0.4846782386302948,0.7567200064659119
1772732019045535200,11.14253515625,0.17622356116771698,-0.3433597683906555,0.8513814210891724
1772732019055563300,11.152563232421874,0.1570730358362198,-0.18091760575771332,0.8617631793022156
1772732019065591300,11.16259130859375,0.17288841307163239,-0.03221218287944794,0.8389191627502441
1772732019075619300,11.172619384765625,0.15083158016204834,0.08457568287849426,0.8692552447319031
1772732019085646300,11.182646240234375,0.10670029371976852,-0.019013434648513794,0.8898801207542419
1772732019095674400,11.19267431640625,0.0217883363366127,-0.16214050352573395,0.8606505990028381
1772732019105702400,11.202702392578125,-0.03361602500081062,-0.3034677803516388,0.8460314273834229
1772732019115730200,11.212730224609375,-0.07590142637491226,-0.41322091221809387,0.8442396521568298
1772732019125758500,11.222758544921875,-0.1427168846130371,-0.46721819043159485,0.8377022743225098
1772732019135786200,11.2327861328125,-0.14053921401500702,-0.35045135021209717,0.8164367079734802
1772732019145814500,11.242814453125,-0.06255517154932022,-0.1212136447429657,0.8714315295219421
1772732019155842300,11.25284228515625,0.01658172532916069,0.1055649071931839,0.9272313714027405
1772732019165870000,11.2628701171875,0.06804381310939789,0.07724844664335251,0.9519268274307251
1772732019175898400,11.2728984375,0.06255743652582169,-0.03149588406085968,0.8617019057273865
1772732019185926100,11.282926025390625,0.08211229741573334,-0.10174698382616043,0.7496829032897949
1772732019195953400,11.292953369140625,0.152206689119339,-0.09975361078977585,0.6859561204910278
1772732019205981200,11.302981201171875,0.22850480675697327,-0.08312954753637314,0.6634246110916138
1772732019216009500,11.313009521484375,0.39731404185295105,-0.013696415349841118,0.7550455927848816
1772732019226037200,11.323037353515625,0.40126481652259827,-0.08971170336008072,0.773252546787262
1772732019236065300,11.333065185546875,0.4247749149799347,-0.2623540461063385,0.6285552382469177
1772732019246093300,11.34309326171875,0.565138041973114,-0.44716018438339233,0.5219768285751343
1772732019256121300,11.353121337890625,0.6765822768211365,-0.2926771342754364,0.5005143880844116
1772732019266149400,11.3631494140625,0.7659194469451904,-0.2524298131465912,0.4412384629249573
1772732019276177400,11.373177490234376,0.8382887244224548,-0.14175549149513245,0.4668405055999756
1772732019286205200,11.383205078125,0.8735536932945251,-0.07877681404352188,0.490558385848999
1772732019296232200,11.393232177734374,0.7602822184562683,-0.032565638422966,0.5337257981300354
1772732019306260200,11.40326025390625,0.6230180859565735,-0.03108653798699379,0.6067467927932739
1772732019316288300,11.413288330078124,0.509331226348877,-0.059763722121715546,0.6787882447242737
1772732019326316300,11.42331640625,0.4310474991798401,-0.09810475260019302,0.6967308521270752
1772732019336344300,11.43334423828125,0.3784777820110321,-0.12992820143699646,0.6442489624023438
1772732019346372400,11.443372314453125,0.30006954073905945,-0.1645694077014923,0.5592310428619385
1772732019356400000,11.453400146484375,0.31059807538986206,0.013201652094721794,0.6111480593681335
1772732019366428400,11.463428466796875,0.3111512064933777,0.12454041838645935,0.6609813570976257
1772732019376456200,11.473456298828125,0.2548687756061554,0.09480355679988861,0.6329313516616821
1772732019386484500,11.483484375,0.20458412170410156,0.024243155494332314,0.5387328863143921
1772732019396512300,11.49351220703125,0.17802707850933075,-0.010469550266861916,0.45296552777290344
1772732019406539300,11.503539306640626,0.15894083678722382,-0.010382146574556828,0.40968745946884155
1772732019416567300,11.5135673828125,0.14671160280704498,0.05913487821817398,0.4033736288547516
1772732019426595300,11.52359521484375,0.1868603527545929,0.1513122171163559,0.38313788175582886
1772732019436623400,11.533623291015624,0.2119925320148468,0.21990282833576202,0.38079914450645447
1772732019446651100,11.543651123046875,0.19347897171974182,0.2658235430717468,0.37809473276138306
1772732019456679400,11.553679443359375,0.17420193552970886,0.24166707694530487,0.32102611660957336
1772732019466707200,11.563707275390625,0.15292061865329742,0.14668796956539154,0.2067946493625641
1772732019476735200,11.5737353515625,0.14966250956058502,0.07839652895927429,0.0907796323299408
1772732019486763300,11.58376318359375,0.1778198480606079,0.06810847669839859,0.0418698750436306
1772732019496791300,11.593791259765625,0.19739407300949097,0.0837758481502533,0.04708780720829964
1772732019506819300,11.6038193359375,0.18676893413066864,0.11888818442821503,0.05027688667178154
1772732019516846300,11.613846435546876,0.19385427236557007,0.14435280859470367,0.05362581089138985
1772732019526874400,11.623874267578126,0.20689654350280762,0.11871480196714401,0.051475346088409424
1772732019536902100,11.633902099609376,0.19693951308727264,0.06118839234113693,0.022414932027459145
1772732019546930400,11.643930419921874,0.1642647534608841,0.01742924377322197,-0.04859783127903938
1772732019556958200,11.653958251953124,0.14111976325511932,-0.02089976891875267,-0.09192479401826859
1772732019566986200,11.663986328125,0.11156036704778671,-0.07471701502799988,-0.08490639925003052
1772732019577014300,11.67401416015625,0.08278597891330719,-0.09705588221549988,-0.07230405509471893
1772732019587042300,11.684042236328125,0.11164762079715729,-0.06279715150594711,-0.0496111661195755
1772732019597070300,11.6940703125,0.13510501384735107,-0.04095710068941116,-0.027024894952774048
1772732019607098400,11.704098388671875,0.11963064223527908,-0.03455608710646629,-0.0046066176146268845
1772732019617126100,11.714126220703125,0.08375892788171768,-0.005099660716950893,0.021606076508760452
1772732019627153400,11.7241533203125,0.06469323486089706,0.03556713089346886,0.033464763313531876
1772732019637181200,11.73418115234375,0.06512492895126343,0.04652417451143265,0.012960817664861679
1772732019647209500,11.74420947265625,0.07508481293916702,0.045329317450523376,-0.009918080642819405
1772732019657237200,11.7542373046875,0.06981255859136581,0.06252162158489227,-0.002613295568153262
1772732019667265500,11.764265625,0.057822369039058685,0.10996166616678238,0.01818821206688881
1772732019677293300,11.774293212890624,0.05582659691572189,0.13991130888462067,0.039163004606962204
1772732019687321000,11.784321044921874,0.07839985191822052,0.18872959911823273,0.06020035967230797
1772732019697349400,11.794349365234375,0.08908045291900635,0.2670086920261383,0.10632577538490295
1772732019707377200,11.804377197265625,0.09109187126159668,0.3205114006996155,0.12884525954723358
1772732019717405400,11.814405517578125,0.08119077235460281,0.328987717628479,0.142284095287323
1772732019727432200,11.82443212890625,0.06625766307115555,0.3371777832508087,0.15080323815345764
1772732019737460500,11.83446044921875,0.05461752042174339,0.3078603744506836,0.15577615797519684
1772732019747488300,11.84448828125,0.04284811392426491,0.269816517829895,0.13807052373886108
1772732019757516000,11.85451611328125,0.04628732055425644,0.24653783440589905,0.11762861907482147
1772732019767544300,11.86454443359375,0.06338221579790115,0.22686390578746796,0.08907705545425415
1772732019777572000,11.874572021484376,0.09235687553882599,0.19386173784732819,0.06655284017324448
1772732019787600400,11.884600341796874,0.10929963737726212,0.18504296243190765,0.05633985996246338
1772732019797628200,11.894628173828124,0.09028546512126923,0.18358328938484192,0.06652085483074188
1772732019807656200,11.90465625,0.0392538420855999,0.2596345841884613,0.15591241419315338
1772732019817684200,11.914684326171875,0.008714043535292149,0.16456744074821472,0.08022431284189224
1772732019827712300,11.924712158203125,-0.011273548938333988,0.03567508980631828,0.031610190868377686
1772732019837739300,11.9347392578125,-0.03406887501478195,-0.11239586025476456,-0.0944228395819664
1772732019847767300,11.944767333984375,-0.05804404988884926,-0.20926785469055176,-0.19206011295318604
1772732019857795300,11.95479541015625,-0.05871063843369484,-0.2807457447052002,-0.2534875273704529
1772732019867823400,11.9648232421875,-0.04889891669154167,-0.3161676228046417,-0.26293542981147766
1772732019877851100,11.97485107421875,-0.04570898413658142,-0.3064556121826172,-0.23579542338848114
