time,seconds_elapsed,z,y,x
1772732007974742300,0.0717421875,0.3024018151074648,0.23190949812456965,0.08260609475523233
1772732007984769000,0.08176904296875,0.3723229080736637,0.2122339067958295,0.09427435724977404
1772732007994797300,0.09179736328125,0.4099667022913694,0.2948962617829442,0.02809745578058064
1772732008004825000,0.1018251953125,0.520433740657568,0.3932249724574387,-0.09776599875781684
1772732008014853000,0.11185302734375,0.59115095243752,0.4286871848523617,-0.1946294591853395
1772732008024881200,0.121881103515625,0.6024427463024854,0.46186859283372755,-0.22879627974117173
1772732008034909200,0.1319091796875,0.5119891529172659,0.4692036118969321,-0.1599529538080096
1772732008044937200,0.141937255859375,0.4018412635028362,0.44238677051141856,-0.12344954353077336
1772732008054965000,0.151965087890625,0.47328503599166866,0.46970060163363814,-0.24440621079988775
1772732008064992300,0.1619921875,0.6367144337385893,0.49514995405822987,-0.16722407732214778
1772732008075020000,0.17202001953125,0.5681915171325207,0.3712159697450697,-0.024583200581930576
1772732008085048300,0.18204833984375,0.5888806694179773,0.23042963483035564,0.02206741836871952
1772732008095076000,0.192076171875,1.0145435380131005,-0.05848915997818112,0.3473484066192061
1772732008105104100,0.202104248046875,1.6217635817199945,-0.37660482317656274,0.9043702218964695
1772732008115132200,0.212132080078125,1.2562632131427525,-0.41008097632080315,0.8251791962817311
1772732008125160200,0.22216015625,1.1358254003822803,-0.4050067417964339,0.7763742488414048
1772732008135188200,0.232188232421875,0.9441682715386152,-0.45257586383149023,0.6867498728219419
1772732008145216300,0.24221630859375,0.7548252648562193,-0.37680122253149745,0.5949638983217999
1772732008155243300,0.2522431640625,0.47903731590807436,-0.2789939053826034,0.4907303475176915
1772732008165271000,0.26227099609375,0.4273831165164709,-0.2530919868849218,0.42426038138605654
1772732008175299000,0.272299072265625,0.6077969668120146,-0.26929946371167895,0.3761364750124514
1772732008185327000,0.2823271484375,1.0025374583989382,-0.29377485653758045,0.34467838369235393
1772732008195355100,0.292355224609375,1.3032125958442686,-0.30609643184170127,0.26799375140797344
1772732008205383200,0.302383056640625,1.4723931044638157,-0.3231744078926742,0.08565642223656177
1772732008215411200,0.3124111328125,1.7112421925932169,-0.3205488816946745,-0.09095788964554667
1772732008225439000,0.32243896484375,2.169510861238837,-0.34100729396417734,-0.3067759020058438
1772732008235466200,0.33246630859375,2.7597937986701724,-0.3721240245006978,-0.5439626098809763
1772732008245494000,0.342493896484375,3.3635505501806735,-0.3899206702150404,-0.7793455197371542
1772732008255522300,0.352522216796875,3.7002830894351004,-0.38926264469772576,-0.9061514062248169
1772732008265550000,0.362550048828125,3.974351374983787,-0.45620837511494755,-0.880128053304553
1772732008275578000,0.372578125,4.32489324388206,-0.560955574529618,-0.6668655341133475
1772732008285606100,0.382606201171875,4.3085301381021734,-0.6057958561226725,-0.3727131860328838
1772732008295634000,0.392634033203125,4.241320642182231,-0.7619443030811845,0.013293342945724726
1772732008305662200,0.402662109375,4.159339693588018,-0.861455501538515,0.26271460542865094
1772732008315689000,0.41268896484375,3.5342151598781344,-0.816454914817214,0.2174493764217943
1772732008325717200,0.42271728515625,2.437139469128847,-0.6257455882176757,0.061798467189259826
1772732008335745000,0.4327451171875,1.4108259983450173,-0.40038960338979956,-0.04238159986194223
1772732008345773300,0.442773193359375,0.4929729022800922,-0.3304355214694515,-0.08250584925115108
1772732008355801000,0.452801025390625,-0.47901568859815596,-0.45106582459472117,0.10741956042908131
1772732008365829000,0.4628291015625,-1.334431909972429,-0.6245807822220028,0.48013950499631464
1772732008375857200,0.472857177734375,-2.4665298142641783,-0.6276119666114449,0.9715176123656332
1772732008385885200,0.48288525390625,-4.000580041217804,-0.5440318391922861,1.315886491717398
1772732008395913200,0.492913330078125,-5.435576019701362,-0.5326202914051711,1.0209599078614264
1772732008405940000,0.50293994140625,-6.15824965801537,-0.5431801177337765,0.5592229055181145
1772732008415968300,0.51296826171875,-6.146550452393293,-0.6105739572446793,0.1488623816035688
1772732008425996000,0.52299609375,-5.809144543921947,-0.946870077843219,0.03377783950455487
1772732008436024000,0.533024169921875,-6.192333129402995,-1.1244465858209878,-0.015521613454446196
1772732008446052000,0.543052001953125,-7.253520929691195,-1.1794771297778934,-0.3624626083165407
1772732008456080100,0.553080078125,-8.056644653770327,-1.3298939742818474,-0.4006769689638167
1772732008466108200,0.563108154296875,-8.891445957139133,-1.664893552263826,0.12117292210198938
1772732008476136200,0.57313623046875,-9.687403442850709,-1.7864815579727291,1.044891549199447
1772732008486164000,0.5831640625,-11.499336545205116,-1.6474952582173048,1.8976108596399426
1772732008496191000,0.59319091796875,-14.47407131767273,-0.9974312213011085,1.7345912117376923
1772732008506219300,0.60321923828125,-19.453643691051006,0.5589138395689428,0.12307035322114825
1772732008516247000,0.6132470703125,-24.409433037781714,2.482772508534789,-2.2734847381934524
1772732008526275000,0.623275146484375,-26.397394322693348,4.6485383380264045,-2.5706638502165675
1772732008536303000,0.63330322265625,-30.591815851056573,4.7004725234031675,-3.03367503721416
1772732008546331100,0.6433310546875,-33.59113093802929,5.797327264878153,-0.23373832098692654
1772732008556359200,0.653359130859375,-32.649367974066735,7.32512778378725,3.9884412751346825
1772732008566387200,0.66338720703125,-30.627088239967822,8.48311007091999,7.054039975354075
1772732008576414200,0.673414306640625,-28.94495114582777,10.185292758744955,8.76155467185676
1772732008586442200,0.683442138671875,-26.35389887983799,11.560533648967743,9.149690650612115
1772732008596470000,0.693469970703125,-22.324777803790568,13.016189553642272,9.494970068937539
1772732008606498300,0.703498291015625,-17.765609940087796,14.80051977880001,10.409852040237189
1772732008616526000,0.713526123046875,-13.172628654110431,16.272814683586358,11.44354626892209
1772732008626554400,0.723554443359375,-9.04459069223702,17.17112779740095,11.817528050118684
1772732008636582100,0.73358203125,-4.428047913408279,18.24578181298375,11.494081693416833
1772732008646610000,0.74360986328125,-0.3156494192153215,18.98327658833265,11.074316650688647
1772732008656638200,0.75363818359375,2.8946693021059033,19.294518127977845,9.375662721511722
1772732008666665000,0.7636650390625,5.940246958559751,19.48597242772579,7.628353774759173
1772732008676693200,0.773693359375,8.90116947877407,19.36374188632965,6.252062498700618
1772732008686721000,0.783720947265625,11.691680487269162,18.80190646022558,5.2707057754963635
1772732008696749300,0.793749267578125,14.191118299400806,18.061201490658522,4.230746056675911
1772732008706777000,0.803777099609375,16.380767693305014,16.863239075314997,3.5929788990139957
1772732008716805000,0.81380517578125,17.552715377426146,15.580838965874909,3.1107363573238254
1772732008726833200,0.823833251953125,19.275818103682994,14.366191957712173,2.5616335715427994
1772732008736860000,0.83385986328125,21.01984905167818,13.154716565322875,2.0033377177417275
1772732008746887700,0.8438876953125,22.093753710198403,12.365679818785189,0.5748047977924347
1772732008756915000,0.8539150390625,22.25921549055576,12.003041269379853,-1.374675365294516
1772732008766942700,0.863942626953125,22.119968347907065,11.211571742737293,-2.8078195784315465
1772732008776970800,0.873970703125,21.461820080995558,10.001064318597317,-3.452444931425154
1772732008786998800,0.883998779296875,21.423503502082824,8.714662572300433,-3.193102505843341
1772732008797026800,0.89402685546875,22.25714394497871,7.260867785322666,-1.8824413475587962
1772732008807054800,0.904054931640625,23.30464458069801,5.678614960736036,-0.3246645003199577
1772732008817083000,0.914082763671875,23.820618419337272,4.628137939554453,0.6854495308130979
1772732008827110700,0.924110595703125,23.26319028828144,3.884983238747716,0.321195070643723
1772732008837137700,0.9341376953125,22.67795060571432,3.6626398797392845,-0.6603530834794044
1772732008847165700,0.944165771484375,22.256267162144184,3.5375089407265183,-1.051137530916929
1772732008857193700,0.95419384765625,21.67429378789663,3.5423446903198954,-0.46831338505893944
1772732008867221800,0.9642216796875,20.753440340971945,3.7055221591323613,0.3469762853711843
1772732008877249800,0.974249755859375,19.371205061817168,4.053934030264616,1.2093648299761115
1772732008887277800,0.98427783203125,18.42133477924466,4.428858060747385,2.3754681719832123
1772732008897305600,0.9943056640625,18.232811272251606,4.729232169419527,3.955907079015672
1772732008907334000,1.004333984375,18.602134413987397,4.961596571704745,5.588270088422298
1772732008917361700,1.014361572265625,18.736160607117412,5.2725791681528085,6.40540071054399
1772732008927389000,1.024388916015625,18.416272819679975,5.685495367899537,6.275768368458747
1772732008937416700,1.034416748046875,18.014992697191236,6.191624688872695,6.218300514352321
1772732008947445000,1.044445068359375,17.444249157488343,6.740371500822901,6.271560979896783
1772732008957472800,1.05447265625,16.5321553556025,7.320915719050168,6.243402222383022
1772732008967500800,1.064500732421875,15.168020381283759,7.959648506873846,5.7764504810661075
1772732008977528800,1.07452880859375,13.79768479875922,8.458191902762652,5.0831455605775115
1772732008987556600,1.084556640625,12.42293490692377,8.93488937754631,4.631218369913101
1772732008997585000,1.0945849609375,11.03773727083206,9.45223918071389,4.337640497252345
1772732009007611600,1.104611572265625,9.89264369136691,9.894113179397582,4.1523827140569685
1772732009017640000,1.114639892578125,8.979275631761551,10.840710139387845,3.9738460558101534
1772732009027667700,1.124667724609375,8.865483832886815,12.160220374560355,3.4331025175735355
1772732009037696000,1.134696044921875,9.826170693027972,14.244997189104556,2.8637478018805385
1772732009047723800,1.144723876953125,11.705948666596411,17.27588581047058,1.7369952041395007
1772732009057751800,1.154751708984375,15.41625163026452,20.523468386781214,0.7705773991309106
1772732009067779800,1.16477978515625,17.99376636928916,22.21031672735214,0.9352731635518372
1772732009077807900,1.174807861328125,11.592778214490412,22.692776418924332,3.755478322434425
1772732009087836000,1.1848359375,-0.1388677879422903,24.250721316206455,7.131245380109548
1772732009097862700,1.194862548828125,-10.653764841496944,23.853288516795633,11.627003140175342
1772732009107891000,1.204890869140625,-21.03484320719242,21.581597968542575,19.301213241702317
1772732009117918700,1.214918701171875,-26.018336553406712,17.216680757308005,18.74889032483101
1772732009127946800,1.22494677734375,-21.744263396179676,14.838053098380565,9.341141443228722
1772732009137974800,1.234974853515625,-19.425354000633956,15.497400804209708,4.114726937140524
1772732009148002800,1.2450029296875,-24.885568202507493,14.74242531722784,3.460000169110298
1772732009158030800,1.25503076171875,-30.689332806956767,12.311043388712406,4.21783133778423
1772732009168059000,1.265058837890625,-31.653099512934684,9.459818676057457,4.6002290651485325
1772732009178086700,1.275086669921875,-29.050274976086616,6.837718360853195,5.031482008835673
1772732009188113700,1.28511376953125,-26.293870819854735,4.574344682307541,6.599372546070814
1772732009198141700,1.2951416015625,-24.634520727062224,1.5995798069626093,9.39127354761958
1772732009208169700,1.305169677734375,-23.24366258099079,-1.8749469001501797,11.04346558535099
1772732009218197800,1.31519775390625,-21.647747141754625,-4.564164649076759,11.12228134791255
1772732009228225800,1.325225830078125,-21.058946551835536,-5.977706628382205,10.014309584617614
1772732009238253800,1.33525390625,-21.621399233055115,-6.342928764539956,8.878666555064916
1772732009248281600,1.345281494140625,-22.499477368092535,-5.889490584790706,7.359908589789271
1772732009258310000,1.355309814453125,-23.994427172279355,-4.464377410157025,4.939233933249116
1772732009268337700,1.365337646484375,-24.683583156394956,-3.5286867518454788,2.9625767171621322
1772732009278365000,1.375364990234375,-23.378752603960034,-3.7021111816450953,1.9084530100412667
1772732009288392700,1.385392822265625,-21.776769827508925,-4.307876642629504,2.4252353885844347
1772732009298421000,1.3954208984375,-20.311060146331787,-5.141118441596627,3.3652591076642273
1772732009308448800,1.40544873046875,-19.08376525352001,-5.59119503595829,3.8272371522217985
1772732009318476800,1.415476806640625,-18.889570715153216,-5.482715956538915,4.035439173153042
1772732009328504800,1.4255048828125,-20.216547632944582,-4.8880122800558805,3.955317588689923
1772732009338532600,1.43553271484375,-21.82014135172367,-3.8639483417645093,4.472175808948278
1772732009348561000,1.445560791015625,-24.657083272004126,-2.6647923327222465,5.665530438235402
1772732009358587600,1.455587646484375,-27.090915516281125,-0.8052570828460156,5.524605717763304
1772732009368616000,1.465615966796875,-27.66717928071022,1.9133577332176266,3.7223844466060396
1772732009378643700,1.475643798828125,-28.13607806444168,4.098616929338872,2.6725176662772894
1772732009388672000,1.485672119140625,-28.0975089720726,5.991261106482148,2.8827082306772467
1772732009398699800,1.49569970703125,-27.206809840393063,7.495591902476549,3.855383634775877
1772732009408727800,1.505727783203125,-24.881371335339544,9.77552070224285,4.639620872077345
1772732009418755800,1.515755859375,-25.49521284301281,13.092635664463042,3.7608810582607983
1772732009428783900,1.525783935546875,-26.51477333240509,16.76521007823944,1.9540905794918535
1772732009438812000,1.53581201171875,-25.156409927225113,19.97552353886366,0.3099300186552107
1772732009448838700,1.545838623046875,-20.80538797035217,22.272956431138514,0.408027477857098
1772732009458867000,1.555866943359375,-16.326750856435297,23.657829073059556,2.2399508635126053
1772732009468894700,1.565894775390625,-12.441134580481052,24.819005187797543,3.623885493931174
1772732009478922800,1.5759228515625,-8.204065166002511,25.571848338925836,4.153078879627585
1772732009488950800,1.58595068359375,-3.3548686465531588,25.488909358954427,5.013884977346659
1772732009498978800,1.595978759765625,1.069957966721058,24.431345594382286,6.958028163319826
1772732009509006800,1.6060068359375,4.307353495538234,23.431177203202246,7.779886398485303
1772732009519035000,1.616034912109375,7.657053215020895,22.6263653799057,7.434303028777241
1772732009529062700,1.626062744140625,11.602475432640313,21.96859588317871,6.600723376157879
1772732009539090000,1.63608984375,14.688387437570094,21.206828251838683,5.870396008220315
1772732009549117700,1.64611767578125,17.090456762361526,20.06309894646406,4.716941427645087
1772732009559145700,1.656145751953125,19.23236708449125,18.484436255323885,3.6977781208768485
1772732009569173800,1.666173828125,20.806276443624494,16.407824042534827,3.9324987308993933
1772732009579201800,1.676201904296875,22.081530188441274,14.401532151162623,4.688771564215421
1772732009589229800,1.686229736328125,22.93903315296173,13.14342360241413,5.197229035875201
1772732009599257600,1.696257568359375,22.39384958645105,12.161980954492092,4.273028908871114
1772732009609286000,1.706285888671875,21.624062314784524,11.657045227217674,2.579040341156721
1772732009619313700,1.716313720703125,21.03825447694063,11.223063443088531,2.056953864856064
1772732009629341000,1.7263408203125,20.22231569495201,10.907054542911052,2.588856217250228
1772732009639368700,1.73636865234375,18.80196374337077,11.323989330649376,2.3164199168175457
1772732009649397000,1.74639697265625,18.086078742283583,11.50910156789422,1.861399144051969
1772732009659424800,1.7564248046875,18.22673692077398,11.40940083821416,2.468486209028959
1772732009669452800,1.766452880859375,19.540085126185417,11.080615458571911,3.513417286521196
1772732009679480800,1.776480712890625,21.549898177421092,10.506300490123033,4.208932284274697
1772732009689508900,1.7865087890625,23.188542166793344,9.771785022845863,4.368349523770809
1772732009699537000,1.796536865234375,24.53556818540096,8.992833616992831,4.438420838862657
1772732009709563600,1.806563720703125,24.78445760602951,8.379066928121446,4.620013085287809
1772732009719592000,1.816592041015625,23.914328968691823,7.940874832820892,3.9967344717055555
1772732009729619700,1.82661962890625,22.36136185982227,7.704341035896539,3.3283617478996512
1772732009739647700,1.836647705078125,20.787293510735033,7.757575782477855,2.836120374764502
1772732009749675500,1.846675537109375,20.080655645942688,7.610512997642159,2.6681828519433735
1772732009759703300,1.856703369140625,20.949615239500996,7.285591307690739,2.506395960706472
1772732009769731600,1.866731689453125,23.195025683593748,7.599758963915705,2.529887895452976
1772732009779759400,1.87675927734375,26.97787365899086,8.545869601693749,3.1658333906456826
1772732009789787600,1.88678759765625,30.024518652415274,9.698782914999127,4.672575047174096
1772732009799814400,1.896814453125,29.69005055096149,11.626841812133788,3.503252743120491
1772732009809842700,1.9068427734375,27.540195407307145,13.891454969346523,0.7810138182755559
1772732009819870500,1.916870361328125,25.470562385880946,15.715171448475122,-1.57475516230762
1772732009829898500,1.9268984375,23.624183993089197,17.01247686610222,-2.480526190912723
1772732009839926500,1.936926513671875,21.215979526543617,17.521366299438476,-2.213938470377773
1772732009849954600,1.94695458984375,18.8503972271502,18.38890433576107,-1.3717609391525387
1772732009859982600,1.956982666015625,16.72335597285032,19.89198834656477,-0.6660226535484194
1772732009870010600,1.9670107421875,14.646858326351643,20.32763484903574,0.19536577410325406
1772732009880038400,1.977038330078125,13.366135794734953,20.78610342416763,1.8792976427055894
1772732009890065400,1.9870654296875,11.475304512232542,20.891483368527886,2.771661931118369
1772732009900093400,1.997093505859375,7.4438745747208594,19.93969234702587,3.084894936841726
1772732009910121500,2.00712158203125,4.071949579426646,20.636444777619836,4.166769551327825
1772732009920149500,2.0171494140625,2.3602280788838863,22.995834652113913,6.506991199493408
1772732009930177500,2.027177490234375,0.03847089269161224,26.831366754472253,9.826596224963664
1772732009940205600,2.03720556640625,-9.086939303144812,27.665341543889046,11.087314079427719
1772732009950233300,2.0472333984375,-21.788390122675896,25.000038631296157,11.46275365821719
1772732009960261600,2.05726171875,-28.31646151959896,21.932254988253117,10.142939471662045
1772732009970289400,2.067289306640625,-24.8412076672554,18.965364499545096,9.7470439648211
1772732009980316400,2.07731640625,-16.227968995165824,17.920642680889365,14.688388606613874
1772732009990344400,2.087344482421875,-12.42621758185625,16.067987692046163,18.35572687330246
1772732010000372500,2.09737255859375,-15.230643718457221,14.658789587163925,15.402454575580357
1772732010010400500,2.107400390625,-22.075652236318586,15.413058971703052,10.058863012093305
1772732010020428500,2.117428466796875,-29.8952621579051,14.939437251102923,5.850695866972208
1772732010030456600,2.12745654296875,-33.170731104528905,12.825986130738258,3.2460797705322504
1772732010040484400,2.137484375,-29.024747736120222,10.734392621916532,3.0389018319517374
1772732010050512600,2.1475126953125,-22.967763572883605,8.333166177690028,5.0803199817627664
1772732010060540400,2.15754052734375,-20.778904452574253,5.822498531013727,8.688980434033274
1772732010070567700,2.167567626953125,-20.68851164946556,3.187458654737472,9.852311680978536
1772732010080595500,2.177595458984375,-21.343952410984038,2.0404683017402885,7.530335883599519
1772732010090623700,2.187623779296875,-22.330265295290946,2.1540514263004065,3.4732971653178333
1772732010100651500,2.197651611328125,-22.761703240156173,2.4595909549117088,0.45168490634113545
1772732010110679600,2.207679443359375,-23.499984781968593,2.355308742660284,-0.5664589942514896
1772732010120707600,2.21770751953125,-23.511502201282976,1.8011463354021309,-0.9224388164199888
1772732010130735400,2.2277353515625,-21.782103005230425,0.9667395843088626,-0.8777794443517923
1772732010140763600,2.237763671875,-19.962825385332106,-0.21618016020357608,-0.2457140054628253
1772732010150791400,2.24779150390625,-18.582971448355913,-1.0778232932686804,0.7304428110107779
1772732010160818700,2.257818603515625,-17.803872742986677,-1.6438135009646415,1.8686901778429745
1772732010170846500,2.267846435546875,-17.866692479515073,-1.8101771985977888,2.7008915278464554
1772732010180874500,2.27787451171875,-17.98781476740837,-1.3937854316949843,2.712395503157377
1772732010190902500,2.287902587890625,-18.144575354915855,-0.5535457366645335,2.7410578262791034
1772732010200930600,2.2979306640625,-18.92968411435485,0.5685591814011335,3.7101410511046646
1772732010210958600,2.30795849609375,-21.067669956517218,2.105254662166536,5.525387808051705
1772732010220986600,2.317986572265625,-23.0540132848382,3.7148169339612123,6.676653938671946
1772732010231014400,2.328014404296875,-23.36265253303051,5.784448494082689,7.087435464477538
1772732010241041400,2.33804150390625,-23.09557980545759,8.575771403482555,7.436343010172248
1772732010251069400,2.3480693359375,-24.396358452153205,11.918464459073542,6.0462231152474875
1772732010261097500,2.358097412109375,-26.516049928212166,15.848144333159922,2.5592639198020097
1772732010271125500,2.36812548828125,-27.892367507755754,19.37254712407589,-1.532114728846401
1772732010281153500,2.378153564453125,-27.588619538736342,22.108691751611232,-3.847719968280196
1772732010291181600,2.388181640625,-24.431343256294724,23.701759400200842,-2.661443899077177
1772732010301209300,2.398209228515625,-19.004305347836016,24.10377017505169,0.58044813744165
1772732010311237600,2.408237548828125,-11.928625787603854,24.04791092518568,3.679830376254022
1772732010321265400,2.418265380859375,-5.190899832853675,23.647326383745668,6.064802143511176
1772732010331292400,2.42829248046875,-0.8079962985515594,22.85457909225225,8.070285056588054
1772732010341320400,2.438320556640625,1.2925100000441074,22.395575095069407,8.42762608410716
1772732010351348500,2.448348388671875,2.7366578377544877,22.08068613883257,7.793784575456381
1772732010361376500,2.45837646484375,4.680180261480808,22.013842553615568,7.317077748322486
1772732010371404300,2.468404296875,6.641411944898962,21.49381447114944,7.228178398641943
1772732010381432600,2.4784326171875,7.874729751262068,20.741317356979845,6.698344376954436
1772732010391460400,2.48846044921875,9.178899209439754,20.013335090863702,6.366649831867218
1772732010401488600,2.498488525390625,10.905822370767593,18.776030845212937,6.23117051731944
1772732010411516400,2.508516357421875,13.111804475313424,17.14096880598068,6.099475397485494
1772732010421543700,2.518543701171875,14.945082563513516,15.847075827145575,6.003706162035465
1772732010431571500,2.528571533203125,16.095443854248522,14.601464356398582,5.7683425779342645
1772732010441599500,2.538599609375,16.957639360499382,13.749222088885306,5.268057306814193
1772732010451627500,2.54862744140625,19.04020434421301,13.1145716019392,5.415702859973907
1772732010461655600,2.558655517578125,22.814579090297222,11.967496493268012,5.776590766319632
1772732010471683600,2.56868359375,25.852215432357788,10.844965458744763,5.312429532504082
1772732010481711600,2.578711669921875,25.739105770528315,9.7172210734874,3.9262469770282507
1772732010491739400,2.588739501953125,24.045007020437716,9.136938136544822,2.8514389399275184
1772732010501767400,2.598767333984375,22.16843222682476,9.19837840141356,1.7709110638752579
1772732010511794700,2.608794677734375,21.07029329075813,8.974845540359615,0.7438461902022361
1772732010521822500,2.618822509765625,20.503793379974365,8.528818513649702,0.2854486344799399
1772732010531850500,2.6288505859375,20.100763198947906,8.247815460401773,-0.013529635919630526
1772732010541878500,2.63887841796875,20.536274092340467,7.91836723293662,-0.23016601545810697
1772732010551906600,2.648906494140625,22.260704852330683,7.4732397854149335,-0.6270283215045929
1772732010561934600,2.6589345703125,24.609475133132932,7.072780331659317,-0.9070403178885579
1772732010571962600,2.668962646484375,26.160927161264418,6.742170659199356,-1.2278615867838263
1772732010581990400,2.678990478515625,26.60816823993921,6.3821168655902145,-0.9332093628898263
1772732010592017400,2.689017333984375,26.255432660388944,6.012321430167556,0.370261591629684
1772732010602045400,2.69904541015625,25.19738958786726,5.55896800609231,1.7221807891063392
1772732010612073500,2.709073486328125,23.4674128841877,5.344280714794993,2.4893121394366022
1772732010622101500,2.7191015625,21.573141105842588,5.131958983585238,3.161547383889556
1772732010632129500,2.729129638671875,20.00267808777094,4.949415135523677,4.155978692722321
1772732010642157600,2.739157470703125,18.547423165112733,4.843581602177023,5.174137498623132
1772732010652185300,2.749185302734375,17.085256855630874,4.841465632936358,5.939332181802392
1772732010662213600,2.759213623046875,15.713989545214176,4.822015082535147,6.3101289032220835
1772732010672241400,2.769241455078125,14.634170694214104,4.808577508813142,6.349793974134325
1772732010682268700,2.7792685546875,13.723220217144489,4.850374038796127,6.220034206277131
1772732010692296400,2.78929638671875,12.841115895330905,5.04491607542634,5.864898579847813
1772732010702324500,2.799324462890625,12.433814028334616,5.08118975033462,5.722291020855307
1772732010712352500,2.8093525390625,12.237023043733835,5.09997102317214,5.442891311150789
1772732010722380300,2.81938037109375,12.381333314990997,5.15275042720139,5.6110033137559885
1772732010732408600,2.82940869140625,12.442640308868885,4.975541510426998,5.120201910296082
1772732010742436600,2.8394365234375,11.675855141627787,5.423019904989004,3.954867799095809
1772732010752464600,2.849464599609375,10.18420087185502,6.356079338014125,2.685256151819229
1772732010762492700,2.85949267578125,8.249283194866775,7.39762018854618,1.2227692320808767
1772732010772519700,2.869519775390625,7.2322057544618845,8.700604236331582,0.10939422150291502
1772732010782547700,2.879547607421875,7.959199594062566,10.878932025754452,-0.04734006251953542
1772732010792575500,2.889575439453125,10.22030912706852,13.049639403301477,0.95721903790012
1772732010802603800,2.899603759765625,12.809286340349912,14.947079290288686,2.861400069710612
1772732010812631600,2.909631591796875,15.18730258938074,17.679196562004087,5.127265272811055
1772732010822659800,2.919659912109375,14.171917924368381,20.794562624955176,7.133586974799632
1772732010832687600,2.9296875,7.7290289024293415,22.003793453288075,8.262654133093356
1772732010842715600,2.939715576171875,0.11799509578347206,24.038626379489898,10.246482848244906
1772732010852743700,2.94974365234375,-8.27713858551979,27.12200039037466,12.635703212857246
1772732010862770400,2.9597705078125,-19.56618753569126,28.42045263994932,14.742918653702736
1772732010872798700,2.969798828125,-29.59128505630493,26.778921112442013,16.36699401949644
1772732010882826500,2.979826416015625,-32.50160551652908,23.40378884553909,13.338999950528144
1772732010892854800,2.989854736328125,-29.64065611319542,21.40666927165985,9.335966086417436
1772732010902882600,2.999882568359375,-27.087670250749586,19.090398407924173,7.685940286809205
1772732010912910600,3.00991064453125,-26.796587702035904,15.887504868167637,8.42044815530181
1772732010922938600,3.019938720703125,-28.354460118603704,12.812277923381329,11.332898613291977
1772732010932966700,3.029966552734375,-31.208647772717473,9.39280382592678,13.836499390321968
1772732010942994700,3.03999462890625,-32.36158212881088,6.248886206752061,14.102959538954495
1772732010953021400,3.050021484375,-30.630230629646775,3.489422078427672,11.924868480896949
1772732010963049700,3.0600498046875,-27.126879979109763,1.2277619258016348,9.180980107367038
1772732010973077500,3.070077392578125,-24.062315882635115,-1.0960615452706812,8.143770564037561
1772732010983105500,3.08010546875,-21.705504918718336,-3.1046693123698232,8.077655877617001
1772732010993133600,3.090133544921875,-19.504899246513844,-4.643154891422391,7.95960291416645
1772732011003161600,3.10016162109375,-17.590677736073733,-5.815253382191061,7.623478862199187
1772732011013189600,3.110189697265625,-16.282686089259386,-6.589544979539514,7.1396303466171025
1772732011023217700,3.1202177734375,-15.985107164263724,-7.022943410822749,6.573917786818742
1772732011033245400,3.130245361328125,-16.604143902492524,-7.2394082331866025,5.832546462297439
1772732011043272700,3.140272705078125,-17.153548886090515,-6.973762323546409,4.90503998722434
1772732011053300700,3.15030078125,-17.423977938354014,-6.508762300819158,4.227599867604673
1772732011063328800,3.160328857421875,-18.156035491085053,-5.873074287518858,4.618047338172794
1772732011073356500,3.1703564453125,-20.66091052583456,-5.086998728874326,6.041121408194303
1772732011083384800,3.180384765625,-23.945395138084887,-4.105694028118252,6.781122613406181
1772732011093412600,3.19041259765625,-26.84349207655191,-2.4856661841496823,7.2355065495729445
1772732011103440600,3.200440673828125,-29.61384760124683,-0.48568625240325924,7.140811665356159
1772732011113468700,3.21046875,-30.419452036225795,1.9166998832523823,6.857409734272957
1772732011123496400,3.220496337890625,-29.0836067523241,4.324859049351513,7.123700371557474
1772732011133523700,3.230523681640625,-27.624679863154885,6.151203831157088,7.800365122890472
1772732011143551500,3.240551513671875,-25.738149492716786,7.972113436171412,8.80295927991271
1772732011153579800,3.250579833984375,-24.21754852992296,10.173293693393468,9.554253448033332
1772732011163607600,3.260607666015625,-24.47254737334251,13.362913910079001,8.018839531511068
1772732011173635800,3.2706357421875,-23.412404698193072,17.018358325356242,6.428391710031033
1772732011183663600,3.28066357421875,-21.248694047665595,19.733110620772838,5.425137627795339
1772732011193691600,3.290691650390625,-17.07319349287152,21.731934660482406,4.802947393971682
1772732011203719700,3.3007197265625,-11.6669166328907,23.274869035637376,4.805608722135425
1772732011213747700,3.310747802734375,-6.86070526868701,23.80752980518341,4.938702018329501
1772732011223774700,3.320774658203125,-2.930328644508123,23.720071301960942,5.724726139047742
1772732011233802500,3.330802490234375,0.772819186708331,23.237945956909655,6.479408780562877
1772732011243830800,3.340830810546875,3.574276536631584,22.685212705671788,6.477950398448109
1772732011253858600,3.350858642578125,5.447337184643745,22.103183217322826,4.94991197912991
1772732011263886600,3.360886474609375,7.3974237891912455,21.997648959183692,2.183307477531582
1772732011273914600,3.37091455078125,8.714572555929422,21.39211701469421,0.11529897943413815
1772732011283942700,3.380942626953125,9.335532371175288,20.41650321905613,-0.35494912741389123
1772732011293970700,3.390970703125,10.476786810868978,18.927822996658087,0.9762293702531606
1772732011303998700,3.400998779296875,12.725827135896681,17.35906444441676,2.1294490460939706
1772732011314025700,3.411025634765625,15.200346779870985,15.874604470062256,2.1917764690607786
1772732011324053500,3.421053466796875,17.91022533177137,14.417386722898483,1.1671421104703097
1772732011334081500,3.43108154296875,20.010725785148143,13.430627263867855,0.660801046442613
1772732011344109600,3.441109619140625,21.394291436123847,12.638190938019752,0.7825809214618057
1772732011354137600,3.4511376953125,22.35390569859743,11.671695683860777,1.1422456426881253
1772732011364165600,3.46116552734375,23.048383169996736,10.893542734909056,1.1452356182843446
1772732011374193700,3.471193603515625,23.09282086213827,10.890734691751003,0.4146644316535443
1772732011384221400,3.481221435546875,22.09319490727186,11.301779836928844,-0.5107800693884491
1772732011394248700,3.491248779296875,20.18746182371378,12.15288111771345,-1.6675843987829981
1772732011404276700,3.50127685546875,17.98898848736286,12.81593118519187,-2.7323227311596274
1772732011414304800,3.5113046875,16.748478723669052,13.197856618869304,-3.082700057145953
1772732011424332500,3.52133251953125,16.074197652602194,13.552157548040151,-2.967172228258848
1772732011434360800,3.53136083984375,15.250363148927688,13.625207586681842,-2.837036612826586
1772732011444388600,3.541388671875,14.73419875615239,13.597389020907878,-2.586812436462939
1772732011454416600,3.551416748046875,14.691632703101634,13.56033033310175,-1.996783473792672
1772732011464444700,3.561444580078125,14.920302342522143,13.238895900744199,-1.1288653521113097
1772732011474472400,3.571472412109375,15.470433302307129,12.725374715954064,-0.5051130931353196
1772732011484499700,3.581499755859375,16.09065895805955,12.289430107319355,-0.15027028477326965
1772732011494527500,3.591527587890625,16.31021940835118,11.865241402930021,0.03142294694148004
1772732011504555800,3.6015556640625,16.23748968770504,11.652286049991845,0.03664533949857578
1772732011514583600,3.61158349609375,15.546909808266163,11.567206550860405,-0.06197086461409926
1772732011524611600,3.621611572265625,14.38269885587692,11.518494834661483,-0.09282488909382372
1772732011534639600,3.6316396484375,13.48841309788227,11.620493904411791,-0.04327091338448226
1772732011544667600,3.641667724609375,12.900676337802409,11.530571056902408,-0.21887970148585736
1772732011554695700,3.65169580078125,12.80384327251315,11.484758569276332,-0.376446856135875
1772732011564723700,3.6617236328125,12.851013019967079,11.462303576362132,-0.45840800405107435
1772732011574750700,3.671750732421875,12.623475014925003,11.399027912759781,-0.5165390713065863
1772732011584778500,3.681778564453125,12.506474775397777,11.420255409705637,-0.4256518357444554
1772732011594806800,3.691806884765625,12.939144892406462,11.232946539199352,0.21120836314037442
1772732011604834600,3.70183447265625,13.426205940294265,11.284896506667137,0.8227158749081194
1772732011614862600,3.711862548828125,13.385890296518802,11.653664352607727,0.7741487548116595
1772732011624890600,3.721890625,13.427396026861667,12.163110250782966,0.08583375156484543
1772732011634918700,3.731918701171875,13.376002524232863,12.922020739126205,-1.1426049044545739
1772732011644946700,3.74194677734375,13.26265671555996,13.821166212111711,-2.6713722956344483
1772732011654974700,3.751974609375,13.298569740462302,14.516561382877827,-3.444468253457546
1772732011665001700,3.762001708984375,12.464838112151622,15.312399626123904,-2.0176476903840896
1772732011675029500,3.772029541015625,10.073056372618675,16.71345300299525,1.476858121048659
1772732011685057500,3.7820576171875,6.837730051290989,17.373212212234733,5.968712005543709
1772732011695085600,3.79208544921875,2.959219807949662,17.875698792791365,8.198038745319844
1772732011705113600,3.802113525390625,-3.627971301940083,18.480242895287276,7.458785728126764
1772732011715141600,3.8121416015625,-11.093778891527652,19.074575400370357,4.802371347649395
1772732011725169700,3.822169677734375,-15.810917303049564,18.71542995377779,4.195379267479479
1772732011735197400,3.832197509765625,-17.46488278019428,18.083054426026344,8.31208948739171
1772732011745226200,3.842226318359375,-19.60441643632054,18.08539134454131,14.925066195923089
1772732011755253000,3.8522529296875,-25.720924801671504,17.33259963133931,20.83450417472124
1772732011765281000,3.862281005859375,-32.66022605268955,15.250109466427563,21.112867527115345
1772732011775309000,3.87230908203125,-35.767483627986906,12.881734321445226,19.014288981711864
1772732011785337000,3.882337158203125,-36.275809582221505,10.195816490846871,16.55914623838067
1772732011795365000,3.892365234375,-34.656992575347424,7.664158663111925,14.717205535775422
1772732011805393000,3.902392822265625,-32.17995013489723,5.292375755512714,12.887445100307463
1772732011815421200,3.912421142578125,-29.473220986938475,2.8048130900919435,10.828628071928023
1772732011825449000,3.922448974609375,-26.614745280241966,0.47453211344331503,9.663703418311476
1772732011835477000,3.93247705078125,-22.86982342313528,-1.7917217967137693,8.690022636562585
1772732011845504000,3.94250390625,-18.70343205747008,-3.6426559531137346,7.400768423444032
1772732011855532300,3.9525322265625,-15.666664314937591,-4.84128530793339,7.13793757122457
1772732011865560000,3.96256005859375,-14.375269582659005,-6.594672990077734,7.186181085389852
1772732011875587800,3.972587890625,-13.674340158641337,-8.034306565234065,6.730757869303226
1772732011885616000,3.9826162109375,-12.490338464111089,-8.84061067291498,6.179376032674313
1772732011895644000,3.992643798828125,-11.607130564969777,-9.468762445491551,5.5589124765127895
1772732011905672200,4.002672119140625,-11.22714925109744,-9.779553318759799,5.372091681784391
1772732011915700000,4.012699951171875,-11.367549070912599,-10.175144289696217,5.583372964030504
1772732011925728000,4.02272802734375,-11.945993101990222,-10.47206153591275,6.338380599716305
1772732011935755000,4.032755126953125,-12.617445087110996,-10.362467188727855,6.947718366229534
1772732011945783000,4.042782958984375,-13.735627278774976,-9.53161725333333,6.782746415215731
1772732011955811000,4.05281103515625,-15.848941621017454,-8.21350519452095,6.693696258887648
1772732011965839000,4.062839111328125,-17.97238923473954,-6.800844381964207,7.433512755182385
1772732011975867100,4.0728671875,-20.162261916005612,-5.147812970799207,7.600997565799951
1772732011985895200,4.082895263671875,-22.318385472404955,-2.543862644791603,6.565829757431149
1772732011995923000,4.0929228515625,-24.532631547427176,0.439401909481734,5.113288769906759
1772732012005951200,4.102951171875,-27.486473169469832,3.357351987801492,3.4342011264652013
1772732012015979000,4.11297900390625,-30.25990795547962,6.6860325923919675,1.6706585455313323
1772732012026006000,4.123006103515625,-31.092814238882063,10.030366400927305,1.362003661378473
1772732012036034000,4.133033935546875,-29.54604306204319,12.057517540454864,2.3045348332345483
1772732012046062000,4.14306201171875,-26.315841828644274,13.541446768933534,3.1214763625249264
1772732012056090000,4.153090087890625,-23.845715451192856,15.251638575690984,3.45065307957232
1772732012066118000,4.163117919921875,-22.91402029225826,17.204425671368835,3.0873318085998296
1772732012076146200,4.173146240234375,-22.061216883730886,19.502185895901917,3.0057699622005223
1772732012086174000,4.183174072265625,-20.730480321145055,21.559587212264535,3.9300919620186088
1772732012096202200,4.1932021484375,-18.28181291130781,23.144081093776226,5.142286900854111
1772732012106230000,4.20322998046875,-14.675530294084549,24.66147887661457,5.717879634153842
1772732012116257000,4.213257080078125,-11.191634870123863,26.04492060894966,5.43531707650423
1772732012126285000,4.22328515625,-7.641984240704774,26.89372588775158,5.528253134354949
1772732012136313000,4.23331298828125,-3.986418244874477,26.89892813256979,6.428286496090888
1772732012146341000,4.243341064453125,-0.09393675932586193,26.28038005464077,6.777770380368828
1772732012156369000,4.253368896484375,3.5483483146488664,25.431383052659033,6.567438946193456
1772732012166397200,4.263397216796875,6.619542642918229,24.53515902007818,5.7935728807806965
1772732012176425000,4.273425048828125,10.342238055169581,23.118320045053956,5.7130362857759
1772732012186453000,4.283452880859375,14.381903906106947,21.27641908993721,5.995654957526922
1772732012196481000,4.29348095703125,18.053320966541765,19.857833563506603,6.957962696868181
1772732012206508000,4.303508056640625,22.23202820842266,19.266575643563268,6.992880280992388
1772732012216536000,4.3135361328125,24.930218660616873,18.831742795562743,4.924416887867451
1772732012226564000,4.323564208984375,25.125961012947556,17.260861259818075,3.857188638371229
1772732012236592000,4.333592041015625,24.350118094503877,16.10863768234253,2.7888001129239797
1772732012246620000,4.343619873046875,22.606664654135702,15.468855093204974,1.0641073409967123
1772732012256648000,4.35364794921875,20.518153913760184,14.553595520764588,-0.4074599801674485
1772732012266676000,4.363676025390625,18.487196367686987,13.630589864242076,-1.4449158994734286
1772732012276704000,4.3737041015625,17.213979097133873,12.642291943597792,-1.6969631996110082
1772732012286732000,4.38373193359375,16.58997275379896,11.28600709825754,-0.9894143574535846
1772732012296759000,4.393759033203125,16.551985845232007,9.932850614070892,-0.6439475998625159
1772732012306787000,4.403787109375,16.18918012256622,9.068132895866036,-0.6676920480653643
1772732012316815000,4.413815185546875,16.675489475303888,8.079867123925686,-0.43513709164410824
1772732012326843100,4.423843017578125,18.49091743403673,7.214773558145761,0.22325009858980774
1772732012336871200,4.43387109375,20.29333744263649,6.495096179038286,1.2592450054325162
1772732012346899000,4.44389892578125,21.41031201207638,5.797764487251639,1.940583739925921
1772732012356927200,4.45392724609375,21.80391268597841,5.074478269997239,2.264684176622331
1772732012366955000,4.463955078125,21.944380310332775,4.698102871662378,2.9606293824866414
1772732012376983000,4.473983154296875,21.851771000218392,4.553494494241476,4.204908435586095
1772732012387010000,4.484010009765625,21.339393140244482,4.520576559501886,5.4951329550415275
1772732012397038000,4.4940380859375,20.659673677515983,4.954975692260265,6.092181733345985
1772732012407066000,4.504066162109375,19.753440292096137,5.658526696953177,5.948416236490011
1772732012417094000,4.514093994140625,18.76232965211868,6.179049284937977,5.703773951911926
1772732012427122200,4.5241220703125,18.45076311830282,6.543367750254273,5.940130054181814
1772732012437150000,4.53414990234375,18.461102141487597,6.709097826159,6.224516904649138
1772732012447178200,4.54417822265625,18.191560393452644,6.993366603204607,6.4828843477189535
1772732012457206000,4.5542060546875,17.644812646365164,7.297904261296987,6.823499865886569
1772732012467233000,4.56423291015625,16.706664365768432,7.764346884047985,7.077825340089202
1772732012477261000,4.574260986328125,15.326645593619345,8.004519914257527,7.392628371608257
1772732012487288800,4.584288818359375,14.374990181195734,8.17872263495326,7.305898182660341
1772732012497317000,4.594317138671875,12.832165696156023,8.547505678462981,6.826358762449026
1772732012507345000,4.604344970703125,10.886430272555351,8.995811756020784,5.739415174135566
1772732012517373200,4.614373291015625,9.40225963653624,9.289263956475258,4.169909018397331
1772732012527401000,4.62440087890625,8.62306039340198,9.275428323346375,3.2091090532705184
1772732012537429000,4.634428955078125,9.200946206074953,9.187638980734349,2.1702172559425232
1772732012547457000,4.64445703125,10.37456445375681,9.63658101810813,1.2052093907970935
1772732012557484000,4.654484130859375,10.626222170054913,10.114415972489118,0.6239472335588186
1772732012567512000,4.664511962890625,10.958185010689496,11.050410874444246,1.0964043673589825
1772732012577540000,4.6745400390625,12.078102063322067,13.13872404642105,3.259927678620815
1772732012587568000,4.684568115234375,12.307456762397289,15.32939986076355,7.040169855433702
1772732012597596200,4.69459619140625,9.644324764102697,18.72412062523365,12.26804712755084
1772732012607624000,4.7046240234375,1.2971154480129479,21.414702940511702,14.435808514773845
1772732012617652000,4.71465185546875,-9.420285122570395,22.778913902676106,17.3908121663332
1772732012627680000,4.724679931640625,-19.946549957835675,24.063085113441943,18.500584257048367
1772732012637708000,4.7347080078125,-25.987889977216717,25.295425599205494,11.991432664650677
1772732012647736000,4.744736083984375,-27.030719113993644,25.974745248961447,7.9339178532898424
1772732012657763000,4.75476318359375,-29.94938654680252,24.31225042840242,6.875372091943025
1772732012667791000,4.764791015625,-34.91252450273037,21.682956402301787,5.58390137181878
1772732012677819100,4.774819091796875,-38.795564206194875,18.619449121403694,5.340379031181335
1772732012687847200,4.78484716796875,-38.74207343902588,14.812901121467352,5.845709310731292
1772732012697875000,4.794875,-35.78277705870867,10.552141034799813,7.166257072257995
1772732012707903200,4.8049033203125,-31.83390148576498,6.227565770825743,8.310099774879216
1772732012717931000,4.814930908203125,-28.24836705753803,2.3207290121883153,8.671481602221727
1772732012727959000,4.824958984375,-25.96229960888624,-0.7848775810316204,8.20237005252242
1772732012737987300,4.8349873046875,-23.60970421683788,-2.780169647222757,7.2950418576031915
1772732012748014300,4.845014404296875,-21.249479645085334,-4.2746530029416085,6.320626916360855
1772732012758042000,4.8550419921875,-19.49066964563131,-5.448828299984336,5.660630391234159
1772732012768070100,4.865070068359375,-18.587419659936426,-6.269694016981124,5.0089469364225865
1772732012778098200,4.87509814453125,-17.97861906903982,-6.853166105353832,4.341420892573892
1772732012788126200,4.885126220703125,-17.25881777129173,-7.2930246725618835,4.132727288733422
1772732012798154200,4.895154296875,-16.253096422159672,-7.482690335327386,3.8651422277241942
1772732012808182300,4.905182373046875,-15.882089857381581,-7.013535531008243,3.2993010731101036
1772732012818210000,4.9152099609375,-15.993101085627078,-5.908704988348484,2.963410245376825
1772732012828238300,4.92523828125,-17.184291230356692,-4.771643616430461,3.0679446788236495
1772732012838265000,4.93526513671875,-19.41301357449889,-3.053031479591131,3.9979935318559408
1772732012848293000,4.945293212890625,-21.81316449844837,-1.09089787889719,5.093825360023975
1772732012858321200,4.955321044921875,-23.50550734478235,1.2209051917746663,4.4057840591520065
1772732012868349200,4.96534912109375,-24.71660162889957,4.082482663878798,3.785198630176484
1772732012878377200,4.975377197265625,-26.50582313323021,6.914923181086778,3.6548923343524335
1772732012888405000,4.985405029296875,-28.282898272693156,9.766336694312095,3.6670001207754015
1772732012898433300,4.995433349609375,-28.81539069993496,12.898590763700007,3.908558175602555
1772732012908461000,5.0054609375,-28.872089323234558,15.56050812550783,3.661745561248064
1772732012918489300,5.0154892578125,-28.113803104269504,17.734239819312094,4.060135222992301
1772732012928516000,5.02551611328125,-26.056045229554176,19.271490303611753,4.147561869771779
1772732012938544400,5.03554443359375,-23.77999882417917,20.771300991833208,2.857230090549588
1772732012948572200,5.045572265625,-20.78899797656536,22.30834338634014,1.9870543991997838
1772732012958600200,5.05560009765625,-18.122396256333587,23.835692069828507,2.749873000897467
1772732012968628200,5.065628173828125,-16.283617817151544,25.676075606119632,4.593553240646422
1772732012978656300,5.07565625,-14.951688829910754,27.291855437254902,6.226479144632816
1772732012988684300,5.085684326171875,-12.600732437241076,28.54279540954828,8.456901862952112
1772732012998712000,5.095712158203125,-8.32324274956882,29.262257684600353,10.196779782921075
1772732013008740000,5.105739990234375,-2.816743181860447,29.667429553830623,11.769244203943014
1772732013018767000,5.11576708984375,2.418552842080593,29.779884551143645,12.917849590921401
1772732013028795100,5.125795166015625,5.888250229340791,29.69925326359272,12.676025870895385
1772732013038823200,5.1358232421875,9.511766305437684,29.183513233709334,12.346530881679058
1772732013048851200,5.145851318359375,13.85719731043577,28.125823212409017,12.136479433488844
1772732013058879200,5.155879150390625,18.448781589096782,26.321406477034092,11.888137125349044
1772732013068907300,5.1659072265625,23.004354643177983,23.460697896718976,10.275649321496486
1772732013078935000,5.17593505859375,26.90198167492151,20.108651906371115,7.868581750026345
1772732013088963300,5.18596337890625,30.872124492299555,17.37609390515089,6.5730643848598
1772732013098991000,5.1959912109375,34.14357426640987,15.479439615583418,5.287324317342042
1772732013109018000,5.20601806640625,35.361956369447704,14.93073255112171,3.5817248068109153
1772732013119046100,5.216046142578125,35.354843907094,15.815055718028544,1.2463158196240662
1772732013129074200,5.22607421875,33.55137877335548,16.889839497470856,-1.502512348395586
1772732013139102200,5.236102294921875,30.920854913198948,17.624368408751486,-4.22020946509242
1772732013149130000,5.2461298828125,28.971030174458026,17.801980061107873,-5.774832524475455
1772732013159158300,5.256158203125,27.62247270849943,17.414581164455413,-5.735673649519682
1772732013169186000,5.26618603515625,26.61828046863079,17.309376576662064,-4.504642785049975
1772732013179214300,5.27621435546875,25.213601886999605,17.45217059813738,-3.280114434342086
1772732013189242000,5.2862421875,24.19313188154697,17.703151438087225,-2.3411618516251442
1772732013199269400,5.296269287109375,22.949821088957787,17.800330540335178,-0.9016481034561992
1772732013209297200,5.306297119140625,20.92044525911808,17.65569293681979,0.36066271928772325
1772732013219325200,5.3163251953125,18.731614195859432,17.32275745176077,1.5744618784494697
1772732013229353200,5.326353271484375,17.01086592377424,16.737218493986127,2.92727627120018
1772732013239381000,5.336381103515625,15.866839681279659,16.053807191002367,3.794489021091163
1772732013249408300,5.346408203125,15.298141968190668,15.623344228649138,4.144949349185824
1772732013259436000,5.35643603515625,14.957227759337425,15.616044719290732,4.078120377016067
1772732013269464300,5.36646435546875,14.714417366361618,15.607779579770565,3.5890815993145107
1772732013279492000,5.3764921875,14.788048419761656,15.58926777152419,3.6511996173143384
1772732013289520400,5.386520263671875,14.53785434627533,15.627852061462402,4.0600332239225505
1772732013299548200,5.396548095703125,13.596797484755514,15.839593946957587,4.024209338608384
1772732013309576200,5.406576171875,12.752955965840815,15.975034683060645,3.8244805469900367
1772732013319604200,5.416604248046875,12.39020401918888,16.036411819565295,3.9550875793263316
1772732013329632300,5.42663232421875,12.039001056033372,16.245296562063693,4.16508875863403
1772732013339659300,5.4366591796875,11.320519608712196,16.951286776602267,4.10571682447195
1772732013349687000,5.44668701171875,10.154594838142394,17.423768679517508,3.3221728301316498
1772732013359715300,5.45671533203125,9.546898993617296,18.121195648372172,3.0089287184923887
1772732013369743000,5.4667431640625,9.303829072922468,18.934889866304395,3.878104000627994
1772732013379771100,5.476771240234375,8.271279922619462,19.69947956932783,6.023611470466852
1772732013389799200,5.486799072265625,6.027986616811156,21.210683758223055,7.643591675901413
1772732013399827200,5.4968271484375,1.7790110759615898,23.175965593814848,7.476297419419884
1772732013409855200,5.506855224609375,-4.5692193021178245,23.631649506664274,4.383765119567514
1772732013419883300,5.51688330078125,-10.967304721212386,23.821918396019935,0.4732572712019086
1772732013429910300,5.52691015625,-15.766292563903331,22.204408380091188,-3.0615725134432314
1772732013439938000,5.53693798828125,-16.73277612762451,19.518895038640498,-4.183684445771575
1772732013449966000,5.546966064453125,-14.22067172614336,17.240820342308282,-1.8799603443980215
1772732013459994000,5.556994140625,-13.48723703984022,15.917010364115237,4.213610797479748
1772732013470022100,5.567022216796875,-16.83938590604067,13.306153327459096,10.434520033025741
1772732013480050200,5.57705029296875,-20.987899085187912,10.735897181260585,13.523755629420279
1772732013490078200,5.587078125,-23.03304531561136,9.592954642349481,13.223486734688281
1772732013500106000,5.59710595703125,-26.36178524917364,9.88585739222765,12.93514091746211
1772732013510134300,5.60713427734375,-33.56876946861744,8.83367707425952,12.200675134545564
1772732013520162000,5.617162109375,-38.85933788244724,6.780338185030222,11.572378400540352
1772732013530189300,5.627189208984375,-39.220523310434814,4.044202325323224,11.985949849325419
1772732013540217000,5.637217041015625,-37.10072194426059,1.0315279905617236,12.827421716499328
1772732013550245400,5.647245361328125,-33.6678295623064,-1.6955062788009643,13.64638013857007
1772732013560273200,5.657273193359375,-29.31160302252769,-3.8347526424184437,13.221871116185188
1772732013570301200,5.66730126953125,-25.82914084624052,-5.129896205836534,11.058781227904557
1772732013580329200,5.6773291015625,-23.837057512962815,-6.048145023220777,8.825701857596636
1772732013590357000,5.68735693359375,-22.18593982646465,-6.931663888007402,7.673551929879188
1772732013600386000,5.697385986328125,-19.693054504716397,-8.295193882170318,7.2753113212168214
1772732013610414300,5.707414306640625,-16.380113028788564,-9.737017076325415,7.298973351833224
1772732013620441000,5.717441162109375,-13.691654866057634,-10.547440309762955,6.9766218046307555
1772732013630469000,5.72746923828125,-12.343582553267478,-10.445499692201613,6.575802285391092
1772732013640497200,5.7374970703125,-11.969704816967248,-10.163083265024422,6.2796162760585545
1772732013650525200,5.747525146484375,-11.343213086557387,-9.981632472896575,6.4336804640889165
1772732013660553200,5.75755322265625,-10.407318722367286,-9.369221874809265,6.555895223394036
1772732013670581000,5.7675810546875,-10.324071114838123,-8.441033847212791,6.4759519181072704
1772732013680609300,5.777609375,-11.059631122732162,-6.7494491257697335,6.103709674054384
1772732013690637000,5.787636962890625,-12.793095084005593,-4.654411029452085,5.309273114299774
1772732013700664300,5.797664306640625,-14.353909983766078,-2.4242533918097613,4.2449376636356115
1772732013710692000,5.807692138671875,-15.319768109065294,-0.3658936056785285,3.290636997400224
1772732013720720400,5.817720458984375,-15.95234588139057,1.5456291671968996,3.1091733457908033
1772732013730748200,5.827748046875,-17.77902588649988,4.168998625554144,4.771014086355269
1772732013740776000,5.83777587890625,-23.05790386253595,8.015678437131642,6.425980557236075
1772732013750803700,5.8478037109375,-28.73125461913347,12.513994064986704,6.426880136424303
1772732013760831700,5.857831787109375,-31.47460289443731,16.57479622745514,2.589500944894552
1772732013770859800,5.86785986328125,-30.55273471751213,19.923098939621447,-1.9079440376058219
1772732013780887800,5.8778876953125,-28.384350229954716,21.334543946647642,-2.744993704423308
1772732013790915800,5.887915771484375,-25.602505342996118,21.284817500448227,-0.6098435240782797
1772732013800942600,5.897942626953125,-21.61420727572441,21.154492499923705,1.5001863896660506
1772732013810971000,5.907970947265625,-18.93071053479314,20.929084492647647,3.81063614603281
1772732013820998700,5.91799853515625,-17.530557321631907,20.416641166222096,4.454402544109523
1772732013831026700,5.928026611328125,-14.916602318960427,20.940767916178704,3.797172853347659
1772732013841054700,5.9380546875,-11.83053483120799,21.26918037085533,3.4290134946942326
1772732013851082800,5.948082763671875,-9.582756488940118,21.246496245360373,3.493713638141751
1772732013861110800,5.95811083984375,-7.9486793690919875,21.242095964574812,3.370744553337991
1772732013871138800,5.968138916015625,-5.662245425215363,21.18340529067516,3.45481195281744
1772732013881166600,5.97816650390625,-3.455022380697727,20.864705251717567,3.926186186751723
1772732013891195000,5.98819482421875,-0.7848603376358747,20.198322240424154,4.401303991128504
1772732013901221600,5.9982216796875,2.467785367283225,19.202649991619587,4.865079440496862
1772732013911250000,6.00825,6.009245675984024,17.96657324193716,5.855365612348914
1772732013921277700,6.018277587890625,9.414244088840483,16.99007097302675,6.62002487347722
1772732013931305700,6.0283056640625,11.82425122089386,16.463241393852233,6.736227240625023
1772732013941333800,6.038333740234375,13.840619100600481,15.726414142501353,6.767763950139284
1772732013951361500,6.048361572265625,15.68936129991412,14.960579407852887,6.090543903011083
1772732013961389800,6.058389892578125,17.197822912102936,14.307618188190458,5.376926262333988
1772732013971417600,6.06841748046875,18.895532838428018,13.874592681872844,4.980450909778475
1772732013981446000,6.07844580078125,20.622437295055388,13.2139753944993,4.689292957741022
1772732013991472600,6.08847265625,22.51989354865551,12.68457625709772,4.331614368830621
1772732014001501000,6.0985009765625,23.487202457284926,12.099460493171215,3.53038186532557
1772732014011528700,6.10852880859375,23.88695931572914,11.862213579541445,2.4607065149381757
1772732014021556700,6.118556640625,23.848927983498573,12.228949627393483,1.0316505940280853
1772732014031584800,6.128584716796875,23.410887279367447,13.042186749207973,-0.38639161930605764
1772732014041612800,6.13861279296875,22.920725927376747,13.845403996789454,-0.952384749611467
1772732014051640800,6.148640869140625,22.485327262187003,14.578205061364173,-0.8729445715412497
1772732014061668900,6.1586689453125,21.84020915724039,15.200529150700568,-0.7375519123636186
1772732014071696600,6.168696533203125,21.012060882019995,15.51565542282462,-0.04302154173329472
1772732014081723600,6.1787236328125,20.043989756846425,15.629584584343432,1.2157586226664483
1772732014091752000,6.188751953125,18.594041123902798,15.623869129306078,3.135330700354278
1772732014101779700,6.19877978515625,16.922351774019003,15.153009859156608,4.771304885995388
1772732014111807700,6.208807861328125,15.429724859821796,15.029042118704318,5.652257699686288
1772732014121835800,6.218835693359375,14.217092114090919,14.92808583600521,5.719263197466731
1772732014131863800,6.22886376953125,13.29279349514842,14.92829158771038,5.2257589647889136
1772732014141891800,6.238891845703125,12.70979136237502,14.942225420516728,4.397826670406759
1772732014151919900,6.248919921875,12.670443686848879,14.691919118827581,4.071117512516677
1772732014161947600,6.25894775390625,13.581336880773305,14.367468553519249,4.182919891139865
1772732014171974700,6.268974609375,14.643180514621735,14.239706096959113,4.235568362265825
1772732014182002700,6.279002685546875,15.236961231040954,14.172784185808895,4.20470297614187
1772732014192030700,6.28903076171875,15.605686991405486,14.25301215325594,4.3802468823134895
1772732014202058800,6.299058837890625,15.943030940556525,14.283774371266365,5.265466705799103
1772732014212086800,6.309086669921875,15.167686034762859,14.342614682769774,5.242340097233653
1772732014222114800,6.31911474609375,13.26672031173706,14.865613305479288,4.335229344457388
1772732014232142600,6.329142578125,10.752511631453036,15.220359640330075,2.927473839598894
1772732014242171000,6.3391708984375,8.967817833679915,15.58025912016034,1.3839407678984106
1772732014252198700,6.34919873046875,7.9762197024464605,16.15246396458745,0.12587986681708133
1772732014262227000,6.35922705078125,7.143446690034866,17.55330691357851,1.876129826324433
1772732014272253700,6.369253662109375,6.279155088287592,18.45884588699341,5.197232543006539
1772732014282282000,6.379281982421875,6.929834334492683,17.086798824375865,7.4360367207020515
1772732014292309800,6.389309814453125,7.76407683493495,17.060800459766387,6.4072606591969725
1772732014302337500,6.399337646484375,1.9354700501739979,17.583503314399717,1.7234114999450743
1772732014312365800,6.40936572265625,-7.231973699271679,18.898710299420355,-1.2198876852951943
1772732014322393600,6.4193935546875,-13.07943482210636,20.68366245586872,1.836797494497895
1772732014332422000,6.429421875,-16.35466060762405,20.108114146232605,3.966241133764386
1772732014342449700,6.43944970703125,-18.682462919199466,17.992744625025985,8.086326090806722
1772732014352477700,6.449477783203125,-20.36636994562149,15.184704974102972,16.68262648757696
1772732014362504700,6.459504638671875,-22.774527650415894,10.87829957306981,22.812205931425094
1772732014372532700,6.46953271484375,-26.593501416683196,8.454702307081222,21.06830124015808
1772732014382560800,6.479560791015625,-32.13998520425558,8.76269390501976,17.604342688810824
1772732014392588800,6.4895888671875,-36.530567602622504,8.11950998300612,12.922092050796746
1772732014402616800,6.499616943359375,-38.809870963966844,7.0048752546906465,7.792567016360163
1772732014412644900,6.509644775390625,-37.92031515710354,5.107994755151868,5.611749163687229
1772732014422672600,6.519672607421875,-33.29915523986816,1.7811054178923367,6.552472847729921
1772732014432701000,6.529700927734375,-27.173361159777638,-1.934119512347877,9.022933571702241
1772732014442728700,6.539728759765625,-22.769771980321405,-5.051296716374159,11.117646089327335
1772732014452756700,6.5497568359375,-19.976409674048423,-7.1928902276396744,12.20168869550228
1772732014462783700,6.55978369140625,-17.778809613400696,-8.456973759144544,11.311827768212556
1772732014472811800,6.569811767578125,-16.224163757663963,-8.323733747956156,9.000262305688857
1772732014482839800,6.57983984375,-15.649188279479741,-7.841807724869251,7.052469949558377
1772732014492867600,6.58986767578125,-15.456483102887868,-7.759025396764278,6.6064230491042135
1772732014502895900,6.599895751953125,-15.447494325268268,-7.792998393514752,6.452538309293985
1772732014512923600,6.609923583984375,-15.368624786692857,-7.337652918839455,5.972189326265454
1772732014522952000,6.619951904296875,-16.555184349012375,-7.185640987163782,6.381221962577104
1772732014532979700,6.629979736328125,-19.940094498085976,-6.697305681556463,7.441108032616972
1772732014543007700,6.6400078125,-24.560527270090578,-5.875659627836942,9.149278562679886
1772732014553034800,6.65003466796875,-29.27460512499809,-5.78666500108838,11.518812814569472
1772732014563062800,6.660062744140625,-32.43726368499994,-5.569375418338179,13.164176467585563
1772732014573090800,6.6700908203125,-33.545905310380455,-3.8663819986522197,14.571269124621152
1772732014583118600,6.68011865234375,-35.05035476431846,-1.7317647561401128,15.090163234621286
1772732014593147000,6.69014697265625,-35.157867044532296,1.232588323044777,13.768603665703534
1772732014603174700,6.700174560546875,-33.085367527759075,3.3409242923527955,12.784956201213598
1772732014613202700,6.71020263671875,-32.30630272465944,5.2864136322379105,12.54791036311388
1772732014623230700,6.720230712890625,-32.287757014143466,9.054145287045836,9.939495458912848
1772732014633258800,6.7302587890625,-32.44212924520969,13.919108699947595,6.723758219674229
1772732014643286800,6.740286865234375,-32.300815233159064,18.374309993219374,6.139533851629495
1772732014653313800,6.750313720703125,-29.78065144386291,22.795865037477014,6.821022077596187
1772732014663341800,6.760341796875,-24.615659374725816,26.829620203065872,8.492837684208155
1772732014673369600,6.77036962890625,-20.10951933685541,30.00540946279764,9.715388597363233
1772732014683398000,6.78039794921875,-16.03412984610796,32.2856691019535,9.911825361698865
1772732014693425700,6.79042578125,-10.936170747280121,33.949045381522176,10.000081152778863
1772732014703453700,6.80045361328125,-7.09976127756536,34.7477828533411,9.816806652355194
1772732014713481700,6.810481689453125,-3.518255958724022,35.03886540205478,9.821104057288169
1772732014723509800,6.820509765625,0.8058604555666447,33.943289009952544,9.348589421147107
1772732014733537800,6.830537841796875,5.202655152577162,32.67127819257974,7.903751847606897
1772732014743565600,6.840565673828125,7.959017807754874,31.447866863203046,6.532928189304471
1772732014753592600,6.850592529296875,10.296830056691169,30.166349381816385,5.654834272176027
1772732014763620600,6.86062060546875,13.51955876225233,28.406753784942627,5.537923464497924
1772732014773648400,6.8706484375,17.984873453259468,26.340520342826842,4.962900055518746
1772732014783676700,6.8806767578125,23.73178745871782,24.09373510324955,2.9202514871299265
1772732014793704400,6.890704345703125,28.279695092737672,21.687492292165754,0.4697188679426908
1772732014803732700,6.900732666015625,28.86176900475025,19.096994152927397,-1.3672145278945564
1772732014813760500,6.910760498046875,27.074485775005815,17.85220568900108,-2.38085731767565
1772732014823788500,6.92078857421875,25.561656615257263,17.198946363174915,-3.113064800271392
1772732014833816600,6.930816650390625,25.853651018118857,16.661148815262315,-4.195150427159667
1772732014843843600,6.940843505859375,28.260889854502675,16.28499261263609,-5.285540356534719
1772732014853871600,6.95087158203125,31.107371172022816,16.337216136348246,-6.382828228729963
1772732014863899400,6.9608994140625,33.70009049444199,17.44539482039213,-6.770337600019574
1772732014873927700,6.970927734375,34.441970353007314,18.796440011513234,-6.360780063050985
1772732014883955500,6.98095556640625,31.503985640788077,20.397206982433794,-4.8505888505905865
1772732014893983500,6.9909833984375,27.8931414147377,22.49768405493498,-3.3427798570916054
1772732014904011500,7.001011474609375,25.52477094593048,23.76871755170822,-1.6922683197930455
1772732014914039600,7.01103955078125,23.96325578894615,23.72343580995798,1.1957564297318457
1772732014924067600,7.021067626953125,22.629641040575503,23.44851646053791,4.205844255131483
1772732014934094600,7.031094482421875,22.054843257045743,23.013096752560138,6.4266778918504714
1772732014944122600,7.04112255859375,21.767459562849997,22.00153018453121,7.93953510864973
1772732014954150400,7.051150390625,21.693461429703234,20.821686778724192,9.536981410714983
1772732014964178700,7.0611787109375,21.014207246398925,19.518226345598695,11.053635097187756
1772732014974206500,7.07120654296875,19.52879450136423,18.41018093254566,12.356334482812882
1772732014984234500,7.081234375,17.467784346854685,17.08076889656186,13.280795598840713
1772732014994262500,7.091262451171875,14.791228218841551,15.86129607567787,12.72771280351281
1772732015004290600,7.10129052734375,12.046861706405878,14.923185204482078,11.072729089236258
1772732015014318600,7.111318603515625,9.812247381615638,13.945796800386905,9.310383901393413
1772732015024346600,7.1213466796875,9.132639562568068,12.662725659817456,8.450996438300608
1772732015034373600,7.13137353515625,9.462061486548185,11.395636516755818,7.256282211098075
1772732015044401700,7.141401611328125,10.213914457595347,10.559931542545556,5.872535942858457
1772732015054429400,7.151429443359375,10.483093802058697,9.874532865136862,4.565019220079481
1772732015064457700,7.161457763671875,9.925632937777042,9.593052842026948,3.256193752789497
1772732015074485500,7.171485595703125,8.957533171030878,9.400334805953502,2.356412904509902
1772732015084513800,7.181513671875,9.06376301021874,8.666264159834384,3.7620392883852123
1772732015094541600,7.19154150390625,7.765243540626764,7.9846613675773135,5.746361632272601
1772732015104569300,7.2015693359375,5.071969502046704,7.965927441012859,7.090877129364014
1772732015114597600,7.21159765625,2.642262228745222,8.868208289414644,7.455317175233364
1772732015124624400,7.221624267578125,1.016258525237441,10.983072783708572,5.512314975988865
1772732015134652700,7.231652587890625,0.9838953017711639,14.585381821125745,3.8683062447130676
1772732015144680400,7.241680419921875,-0.3475520394325256,18.43062049398422,2.7762439982116223
1772732015154708700,7.251708740234375,-2.514839379402995,21.49331645849943,4.895059568218887
1772732015164736500,7.261736572265625,-3.7532483714252707,23.26052486846447,9.868235226297378
1772732015174764500,7.2717646484375,-7.485065247765183,22.863933780574797,15.164077196615933
1772732015184792600,7.28179248046875,-12.68068100322485,22.663454462850094,18.820469706398246
1772732015194820600,7.291820556640625,-16.63894867389202,24.81782211549282,18.84122607870102
1772732015204848600,7.3018486328125,-23.983611179232597,27.315021208786963,12.042056936472653
1772732015214876700,7.311876708984375,-35.478182701992985,27.123370509684083,4.863834701132774
1772732015224904400,7.321904541015625,-43.34845664288997,24.14032383594513,2.6864713728278873
1772732015234931500,7.331931396484375,-41.4026534147501,18.831064750170707,3.979036902451515
1772732015244959500,7.34195947265625,-34.02527405019998,13.236201254832745,5.690495952665805
1772732015254987500,7.351987548828125,-27.827766148507592,8.02793878376782,6.969708079719543
1772732015265015600,7.362015625,-25.25788994153738,3.2038743674874306,6.940559142124653
1772732015275043600,7.372043701171875,-24.87374916989803,-0.3172849114626646,5.323347232359647
1772732015285071600,7.382071533203125,-25.29759768254757,-2.5035569378882645,4.444181594346463
1772732015295099400,7.392099365234375,-25.19167763996124,-4.738472291451692,4.911135381489992
1772732015305127700,7.402127685546875,-23.524223735690114,-7.040338197737932,6.987309202861786
1772732015315155500,7.412155517578125,-21.471763967382905,-8.848510486254096,9.14056392582655
1772732015325182500,7.422182373046875,-19.627181225836274,-9.682723760601878,9.890558117264508
1772732015335210500,7.43221044921875,-18.396447006225586,-9.703315297731757,10.234264002662897
1772732015345238500,7.442238525390625,-17.618981455016137,-9.390705392342806,11.082233415162563
1772732015355266600,7.4522666015625,-17.53519258021712,-8.836151939940452,11.65708848183751
1772732015365294300,7.46229443359375,-17.58934151903391,-7.874778266578912,11.233965945374965
1772732015375322600,7.472322509765625,-18.132459385186433,-6.369491777294874,10.560663363951443
1772732015385350400,7.482350341796875,-20.04405288521051,-4.408517868030071,10.030231960892676
1772732015395378700,7.492378662109375,-21.605946812379358,-2.1562954058349133,9.554488425832986
1772732015405406500,7.502406494140625,-21.96531087015867,-0.053468555337190624,9.809926829713582
1772732015415434500,7.5124345703125,-21.956283514094352,1.6217168199688194,10.608898110288381
1772732015425461500,7.52246142578125,-22.17977195148468,3.309242913670838,11.300848109036684
1772732015435489500,7.532489501953125,-22.063573675990103,5.223876219782233,11.520293993037939
1772732015445517600,7.542517578125,-21.58291431183815,7.6056275636881585,10.945705468344688
1772732015455545600,7.552545654296875,-21.380382153236866,10.446769273746012,9.697920745211839
1772732015465573600,7.56257373046875,-20.944085662424563,12.990157286763191,9.562132803106307
1772732015475601400,7.572601318359375,-21.54971346850395,15.372094508630036,8.7553634160012
1772732015485629400,7.58262939453125,-21.02842983301878,18.007107496899366,6.654314681091904
1772732015495657500,7.592657470703125,-18.512972613978384,20.455600719213486,5.325659600955247
1772732015505685500,7.602685546875,-16.290187843191624,22.72465390470028,5.156100322151183
1772732015515713500,7.612713623046875,-15.276201354539394,24.59338909072876,4.827646366420388
1772732015525740500,7.622740478515625,-14.142386709457636,26.08341488251686,3.934013519376516
1772732015535768600,7.6327685546875,-11.32802837690711,26.932743892931935,3.7673756809771057
1772732015545796600,7.642796630859375,-7.778978635990619,27.708904791283604,3.109552408236265
1772732015555824600,7.65282470703125,-4.6671635435193775,28.175713324737547,2.934575488297641
1772732015565852700,7.662852783203125,-2.857727518677711,27.777983588206766,3.3627877491146325
1772732015575880400,7.67288037109375,-1.008570893344283,27.42398076519966,3.371245780858397
1772732015585908700,7.68290869140625,1.2403963664472102,27.36017669380903,3.4386931771874427
1772732015595936500,7.6929365234375,3.7163960198462007,26.606533916735646,4.196721037477254
1772732015605964500,7.702964599609375,6.332596171095967,25.099182896137236,7.2696432124525305
1772732015615991600,7.712991455078125,9.779526430752872,22.54069083749056,12.906470118772983
1772732015626019600,7.72301953125,12.12134733080864,20.01698250745535,15.574883856862783
1772732015636047600,7.733047607421875,13.500138606989383,19.09779377887249,14.371813889247179
1772732015646075400,7.743075439453125,16.120184327751396,18.52761839444637,11.878438738155364
1772732015656103700,7.753103759765625,19.097750524252653,18.07903057733774,8.711178237316012
1772732015666131500,7.76313134765625,20.243582939386368,17.525100225269792,5.24529134825468
1772732015676159700,7.77315966796875,19.74391024720669,16.37492364345193,1.9498355523958801
1772732015686187500,7.7831875,19.02356417505741,15.179369458293914,-0.8045984728068113
1772732015696215600,7.793215576171875,19.019981055873632,14.12734462314844,-2.593643451526761
1772732015706243600,7.80324365234375,19.85746648375988,12.726507519376277,-3.914792978338897
1772732015716270300,7.813270263671875,22.117634936523437,11.892373740005493,-4.4111151910468935
1772732015726298600,7.823298583984375,24.39398061710596,11.653257525372505,-5.066429988098144
1772732015736326400,7.833326416015625,28.151060529518126,11.925449495655297,-6.631268736547232
1772732015746355000,7.84335498046875,32.22873666989803,12.739430129313469,-8.33666980189681
1772732015756383000,7.853383056640625,34.027282467412945,13.411415198397636,-9.793156896698473
1772732015766411000,7.863410888671875,32.954995765483375,14.561868843591212,-9.882304668182135
1772732015776439000,7.87343896484375,29.106036026275156,15.856545081758497,-8.31128693883717
1772732015786467000,7.883467041015625,24.2037117277503,17.000522224414347,-5.987212123352289
1772732015796494800,7.893494873046875,19.909357999038694,17.78935555733442,-3.429381158962846
1772732015806523100,7.903523193359375,17.15347991250753,17.879573003876207,-0.793946145889163
1772732015816550100,7.913550048828125,16.282923405146597,17.29042988412976,2.1072169021502134
1772732015826578000,7.923577880859375,17.088464711761475,16.13388668988943,4.8882110174983735
1772732015836606000,7.93360595703125,18.232050224751234,15.26777956315279,6.620592444232106
1772732015846634000,7.943634033203125,19.013104740363357,14.858095184934138,6.828225140842795
1772732015856662000,7.953662109375,19.01931353187561,14.951553220832347,5.6868929597377775
1772732015866690000,7.96368994140625,18.518492838704585,15.48092897735834,3.9523736441925164
1772732015876718000,7.973718017578125,17.46564733482599,15.893039121419191,2.5324399180233477
1772732015886745900,7.983745849609375,16.535369056952,16.042307307344675,2.195044823206961
1772732015896774100,7.993774169921875,16.53907726382017,15.777259363597631,3.517520337925851
1772732015906802000,8.003802001953124,17.082236046504974,15.345877532833814,5.6390925131648775
1772732015916829200,8.0138291015625,17.91735182265043,14.97353592005968,7.90757052911222
1772732015926857000,8.02385693359375,17.324177839952707,14.683456410908699,8.094526348397135
1772732015936885000,8.033885009765624,15.606850189965963,14.919838232141732,6.138095343258977
1772732015946913000,8.0439130859375,13.300281220555304,15.498378124809264,3.73262293202579
1772732015956941000,8.053941162109375,10.801712007951735,16.262798316484687,1.0954499892435967
1772732015966969000,8.063968994140625,10.14171431378126,17.089204716473816,-0.6893129282429814
1772732015976996900,8.073996826171875,10.229483782649039,17.933757014006375,-1.0965811852306127
1772732015987025000,8.08402490234375,9.42657750071287,18.108015848803518,1.1372478344008325
1772732015997053000,8.094052978515625,7.641566892075538,18.77126465372443,5.29645045760572
1772732016007081000,8.1040810546875,4.496060542404652,20.521099904084206,10.168328764462471
1772732016017108000,8.11410791015625,-1.3105705573916435,20.355820494556426,13.196451428246498
1772732016027136000,8.124135986328126,-7.764711625707149,18.191264625376462,16.814934186351298
1772732016037164000,8.1341640625,-13.341555480229854,17.690341056352853,20.03132199845314
1772732016047192000,8.144192138671874,-17.779226962029934,17.898771040821075,25.120057341861724
1772732016057220000,8.15422021484375,-22.660896595060823,15.443290443837641,30.0944438370347
1772732016067248000,8.164248046875,-26.263120292282103,12.060181791228056,29.33286559078693
1772732016077276000,8.17427587890625,-27.002788320016858,10.58881160007119,23.576945272052285
1772732016087304200,8.18430419921875,-25.082680674147603,8.358295358249544,17.074554259830713
1772732016097332000,8.19433203125,-21.65463748579025,6.3717117914319035,15.286508813542127
1772732016107360000,8.204360107421875,-19.27316086717248,4.65985614311546,18.132348326027394
1772732016117387000,8.214386962890625,-19.091798922371865,2.736279359830916,21.852046894550323
1772732016127415000,8.2244150390625,-20.192388174200058,2.3484718823775648,24.07715338628292
1772732016137443000,8.234443115234376,-22.360426624798773,2.1931766912475226,23.231990847897528
1772732016147470800,8.244470947265626,-24.477875874888895,2.362927693231404,17.30186313229203
1772732016157499100,8.2544990234375,-25.965968068265912,2.2232500502109525,12.021391749584675
1772732016167527000,8.26452685546875,-26.265413956177234,1.4023667975574732,8.654564954212308
1772732016177555200,8.27455517578125,-24.689381613540647,0.3964750602945685,7.481427183523774
1772732016187583000,8.2845830078125,-21.589750879859924,-0.9453381921008228,7.756619504666328
1772732016197611000,8.294611083984375,-17.681280967062712,-2.168635831969976,8.518351480171084
1772732016207638000,8.304637939453125,-14.534741182690858,-3.579047112034261,9.725583243641257
1772732016217665800,8.314665771484375,-13.027833229684829,-4.436154355235398,9.464801725167035
1772732016227694000,8.324694091796875,-12.729089937084913,-4.385585028471052,7.614922630777954
1772732016237721900,8.334721923828125,-13.4439718986094,-4.242068830201029,6.400996338105202
1772732016247750100,8.344750244140625,-14.58650994837284,-3.645800680880248,7.174816226288676
1772732016257778000,8.35477783203125,-16.572486196947096,-2.8294372437387705,9.331107540470361
1772732016267806000,8.364805908203126,-19.08402478123903,-1.6188248979195952,11.075649360597133
1772732016277834000,8.374833984375,-21.596124506545067,-0.1945160254061222,11.42743216946721
1772732016287862000,8.384862060546874,-23.738086266601083,1.3684028608962893,10.809189211964606
1772732016297890000,8.39489013671875,-24.96445060056448,3.0261203840509054,10.592744263345002
1772732016307917000,8.4049169921875,-25.922566148912907,4.726417696520686,10.571009401398896
1772732016317945000,8.414945068359375,-25.900489926183223,6.512177662220597,10.977690506148338
1772732016327973000,8.42497314453125,-24.493842674827576,8.624526374301313,12.768587250214814
1772732016338001000,8.4350009765625,-23.689028513443468,10.825636488896608,12.735485775601862
1772732016348029000,8.44502880859375,-22.588352752375602,12.999418451583384,11.386526158583164
1772732016358057000,8.455056884765625,-20.55203046439886,15.401492452549933,11.144793623971939
1772732016368085000,8.4650849609375,-17.523119865107535,17.230089689457415,10.604328318154812
1772732016378113000,8.475113037109375,-13.125757012820243,18.59645636835098,9.068595252680778
1772732016388140800,8.485140869140626,-8.34774766075015,19.53406922689676,7.349618081921339
1772732016398169000,8.495169189453126,-3.8439158998221155,20.227543658733367,6.7927353097885845
1772732016408196000,8.505196044921876,-0.7974070999979972,20.66583687632084,6.94716716208756
1772732016418224000,8.51522412109375,2.1399726320654153,20.773061571764945,7.756417844614386
1772732016428252000,8.525251953125,5.892483921387791,20.405331836700437,8.393190146020054
1772732016438280200,8.5352802734375,9.677409872102738,19.701300939536093,7.868798607647419
1772732016448308000,8.545307861328125,13.41114865641594,18.791338304460048,7.064544418233632
1772732016458336000,8.5553359375,16.992923439848422,17.527144882839917,5.881629934418201
1772732016468364000,8.565364013671875,19.575337641352412,15.906853711760043,4.631728657522797
1772732016478392000,8.57539208984375,19.29420950042009,14.364024550545215,4.368917971308529
1772732016488420000,8.585420166015625,16.71509784759283,13.56187580897808,4.562869640830159
1772732016498448000,8.59544775390625,14.271326393103598,13.536336878573893,5.034616799730062
1772732016508476000,8.605475830078126,12.835170138669014,13.465242650175094,5.505521662586927
1772732016518503000,8.6155029296875,13.13512456062436,12.99893914363384,5.709702172917127
1772732016528531200,8.62553125,14.641232887685298,12.239481542801856,5.826542253446578
1772732016538559000,8.63555908203125,15.835326937162876,11.938740354382992,4.364619689592719
1772732016548587000,8.6455869140625,16.540219419592617,11.682111863934994,1.7811771679542958
1772732016558615000,8.655614990234374,17.237764461869002,11.388127748560905,-0.6017503801241517
1772732016568643000,8.66564306640625,18.358869262981415,11.026734230780601,-2.219507794942707
1772732016578671000,8.675671142578125,19.768990912449357,10.747535012084246,-3.010813217064738
1772732016588699100,8.68569921875,20.309199028635025,10.191989041513205,-3.106463794571161
1772732016598727000,8.695726806640625,20.87913125195503,9.624055298534035,-3.169516170811653
1772732016608754000,8.70575390625,20.88977890269756,8.991369389659166,-2.9771140688195823
1772732016618782000,8.715781982421875,20.833391245043277,8.14105195272863,-2.3628761091746386
1772732016628810000,8.72581005859375,20.875205602943897,7.231959086224436,-0.9103498808279633
1772732016638838000,8.735838134765626,20.372535482513904,6.218275964432954,0.681784578564763
1772732016648866000,8.745865966796876,19.890169314444066,5.229790996783971,1.9337796128690241
1772732016658894000,8.75589404296875,19.715967762792108,4.272017978262901,2.9421827484309673
1772732016668921900,8.765921875,19.921815329551695,3.60994289329648,3.664313365909457
1772732016678950100,8.7759501953125,19.96196029293537,3.3647792151927947,3.717536714313924
1772732016688978000,8.78597802734375,19.97353850252628,3.438002272313833,3.230956435680389
1772732016699006200,8.796006103515625,19.978404062736033,3.6031998487770553,2.6972566784754393
1772732016709033000,8.806032958984375,19.837122783911227,3.6807413536190983,2.636926420675218
1772732016719061000,8.81606103515625,20.197835918211936,3.711273854526877,2.9086773691922425
1772732016729089000,8.826089111328125,20.839587177073955,3.939552448803186,3.3664065241336822
1772732016739116800,8.83611669921875,20.405911682415006,4.306609983694553,3.7967555047184227
1772732016749145000,8.84614501953125,19.560718748891354,4.795960019302368,4.501794409881532
1772732016759173000,8.856173095703125,18.523358398914336,5.190360319149494,5.423116935622692
1772732016769201200,8.866201171875,16.975512870842216,5.650283184742928,6.00867576714158
1772732016779229200,8.876229248046876,15.348581531095505,6.177281106221676,6.069597561094165
1772732016789257000,8.886257080078124,13.740087180793285,6.695601800248027,5.647967309015989
1772732016799285200,8.89628515625,11.700012262284755,7.14463326947093,4.980027715930342
1772732016809312000,8.90631201171875,10.143663109761476,7.460707636100054,4.041252827867865
1772732016819340300,8.91634033203125,10.253398911243677,7.497729499027132,2.4960779803097246
1772732016829368000,8.9263681640625,11.474080523395537,8.126862099334597,0.3382840064801276
1772732016839396400,8.936396240234375,12.952062826168536,8.940798893851042,-2.096337926869839
1772732016849424100,8.946424072265625,14.038672652482985,11.154224300140141,-3.353274655359983
1772732016859452200,8.9564521484375,13.23579676568508,14.849694436335563,-4.106663749933243
1772732016869480200,8.966480224609375,11.431837126427888,19.24182698675394,-3.9919378850787877
1772732016879508000,8.976508056640625,10.819472121047973,23.927454992246627,-1.1073743819236754
1772732016889536300,8.986536376953126,6.400790586400031,27.40993821132183,2.4422195488721132
1772732016899564000,8.99656396484375,0.9174117820382117,28.546964219665526,6.326089273419976
1772732016909591300,9.00659130859375,-2.6944331454873085,29.64949174607992,15.195125830352305
1772732016919619000,9.016619140625,-8.577888541767,28.799935941171643,23.65361116310358
1772732016929647000,9.026647216796874,-22.619510107183455,28.310162711715698,24.559994186127184
1772732016939675100,9.036675048828124,-38.0147902610898,28.402874897682665,23.913807575166224
1772732016949703200,9.046703125,-47.652529801583285,25.115465337896346,27.141308317434785
1772732016959731200,9.056731201171875,-47.24469251253605,17.44099804673791,26.436283733057973
1772732016969759200,9.06675927734375,-38.51961609824895,11.09702766419053,23.005140240597722
1772732016979787000,9.076787109375,-29.488495712959764,6.537895456323027,22.466035701739788
1772732016989815300,9.086815185546875,-23.67559620041847,1.051665354183316,23.608128345823285
1772732016999843000,9.096843017578125,-21.320697792124747,-4.2324157434538,24.788750334787366
1772732017009870000,9.1068701171875,-20.66824276841879,-8.413613340845703,23.355381080722807
1772732017019898000,9.116898193359376,-19.537122769248484,-11.191873355054854,19.89820999755859
1772732017029926100,9.126926025390626,-17.005843711698056,-12.853742737191915,16.611022556090354
1772732017039954200,9.1369541015625,-14.218279862570762,-13.78733759226799,14.355816694170235
1772732017049982000,9.14698193359375,-12.13102467521429,-14.381371991187333,13.218387365722656
1772732017060010200,9.15701025390625,-10.450800136697291,-14.469362409329413,12.388688938450812
1772732017070038000,9.1670380859375,-9.772306416371464,-14.09666657629013,11.267481261485814
1772732017080066300,9.17706640625,-9.409698262104392,-13.225456573456524,9.812007727640866
1772732017090094000,9.187093994140625,-9.660909988200665,-12.081727268081902,8.481653442370892
1772732017100122000,9.1971220703125,-10.568471407353877,-10.837276657807827,7.277512630653381
1772732017110149000,9.207149169921875,-11.094129604661465,-9.567357259756326,6.305948402667045
1772732017120177200,9.21717724609375,-10.843501815932989,-8.546360600081085,5.803209308654069
1772732017130205200,9.227205078125,-10.545758055764436,-7.435766087067127,6.1243514800667755
1772732017140233000,9.23723291015625,-10.796012919527291,-6.225696469822526,6.920644481343031
1772732017150261200,9.24726123046875,-11.488875941467285,-4.563071008621156,6.951596084445715
1772732017160289000,9.2572890625,-12.41276890221834,-2.793921985982358,6.857992502596974
1772732017170317000,9.267317138671874,-13.997618173038958,-1.2165505036965012,6.752426095753908
1772732017180345000,9.277344970703124,-15.4008822116971,0.3281453281730413,5.9050166552245615
1772732017190373000,9.287373046875,-16.236430534040927,1.9749489508643745,5.12199639249742
1772732017200401200,9.297401123046875,-16.782418402671812,3.481788807070255,4.131876224862038
1772732017210428200,9.30742822265625,-17.308962735164165,4.86888643156439,3.774926827009022
1772732017220456200,9.317456298828125,-17.87081920405626,6.103975631514191,4.475084682132303
1772732017230483000,9.32748291015625,-18.45597237738371,7.365743871814012,4.780452945829928
1772732017240511200,9.33751123046875,-18.231637552297116,8.66427736993134,5.148317997711897
1772732017250539000,9.3475390625,-18.194667711818216,9.915998847991228,5.334709168851376
1772732017260567300,9.3575673828125,-18.186655085754392,11.352184328520297,4.948083010137081
1772732017270595000,9.367594970703125,-18.31833150088787,12.732792298734187,5.1661067523807285
1772732017280623000,9.377623046875,-18.098319799697396,13.996900380158424,4.718766597245633
1772732017290651100,9.387651123046876,-16.35485466889143,15.191421130615472,4.304503074543178
1772732017300679200,9.39767919921875,-12.950977953541278,15.20670053281188,5.365335777783393
1772732017310706200,9.4077060546875,-8.965110328286885,15.014690937268734,7.020286174312234
1772732017320734000,9.41773388671875,-6.341958458203077,15.101408266735076,7.786477467313408
1772732017330762200,9.42776220703125,-4.640951828420162,15.558338380253314,6.958475907087325
1772732017340790000,9.4377900390625,-3.0480244650840755,16.346771900200842,5.641639275038242
1772732017350818000,9.447818115234375,-1.150602698275447,16.749268997263908,4.681428800237178
1772732017360846000,9.45784619140625,1.6709049215078353,16.793194648230074,4.632788395708799
1772732017370874000,9.4678740234375,4.118129146799445,16.632522440236805,5.426899376770853
1772732017380902100,9.477902099609375,6.999130573558807,16.120156270700694,6.367475761297345
1772732017390930200,9.48793017578125,11.22707560133934,15.306858358609675,7.590367450714111
1772732017400958000,9.4979580078125,14.262666116786002,15.245848301851748,7.579413510501384
1772732017410985200,9.507985107421876,13.478423618787525,15.696678344929218,6.195864226138592
1772732017421013000,9.518012939453126,11.094206761550902,16.11499026623964,4.613129463253915
1772732017431041300,9.528041259765626,9.607630817955732,16.41763231984377,3.7231101305320857
1772732017441069000,9.538069091796874,9.362733681833744,16.33198817256689,3.521087675018608
1772732017451097300,9.548097412109374,10.326639504021406,15.791633925908803,3.316519626675546
1772732017461125000,9.558125,11.787720940876007,14.885723196572064,2.5448282749533653
1772732017471153000,9.56815283203125,12.919306219470501,13.656276094162463,2.033035521391034
1772732017481181200,9.57818115234375,14.326810379916429,12.167900992190837,1.7383084786951541
1772732017491209000,9.588208984375,17.645194923681018,10.480447086942196,2.1805486803427336
1772732017501237200,9.5982373046875,21.52535994849205,8.278376018360257,2.8047102142393587
1772732017511264000,9.608263916015625,24.196620308184624,6.233150877481699,3.029204613801837
1772732017521292300,9.618292236328125,25.1101064412117,4.77337175539732,2.9372376932442186
1772732017531320000,9.628320068359375,25.325231539404392,3.7885458947777746,2.9652053121000526
1772732017541348000,9.63834814453125,25.25678402612209,3.0390748504310845,3.4418618703514334
1772732017551376100,9.648376220703126,25.300623167848585,2.567365100932121,3.9101591810584067
1772732017561404200,9.658404052734374,25.09783148152828,2.425429157590866,3.920705417253077
1772732017571432200,9.66843212890625,24.59730772547722,2.664651755207777,3.8240485853135584
1772732017581460200,9.678460205078125,23.9768891775012,3.027794162482023,4.131381134821474
1772732017591488000,9.688488037109375,23.11766304244995,3.8186622161000963,4.788586275663971
1772732017601517300,9.698517333984375,21.667952894437313,4.647703056246042,5.386372720593214
1772732017611544000,9.7085439453125,20.016704275035856,5.539183109170198,5.528043290996552
1772732017621572000,9.718572021484375,18.487707239818572,6.368080741453171,5.398592735219001
1772732017631600000,9.72860009765625,17.49476237015128,6.9875248914390795,5.526362206041813
1772732017641628000,9.7386279296875,16.58398491156101,7.505864290165901,5.814391212403774
1772732017651656200,9.74865625,15.638275255799293,7.860964260759949,6.007596739733219
1772732017661684000,9.75868408203125,15.356131215822696,8.021631208056212,6.662269439488649
1772732017671712300,9.768712158203124,14.98377440547943,8.10130621779561,7.329973470252752
1772732017681740000,9.778739990234374,14.39652162952423,8.484759591692686,7.276420743763446
1772732017691768000,9.78876806640625,13.604872070139646,8.817401646763086,6.5669660679846995
1772732017701796000,9.798796142578125,12.87948741930127,9.13317790722847,5.704758286774158
1772732017711823000,9.808822998046875,12.239601954311132,9.533281971675157,4.607448202747106
1772732017721851100,9.81885107421875,11.677729118806123,10.002264926558732,3.5687227018967267
1772732017731879200,9.828879150390625,11.4488221634984,10.20932128458619,2.5774595017060635
1772732017741906700,9.83890673828125,13.053825749075411,10.811903731620312,2.1072540192902087
1772732017751934700,9.848934814453125,15.577082828211783,11.881517999470233,1.6743582768321037
1772732017761962800,9.858962646484375,17.414646630907058,13.85945356492996,1.3603550173886119
1772732017771990800,9.86899072265625,17.9051002438426,16.795094344371556,1.3943506643623114
1772732017782018600,9.8790185546875,16.68788250840902,20.52153712645769,4.406798789152503
1772732017792046800,9.889046875,10.179079291057587,22.527389457368848,9.949649773180484
1772732017802074600,9.89907470703125,0.23516133952736853,23.55082883402109,16.691967147374154
1772732017812102000,9.909101806640624,-9.951886153930426,24.88102296029329,24.1207610573411
1772732017822129700,9.919129638671874,-21.14023250390291,22.991859903264043,28.97010662987232
1772732017832158000,9.929157958984375,-27.734085994291306,19.98534818278551,26.033950302124023
1772732017842185700,9.939185791015625,-29.01723546079397,20.035895297718046,19.852851098918915
1772732017852213800,9.9492138671875,-35.58630989923477,19.23001613745093,16.741452770555018
1772732017862241800,9.95924169921875,-45.83314229156971,17.599812644165752,14.689405674701929
1772732017872269800,9.969269775390625,-48.82981300151348,15.074977355927228,10.656595096486805
1772732017882297900,9.9792978515625,-43.77992264480591,10.447162072455882,7.84294578898847
1772732017892326000,9.989325927734376,-36.45815235475302,6.655652651697397,8.66258167192936
1772732017902353700,9.999353759765626,-30.655079824221133,2.998325491413474,11.032468390518426
1772732017912381700,10.009381591796876,-26.88620192198753,-1.590156437318027,11.647751329171657
1772732017922408700,10.01940869140625,-23.825586855399607,-4.775620411106944,8.874496575903892
1772732017932436700,10.029436767578124,-21.327868706667424,-5.959518645262718,6.1988926340490575
1772732017942464800,10.03946484375,-19.679035331714154,-7.04671942320764,4.85989823846668
1772732017952492800,10.049492919921875,-17.270019548785687,-7.909765408807992,4.2481250615000725
1772732017962520800,10.059520751953125,-14.294330836594105,-8.732407487827539,4.286742669185996
1772732017972548600,10.069548583984375,-12.132979316413401,-9.462995552527904,4.778078910174965
1772732017982577000,10.079576904296875,-10.912293028086424,-9.824408944052458,5.39984419658482
1772732017992604700,10.089604736328125,-9.775716517075896,-10.329061762732266,5.927423132821917
1772732018002633000,10.099633056640625,-8.243053360566496,-10.017145684826373,4.912062433207034
1772732018012660700,10.10966064453125,-8.166215620079637,-9.227940595984458,4.106689468896389
1772732018022687700,10.119687744140625,-8.968287789279222,-7.857441347330808,3.0849376069396732
1772732018032715800,10.1297158203125,-10.12556280492544,-6.460479039165377,2.8368641788691282
1772732018042743800,10.139743896484376,-11.390062516015767,-5.232451740425825,2.992409545367956
1772732018052771800,10.149771728515624,-12.09626082034707,-3.952123176562786,3.0026100368648767
1772732018062799600,10.159799560546874,-12.514644053328036,-2.807596875591576,3.1654867691650983
1772732018072828000,10.169827880859375,-13.286533265709876,-1.339408967732638,3.0201456935554742
1772732018082855700,10.179855712890625,-14.63617443525195,0.357549701833725,2.5426161518618464
1772732018092883700,10.1898837890625,-15.747676710760592,1.7234256746008991,2.23633354979828
1772732018102911700,10.199911865234375,-15.754206989312172,2.7051848411262034,2.6470412797152996
1772732018112939800,10.209939697265625,-15.702513042432068,3.440309672473371,3.164208127531409
1772732018122966800,10.219966796875,-15.755204183655977,4.375020087575912,3.250064456254244
1772732018132994600,10.22999462890625,-15.8322991137743,5.674907922911643,2.8508444811657068
1772732018143022800,10.24002294921875,-16.283655226552487,7.292776835280656,2.0673343890950084
1772732018153050600,10.250050537109376,-16.870440384995938,8.542340258523822,1.6155822627365588
1772732018163079000,10.260078857421876,-16.413421424150467,9.661733579543233,1.344368051444739
1772732018173106700,10.270106689453126,-15.006507630813122,11.133958926224707,0.8555155900955199
1772732018183134700,10.280134765625,-13.347812202537058,12.189072375035286,0.6700809159632772
1772732018193162800,10.290162841796874,-11.751357834118604,12.685962743020056,0.9291092340946197
1772732018203190800,10.300190673828125,-9.772615628451108,13.205056759506464,1.3863031131155787
1772732018213218800,10.31021875,-7.424783505281805,13.544945716965199,2.4791236306384206
1772732018223246800,10.320246826171875,-4.749393498438597,13.610257854831218,3.4975977860987184
1772732018233273900,10.33027392578125,-2.1984201448589564,13.692953673696517,3.982043390791118
1772732018243302000,10.340302001953125,-0.138693015897274,14.037101457643509,4.33657754419595
1772732018253329700,10.35032958984375,1.7976134851008652,13.991151022851467,4.826479660728573
1772732018263358000,10.36035791015625,3.8314205753862858,13.568431806492805,5.820279685920476
1772732018273385700,10.3703857421875,5.786425347113609,13.430273043602703,6.00294979071021
1772732018283413800,10.380413818359376,7.801846885880828,13.559512002456188,6.218166074317693
1772732018293441800,10.39044189453125,9.468304180330037,13.577880018317698,6.911475670981407
1772732018303469600,10.400469482421874,11.056572904205321,13.201349721682071,7.435414789411425
1772732018313497900,10.410497802734374,11.732318787127733,12.979482748013734,7.612924150437117
1772732018323525600,10.420525634765625,11.857364385944605,13.134842821073532,6.7774389564573765
1772732018333553700,10.4305537109375,12.451821978712081,12.712558489000797,5.65178949765265
1772732018343580700,10.44058056640625,13.67073482762575,11.862657816177606,4.764259059137106
1772732018353609000,10.45060888671875,14.86557005085945,11.735329074859619,3.513757478260994
1772732018363636700,10.46063671875,15.196990455180405,11.214154160445927,2.559511757083237
1772732018373664800,10.470664794921875,15.415214688432215,10.185331337189673,3.296664587126672
1772732018383692800,10.48069287109375,14.79067175400257,9.168646110972762,4.001267438960075
1772732018393720800,10.490720947265626,13.672072213709354,8.231200425687431,4.279953739698231
1772732018403748900,10.500748779296876,14.115084861034154,7.121632333111763,4.248162178640067
1772732018413777000,10.51077685546875,16.447640504616498,6.352423738116025,3.3697397602096197
1772732018423804700,10.5208046875,18.29340982559919,5.7930444729924195,2.555966924083233
1772732018433832700,10.530832763671874,19.064660740077496,5.380221212226152,1.94705673533231
1772732018443859700,10.540859619140624,18.94482206225395,5.279959926053881,1.657180639798939
1772732018453887700,10.5508876953125,17.873923015290497,5.286916321063042,1.7612191064223646
1772732018463915800,10.560915771484375,16.545142262947557,5.356493130636215,2.3313348696157337
1772732018473943800,10.57094384765625,15.44336876977086,5.353121023854613,2.828594655434787
1772732018483971800,10.580971923828125,15.495900921040773,5.302921114924549,3.695992114242911
1772732018493999600,10.59099951171875,16.705072128140927,5.226524688464403,4.263549132864177
1772732018504028000,10.60102783203125,17.96270604511499,5.403013474270701,3.7309316179379817
1772732018514055700,10.6110556640625,19.1497706343472,5.583108175614476,2.9894363747760653
1772732018524084000,10.621083984375,20.211539449393747,6.049294193255901,2.580905550506711
1772732018534111700,10.63111181640625,20.5187197309494,6.73882602494657,2.464058455714583
1772732018544138800,10.641138671875,20.07546742964983,7.709067479896545,2.234599419482052
1772732018554166800,10.651166748046874,19.412018718242646,8.583453774678707,1.8762527220517395
1772732018564194600,10.661194580078124,18.491762652689218,9.299051775518059,1.7365642653763294
1772732018574222800,10.671222900390624,17.512544695079324,10.08735377804041,1.5591092648863791
1772732018584250600,10.681250732421875,16.67869382430315,10.88575924142599,1.4303765019893646
1772732018594279000,10.69127880859375,15.625491762071848,11.608615250569581,1.3397649415634572
1772732018604306700,10.701306640625,14.654410349166392,12.47519233290553,0.8314101996257901
1772732018614334700,10.711334716796875,14.06247906000614,13.172401859617233,-0.38472383222430945
1772732018624362800,10.72136279296875,13.654738801592588,13.783436493176222,-0.6888045403294265
1772732018634390800,10.731390869140625,13.673912288618087,14.397812253856658,-0.7996046100422739
1772732018644418800,10.741418701171876,14.710053325933217,15.045219346523284,-2.039042652851343
1772732018654445600,10.751445556640626,17.02642355839014,15.900123526722192,-2.2417897693775592
1772732018664473900,10.761473876953126,18.53762073302269,17.31354071060419,-0.007991256765520665
1772732018674501600,10.771501708984376,17.95968757407665,19.49680478738546,6.965295523974299
1772732018684529700,10.78152978515625,11.945377015918492,20.04324156882763,15.579538989192246
1772732018694557700,10.7915576171875,-1.1031874516278504,19.68881087579727,19.799692340183256
1772732018704585700,10.801585693359375,-16.907143683493135,21.177302882146833,22.439888868570325
1772732018714613800,10.81161376953125,-29.80715600442886,23.211233306550977,19.455953721559048
1772732018724641800,10.821641845703125,-39.28046953735351,24.34970191491842,14.076007234621047
1772732018734669600,10.831669677734375,-46.289363964557644,22.876344349336623,8.05384304035306
1772732018744698400,10.841698486328125,-47.74655365467071,19.140923311024903,5.892838726174831
1772732018754726400,10.851726318359376,-44.241592061805726,13.558912282997369,10.543429320555925
1772732018764753400,10.86175341796875,-38.16973298552036,6.836698370155692,15.061018973201513
1772732018774781200,10.87178125,-33.32708603384494,2.344258648596704,14.774952791345118
1772732018784809500,10.8818095703125,-32.58753023431301,0.0031529110729694365,14.070075506484507
1772732018794837200,10.891837158203124,-32.73328895081281,-1.5280989173337816,12.07100830566883
1772732018804865300,10.901865234375,-28.996501300323008,-2.009740716651827,7.207354806321859
1772732018814893300,10.911893310546875,-23.168322385585306,-2.2984179577894506,3.2622742417469617
1772732018824921300,10.92192138671875,-19.25158148804903,-3.04852072416842,2.456074471223354
1772732018834949400,10.931949462890625,-15.97333021723032,-3.7047383152782913,2.6889614360779523
1772732018844977400,10.941977294921875,-11.96559796617031,-4.328986066153646,2.6397084526091814
1772732018855005200,10.952005126953125,-8.012964501997828,-4.44197823908329,2.071395793315023
1772732018865033500,10.962033447265625,-5.429053924456238,-4.201502426534891,1.599299382586032
1772732018875060200,10.972060302734375,-4.109531414324045,-3.9425361407890915,1.6202347647175193
1772732018885088300,10.982088134765625,-3.055339172011614,-3.589424421402812,1.5978665733039379
1772732018895116300,10.9921162109375,-2.262442242914438,-2.877679881121218,1.3957498636357486
1772732018905144300,11.002144287109376,-1.7692793710201977,-2.143537484940141,1.0698191427722572
1772732018915172400,11.01217236328125,-1.4379080665379762,-1.4612141233235596,0.8126745194956659
1772732018925200100,11.0222001953125,-0.8398597558021544,-1.026359648013115,0.64990796957165
1772732018935228400,11.032228515625,-0.28399112914800645,-0.6760708770930767,0.6881837780825794
1772732018945256200,11.042256103515625,-0.32949732730388637,-0.6207463186256588,1.0908045015253125
1772732018955284500,11.052284423828125,-0.8074328194499015,-0.5949829318158328,1.6390509627379477
1772732018965312300,11.062312255859375,-0.774941585689783,-0.4658410035960376,2.0701266501620412
1772732018975339500,11.072339599609375,-0.12301789238154888,-0.6304633374545723,2.414960662807524
1772732018985367300,11.0823671875,0.7266419574230909,-0.820205499522388,2.672942613691091
1772732018995395000,11.09239501953125,0.9142378281772137,-0.9296329657077789,3.415076154756546
1772732019005423400,11.10242333984375,0.796706258252263,-1.0479176920875906,3.9409322127237916
1772732019015451100,11.112451171875,0.7983914348602295,-0.5010227916143835,3.1961946266397834
1772732019025479400,11.1224794921875,0.7868038729190826,-0.10297558663226664,2.2659666176483033
1772732019035507200,11.132507080078126,0.6368570570796728,0.20526070678234098,1.9266306178972123
1772732019045535200,11.14253515625,0.08982640139758587,0.5937868538990616,1.4451701664954424
1772732019055563300,11.152563232421874,-0.10251929423213005,1.0288181470811366,0.8564252522863447
1772732019065591300,11.16259130859375,0.204977213665843,1.1901435582861304,0.6194858702357858
1772732019075619300,11.172619384765625,0.18652853378355502,1.2095016811635344,0.6432813179735094
1772732019085646300,11.182646240234375,-0.20596797826886176,1.4380628187082707,0.23559629687853156
1772732019095674400,11.19267431640625,-0.5646557442218065,1.567510159615427,0.2544604987591505
1772732019105702400,11.202702392578125,-0.3747229549527168,1.6344002143226564,0.03756028065271676
1772732019115730200,11.212730224609375,-0.09903086759448052,1.5196338713273405,0.15114567023515701
1772732019125758500,11.222758544921875,0.12281447876393795,1.3028117599584161,0.23744119409285486
1772732019135786200,11.2327861328125,0.5866951420724391,1.2886239523909986,-0.06440700571984052
1772732019145814500,11.242814453125,1.2134089908003807,1.1254279250085353,0.16404000392593443
1772732019155842300,11.25284228515625,1.247554421508312,0.77736932429336,0.560722350295633
1772732019165870000,11.2628701171875,1.322656716504693,0.6003155980806797,0.6655734484761953
1772732019175898400,11.2728984375,1.1210703143209217,0.45270873296353964,0.9423069346461445
1772732019185926100,11.282926025390625,1.4803800115644932,0.34307935099788006,0.7862076605916023
1772732019195953400,11.292953369140625,2.003901781365275,0.13173442893102763,0.8381557283632457
1772732019205981200,11.302981201171875,1.900004769039154,-0.09579809621833264,1.1581343358892946
1772732019216009500,11.313009521484375,1.6742156534910202,-0.13822927084304393,1.2271113529384134
1772732019226037200,11.323037353515625,0.9982944140017032,-0.6972593572027981,2.3430073333613572
1772732019236065300,11.333065185546875,0.8098258520662784,-0.4930058547016233,1.423418937936425
1772732019246093300,11.34309326171875,1.6732266424536704,-0.0901480345673859,1.4865990322098135
1772732019256121300,11.353121337890625,2.08326757902503,-1.5992764401018618,3.055006871317327
1772732019266149400,11.3631494140625,1.4871154572993517,-1.383317813694477,2.829880019070208
1772732019276177400,11.373177490234376,2.363296234282851,-1.0784382102966308,2.313883091816306
1772732019286205200,11.383205078125,1.737404223331809,-0.8958381020031869,2.176370517875254
1772732019296232200,11.393232177734374,1.49987498562932,-0.6611287440270185,1.6952352067746221
1772732019306260200,11.40326025390625,1.3042331710636614,0.2614363291211426,0.3904669059209525
1772732019316288300,11.413288330078124,1.0342448483049869,0.9080589934118092,-0.48963166556078935
1772732019326316300,11.42331640625,0.8420517128884791,1.131352785012871,-0.6975104093544184
1772732019336344300,11.43334423828125,1.181171439540386,1.3516964946366845,-0.747968238568306
1772732019346372400,11.443372314453125,1.6354565915077923,1.3917777451343833,-0.77113101442568
1772732019356400000,11.453400146484375,1.755160829296708,1.7276411003388463,-1.174655481775105
1772732019366428400,11.463428466796875,1.8350567883104085,1.453586551054567,-0.9580926058642566
1772732019376456200,11.473456298828125,1.5304320364564656,1.4105340296611188,-0.9021689855251461
1772732019386484500,11.483484375,1.6208920595824718,1.6394677268452942,-1.079145262587443
1772732019396512300,11.49351220703125,1.9421762698143719,1.4282489884413778,-0.9661015786662697
1772732019406539300,11.503539306640626,2.093120279997587,1.0969690155044198,-0.6772336372621357
1772732019416567300,11.5135673828125,2.0180249992638823,0.949501595390588,-0.546700766140595
1772732019426595300,11.52359521484375,1.9615601847201585,0.826137812180817,-0.38880302782934156
1772732019436623400,11.533623291015624,2.03914202157259,0.5555998927153647,-0.008710143341310322
1772732019446651100,11.543651123046875,1.955464205932617,0.4142638149634003,0.0384078008601442
1772732019456679400,11.553679443359375,1.9599433971732854,0.4266284987568855,-0.14696326998397707
1772732019466707200,11.563707275390625,2.034322054070234,0.332405615966022,-0.06871164411120116
1772732019476735200,11.5737353515625,2.086003141468763,0.19942893188893793,0.03610840134397149
1772732019486763300,11.58376318359375,2.0095710591733456,0.11520809541344643,0.2641567670609802
1772732019496791300,11.593791259765625,1.5978315019905567,0.07996858585849403,0.5232064202412963
1772732019506819300,11.6038193359375,1.1302098985880613,0.10003770654946564,0.40226803754754364
1772732019516846300,11.613846435546876,1.0143845480591058,0.1651227576613426,0.16864698626473545
1772732019526874400,11.623874267578126,0.8219763085871934,0.18532558773458002,0.25852899030707777
1772732019536902100,11.633902099609376,0.5338537787228822,0.13593933327496052,0.45911958638653155
1772732019546930400,11.643930419921874,0.5812678563266992,0.14070157924070953,0.37543709457144137
1772732019556958200,11.653958251953124,0.7448042215794325,0.19697569351792335,0.14384491876773536
1772732019566986200,11.663986328125,0.5509118810296059,0.2411221476279199,0.1372651019860059
1772732019577014300,11.67401416015625,0.19739713380038737,0.35418913935944435,-0.04962123225927353
1772732019587042300,11.684042236328125,0.05573883835673332,0.43798254420310256,-0.08315488774441182
1772732019597070300,11.6940703125,0.027534488135576247,0.3595988894484937,0.2307392853014171
1772732019607098400,11.704098388671875,-0.11959259410798549,0.3059253130584955,0.2520201564023271
1772732019617126100,11.714126220703125,-0.1845809068471193,0.4222507220640778,-0.012146803259104489
1772732019627153400,11.7241533203125,-0.1276841306269169,0.38665553093925115,-0.30116767020262775
1772732019637181200,11.73418115234375,0.08247662315666675,0.3136388100452721,-0.34543457235451785
1772732019647209500,11.74420947265625,0.19382687409818172,0.17521029030308127,-0.10569006975535303
1772732019657237200,11.7542373046875,0.12407821508944034,0.1305265144459903,0.035261721386760474
1772732019667265500,11.764265625,0.034517186629772184,0.15052666155397892,-0.0542670122385025
1772732019677293300,11.774293212890624,0.04385200120806694,0.2096460822597146,-0.19252974695973096
1772732019687321000,11.784321044921874,-0.010788520517945288,0.2171869991585612,-0.0893770501948893
1772732019697349400,11.794349365234375,-0.07310089204609393,0.21592194765880704,0.10445808027498424
1772732019707377200,11.804377197265625,-0.14854396330416203,0.24430428479537367,0.04865647888034582
1772732019717405400,11.814405517578125,-0.16388649386465548,0.2890804151110351,0.02589424664787948
1772732019727432200,11.82443212890625,-0.19103169042170046,0.35944705988764764,-0.04461575212217867
1772732019737460500,11.83446044921875,-0.22743571371138094,0.3802959327794611,-0.043782150842249394
1772732019747488300,11.84448828125,-0.22947627962827682,0.295036547036469,0.05111212840415537
1772732019757516000,11.85451611328125,-0.028778935238718984,0.2034009042598307,0.25071502862051126
1772732019767544300,11.86454443359375,0.11304945607483387,0.12283347572535276,0.32714959513396025
1772732019777572000,11.874572021484376,0.20821604945659636,0.05402443565428257,0.4471463130634278
1772732019787600400,11.884600341796874,0.1566881067931652,-0.058189592509716746,0.6380323114041239
1772732019797628200,11.894628173828124,0.0960199953407049,-0.017048165434598923,0.5018867149673402
1772732019807656200,11.90465625,0.05999298866987228,0.07936170600652694,0.2254966354075819
1772732019817684200,11.914684326171875,0.04439034586846828,0.16678016947954893,0.04824819034039974
1772732019827712300,11.924712158203125,0.27524960428774353,0.25110768119990823,0.20005429724566637
1772732019837739300,11.9347392578125,0.3375836031258106,0.09919497211501002,0.26084998060055076
1772732019847767300,11.944767333984375,0.5153361252576113,0.009412409859150648,0.24081629654914138
1772732019857795300,11.95479541015625,0.5551520028173923,0.031085020224004983,0.2468321227725595
1772732019867823400,11.9648232421875,0.24496552518308162,-0.02227788278162479,0.29230441865883766
1772732019877851100,11.97485107421875,-0.04049275390803814,0.0018529343903064726,0.31248277187794443
