time,seconds_elapsed,z,y,x
1772643009560982300,0.060982177734375,0.1621428650677204,-0.014478483909950591,0.1498545892450027
1772643009571027200,0.071027099609375,0.2440115854591131,-0.0026322573328856377,0.16640618506800384
1772643009581071400,0.0810712890625,0.2907049475729465,0.011783059397072065,0.18479593783728776
1772643009591116300,0.0911162109375,0.30102468153536316,-0.013605297255015466,0.17730877868598327
1772643009601161200,0.1011611328125,0.32031039676368234,-0.001024552708189003,0.16692200736934318
1772643009611205400,0.111205322265625,0.2849626045286655,0.005540856522275135,0.1499224759825971
1772643009621250300,0.121250244140625,0.18315818056762218,-0.00040326987153384834,0.10544418696919455
1772643009631295200,0.131295166015625,0.05993804361224174,-0.011373362068040295,0.10437313280473462
1772643009641339400,0.14133935546875,0.017357962036132813,-0.041186480926396325,0.08883157254080287
1772643009651384300,0.15138427734375,0.005894903257489204,-0.0202700592237059,0.11570715837622993
1772643009661428200,0.16142822265625,0.002658405554294586,-0.006592858926393092,0.12595990065019577
1772643009671473200,0.17147314453125,0.025603227812051772,-0.04985173481320962,0.13567027054261416
1772643009681518300,0.181518310546875,0.07024550261497498,-0.05026284549790434,0.15464671889236195
1772643009691562500,0.1915625,0.05189093075692653,-0.06208754979632795,0.14012122206948696
1772643009701607200,0.201607177734375,0.058975336059927934,-0.058078688614303244,0.09785457209041341
1772643009711652400,0.21165234375,0.09823241069316864,-0.02941662122090347,0.02885555327204056
1772643009721696300,0.2216962890625,0.1503612418591976,-0.03237663093712181,0.0048251825335901225
1772643009731741200,0.2317412109375,0.16389117003977297,-0.051577928418153896,-0.012954420714406296
1772643009741786400,0.241786376953125,0.1680026970118284,-0.07058365766131319,-0.01827766156378202
1772643009751830300,0.251830322265625,0.15297054757475853,-0.06928969972748308,-0.018775929942121728
1772643009761875500,0.26187548828125,0.1389981363236904,-0.069074970131414,-0.039199727555969725
1772643009771920100,0.271920166015625,0.12130232063531875,-0.07386574807190335,-0.025070098182884974
1772643009781964300,0.28196435546875,0.11843699433207511,-0.08749214063058607,-0.023137111693155018
1772643009792009500,0.292009521484375,0.11767419326603412,-0.09925469381245784,-0.04535271549406461
1772643009802053000,0.30205322265625,0.09491174183785915,-0.08439324303348548,-0.037753401205176486
1772643009812098300,0.312098388671875,0.05477905341386795,-0.07532658700523898,-0.0003979635087540373
1772643009822143200,0.322143310546875,-0.010059621721506118,-0.08200084060477092,0.002368199569219723
1772643009832187400,0.3321875,-0.04214110563695431,-0.06918262262381612,0.0390321159041021
1772643009842232300,0.342232421875,-0.028439912542700767,-0.05683551101963967,0.09765481173461303
1772643009852277200,0.35227734375,-0.009053659549355506,-0.07873623105194419,0.15333559976117683
1772643009862321400,0.3623212890625,0.021107669958472252,-0.06732002535602077,0.16939468109318986
1772643009872366000,0.372365966796875,0.038110242685675616,-0.04178016337007284,0.17577579696504397
1772643009882411300,0.382411376953125,0.051231590065360065,-0.03847158681135624,0.17874136877236887
1772643009892455400,0.392455322265625,0.06705635118484497,-0.019297770992293954,0.17530012401100248
1772643009902500400,0.402500244140625,0.08783551984131335,-0.02228454998442903,0.18252565481774508
1772643009912545300,0.412545166015625,0.11159984178841113,-0.026638361279759555,0.19470025939922778
1772643009922589200,0.422589111328125,0.12442483657002448,-0.03355953884506598,0.15109952953848987
1772643009932634400,0.43263427734375,0.09325111514925956,-0.040367995017208155,0.15066856337585485
1772643009942678300,0.44267822265625,0.10966039815843105,-0.056367729111108926,0.1567627977308817
1772643009952723200,0.45272314453125,0.08102759339213371,-0.07392855677558109,0.16009974186755715
1772643009962768400,0.462768310546875,0.030548282998800275,-0.07591169341681525,0.10198928814181125
1772643009972812300,0.472812255859375,0.005807809495925903,-0.06549255420053378,0.06947778334522153
1772643009982857200,0.482857177734375,-0.03523497951030731,-0.062275966774206604,0.04679763990563806
1772643009992902400,0.49290234375,-0.029420155751705167,-0.06847736043129116,0.03776377190214116
1772643010002946300,0.5029462890625,-0.020132687446475027,-0.05936588801378384,0.03977529895422049
1772643010012991200,0.5129912109375,-0.018895839127898214,-0.05730930254384875,0.035501937050535344
1772643010023036200,0.5230361328125,-0.001025251394510269,-0.04775025075562298,0.026254284732462836
1772643010033080300,0.533080322265625,0.03630933074355125,-0.021974114062078297,0.05022478764299303
1772643010043125500,0.54312548828125,0.05389408727288246,-0.007556370196305215,0.04296426772125996
1772643010053170200,0.553170166015625,0.08329320023655891,-0.008507295979280025,0.060667540630302386
1772643010063214300,0.56321435546875,0.09742050978839396,0.001760543399117887,0.1025412868682295
1772643010073259300,0.57325927734375,0.1371247436672449,-0.003633114071656018,0.11527064838879741
1772643010083303200,0.58330322265625,0.188484928548336,-0.0057392012391239405,0.10876757750455289
1772643010093348400,0.593348388671875,0.2142395475298166,-0.023308577536232767,0.09961736224554478
1772643010103393300,0.603393310546875,0.26196926695406436,-0.015466522266343236,0.07887647977285087
1772643010113437400,0.6134375,0.23755320309996603,-0.030491712239664046,0.04384954895607661
1772643010123482000,0.623482177734375,0.19651392122507094,-0.026184772293362767,0.0352688361141365
1772643010133527300,0.63352734375,0.13392039466798306,-0.019125976355653256,0.03753048830265179
1772643010143571500,0.643571533203125,0.10903379069268702,-0.031097642243560403,0.04538143013189547
1772643010153616100,0.6536162109375,0.09911328518092631,-0.029446605367213486,0.03986020989185199
1772643010163661300,0.663661376953125,0.07617547718584537,-0.04373290487304329,0.0011305429664673283
1772643010173705200,0.673705322265625,0.02466273209154606,-0.05801463780160993,0.019065606204234063
1772643010183750400,0.68375048828125,-0.008133037573099135,-0.05061488293912261,0.024334847277472725
1772643010193795300,0.69379541015625,-0.051530865272879596,-0.04302798974039033,0.016880293487827294
1772643010203839200,0.703839111328125,-0.05974515138864517,-0.04819817718621343,0.0015211497192503883
1772643010213884400,0.713884521484375,-0.08110708836913108,-0.03367795932665467,-0.0006414853744674474
1772643010223928300,0.72392822265625,-0.08763678239881992,-0.019420100464019922,-0.006953645929647609
1772643010233973200,0.73397314453125,-0.07903145113885403,-0.04041347812674939,0.0085727030654205
1772643010244018400,0.744018310546875,-0.02550561265647411,-0.04811868220921606,0.04868209737879224
1772643010254062300,0.754062255859375,0.03970832553207874,-0.06689767175810411,0.06140238967691548
1772643010264107300,0.764107177734375,0.1014800143122673,-0.04360113171953708,0.06831803255057893
1772643010274152200,0.774152099609375,0.14647650938034057,-0.05052174302926287,0.08023357520392164
1772643010284196400,0.7841962890625,0.1743950283974409,-0.05291846544006839,0.09278302271347492
1772643010294241300,0.7942412109375,0.18343699750900266,-0.056456375508941704,0.08408604024783707
1772643010304286200,0.8042861328125,0.15744798524975775,-0.053072724420018494,0.08913196199317462
1772643010314330400,0.814330322265625,0.11828151150941849,-0.05392735022166743,0.09323639250416309
1772643010324375300,0.824375244140625,0.09706804308891295,-0.07192750088516622,0.08630413642241619
1772643010334419200,0.834419189453125,0.106978611728549,-0.07793966471361927,0.07361619375762529
1772643010344464400,0.84446435546875,0.12705986124873161,-0.056220338263362646,0.0586765083769802
1772643010354509300,0.85450927734375,0.07262041505277156,-0.03818455003090203,0.06346823616554029
1772643010364553200,0.86455322265625,0.039433015722036356,-0.01065414441539906,0.05410308124790899
1772643010374598100,0.87459814453125,0.0524894811719656,0.002945195739576593,0.04828129802555777
1772643010384643300,0.884643310546875,0.038023733446002,0.006529922358551993,0.04573966441845987
1772643010394687500,0.8946875,0.04870762454569339,0.024210924070281907,0.03778070020405575
1772643010404732200,0.904732177734375,0.12973054176270962,0.030177193797240032,0.05036910975081846
1772643010414777300,0.91477734375,0.19698972204327583,0.011991174305975436,0.04589432069063187
1772643010424821500,0.924821533203125,0.21082243256270886,0.0031466183295007794,0.04597712186956778
1772643010434865400,0.934865478515625,0.2653431273013353,0.01877319912891835,0.09033543776511214
1772643010444910600,0.94491064453125,0.29859190143048764,-0.013315865304786711,0.07746345290346071
1772643010454954800,0.954954833984375,0.29261165797710414,-0.02105098046832718,0.0666731240209192
1772643010464999400,0.96499951171875,0.2566810974180698,-0.0191104317266494,0.06432035948284902
1772643010475043600,0.975043701171875,0.20188041669428347,-0.03302053659753874,0.07430978834524285
1772643010485088500,0.985088623046875,0.1587444548010826,-0.028957707605417816,0.07146709856549277
1772643010495133400,0.995133544921875,0.13237258070409297,-0.028628630914678797,0.060399112652195615
1772643010505177600,1.005177490234375,0.10301555331647395,-0.03943613012772985,0.03578601240563439
1772643010515222500,1.015222412109375,0.05615618698596954,-0.03786526408181526,0.02408266033140244
1772643010525267700,1.025267822265625,0.01379179398715496,-0.04627847943631932,0.029598416661750525
1772643010535311400,1.035311279296875,-0.02557224815189838,-0.03738677811617963,0.009100601680332328
1772643010545356500,1.0453564453125,-0.0215326173722744,-0.01893106570490636,0.03791755139147863
1772643010555401500,1.0554013671875,0.012449731728434561,-0.02845806012074463,0.09260883519034832
1772643010565445400,1.0654453125,0.058410687914490694,-0.04092424979363568,0.10547050872053951
1772643010575490600,1.075490478515625,0.08776303912699222,-0.03387740915520116,0.11369900602474808
1772643010585534500,1.085534423828125,0.0692249273955822,-0.01311690866658464,0.0802008419780992
1772643010595579600,1.09557958984375,0.05741174000501632,0.0030584194562397896,0.07231767381310929
1772643010605624300,1.105624267578125,0.05890636247694492,0.014844335247389972,0.07791257577729412
1772643010615668500,1.11566845703125,0.036004210317134855,0.027023953930707646,0.07091064285966567
1772643010625713700,1.125713623046875,0.02506663671731949,0.04060310068102553,0.057758845542790364
1772643010635758300,1.13575830078125,0.004846855509281158,0.048498639703821386,0.05552606325573287
1772643010645802500,1.145802490234375,-0.035275896042585374,0.04046136325593106,0.022599529651156625
1772643010655847400,1.155847412109375,-0.07075520570278167,0.0335051691761706,0.009904705154430121
1772643010665892600,1.165892578125,-0.04981646257042884,0.043879482870036735,-0.019487845637719145
1772643010675936500,1.1759365234375,-0.018394319346547127,0.03570564749566838,-0.021783756288862786
1772643010685981400,1.1859814453125,-0.00880816035568714,0.015782456347718833,-0.025209732699149754
1772643010696026600,1.196026611328125,-0.029285131195187566,-0.025653231833083552,-0.028306458888761696
1772643010706070500,1.206070556640625,-0.05125146380960941,-0.026748662386974317,-0.04759283627078403
1772643010716115500,1.216115478515625,-0.061542556199431414,-0.02268838154496625,-0.09260192139237187
1772643010726159600,1.22615966796875,-0.0655477001875639,-0.018140846908977253,-0.07760690736160614
1772643010736204500,1.23620458984375,-0.03512918104827404,-0.042371361595718186,-0.06412124758101999
1772643010746249500,1.24624951171875,0.006223404559493065,-0.06297745697391219,-0.049502254655258725
1772643010756293600,1.256293701171875,0.06718669956624508,-0.07868597130258567,-0.022729238711739888
1772643010766338600,1.266338623046875,0.1369815358042717,-0.07852116352915764,-0.008490342561190481
1772643010776383500,1.276383544921875,0.20048691650927067,-0.06589161825440823,0.018116411154041997
1772643010786427400,1.286427490234375,0.2226806281387806,-0.06751613245001062,0.03569492745554307
1772643010796472600,1.29647265625,0.2072995191335678,-0.06993610787224024,0.05324787092437036
1772643010806517500,1.306517578125,0.22078327008485793,-0.05920353705892339,0.061721593427611514
1772643010816561400,1.3165615234375,0.2487736852943897,-0.06924256351697258,0.06341953361902851
1772643010826606600,1.326606689453125,0.2555067929416895,-0.05293850358109921,0.07367644517803565
1772643010836651500,1.336651611328125,0.19788930123150347,-0.026901222600182517,0.07232634574333205
1772643010846695400,1.3466953125,0.14685235695540905,0.0010632635836489498,0.06604145678756758
1772643010856740400,1.356740234375,0.09506605561673641,0.025370505901565775,0.06317950061834417
1772643010866784500,1.366784423828125,0.05899111815094948,0.028102679944969712,0.11412498548501171
1772643010876829700,1.37682958984375,0.05972936929762363,0.03645267560384236,0.10877574254469946
1772643010886874400,1.386874267578125,0.053587213280797,0.05538919380200095,0.09288726853923872
1772643010896918500,1.39691845703125,0.03802431796789169,0.05545803038766607,0.11948337984615937
1772643010906963700,1.406963623046875,0.010344868403673171,0.04179235613136552,0.09498626837879419
1772643010917008400,1.41700830078125,-0.030647651720046996,0.03907496866513975,0.09005761633757502
1772643010927052500,1.427052490234375,-0.050237318331003186,0.030908357616001737,0.07697088361354544
1772643010937097500,1.437097412109375,-0.01640285326838493,0.005584695664001629,0.07186149557740427
1772643010947142700,1.447142578125,0.04137538196146488,-0.016664518145564942,0.051552894441597163
1772643010957186600,1.4571865234375,0.049772038906812664,-0.0318894867409952,0.04603545076095033
1772643010967231500,1.4672314453125,0.03167816381156444,-0.04639192234869115,0.044493482015957125
1772643010977275600,1.477275634765625,0.023607670080661773,-0.05414848215905949,-0.00048743189049419014
1772643010987320300,1.4873203125,0.025116321077942847,-0.05593222833725158,0.0006183145614340901
1772643010997365500,1.497365478515625,0.031415713483095166,-0.05031268512215465,0.005662731619563419
1772643011007409700,1.50740966796875,0.02964052050411701,-0.07864618728146888,0.008540659392764792
1772643011017454600,1.51745458984375,0.012903905236721039,-0.09807915636021643,0.026196914822305552
1772643011027499500,1.52749951171875,0.04659633148014545,-0.09228181345937773,0.01662493962042499
1772643011037543400,1.53754345703125,0.07055997539162635,-0.08273371232342906,0.0251514471902512
1772643011047588600,1.547588623046875,0.09616671033501624,-0.06885441358275711,0.017295541491522452
1772643011057633300,1.55763330078125,0.09648001406788825,-0.05559345680298283,-0.0034002368975430725
1772643011067677400,1.567677490234375,0.06865501855313777,-0.03889003141913563,-0.008478238848154433
1772643011077722600,1.57772265625,0.07119944233894347,-0.025106048562389332,0.007698902205843478
1772643011087767600,1.587767578125,0.1020201125383377,-0.02187020844632061,0.032867912452248856
1772643011097811500,1.5978115234375,0.15812719968557357,-0.02176638502895366,0.05569583033206872
1772643011107856600,1.607856689453125,0.2157300783485174,-0.012957220026268623,0.08294584810361266
1772643011117900500,1.617900634765625,0.2574742936223745,-0.01565098230502335,0.07498652769618201
1772643011127945500,1.627945556640625,0.24415362427830695,0.02626408004069235,0.08472037436231039
1772643011137990400,1.637990478515625,0.23681319838762283,0.05529873447299469,0.0862528811592143
1772643011148034600,1.64803466796875,0.26777649192810055,0.013221358846680959,0.0545706439607311
1772643011158079700,1.658079833984375,0.2568435945034027,0.04197933007082902,0.08051807296741753
1772643011168124400,1.66812451171875,0.1965291187942028,0.04504550357526168,0.0823225194403436
1772643011178168600,1.67816845703125,0.1478828690469265,0.024910662987607066,0.08186735041821375
1772643011188213500,1.688213623046875,0.102224695199728,0.013462628248159306,0.07476533639328554
1772643011198258400,1.698258544921875,0.09112930068969725,-0.0035368352107499955,0.04913543977001682
1772643011208302600,1.708302490234375,0.09484919799566269,-0.008264468233310618,0.03520734258471057
1772643011218347500,1.718347412109375,0.0930401027470827,-0.026098037008114625,0.047623829630669204
1772643011228391400,1.728391357421875,0.06340835007131099,-0.05266150413746945,0.026360320656513794
1772643011238436400,1.738436279296875,0.05023848737478256,-0.06385928130974061,0.015665150110982358
1772643011248481500,1.7484814453125,0.06834405290782451,-0.08148771258401684,-0.009405468661710619
1772643011258525700,1.758525634765625,0.0798649793535471,-0.07729790534451604,-0.01828568047345616
1772643011268570400,1.7685703125,0.10245675038993358,-0.08935273773754016,-0.015636919530341402
1772643011278615600,1.778615478515625,0.06488368332087993,-0.08562650202233343,0.0056516873524524265
1772643011288659500,1.788659423828125,0.04660509930849075,-0.08319121943311765,-0.0137962783660274
1772643011298704600,1.79870458984375,0.03251110750436783,-0.09866343165473081,-0.04587289431011304
1772643011308749300,1.808749267578125,0.061520344367623325,-0.09424142309455201,-0.016221971142990513
1772643011318793500,1.81879345703125,0.07049217085242271,-0.08474623945592902,0.009808039846923201
1772643011328838700,1.828838623046875,0.057176762205362316,-0.06451411022297106,0.01687159415814094
1772643011338883300,1.83888330078125,0.044912908437848086,-0.053429986025625834,0.013599385820748284
1772643011348927500,1.848927490234375,0.039079379978775974,-0.011559593938698525,0.00394991580271162
1772643011358972700,1.85897265625,0.02320727258622646,0.008290050199138931,0.007522230464685708
1772643011369016300,1.869016357421875,0.0490823030769825,0.01581885425179498,0.018620775913028045
1772643011379061500,1.8790615234375,0.07376257082521916,0.02337501438554609,0.026459616312524303
1772643011389106400,1.8891064453125,0.09679214875698089,0.026690630323113872,0.03247381683443673
1772643011399150600,1.899150634765625,0.11862228777110576,0.02022190923304297,0.020190189787372945
1772643011409195500,1.909195556640625,0.1117190842539072,0.018375742510240524,-0.0029097591000143436
1772643011419240400,1.919240478515625,0.10092121138572692,0.033444337800447824,-0.0017437566610984502
1772643011429284600,1.92928466796875,0.11107786374092102,0.028933564111427404,0.013339273579837753
1772643011439330300,1.939330322265625,0.09430968429148197,0.04057114377333782,0.02127129042181186
1772643011449375200,1.949375244140625,0.08039046453237533,0.020978161827288566,0.0281377147257328
1772643011459419100,1.959419189453125,0.07605038950145245,0.0073316477875399865,0.024362936294218523
1772643011469464300,1.96946435546875,0.06497486873567104,0.010408036725310375,0.007903877592878415
1772643011479508200,1.97950830078125,0.08083119403719902,0.009925146295904415,0.008039011747250333
1772643011489553200,1.98955322265625,0.09863514627516269,-0.0028841919755621345,0.012978431777656077
1772643011499598300,1.999598388671875,0.13274784375727175,0.009383930400048847,0.03679528762958944
1772643011509642200,2.009642333984375,0.1429150175064802,-0.0076687901953700925,0.05207251613521948
1772643011519687200,2.019687255859375,0.10728665476441383,-0.011746358957252232,0.05268230946348049
1772643011529732400,2.029732421875,0.10547288334071636,-0.011429908852645894,0.06299950440893881
1772643011539776300,2.0397763671875,0.10082710336148738,-0.001825746130925836,0.07099286864986643
1772643011549821400,2.049821533203125,0.1011269630908966,-0.0030870473291026426,0.06498829447282478
1772643011559866000,2.0598662109375,0.10022855294644832,-0.0178397918779694,0.056869897346431386
1772643011569910300,2.06991015625,0.11294131952524185,-0.012500335112732136,0.052485279920883476
1772643011579955500,2.07995556640625,0.1356686996400356,-0.002096460822597146,0.01904928525709547
1772643011590000000,2.090000244140625,0.1417822140842676,0.010108672469534213,0.011024155904725193
1772643011600044300,2.100044189453125,0.11752455566227435,0.013430159883818123,0.027723690564744174
1772643011610089200,2.110089111328125,0.09655541739165782,0.020506011987605596,0.04876599453627132
1772643011620133000,2.120133056640625,0.04505728534460068,0.02049201314500533,0.06768279425380751
1772643011630178300,2.13017822265625,0.02573357619345188,0.023315135141182688,0.05999678806215524
1772643011640223200,2.14022314453125,0.015703765088319777,-0.006126611387822777,0.01829972726511769
1772643011650267400,2.150267333984375,0.04983692083656788,-0.00482078606133,0.014019857988832518
1772643011660312000,2.16031201171875,0.08863046961128711,-0.0030100913690635934,0.02424607758205384
1772643011670357200,2.170357177734375,0.11470949824154376,0.0005856412719382206,0.034992841317504644
1772643011680401400,2.1804013671875,0.12222411165535449,-0.018423060242197243,0.01601089480873197
1772643011690446300,2.1904462890625,0.09649754972457886,-0.009177888717222958,-0.016632588637340812
1772643011700491300,2.2004912109375,0.09709025492072104,-0.004166299641394289,0.0010104282847139983
1772643011710535200,2.21053515625,0.06101999363005161,-0.02706215791609138,0.008254846455017104
1772643011720580400,2.220580322265625,0.0523456887871027,-0.02916138151793275,0.007458188785146922
1772643011730624300,2.230624267578125,0.041887423136830325,-0.014865097190917003,0.00015835976633243263
1772643011740669200,2.240669189453125,0.039515433308482166,-0.024864894466986878,0.015508763106027617
1772643011750714400,2.25071435546875,0.013199673312902449,-0.008685876549733802,0.04731422482538037
1772643011760758300,2.26075830078125,-0.012075637719035148,-0.022098596674983855,0.04837108606770634
1772643011770803200,2.27080322265625,-0.02404606149792671,-0.04815540662356652,0.04105722852353938
1772643011780848400,2.280848388671875,-0.009996493357419967,-0.05558805910865776,0.008590462484396993
1772643011790892300,2.290892333984375,0.011975099954009055,-0.07001273503871634,0.007134829449141397
1772643011800937200,2.300937255859375,0.019879589468240737,-0.08047132034939714,0.002647007377445698
1772643011810982100,2.310982177734375,0.05711246479749679,-0.06966644691827241,0.02394021737012081
1772643011821026300,2.3210263671875,0.054688452520966525,-0.06928965862828772,0.0570664428318385
1772643011831071500,2.331071533203125,0.07590367450714111,-0.050892718066391535,0.06237406598697416
1772643011841116200,2.3411162109375,0.10998773041665554,-0.07957591501278802,0.0572387215256691
1772643011851160300,2.351160400390625,0.11638824510872363,-0.08125634238040075,0.06467729229489341
1772643011861205200,2.361205322265625,0.11455927611589431,-0.07163525820663198,0.0688158716706559
1772643011871249200,2.371249267578125,0.1320318044424057,-0.05671431405907496,0.05259352606832981
1772643011881294300,2.38129443359375,0.1245154374629259,-0.047081105622672474,0.06110799157391302
1772643011891339300,2.39133935546875,0.13106675880253313,-0.02884780835700221,0.0463399912320543
1772643011901383200,2.401383056640625,0.09706745856702327,-0.004724749799841083,0.05897734535392373
1772643011911428000,2.411427978515625,0.08222761683166027,-0.013583503265026955,0.030174563448736442
1772643011921473300,2.421473388671875,0.057204819256067276,0.0057713408099021755,0.0563835568679031
1772643011931517400,2.431517333984375,0.07990940301716327,0.012813797534164041,0.09399478225656785
1772643011941562000,2.44156201171875,0.10515373438894748,-0.001301511052623391,0.07103601367184892
1772643011951607300,2.451607177734375,0.14880875172019004,-0.003271002760995179,0.04665948724369518
1772643011961651200,2.461651123046875,0.18260113120675087,0.00019657288487069308,0.03236788137508556
1772643011971696400,2.4716962890625,0.2039922942817211,-0.008021320826932788,0.03847533140471205
1772643011981741300,2.4817412109375,0.1810965718626976,-0.03071400408768095,0.02723211678867228
1772643011991785200,2.49178515625,0.15940204192698001,-0.024319882603781297,0.0423247185755521
1772643012001830400,2.501830322265625,0.13576280766427515,-0.02311642509815283,0.03323118367353454
1772643012011874300,2.511874267578125,0.1017933180451393,-0.037256146606989206,0.044820462647732345
1772643012021919200,2.521919189453125,0.09265840995311736,-0.050754236610885704,0.06112735386150889
1772643012031964400,2.53196435546875,0.10461538972854614,-0.06413118445314467,0.07281528003774583
1772643012042008000,2.542008056640625,0.13632628676593303,-0.06919334494723006,0.0841831256804522
1772643012052053200,2.55205322265625,0.15293489173948763,-0.07670099889729172,0.061583436199091374
1772643012062098200,2.56209814453125,0.15578268238604068,-0.1011632856464479,0.06774493623720482
1772643012072142300,2.572142333984375,0.14367080430984497,-0.10951865160018205,0.06944066163864918
1772643012082187300,2.582187255859375,0.11555705498158932,-0.10166069550826214,0.05608943275953643
1772643012092232200,2.592232177734375,0.056769934970140455,-0.08091498159682378,0.039374380869977174
1772643012102276400,2.6022763671875,0.03748714235126972,-0.07286144813387654,0.011416543622640891
1772643012112321300,2.6123212890625,0.027928455889225004,-0.06884550875709392,-0.006046696285717189
1772643012122365200,2.622365234375,0.042154549640417094,-0.07005132261659018,0.0025841438748408106
1772643012132410400,2.632410400390625,0.05503273591399192,-0.04578645813567564,-0.0017327968756668268
1772643012142455300,2.642455322265625,0.05593699127733707,-0.041490130914933976,-0.024907144439825786
1772643012152499200,2.652499267578125,0.06685059947967528,-0.035253254952514544,-0.019188027007505295
1772643012162544000,2.662544189453125,0.08927052108049392,-0.05376189399426803,-0.029945924058323723
1772643012172589300,2.67258935546875,0.11423077481389045,-0.02794502343153581,-0.03873081313627772
1772643012182633200,2.68263330078125,0.12513327710032462,-0.022544077703449874,-0.021530936871841547
1772643012192678100,2.69267822265625,0.09160743959546089,-0.028711998349195345,0.0017738595384173095
1772643012202723300,2.702723388671875,0.06826455793082714,-0.03979973014257848,0.041425650843977924
1772643012212767500,2.712767578125,0.02471884619295597,-0.04891298352521844,0.04869608937152661
1772643012222812200,2.722812255859375,0.026660627910494804,-0.027160814251285043,0.04886940011181869
1772643012232857300,2.732857421875,0.04670563707351684,-0.012922829132899641,0.04922762983180582
1772643012242901200,2.7429013671875,0.042653146812319756,-0.019604590185452252,0.020654565029265357
1772643012252946400,2.752946533203125,0.054604281368851655,-0.013434258386911823,0.006999457832751795
1772643012262990300,2.762990234375,0.12056699209809303,0.007992432659165933,0.0065433663620147854
1772643012273035300,2.77303515625,0.17889760051369666,0.01861543301763013,0.0350484165627975
1772643012283080400,2.78308056640625,0.19907471162378787,0.027382759039429945,0.04289200620264746
1772643012293124000,2.7931240234375,0.20684125397205352,0.017524505108920858,0.0276911217357032
1772643012303169300,2.803169189453125,0.233776607170701,0.022590556326834484,0.049953459888324135
1772643012313214200,2.813214111328125,0.2198743385463953,0.04407318794438615,0.032354729632567615
1772643012323258000,2.823258056640625,0.2139168914467096,0.05521584652909078,0.035467299561994146
1772643012333303300,2.83330322265625,0.1689057833313942,0.03718342843065038,0.012918719213362783
1772643012343348200,2.84334814453125,0.1228425358146429,0.028838684335630384,0.0015801179314497858
1772643012353392400,2.853392333984375,0.12481295910477637,0.013621981245046481,-0.01157030941224657
1772643012363437000,2.86343701171875,0.12708850282132625,0.009176874937070534,-0.01742056981041096
1772643012373481200,2.873481201171875,0.11859539976418018,-0.006915789004135877,-0.024842783099878578
1772643012383526400,2.8835263671875,0.10621464161872864,-0.008067132730036973,-0.0022376776578836143
1772643012393571300,2.8935712890625,0.05986497837603092,-0.02561058913460001,0.019507057228265328
1772643012403615200,2.903615234375,0.018747370567917823,-0.02769524992154911,0.011479388858936726
1772643012413660200,2.91366015625,-0.0243254629611969,-0.03011554500418715,0.011065364697948098
1772643012423705300,2.923705322265625,-0.0798339996933937,-0.038537427722336724,0.008500409580767154
1772643012433749200,2.933749267578125,-0.09330255307555198,-0.04613061366453767,0.010658163003390654
1772643012443794200,2.943794189453125,-0.08567804954648017,-0.03119962304700166,0.014398829102749004
1772643012453839400,2.95383935546875,-0.06579378390312195,-0.026388240709900854,0.012402376322215422
1772643012463883300,2.96388330078125,-0.00012625672817230223,-0.010998774868296458,0.019766429683659225
1772643012473928200,2.97392822265625,0.042649055159091946,-0.007147962925350293,0.04798023271975107
1772643012483973400,2.983973388671875,0.07195698270797729,0.007098196366336196,0.04447213326725177
1772643012494017300,2.994017333984375,0.11533259857594966,0.006768215493299067,0.055695492405351245
1772643012504062200,3.004062255859375,0.16679507478773592,0.03344204081208445,0.05169388294802047
1772643012514106400,3.0141064453125,0.17411738049983977,0.035627330695604906,0.06354908284940756
1772643012524151300,3.0241513671875,0.16827449969053268,0.024912003278033806,0.05125772915361449
1772643012534196500,3.034196533203125,0.1577992829054594,0.025453069618484005,0.04949015322551131
1772643012544240000,3.044240234375,0.15047814623713493,0.027653036481328306,0.04970223420676775
1772643012554285300,3.054285400390625,0.10993921509981154,0.006782664143759757,0.05371638348526321
1772643012564330200,3.064330322265625,0.08765256448984146,-0.0025753669133409857,0.044217400454357264
1772643012574374100,3.0743740234375,0.07329904496669769,-0.022138940101815385,0.040561152102285995
1772643012584419300,3.08441943359375,0.04248071285486221,-0.030967951449286192,0.04365990356891416
1772643012594464300,3.09446435546875,0.03859071967899799,-0.04629757686243392,0.04492993263788521
1772643012604508200,3.104508056640625,0.03440028225183487,-0.04462442861897871,0.02814839138337411
1772643012614553000,3.114552978515625,-0.005415595307946205,-0.0422369306942448,0.03762775639835745
1772643012624597200,3.12459716796875,0.0068313073247671125,-0.04736632947195321,0.040772429365944114
1772643012634642400,3.134642333984375,0.05468611443340778,-0.04682707149609923,0.02941726967487484
1772643012644687000,3.14468701171875,0.09236264187693595,-0.03716330809122883,0.03244148546741344
1772643012654731300,3.154731201171875,0.12614917614459992,-0.029980401716660707,0.04189490319038741
1772643012664776400,3.1647763671875,0.17161913394331932,-0.02861401786743663,0.0500470199232921
1772643012674821400,3.1748212890625,0.17460194914638996,-0.034964007948664944,0.042960011671250686
1772643012684865300,3.184865234375,0.1844762774288654,-0.05268804508452304,0.004867313775420189
1772643012694910200,3.19491015625,0.20782383526861667,-0.04012277895133011,-0.0026613190305884928
1772643012704955400,3.204955322265625,0.24210604409873485,-0.031063173718377947,0.006638981356751173
1772643012714999300,3.214999267578125,0.236896785017848,-0.07346756993401796,-0.012030136343184858
1772643012725044200,3.225044189453125,0.20401275254786014,-0.06716109020095318,-0.014338751212274655
1772643012735089400,3.23508935546875,0.14030278918147085,-0.06501132828854024,-0.02191319592138752
1772643012745133000,3.245133056640625,0.10921148534715175,-0.056602633845526724,-0.04621442862362601
1772643012755178200,3.25517822265625,0.052527475094795224,-0.052949052374577144,-0.038535171833168715
1772643012765222400,3.265222412109375,-0.004914660048484802,-0.05995505867912434,-0.035168106552865355
1772643012775267300,3.275267333984375,-0.05203647670745849,-0.04819718167237006,-0.05311527578695677
1772643012785312300,3.285312255859375,-0.06894026523530483,-0.02058792040068656,-0.04876408570697531
1772643012795356200,3.295356201171875,-0.04784720832407474,-0.023300129368295893,-0.042493672801135106
1772643012805401300,3.3054013671875,0.01035363623201847,-0.02861361600863747,-0.039955834019742904
1772643012815446300,3.3154462890625,0.05224456650018692,-0.03711233595581725,-0.005721839112369343
1772643012825490200,3.325490234375,0.08769757267534732,-0.05512048726268112,-0.009308218832314015
1772643012835535400,3.335535400390625,0.1210562369197607,-0.08201529838838614,-0.01487305901837535
1772643012845580300,3.345580322265625,0.13331950616538524,-0.08438507799333893,-0.011681724764313547
1772643012855624200,3.355624267578125,0.1542705242574215,-0.09513257238115183,-0.011118455725209787
1772643012865669400,3.36566943359375,0.12510288196206093,-0.09733613770687952,0.00818423803737387
1772643012875714300,3.37571435546875,0.09219839122593403,-0.08919140969598666,0.012594875820167361
1772643012885758200,3.38575830078125,0.06064239248931408,-0.08010346428453922,-0.00029363091802224516
1772643012895803100,3.39580322265625,0.043002106380462646,-0.0713163467168808,0.023043460326641795
1772643012905847300,3.405847412109375,0.005455927318334579,-0.06554983734572306,0.031046249983040616
1772643012915892500,3.415892578125,-0.022224106767773626,-0.057115469605335964,0.029749040646199137
1772643012925937200,3.425937255859375,-0.02746902168393135,-0.035908814518107096,0.03721031643757596
1772643012935981300,3.435981201171875,0.031020576685667035,-0.03587281162296422,0.017451832598354665
1772643012946026200,3.446026123046875,0.05897124440670013,-0.03752936492464505,0.015103095781430601
1772643012956071400,3.456071533203125,0.09470014491379261,-0.030913198187900705,0.014605804650625213
1772643012966115300,3.466115234375,0.13357494223117827,-0.05308910929923877,0.021742634260607883
1772643012976160300,3.47616015625,0.17036065831482408,-0.05584742243089713,0.035447526282444596
1772643012986205400,3.486205322265625,0.1915969230890274,-0.05293859491264447,0.03593488967427984
1772643012996249000,3.4962490234375,0.1892044749945402,-0.06311990678505972,0.03576862972928211
1772643013006294300,3.506294189453125,0.17215338695049284,-0.05510183736113831,0.02102821151409298
1772643013016338400,3.51633837890625,0.17546470345556736,-0.04540773361693136,0.00537904442353174
1772643013026383000,3.526383056640625,0.11847615729868412,-0.050332951592048626,0.023042419147025792
1772643013036428300,3.53642822265625,0.0456225180119276,-0.04487356280814856,0.005848899558139964
1772643013046472200,3.54647216796875,0.01915536684691906,-0.04095245297481306,-0.0396569150052499
1772643013056517400,3.556517333984375,-0.03545651330649852,-0.031853803506260735,-0.036547605611989276
1772643013066562000,3.56656201171875,-0.015413257709145546,-0.03827352522229775,-0.03311240699891932
1772643013076606200,3.576606201171875,-0.01618248851597309,-0.03233355898037553,-0.019670385430660096
1772643013086651400,3.5866513671875,-0.007234042906761169,-0.020669369872752575,-0.015786995525518432
1772643013096696300,3.5966962890625,0.03388298037946224,-0.02650239600832574,-0.03144727309856098
1772643013106740200,3.606740234375,0.01783434737622738,-0.024456660725967957,-0.02512790191788226
1772643013116785400,3.616785400390625,0.03140577661097049,-0.009915390945225953,-0.030849841494951395
1772643013126830300,3.626830322265625,0.0678653294801712,-0.03720186826963909,-0.061599359854008065
1772643013136874200,3.636874267578125,0.1080588081806898,-0.016236465459223835,-0.002542145063751377
1772643013146919200,3.646919189453125,0.1584311510682106,-0.02839339738669805,0.0032847892577527087
1772643013156963300,3.65696337890625,0.21211481046080588,-0.050480132377240805,-0.013158217924507333
1772643013167008300,3.66700830078125,0.21448563124537467,-0.04214057591399178,-0.00915260357891675
1772643013177053200,3.67705322265625,0.23033260419666765,-0.031135727497935292,0.00653217368114274
1772643013187097300,3.687097412109375,0.2449924131900072,-0.038617826881632206,0.029667458743392487
1772643013197142300,3.697142333984375,0.22300036161243914,-0.027520459610223768,0.005289799804077484
1772643013207187200,3.707187255859375,0.22585399747788903,-0.009381247535906731,0.017669489370449445
1772643013217231400,3.7172314453125,0.2047714619606733,-0.006307301716972142,0.025503817991609685
1772643013227276300,3.7272763671875,0.1608013873308897,-0.016457533464534206,0.025760021242382934
1772643013237321500,3.737321533203125,0.13389292213916779,-0.035096201227279376,0.026988814118667503
1772643013247365000,3.747365234375,0.08872866928875446,-0.023628621537145227,0.04819236849993467
1772643013257410300,3.757410400390625,0.04385667738318443,-0.02417005320377648,0.06626558439964428
1772643013267455200,3.767455322265625,0.0332440979540348,-0.03692309699403122,0.07495779935861938
1772643013277499100,3.7774990234375,0.01589315018057823,-0.02318483242555521,0.0678556940021459
1772643013287544300,3.78754443359375,-0.004160626810789108,-0.03153649945170618,0.09893328897152096
1772643013297588200,3.797588134765625,0.012435703203082083,-0.006038266384089365,0.09514366916390135
1772643013307633200,3.807633056640625,0.025729484540224074,-0.003836171496240422,0.10153502330197953
1772643013317678300,3.81767822265625,0.017167407900094984,0.007520075040217488,0.10121126210717483
1772643013327722200,3.82772216796875,0.024307342782616613,0.019306073029758408,0.08293288815733976
1772643013337767400,3.837767333984375,0.04535714507400989,0.010229991586040705,0.07545733724543824
1772643013347812000,3.84781201171875,0.07059212409555912,0.011950202974770218,0.07878150409893132
1772643013357856300,3.857856201171875,0.11198971788883208,0.011431056205183266,0.07363797633117064
1772643013367901400,3.8679013671875,0.15728139651119707,0.007983728762902318,0.045497576458007095
1772643013377946400,3.8779462890625,0.21545009236335752,0.0034830380764789876,0.007647318149078637
1772643013387990300,3.887990234375,0.26076807447075845,-0.004187460018787533,-0.023311509278835726
1772643013398035200,3.89803515625,0.2912935611158609,-0.01184065991938114,-0.008971689487481489
1772643013408079000,3.9080791015625,0.2649760475546121,-0.015385182392131536,-0.014696871334407478
1772643013418124300,3.918124267578125,0.25468553968667984,-0.006845719442609697,-0.030265429203119126
1772643013428169200,3.928169189453125,0.2137310134857893,-0.011216901997849344,-0.03432232164479792
1772643013438212900,3.938212890625,0.1621568935930729,-0.019455372706800696,-0.026646462387824428
1772643013448258000,3.948258056640625,0.1111871693342924,-0.036624680303037165,0.00009631824763491749
1772643013458303000,3.958302978515625,0.057524552729725835,-0.04261015705396421,0.0267309805998113
1772643013468347000,3.968346923828125,0.009541150805354118,-0.04301962377084419,0.07121998280347325
1772643013478391800,3.978391845703125,-0.012714520144462584,-0.05859193536606617,0.07648510025744326
1772643013488437000,3.98843701171875,-0.05847381627857685,-0.051956488540116696,0.07859427443114109
1772643013498481000,3.99848095703125,-0.056363107734918594,-0.04618671863279305,0.05236589132491499
1772643013508525800,4.00852587890625,-0.03196574858129024,-0.04678578050448559,0.05360840219929814
1772643013518571000,4.018571044921875,0.0011088380247354507,-0.04380058154808357,0.0394515377594158
1772643013528615000,4.028614990234375,0.032386019819974896,-0.020012412934517488,0.052887768907705315
1772643013538659800,4.038659912109375,0.050937575554847715,-0.029068026978941633,0.03269247368695214
1772643013548704000,4.0487041015625,0.06963526176214217,-0.028095939676929263,0.01298361027627252
1772643013558749000,4.0587490234375,0.09282324512600898,-0.03127260608482174,0.002890506410272792
1772643013568793900,4.0687939453125,0.09551438390612602,-0.02128281646282412,0.008618446469865738
1772643013578837800,4.078837646484375,0.0928179844290018,-0.022710575110465286,0.0361806993952021
1772643013588883000,4.088883056640625,0.08337970947623252,-0.0333075185790658,0.023227255928330123
1772643013598928000,4.098927978515625,0.09249299025833606,-0.0387064093473833,-0.0022111732434481383
1772643013608971800,4.1089716796875,0.10789572657346724,-0.028556606858083977,-0.00513223005561158
1772643013619017000,4.119016845703125,0.085751114782691,-0.0411755211409647,0.0027812464826740325
1772643013629062000,4.129061767578125,0.07828092503249645,-0.04085772389606573,-0.0206843847787939
1772643013639105800,4.139105712890625,0.07515197935700416,-0.036775523483194406,-0.03648666007183492
1772643013649151000,4.14915087890625,0.07979425220489501,-0.018146911323582753,-0.0469184852397535
1772643013659195000,4.15919482421875,0.12258476166129112,-0.0133010969939176,-0.049716198800038545
1772643013669240000,4.169239990234375,0.15684768126904963,-0.009510965729644522,-0.04419705178607255
1772643013679284700,4.17928466796875,0.17001871300935745,-0.011633118115924298,-0.05344121067253872
1772643013689329000,4.189328857421875,0.16583821245431898,0.0021320435926318166,-0.03239833131227642
1772643013699374000,4.1993740234375,0.15448270570337772,0.010570347722619772,-0.04548938401839696
1772643013709418800,4.209418701171875,0.13744623070657253,0.0071862856417428695,-0.034351456407736985
1772643013719463000,4.219462890625,0.12011457215547561,0.02180800024755299,-0.03927855581268668
1772643013729507800,4.2295078125,0.12103928578495979,0.019910422997921704,-0.02809354679044336
1772643013739553000,4.239552978515625,0.10730185233354568,0.01289032423594035,-0.004003198626218363
1772643013749597000,4.249596923828125,0.16629823118150233,0.01046890577529557,0.01502078779283911
1772643013759641900,4.259641845703125,0.18879589419364928,-0.00163830525893718,-0.03933567456109449
1772643013769687000,4.26968701171875,0.06867430777549743,0.06658529960699379,0.038044767100876196
1772643013779730700,4.279730712890625,0.10731646538078785,0.0060482945877593005,0.04086529071459081
1772643013789776000,4.28977587890625,0.10870002869367598,0.015931838223151862,0.01952090309052728
1772643013799820000,4.299820068359375,0.12131576463878153,-0.018919393533421678,0.006450052922219038
1772643013809865000,4.309864990234375,0.08425415422320365,-0.021047939127869904,0.02700746858678758
1772643013819910000,4.319909912109375,0.007982230925559997,-0.01207976590488106,0.03663917918584775
1772643013829953800,4.329953857421875,0.023436405166983604,-0.03975422876672819,0.018897085803491063
1772643013839999000,4.3399990234375,0.031556583258509636,-0.03666065579871647,0.024948796191043218
1772643013850043600,4.350043701171875,0.047453825092315674,-0.0032802820459939537,0.0015154003984760491
1772643013860087800,4.360087890625,0.004530629166960716,-0.011649987052334472,0.0208174502736656
1772643013870133000,4.370133056640625,0.05242869089543819,-0.05103782105892896,0.026426869386970062
1772643013880178000,4.380177978515625,0.037626258561015126,-0.03989373770211823,0.020346964951395055
1772643013890221800,4.390221923828125,0.02835515686869621,-0.042053135092556475,0.03469530597592238
1772643013900267000,4.40026708984375,0.06217910053730011,-0.05040268322685733,0.016308028291515075
1772643013910312000,4.41031201171875,0.04796761983335018,-0.029423370622098443,0.0248498612946365
1772643013920355800,4.42035595703125,0.07655132476091385,-0.03575204392066225,0.03372966668100562
1772643013930400800,4.43040087890625,0.09166881439387797,-0.04506512159118429,0.0522618190290872
1772643013940445000,4.44044482421875,0.09332184229791164,-0.0624222890428733,0.0689927123751724
1772643013950490000,4.450489990234375,0.09782266084849833,-0.042029114896152166,0.058918724201596336
1772643013960534800,4.46053466796875,0.06970014369189739,-0.038260428278706966,0.04793917462357785
1772643013970579000,4.470578857421875,0.07105214282274246,-0.02444162755361758,0.06517317235332448
1772643013980624000,4.480623779296875,0.08826689699590205,-0.02013583838478662,0.07438903216049075
1772643013990668800,4.490668701171875,0.04981295543909073,-0.015170653725462033,0.09026294791763648
1772643014000713000,4.500712890625,0.024072949504852295,-0.011241872042324394,0.0689199439664837
1772643014010758000,4.5107578125,0.03887947349250316,0.01245406997683458,0.06126420504893176
1772643014020803000,4.520802978515625,-0.01620294678211212,0.007129322156962007,0.06794841835347469
1772643014030846700,4.5308466796875,-0.01457914497256279,0.004802221783110872,0.06601855083601549
1772643014040892000,4.540891845703125,-0.006230418822169304,0.010289530620397998,0.0730444217516575
1772643014050936000,4.55093603515625,0.010938158121705054,0.013607569127203897,0.05441379116489552
1772643014060980700,4.560980712890625,0.02944704375863075,0.0029365649085491895,0.05193309396479744
1772643014071026000,4.57102587890625,0.054985389640927314,0.0007630841938313096,0.05421113559911027
1772643014081069800,4.58106982421875,0.12078501876294612,-0.010713062395248562,0.052192448153882284
1772643014091115000,4.591114990234375,0.1635544854313135,-0.02540021605324,0.045518326985090965
1772643014101160000,4.601159912109375,0.1672796434342861,-0.022426177811669185,0.03125359542367514
1772643014111203800,4.611203857421875,0.15604571723639965,-0.03848198947436176,-0.010473867361492011
1772643014121249000,4.6212490234375,0.14930559532642362,-0.03919173604575917,-0.03777385490473825
1772643014131293700,4.631293701171875,0.13149404430389403,-0.049744118853425605,-0.042642205293197184
1772643014141337900,4.641337890625,0.12819617180228232,-0.04960348654002882,-0.04842590326117351
1772643014151383000,4.651383056640625,0.12639233725070953,-0.05822619819305837,-0.06151828027470037
1772643014161428000,4.661427978515625,0.14344050268530845,-0.0448893814317882,-0.06352201674596872
1772643014171472000,4.671471923828125,0.1838315497845411,-0.05498457679017447,-0.06773237814973108
1772643014181516800,4.681516845703125,0.17993220425844192,-0.04749161808574572,-0.03939494873397052
1772643014191561000,4.69156103515625,0.16376549783349037,-0.024843915611039845,-0.040521418313519096
1772643014201606000,4.70160595703125,0.15583528935611246,-0.03158880502767861,-0.022608347711851818
1772643014211650800,4.71165087890625,0.14731003759503364,-0.04105905515444465,-0.0148305601670756
1772643014221695000,4.721695068359375,0.14896598810851572,-0.0574790696201846,0.006991667251940816
1772643014231740000,4.731739990234375,0.1385059688925743,-0.06443658800735139,0.016203682001051493
1772643014241784800,4.741784912109375,0.113082773822546,-0.07363085247064009,-0.005140532093076035
1772643014251829000,4.7518291015625,0.0991840123295784,-0.06223110471917316,0.017143782712623942
1772643014261874000,4.7618740234375,0.08065116129517555,-0.0510613297986798,0.010713640067272353
1772643014271918800,4.7719189453125,0.024116788646578787,-0.028005914172763,-0.01655018246733816
1772643014281962800,4.781962646484375,-0.01177227085828781,0.006568564735352993,-0.029092974190530366
1772643014292008000,4.792008056640625,-0.048717561417818064,-0.040135400970885526,-0.05645336613452527
1772643014302052900,4.802052978515625,-0.0886655409246683,-0.02985944221811369,-0.06942201173710637
1772643014312096800,4.8120966796875,-0.13356909701228142,0.01471963115548715,-0.009882388291344977
1772643014322142000,4.822141845703125,-0.08406652269661426,0.02496653734371066,-0.006679527996270917
1772643014332185900,4.832185791015625,-0.031740123131871224,0.053458846793929114,-0.0354637832975015
1772643014342230800,4.842230712890625,0.015032149437069892,0.05385464117848314,0.002866668876959011
1772643014352276000,4.85227587890625,0.09216624252200126,0.06214235785664059,0.03875567358289845
1772643014362320000,4.86231982421875,0.16614976262152195,0.06722135988767258,0.05313261051424779
1772643014372365000,4.872364990234375,0.26767420059740543,0.05637846056767739,-0.0005976097001228481
1772643014382409700,4.88240966796875,0.3533604334503412,0.054739917846722524,0.035902261479734444
1772643014392454000,4.892453857421875,0.39389059675931926,0.035762802776694295,0.060663188682170584
1772643014402499000,4.9024990234375,0.4182978927850723,0.028378492078511043,0.05854750713587273
1772643014412543700,4.912543701171875,0.3803443019658327,0.017255104449857027,0.048616576128220186
1772643014422588000,4.922587890625,0.3271522254824638,-0.007402604406699538,0.042300223455112425
1772643014432632800,4.9326328125,0.26395079616010186,-0.032783211577171456,0.046022015890642066
1772643014442676700,4.9426767578125,0.1621481257647276,-0.03775171157158911,0.052875037290295586
1772643014452722000,4.952721923828125,0.05390402414500713,-0.05648228626833297,0.058108526630140836
1772643014462766800,4.962766845703125,-0.02637362766265869,-0.07104461710341274,0.06262482587764971
1772643014472810800,4.972810791015625,-0.07583996162116527,-0.07947233590730465,0.04212861604813952
1772643014482855700,4.982855712890625,-0.11948387303650379,-0.06575449307234957,0.02128452892929781
1772643014492900900,4.99290087890625,-0.14039923529326914,-0.056322556528821587,0.030762176911230198
1772643014502944800,5.00294482421875,-0.15549626666009425,-0.0476486444115173,0.03797286634186748
1772643014512989700,5.01298974609375,-0.11584113261997699,-0.04863010233007371,0.028850370206846852
1772643014523035000,5.023034912109375,-0.08278466619253158,-0.03708861715351231,0.003702617377601564
1772643014533078800,5.033078857421875,0.0015887304961681365,-0.027932885469170287,0.00536790197500959
1772643014543123700,5.043123779296875,0.0707014296889305,-0.03609387049512006,0.04775633343653753
1772643014553169000,5.0531689453125,0.1354822371572256,-0.051173329672636464,0.044683529261918736
1772643014563212800,5.063212890625,0.1435556534975767,-0.07167376358611509,0.06071103727873414
1772643014573258000,5.073258056640625,0.16899170804917812,-0.04174962210133672,0.06873208867760841
1772643014583302000,5.083302001953125,0.19488135158717632,-0.027968048114096745,0.035027561004436575
1772643014593346800,5.093346923828125,0.17124270184636115,-0.030900128643773495,0.03291429517751094
1772643014603392000,5.10339208984375,0.16122048952579499,-0.01572644271100871,0.02635879085313063
1772643014613435600,5.113435546875,0.1476087282806635,-0.026778025478776543,0.02532337425763253
1772643014623480800,5.123480712890625,0.1595896734535694,-0.033928545687394215,0.041037569408421404
1772643014633525800,5.13352587890625,0.1602080976128578,-0.02028486406719312,0.020661127200792544
1772643014643569700,5.143569580078125,0.11309680234789847,-0.03207534643560648,0.03780219964981079
1772643014653614800,5.15361474609375,0.052068625411391255,-0.04034598411479964,0.060868876455258576
1772643014663658800,5.16365869140625,0.0318891762137413,-0.0486298557349015,0.06276007876303047
1772643014673704000,5.173703857421875,0.004371639212965965,-0.0519944733297918,0.05702153054445516
1772643014683748600,5.18374853515625,-0.030936990055441854,-0.059284566405881194,0.05324482045075856
1772643014693792800,5.193792724609375,-0.008044190245866775,-0.046588897092361,0.030213119060569442
1772643014703838000,5.203837890625,0.00751285984814167,-0.02713145115948282,0.027804592047538608
1772643014713883000,5.2138828125,0.0292009600430727,-0.017718840370932593,0.05087668481362052
1772643014723926800,5.2239267578125,0.051933016332983965,-0.03457363865789957,0.018512018308928235
1772643014733971700,5.2339716796875,0.09981471144855023,-0.01668248306051828,-0.01920824324504938
1772643014744017000,5.244016845703125,0.07781973726153374,0.00437207760438323,-0.02997494009025395
1772643014754060800,5.254060791015625,0.059112698704004284,-0.01572899999427609,-0.004450796263245865
1772643014764105700,5.264105712890625,0.0908311945259571,-0.02457269745422527,-0.023742397809657267
1772643014774151000,5.27415087890625,0.12090426122844218,-0.026688063906691966,-0.013699672424024902
1772643014784194800,5.28419482421875,0.1408025553971529,-0.02987110525644384,0.0008713988399365916
1772643014794239700,5.29423974609375,0.1532242300748825,-0.03422241406743415,-0.007593217908241786
1772643014804284000,5.304283935546875,0.17058394567668436,-0.03664983301060274,-0.03477780576075893
1772643014814328800,5.314328857421875,0.17836685463786126,-0.025793900679098442,-0.024570738392579367
1772643014824373800,5.324373779296875,0.17253741783201693,-0.03698740353505127,-0.014957485898816958
1772643014834418000,5.33441796875,0.14411445642411708,-0.03917003567060456,-0.03177107539256103
1772643014844462800,5.344462890625,0.12212532745599745,-0.026670966641418634,-0.034417301885294724
1772643014854508000,5.354508056640625,0.11809095737338066,-0.02085609721704386,-0.0118022458714433
1772643014864551700,5.3645517578125,0.131111766988039,-0.021146389967086725,-0.00020178791610524056
1772643014874596900,5.374596923828125,0.12363164036571979,-0.015222785771498456,0.01481175728519447
1772643014884641800,5.384641845703125,0.12393851435780524,-0.013417120022443123,0.016397090247878804
1772643014894685700,5.394685791015625,0.10419687205553055,-0.0220853650173638,0.00397350674085319
1772643014904731000,5.40473095703125,0.09523089078962803,-0.020715684099355713,0.010697983557125553
1772643014914775800,5.41477587890625,0.08686872063577175,-0.028412179718981495,0.010667953745042905
1772643014924819700,5.42481982421875,0.05516133072972297,-0.015091734137199818,0.0022533410178963093
1772643014934864600,5.43486474609375,0.042154549640417094,-0.01320315304477699,-0.006071830726973712
1772643014944908800,5.44490869140625,0.02570610366463661,-0.008997125322837382,-0.016696840379433704
1772643014954954000,5.4549541015625,0.0026718495577573776,-0.008131708699115552,-0.02133695780285634
1772643014964998700,5.46499853515625,0.027521044132113454,-0.0012341083722189068,0.002457430488942191
1772643014975042800,5.475042724609375,0.06688274818360805,-0.008939887843420728,0.0060000532655511045
1772643014985087700,5.485087646484375,0.10863690032958984,-0.014249794287187978,-0.009388554059527814
1772643014995133000,5.4951328125,0.14350889174640177,-0.013486449798452668,-0.018408375271363183
1772643015005176800,5.5051767578125,0.16327333040237427,-0.03018469668368343,-0.0115828309671022
1772643015015221800,5.5152216796875,0.12139233700633048,-0.043623023890936745,-0.011557440797518938
1772643015025267000,5.525266845703125,0.09567162029445171,-0.04628679517351556,-0.011325303408922627
1772643015035310800,5.535310791015625,0.0636649551808834,-0.04784763758233748,0.002094305398128927
1772643015045355800,5.545355712890625,0.039137832167744635,-0.043883702387427906,-0.009039594491384922
1772643015055400000,5.55539990234375,0.02164016939997673,-0.04936659991107881,-0.020173256918881086
1772643015065444600,5.565444580078125,0.04932897131443023,-0.03572919048474869,-0.00687161650226917
1772643015075489800,5.57548974609375,0.051723172974586486,-0.032014072101889175,0.0026104564930312336
1772643015085534000,5.585533935546875,0.07895254068374634,-0.037114240218535995,0.006940485053975135
1772643015095579000,5.595578857421875,0.08882511540055274,-0.030552815326733977,0.020378853360423818
1772643015105623800,5.605623779296875,0.07849895169734955,-0.03242235150868073,0.027105604332173242
1772643015115667700,5.615667724609375,0.03256254543066025,-0.02635138843138702,0.035996593266259876
1772643015125713000,5.625712890625,0.01969780316054821,-0.03351076779989526,0.04754114718274213
1772643015135757800,5.6357578125,0.03541618129611015,-0.018079161583306268,0.044767216356843706
1772643015145801700,5.6458017578125,0.03033200989961624,-0.006676667035615537,0.03571705480567179
1772643015155847000,5.655846923828125,0.022998598271608352,-0.01130582695689518,0.0049256426668027415
1772643015165890800,5.665890869140625,0.059954994747042654,-0.0060301515762927,0.007198195275245234
1772643015175935700,5.675935791015625,0.08524141169488429,-0.008432319630484561,0.016150942600239068
1772643015185980700,5.685980712890625,0.10753975274264811,-0.02589983613844961,0.02785900738220662
1772643015196024800,5.69602490234375,0.1256535015821457,-0.037112630500050724,0.028418645992386152
1772643015206069800,5.70606982421875,0.21246961524784563,-0.02420727994162589,0.04335476030961145
1772643015216114700,5.71611474609375,0.17493746471107005,-0.040764392189960925,0.004132145068398677
1772643015226158800,5.726158935546875,0.13126140459179877,-0.024752908292762003,0.009545548419258556
1772643015236204000,5.7362041015625,0.12259762114286422,-0.01968700777189806,-0.020842502516531386
1772643015246248700,5.746248779296875,0.07037994264960289,-0.016736752264713866,0.033802887180843386
1772643015256292900,5.75629296875,0.09208265589177608,-0.03705354584013112,0.040225778101501054
1772643015266337800,5.766337890625,0.09224047680199146,-0.018930876191949938,0.059784665981703435
1772643015276383000,5.776383056640625,0.11529694274067878,-0.0006424808883108198,0.06346167856059037
1772643015286427000,5.786427001953125,0.11007365513443947,0.01266030117261689,0.07766335938973352
1772643015296471800,5.796471923828125,0.09572188917696475,0.00934007070872467,0.0762422542451648
1772643015306515700,5.806515625,0.10830372285246849,0.00974049788591219,0.06823432262276764
1772643015316560600,5.816560546875,0.12507540943324566,0.010078534201241563,0.06687715412646066
1772643015326605800,5.826605712890625,0.1303226624369621,0.009345991276146378,0.05328930347987916
1772643015336650000,5.83664990234375,0.11896131046712398,0.007865266040473943,0.04445473917445633
1772643015346694700,5.846694580078125,0.0911404066056013,-0.003082792420737678,0.06237518479840364
1772643015356739800,5.85673974609375,0.08950666792392731,-0.038059743191010784,0.05063730026690755
1772643015366783700,5.86678369140625,0.0494131424665451,-0.021559076120937243,-0.00011787705889437346
1772643015376829000,5.876828857421875,0.027874095353484153,-0.0314968318783096,-0.026833107533724976
1772643015386873600,5.88687353515625,0.0006458966881036758,-0.04717727773983497,-0.025425067366706206
1772643015396917800,5.896917724609375,-0.015062544575333594,-0.035104722460452466,-0.026539047357439994
1772643015406963000,5.906962890625,0.001550152051448822,-0.04892085173784289,-0.047345341482851654
1772643015417006800,5.9170068359375,-0.000692073917388916,-0.04355197708187625,-0.02863748094141483
1772643015427051800,5.9270517578125,-0.0074240125209093085,-0.037777323220169634,-0.03647106977705843
1772643015437097000,5.937096923828125,-0.0033837972193956375,-0.025058896368858403,-0.04620868386942893
1772643015447140900,5.947140869140625,0.01681727928817272,-0.029350583947100675,-0.05564630580164957
1772643015457186000,5.95718603515625,0.03193067726790905,-0.030393001105543223,-0.04912145691043697
1772643015467230700,5.967230712890625,0.042705753782391546,-0.027118052821792662,-0.06324987157396972
1772643015477275000,5.97727490234375,0.0687450349241495,-0.024139863561489616,-0.07323682078490965
1772643015487320000,5.987320068359375,0.06919511677920819,-0.0015520996966515667,-0.0577683531566523
1772643015497365000,5.997364990234375,0.07577975586652755,0.004548992515780264,-0.08033128169104456
1772643015507409000,6.007408935546875,0.09957271938621998,0.007457605404901551,-0.08366058137738146
1772643015517453800,6.017453857421875,0.11229074666202067,0.02183393155654194,-0.06758111484446562
1772643015527499000,6.0274990234375,0.13503157078027725,0.006093074444402009,-0.045274846218572924
1772643015537543000,6.03754296875,0.17048983765244483,0.02675977743603289,-0.029878135502140503
1772643015547587800,6.047587890625,0.18784136994779108,-0.0022122806384344586,-0.0164257067042985
1772643015557632000,6.057632080078125,0.19262568161487578,-0.006817466029082424,-0.0032763136903522535
1772643015567676700,6.0676767578125,0.2013034935891628,0.010353786929068154,0.01898908863561228
1772643015577721900,6.077721923828125,0.18544249211251734,0.024442077361478003,0.03883693125871941
1772643015587766000,6.08776611328125,0.13875672878324985,0.039163094473164524,0.060873493264871646
1772643015597811000,6.09781103515625,0.10942892749011517,0.03807874700229149,0.07794113515149802
1772643015607855900,6.10785595703125,0.08339315347969531,0.036225508934597014,0.08094143121233209
1772643015617899800,6.117899658203125,0.05556289726793766,0.037543174254288894,0.07713496073461137
1772643015627945000,6.127945068359375,0.03297054170966148,0.02269424503017217,0.09311848347922787
1772643015637990000,6.137989990234375,0.03207622321844101,0.02137719391512219,0.09775571482582017
1772643015648033800,6.14803369140625,0.007238719081878662,-0.012682046071899822,0.11580944057377054
1772643015658079000,6.158078857421875,0.02085924815535545,-0.04409967409251257,0.10412062848154455
1772643015668123000,6.168122802734375,0.0003606500059366226,-0.03101516529161017,0.11416422151685691
1772643015678167800,6.178167724609375,0.016371289086341858,-0.03518032214704435,0.13032477219565772
1772643015688213000,6.188212890625,0.047642625662684436,-0.03991692678146064,0.11464292667820118
1772643015698257000,6.1982568359375,0.060357145807147024,-0.026002780489693393,0.08643994643022306
1772643015708301800,6.2083017578125,0.07546469856798649,-0.007994380304368678,0.08540243834233842
1772643015718346800,6.2183466796875,0.06228899065256118,0.013851607016148045,0.08422343942453153
1772643015728391000,6.228390869140625,0.0718564449429512,0.009846029203175566,0.08786993356756866
1772643015738436000,6.23843603515625,0.10057751251459121,0.010589011323894374,0.08507008284912444
1772643015748480800,6.248480712890625,0.1601262645483017,0.023642049557587596,0.08265229025082663
1772643015758525000,6.25852490234375,0.18735563225746155,0.014161369368352461,0.09489378605606034
1772643015768569900,6.26856982421875,0.19483634340167044,0.034775200528430285,0.09348443071478978
1772643015778615000,6.278614990234375,0.20112346084713933,0.008723400115105324,0.07898468025452457
1772643015788659000,6.288658935546875,0.16760872925817966,0.01402301121043274,0.052779189400118776
1772643015798703900,6.298703857421875,0.13244856854975223,0.02406811349953059,0.02409507228840375
1772643015808748000,6.308748046875,0.11838614092767238,0.016106589718570465,0.0186558152603684
1772643015818792700,6.318792724609375,0.11569675571322441,-0.00011415301513625308,0.007623861924966331
1772643015828838000,6.328837890625,0.11690028628408908,-0.00639068285122048,-0.010439629448461345
1772643015838882000,6.338882080078125,0.09131751673817634,0.0038628357408801092,-0.017457778281951324
1772643015848926700,6.3489267578125,0.06423720211088657,-0.0006046719118603505,-0.03849682171731256
1772643015858972000,6.358971923828125,0.051072015589475626,0.0013555633443989791,-0.047230464665219185
1772643015869015800,6.369015869140625,0.011869301491975784,-0.0014411958012380637,-0.05297659796862863
1772643015879061000,6.37906103515625,0.012767127114534378,-0.006628601526631973,-0.021294196373363956
1772643015889106000,6.38910595703125,0.02817746221423149,0.007547885495750233,-0.012735651980747933
1772643015899149800,6.39914990234375,0.03341068669259548,0.010104084201029036,-0.01789615143290721
1772643015909195000,6.409195068359375,0.05510697019398212,-0.00023858311240328473,-0.013180084979732054
1772643015919239000,6.419239013671875,0.0750105250597,-0.009270039963105227,0.01687048447986599
1772643015929283800,6.429283935546875,0.07531213835477829,-0.00355457807588391,0.025310231648269108
1772643015939329000,6.4393291015625,0.08459083883166313,0.0025636582092382013,0.01256915229044389
1772643015949373000,6.449373046875,0.11332125875353813,0.009817147885274607,-0.0006515386943123303
1772643015959417900,6.45941796875,0.11137596990466117,-0.0040669183620600955,0.030338715918327215
1772643015969462800,6.469462890625,0.12199965524971484,0.020714583554235284,0.04509068529070355
1772643015979507000,6.4795068359375,0.1457908652037382,0.019708577999600674,0.0329553350073751
1772643015989551900,6.4895517578125,0.13965513892769812,-0.00013115666557569057,0.01879616216268623
1772643015999596800,6.4995966796875,0.12918050666451453,0.009420965341653209,0.030395115430816074
1772643016009641000,6.509640869140625,0.13217384326159953,-0.0051346731744473795,0.03167289626469137
1772643016019686000,6.519685791015625,0.1182587151557207,-0.009578151497629006,0.020630252571916207
1772643016029730800,6.529730712890625,0.10329553930163383,-0.004752462073962669,-0.001459752087946981
1772643016039775000,6.53977490234375,0.0982078607738018,-0.008172540749714245,-0.005903748717647977
1772643016049820000,6.54981982421875,0.0890799669444561,-0.013834368186979553,-0.02451627054227283
1772643016059863800,6.55986376953125,0.08758417542874812,-0.010407553809764795,-0.019208133647195064
1772643016069908700,6.56990869140625,0.06424129376411437,0.00032344838426215573,-0.03873869504863396
1772643016079954000,6.579953857421875,0.04957739311754703,-0.017124637337448075,-0.04716698924126103
1772643016089998000,6.589998046875,0.05810849009752273,-0.02359331961161224,-0.03727883107954403
1772643016100042800,6.600042724609375,0.05032908826768398,-0.045118057354819024,-0.017645800250896716
1772643016110088000,6.610087890625,0.04090367279648781,-0.057373841980309224,-0.032865320919652004
1772643016120132000,6.620132080078125,0.06858779853582382,-0.05718473544926382,-0.020967174642393366
1772643016130176800,6.6301767578125,0.07038344978094101,-0.048514695789478715,-0.02504365313395392
1772643016140222000,6.640221923828125,0.07861293346583843,-0.048711250408040356,-0.03889733794275671
1772643016150265900,6.650265869140625,0.10389935041368006,-0.026065374564239754,-0.013371490782429463
1772643016160311000,6.66031103515625,0.10569266357123851,-0.03567614055668236,0.003994090587866958
1772643016170355000,6.67035498046875,0.13127952477037905,-0.046785364945954644,0.011491442339622881
1772643016180399900,6.68039990234375,0.12394552862048148,-0.019268921640433836,0.00839173417505808
1772643016190445000,6.690445068359375,0.13980711461901663,-0.015092834682320243,0.0019063199618016369
1772643016200488700,6.70048876953125,0.1338227795124054,-0.015034300294960848,-0.003654259607673157
1772643016210534000,6.710533935546875,0.1170651214569807,-0.01888280611638911,0.0015758778644609265
1772643016220578800,6.720578857421875,0.11347674157619475,-0.01209713259821292,0.02378666849293513
1772643016230623000,6.730623046875,0.09163257403671742,0.01060223156507127,0.01541606843745103
1772643016240668000,6.74066796875,0.07053425642848014,-0.005581222781992983,0.014082867621909826
1772643016250712800,6.750712890625,0.058413610523939126,0.007023690374998841,-0.00682463327209698
1772643016260757000,6.760757080078125,0.04898702600896358,-0.01193590045478195,0.017211498203570954
1772643016270801700,6.7708017578125,0.01277531042098999,-0.026571584220440127,0.022359329970402176
1772643016280845800,6.780845703125,-0.022241642424464223,0.0005519393609138205,0.03543941604122519
1772643016290891000,6.79089111328125,0.01262275020778179,0.01879968071046751,0.03905162432217039
1772643016300936000,6.80093603515625,0.05332125582098961,0.021952854361629578,0.05310692808371968
1772643016310979800,6.810979736328125,0.08803484180569648,0.02846733712245477,0.04898444132623262
1772643016321024800,6.821024658203125,0.13935761728584767,0.03227653384680161,0.0711260620089015
1772643016331070000,6.831070068359375,0.2025064396381378,-0.006393260684085544,0.056427980531519276
1772643016341113900,6.84111376953125,0.19024024778306484,0.05494030839018523,0.018761832918110302
1772643016351158800,6.85115869140625,0.1866512833803892,0.028588719029398635,0.034485935258271636
1772643016361204000,6.861203857421875,0.200868609303236,0.012142903402121737,0.05200888544763438
1772643016371248000,6.871248046875,0.20371639994978905,-0.0030460257655475285,0.0500134373140987
1772643016381292800,6.881292724609375,0.18277590325176715,-0.020185018138622397,0.046169749231683085
1772643016391338000,6.891337890625,0.1446282511651516,-0.0362440629380173,0.04928970331654418
1772643016401382000,6.9013818359375,0.12997370286881924,-0.030292063765006604,0.01585842592706904
1772643016411426800,6.9114267578125,0.07551496745049953,-0.027424034048023165,-0.017346709989756345
1772643016421471000,6.921470947265625,0.0004021510601043701,-0.019039899799175326,0.0017647971658385359
1772643016431516000,6.931515869140625,-0.01755143878161907,-0.011649045195773942,0.004171709893806838
1772643016441560600,6.941560546875,-0.02278817039132118,-0.016725072101718978,-0.01884728499514749
1772643016451604500,6.9516044921875,-0.019496727630496025,-0.0197576961046434,-0.009097215563291683
1772643016461649400,6.9616494140625,0.00414484471976757,-0.024740299972938373,-0.015055621644202618
1772643016471694600,6.971694580078125,0.02060264304578304,-0.02712049594062846,-0.023662587738828733
1772643016481738200,6.98173828125,0.036761166164278984,-0.009002178240579087,-0.03860525052784942
1772643016491783400,6.991783447265625,0.04154606235325336,-0.015828918988083023,-0.027812779920571483
1772643016501828400,7.001828369140625,0.05904957033991813,-0.036369052440999076,-0.023503890045778825
1772643016511872300,7.011872314453125,0.07715221326351165,-0.03741128921963973,-0.011530545940727461
1772643016521917400,7.02191748046875,0.07699848400652408,-0.03590177970583318,0.009822077505430207
1772643016531962400,7.03196240234375,0.09165829299986362,-0.04783924421332776,-0.016527411229815332
1772643016542006500,7.042006591796875,0.11499649848937987,-0.031429666659922806,-0.03808947845885995
1772643016552051200,7.05205126953125,0.10810849254131316,-0.04064708595322445,-0.017076638043834826
1772643016562095400,7.062095458984375,0.1067564934104681,-0.028734020668047013,-0.0061467614099965425
1772643016572140500,7.072140625,0.10420563988387584,-0.010557463124871718,-0.008094692023820243
1772643016582185500,7.082185546875,0.10030804792344569,-0.011815504928526933,-0.014347000734100583
1772643016592229400,7.0922294921875,0.0589987169355154,0.005853534634062089,0.0009163248270517214
1772643016602274300,7.1022744140625,0.08427695057690143,-0.0016681387081975117,0.027009822657366747
1772643016612319500,7.112319580078125,0.07319500007033347,-0.017094794755033216,0.04228500761967152
1772643016622363400,7.12236328125,0.0504413164705038,0.021726495976559818,0.03782214189271908
1772643016632408300,7.132408203125,0.0667412938863039,0.024027964152232743,0.0350067670948687
1772643016642453500,7.14245361328125,0.07615794152915477,0.030449603830720297,0.05465693400469608
1772643016652497400,7.152497314453125,0.1386982765942812,0.001259790802747011,0.03454754523541778
1772643016662542300,7.162542236328125,0.15874270123541354,0.024977474296255967,0.05877431532880291
1772643016672587500,7.17258740234375,0.18537351852953432,0.0449823295454029,0.060617449844302604
1772643016682631400,7.18263134765625,0.18387305083870886,0.046551250229403374,0.07395550871458835
1772643016692676400,7.19267626953125,0.17713818962574004,0.036125937000662085,0.0840033212672919
1772643016702720500,7.202720458984375,0.22009002712368964,0.052407552209286945,0.06829958814501297
1772643016712765400,7.212765380859375,0.1996007813245058,0.048770894473674706,0.10512080936687998
1772643016722810600,7.222810546875,0.14589491010010242,0.04090406552213244,0.07880235509071498
1772643016732854300,7.232854248046875,0.1189735854268074,0.047996046776813454,0.07265534936883486
1772643016742899500,7.2428994140625,0.10626724858880042,0.03810002496904926,0.06802368924650364
1772643016752944400,7.2529443359375,0.12154255913197994,0.04072344825821928,0.04942441734580789
1772643016762988300,7.26298828125,0.11108020182847976,0.042493933096039105,0.05544494257722981
1772643016773033500,7.273033447265625,0.10435878461897373,0.033609314537234605,0.03398939076284878
1772643016783078400,7.283078369140625,0.07384265032410621,0.03329540344958659,0.021538878149702213
1772643016793122300,7.293122314453125,0.0500578701108694,0.031203312841430304,0.0149655847235932
1772643016803167200,7.303167236328125,0.03464811953306198,0.02836661441104952,0.000995886019419413
1772643016813211400,7.31321142578125,0.053202597877383226,0.029727977308572733,-0.012742054322070907
1772643016823256600,7.323256591796875,0.07250526424050331,0.020267264478420838,-0.032458338420803194
1772643016833301200,7.33330126953125,0.11365618979632854,0.018128810552955836,-0.027673191070079334
1772643016843345400,7.343345458984375,0.1331120008945465,-0.00018345767497085033,-0.032398488859192
1772643016853390300,7.353390380859375,0.14852935025691985,-0.004513317272556014,-0.03438852788195945
1772643016863435500,7.363435546875,0.12564064210057257,0.0062088132034929,-0.04930722984008025
1772643016873479400,7.3734794921875,0.09646423197686671,0.012443643339298432,-0.062498989274585616
1772643016883524400,7.3835244140625,0.0663882426649332,0.010583650162187404,-0.07404240154675208
1772643016893569500,7.393569580078125,0.0259855051279068,0.010818833457818254,-0.08280311516467481
1772643016903613400,7.403613525390625,0.0024894787281751632,0.008269614765886217,-0.0594999627222307
1772643016913658400,7.413658447265625,-0.01846387745141983,-0.023280278456932865,-0.04551606652934569
1772643016923702500,7.42370263671875,-0.035974984222650525,-0.03789568205296527,-0.02064113015895709
1772643016933747200,7.433747314453125,-0.029543489870429037,-0.06620681711684447,-0.007759911678079515
1772643016943792400,7.44379248046875,-0.01772621082663536,-0.048695057325065134,0.01280443833406316
1772643016953836500,7.45383642578125,-0.00830196439921856,-0.0482415733699454,0.03065070447694743
1772643016963881500,7.463881591796875,0.025214520755410193,-0.043661912862909956,0.049091719359299166
1772643016973926400,7.473926513671875,0.05798398693501949,-0.019449415606760886,0.08168499785494059
1772643016983970300,7.48397021484375,0.04496317732036113,-0.02299540623410139,0.10194373196703381
1772643016994015500,7.494015380859375,0.0401718513906002,-0.026685762351751324,0.10283076220094226
1772643017004060400,7.504060302734375,0.04854980363547802,-0.013098206249403301,0.09676982732731848
1772643017014104300,7.514104248046875,0.07952537213563919,-0.005226453385927016,0.10646008601346985
1772643017024149500,7.5241494140625,0.09583879355490207,0.006383475650654872,0.09472306913165375
1772643017034194400,7.5341943359375,0.1184375788539648,0.009945361391804181,0.05122712395279668
1772643017044238300,7.54423828125,0.1545043330132961,0.023237624342006165,0.011437052121129818
1772643017054283300,7.554283203125,0.15779869838356972,0.04061947186051402,-0.010721209169086069
1772643017064327400,7.564327392578125,0.16782734044492242,0.022402885984338355,-0.026321443100983742
1772643017074372400,7.574372314453125,0.18967793772518635,0.034956096353556496,-0.051748837138805535
1772643017084417300,7.584417236328125,0.193570853510499,0.03732767975652823,-0.06630079271034338
1772643017094461400,7.59446142578125,0.16798282326757907,0.008386537410132587,-0.07735906094722449
1772643017104506400,7.60450634765625,0.16977496738135814,-0.015262924843997461,-0.07420025898958556
1772643017114551300,7.61455126953125,0.14732172803282736,-0.009727104114799294,-0.06979663090289104
1772643017124595500,7.624595458984375,0.11169979503154753,-0.01745416840262478,-0.07234192233837675
1772643017134640400,7.634640380859375,0.08505553373396396,-0.017974180538603102,-0.07467753937882371
1772643017144685600,7.644685546875,0.03985854765772819,-0.023910443286364897,-0.06660392210907302
1772643017154729500,7.6547294921875,0.045540100425481796,-0.01698655774074141,-0.04988608460738323
1772643017164774400,7.6647744140625,0.06035013154447078,-0.001558136711793486,-0.047038663853588514
1772643017174818300,7.674818359375,0.05840075104236602,-0.023270289069169666,-0.031068621645052915
1772643017184863200,7.68486328125,0.06497837586700916,-0.041184430533205155,-0.021901690429972948
1772643017194908400,7.694908447265625,0.045668110719323154,-0.033952122925804,-0.002018249053810723
1772643017204952600,7.70495263671875,0.02037175689935684,-0.049477522072801365,0.01886324061610503
1772643017214997200,7.714997314453125,0.007495324191451072,-0.04678652029000222,-0.0009120368110015987
1772643017225042400,7.72504248046875,0.001954056677222252,-0.03917933778848964,-0.037104063601105006
1772643017235086300,7.73508642578125,0.017661913418769836,-0.04161340110157616,-0.025667221542529296
1772643017245131500,7.745131591796875,0.04414250858724117,-0.06235084037501364,-0.025585637356434016
1772643017255176200,7.75517626953125,0.014510171389579772,-0.04715733093034941,-0.08668196589201688
1772643017265220400,7.765220458984375,-0.00015548282265663146,-0.06000963384399656,-0.10216838016891851
1772643017275265500,7.775265625,0.016007131949067114,-0.05829162811208516,-0.07828930926835163
1772643017285310500,7.785310546875,0.05057867911458015,-0.08306854290151969,-0.08413005291949957
1772643017295354400,7.795354248046875,0.0733294401049614,-0.06342074832858052,-0.053575952101266006
1772643017305399300,7.8053994140625,0.10565583869218825,-0.11777990952967665,-0.03907924298145808
1772643017315443200,7.815443115234375,0.09383505251705646,-0.09993095823936164,-0.08893643028791993
1772643017325488400,7.82548828125,0.0745318016320467,-0.07226518100746906,-0.13496699024462142
1772643017335533300,7.835533203125,0.04894552495479584,-0.09392662152433767,-0.09411247208579443
1772643017345577500,7.845577392578125,0.035781507477164264,-0.06730339388162829,-0.025422948474856093
1772643017355622400,7.855622314453125,0.07693827825188636,-0.0698417760857148,-0.04282632055529393
1772643017365667300,7.865667236328125,0.0959510217577219,-0.050070597161701876,-0.027604281419178003
1772643017375711500,7.87571142578125,0.09326455915272236,-0.051703659989940934,-0.02246904198914999
1772643017385756400,7.88575634765625,0.08623626795113086,-0.03483672374060843,-0.017398725588072556
1772643017395801300,7.89580126953125,0.06992869175076484,-0.03266769315543352,0.008295052884530741
1772643017405845500,7.905845458984375,0.05077566299140453,-0.01386215352633735,0.026093264934874603
1772643017415890400,7.915890380859375,0.06319324601590633,-0.007247694689489435,0.06358206723697948
1772643017425935600,7.925935546875,0.0991051018744707,-0.0037556467560702,0.10799248321251943
1772643017435979300,7.935979248046875,0.10299860218167305,0.007618427698023151,0.10194452655147761
1772643017446024400,7.9460244140625,0.11258125404119491,0.005364461059041786,0.10055943800178356
1772643017456068400,7.956068359375,0.11109306131005287,0.013785485260665881,0.10855629110774025
1772643017466113300,7.96611328125,0.10646189437806605,0.003468459278566297,0.11317940259743481
1772643017476158500,7.976158447265625,0.15240823751688,-0.014525330142804885,0.09542486985861323
1772643017486202400,7.986202392578125,0.18428747685849667,-0.024812369695305824,0.08752314769020303
1772643017496247300,7.996247314453125,0.19461656317114828,-0.043543633945216424,0.06850096050258725
1772643017506292200,8.006292236328125,0.1765121666818857,-0.044253312017954884,0.043674279154138636
1772643017516336400,8.01633642578125,0.15780571264624596,-0.054470535453967746,0.047561724179890005
1772643017526381600,8.026381591796875,0.1142588318645954,-0.05676629084148444,0.04736860819400754
1772643017536426200,8.03642626953125,0.07639876454770565,-0.04071080797235481,0.028846047941467258
1772643017546470400,8.046470458984375,0.05963876840472221,-0.045216668024240056,0.04110493098963052
1772643017556515300,8.056515380859375,0.05245850151181221,-0.04744239038284868,0.04212626882742625
1772643017566560500,8.066560546875,0.03675006024837494,-0.03929483109405264,0.02300645963436691
1772643017576604400,8.0766044921875,0.031066753914952276,-0.03815574406152591,0.02668742458587512
1772643017586649300,8.0866494140625,0.0403460389137268,-0.039921141732274554,0.02368722442316357
1772643017596693200,8.096693359375,0.06323942324519156,-0.05592346507548354,0.004070194881246425
1772643017606738400,8.106738525390625,0.07819850744605064,-0.05586758386951405,0.006720074635790661
1772643017616783400,8.116783447265625,0.09555120878517627,-0.03464285426947754,0.027402607667504342
1772643017626827500,8.12682763671875,0.12038637483417987,-0.029361395318771244,0.0974607596003916
1772643017636872200,8.1368720703125,0.13684475768208504,-0.059979119974724014,0.05916431016023271
1772643017646917400,8.14691748046875,0.14851649077534676,-0.03278531220271252,0.05678807341502979
1772643017656961500,8.15696142578125,0.14148527696430682,-0.026242304317012893,0.07295783031359314
1772643017667006500,8.16700634765625,0.1320575234055519,-0.010260847948607987,0.06980318850784097
1772643017677051400,8.177051513671875,0.21091770963072776,-0.012488216558319982,0.0907827796738129
1772643017687095300,8.18709521484375,0.21256839944720268,-0.02811806017719209,0.1284233407548163
1772643017697140500,8.197140380859375,0.17201894691586495,-0.03639964165879646,0.09619595469580963
1772643017707185400,8.207185302734375,0.18923662369847297,-0.01653713233116432,0.10127150439443067
1772643017717229300,8.217229248046875,0.15648177056610582,0.0017852825460300662,0.16083779208483173
1772643017727274500,8.2272744140625,0.06042261225879192,-0.035102135494432876,0.11716668213531374
1772643017737318400,8.237318359375,0.09259703515470027,-0.047944709315220824,0.07115884546707384
1772643017747363300,8.24736328125,0.08241817096769809,-0.029598039919126313,0.07880078418813645
1772643017757408300,8.257408203125,0.06744330467581748,-0.045971422781143335,0.05559316454203799
1772643017767452400,8.267452392578125,0.036598669078946114,-0.049489011581195515,0.04140685024538543
1772643017777497300,8.277497314453125,-0.032706337815523144,-0.05302594440253451,-0.0021921351828379557
1772643017787542300,8.287542236328125,-0.1196621522128582,-0.02085633924563881,-0.04332092653866857
