time,seconds_elapsed,z,y,x
1772731636575095300,0.04709521484375,0.5334761775821447,0.28038097582682964,-0.45253421664685006
1772731636585123300,0.057123291015625,0.5190408249944448,0.1566733476154506,-0.2665407943869941
1772731636595150600,0.067150634765625,0.362883464077115,0.05674626183360815,-0.07541136094555258
1772731636605178400,0.077178466796875,0.12691840695142745,0.0035766894429922103,-0.010912822751048951
1772731636615206400,0.087206298828125,0.05248538951873779,0.05529489398151636,-0.06438139635454863
1772731636625234400,0.097234375,0.09681260702311992,0.12275310396552085,-0.19983462661299853
1772731636635262500,0.107262451171875,0.22778818041086196,0.18323957524076104,-0.3314692484313622
1772731636645290500,0.11729052734375,0.24903847371041773,0.20319193768426774,-0.3612509309718385
1772731636655318500,0.127318603515625,0.2444739422738552,0.19815920421406624,-0.35017066096570343
1772731636665346300,0.13734619140625,0.26152970649302004,0.20202698555812237,-0.28744026495488356
1772731636675374600,0.14737451171875,0.3261035932123661,0.18358707350417972,-0.21104261465203017
1772731636685402400,0.15740234375,0.4251718702077865,0.13446049289405346,-0.14185387281468137
1772731636695430400,0.167430419921875,0.36689094615280626,0.0878755595907569,-0.08291558082951232
1772731636705458400,0.17745849609375,0.25009645833075045,0.038111119468510146,-0.02853005677787587
1772731636715485400,0.1874853515625,0.12971183706223963,-0.015628215634077788,0.032301538140606136
1772731636725513500,0.197513427734375,0.11576748286187648,-0.07988602214157581,0.10277975353291258
1772731636735541200,0.207541259765625,0.14678396789431572,-0.10150222614407539,0.13644381219837814
1772731636745569500,0.217569580078125,0.16180091976225375,-0.11787629170939326,0.11836489721024408
1772731636755597300,0.227597412109375,0.11061609144806861,-0.09859481426477432,0.09188251194348558
1772731636765625600,0.23762548828125,0.017393617871403692,-0.07540113181248306,0.05380745016904547
1772731636775653400,0.2476533203125,-0.025927637460827827,-0.022361469411849973,0.02502933691423386
1772731636785681400,0.257681396484375,-0.11529285108745098,-0.019019027116149664,0.05308253342797979
1772731636795709400,0.26770947265625,-0.2405173136025667,-0.06472717758491635,0.10640382578158751
1772731636805737500,0.277737548828125,-0.33325112687945363,-0.08832301109731197,0.1615782717212103
1772731636815765500,0.287765625,-0.33783962371349335,-0.0893615603648126,0.16444778100922702
1772731636825792300,0.297792236328125,-0.2976683568447828,-0.09480258237496018,0.14014257538476957
1772731636835820500,0.307820556640625,-0.25595336766541005,-0.10498875308558345,0.10678195664528757
1772731636845848300,0.317848388671875,-0.19739771832227707,-0.1368377434194088,0.11182675501261836
1772731636855876400,0.32787646484375,-0.11991057401597499,-0.1611808881677687,0.12324472340736538
1772731636865904400,0.337904296875,-0.06356967811286449,-0.19256562199071048,0.15446385487243533
1772731636875932400,0.347932373046875,-0.04093991315364837,-0.17702333107441662,0.21235424523986876
1772731636885960400,0.35796044921875,-0.03906359788775444,-0.13987258107066153,0.16786580929178743
1772731636895988500,0.367988525390625,-0.02866846060156822,-0.13400149708017706,0.09378169662831351
1772731636906016300,0.378016357421875,-0.004656885895133018,-0.08912380608618259,0.04822796040312387
1772731636916044500,0.38804443359375,0.012892214798927307,-0.0348946416400373,-0.019245154889067632
1772731636926072300,0.398072265625,0.009305003961920738,0.014684943434596061,-0.06287947649215347
1772731636936100600,0.4081005859375,-0.027259178325533866,0.04265460811704397,-0.08938235655766912
1772731636946127400,0.41812744140625,-0.08375029635429382,0.0681819942139089,-0.10666012036390601
1772731636956155400,0.4281552734375,-0.15570143384337423,0.11437427493780851,-0.1441448880949989
1772731636966183400,0.438183349609375,-0.13953531194031238,0.15317878349795935,-0.17833503472749143
1772731636976211200,0.448211181640625,-0.030613164928555488,0.1750087763816118,-0.19230729984808712
1772731636986239500,0.458239501953125,0.08225976553559303,0.1686642296604812,-0.19251345341205595
1772731636996267300,0.468267333984375,0.12952479005753995,0.20359335809201,-0.2171680021971464
1772731637006295600,0.478295654296875,0.06161562143564224,0.21660350018218158,-0.1894009474147111
1772731637016323300,0.4883232421875,0.006024082595109939,0.2183636417225003,-0.16291278999429196
1772731637026351400,0.498351318359375,-0.004459902018308639,0.18994535648971794,-0.14000480174873955
1772731637036379400,0.50837939453125,0.1140583408564329,0.16202902942970393,-0.09801261219633743
1772731637046407400,0.518407470703125,0.29797932249009607,0.16139847644120453,-0.03660863335053436
1772731637056435500,0.528435546875,0.4418231452792883,0.1780304622903466,-0.05053862109882757
1772731637066462500,0.53846240234375,0.4074281237244606,0.17809665939435362,-0.10646312735392711
1772731637076490500,0.548490478515625,0.13653905273377895,0.1634099623940885,-0.11094806334879248
1772731637086518500,0.5585185546875,-0.1348059453308582,0.24704686150178312,-0.09490791504611261
1772731637096546300,0.56854638671875,-0.24921558384299278,0.3348417570717633,-0.0845570735593792
1772731637106574300,0.57857421875,-0.2574965054541826,0.32969343439787624,-0.08834910451979376
1772731637116602400,0.588602294921875,-0.10147650718092918,0.2835350559435785,-0.045021026721131056
1772731637126630400,0.59863037109375,0.17804010690152644,0.25496830215081573,0.013232762731751425
1772731637136658400,0.608658447265625,0.35537703396975995,0.18406404336616397,0.046636215965962034
1772731637146686200,0.618686279296875,0.38343057754337784,0.09989975938349961,0.0988496749418322
1772731637156714500,0.628714599609375,0.3461287286311388,0.04803045593649149,0.1538411929294467
1772731637166742300,0.6387421875,0.2479465868204832,-0.02018456376418471,0.17122752254353835
1772731637176769500,0.64876953125,0.10192483547031879,-0.03194558257609605,0.19765647885631768
1772731637186797300,0.65879736328125,0.07260638652741909,0.018314239847660063,0.18245058028753847
1772731637196825600,0.66882568359375,0.13993687847852707,0.055831923467665905,0.1445933899143245
1772731637206853400,0.678853271484375,0.2872732195585966,-0.0029579730227589605,0.13443389714807272
1772731637216881400,0.68888134765625,0.38560558349490165,-0.03846797008216381,0.17475914900209755
1772731637226909400,0.698909423828125,0.31658173162937164,-0.05256546901762485,0.17585346531113608
1772731637236937500,0.7089375,0.20391513739228248,-0.08033844208419323,0.18493196704080328
1772731637246965500,0.718965576171875,0.13086451422870157,-0.12864420783072708,0.16675996694173664
1772731637256993300,0.7289931640625,0.12250059050917625,-0.128968909740448,0.14930449934788048
1772731637267021300,0.739021240234375,0.17490940766036508,-0.09419219539165496,0.14154578411304392
1772731637277049300,0.74904931640625,0.19656711271703242,-0.08945654517188668,0.12150163346654735
1772731637287077400,0.759077392578125,0.18454349744617937,-0.07566489731520414,0.1142587222667411
1772731637297105400,0.76910546875,0.13289280518591404,-0.06795110806748271,0.1286818181610666
1772731637307132400,0.77913232421875,0.03964169003665447,-0.05350669539049267,0.1018492860160768
1772731637317160400,0.789160400390625,-0.08046937498748302,-0.011849281617254018,0.07009032575299497
1772731637327188500,0.7991884765625,-0.09231471108198165,0.020346330197155475,0.060664777851058165
1772731637337216300,0.80921630859375,-0.048580783295631404,0.03237286807745695,0.03560320318463491
1772731637347244500,0.81924462890625,-0.04398994837403297,0.040396746187657116,0.019075450603169154
1772731637357272300,0.829272216796875,-0.07379705761671065,0.04188786152824759,0.027738353844336233
1772731637367300600,0.839300537109375,-0.06678980920314788,0.0744663351804018,-0.021381564129563047
1772731637377328600,0.84932861328125,-0.028065234011411665,0.09432926577478647,-0.10388039911803788
1772731637387356400,0.8593564453125,0.026540216401219365,0.1165082182265818,-0.11480485750795341
1772731637397384700,0.869384765625,0.05243161350488663,0.13756664221584797,-0.10320262772063724
1772731637407412500,0.87941259765625,0.08865852666199207,0.14092062881886958,-0.13891507941642775
1772731637417439700,0.889439697265625,0.12017945408523081,0.12464300936535,-0.14110327364308758
1772731637427467500,0.899467529296875,0.1615595122218132,0.10245061291009187,-0.1019189811182674
1772731637437495800,0.909495849609375,0.18351240083277223,0.060398208469897505,-0.06668754527191631
1772731637447523600,0.919523681640625,0.19128537292182443,0.06623626697361469,-0.05622563092641066
1772731637457551600,0.929551513671875,0.192298933878541,0.057200435341894625,-0.09149427067772485
1772731637467579600,0.93957958984375,0.21601590955257413,0.04547945627942681,-0.07588536709889303
1772731637477607700,0.949607666015625,0.264179928740859,0.017648469415307046,-0.039581420349935066
1772731637487635700,0.9596357421875,0.25401509307920933,-0.0023890870936214923,-0.045274051634129134
1772731637497663700,0.969663818359375,0.2058224323183298,-0.02370586975812912,-0.046814426643657495
1772731637507691500,0.97969140625,0.14130232161283493,-0.026552491360902784,-0.013569584337528794
1772731637517719600,0.989719482421875,0.04204232143759727,-0.030649405285716056,-0.03177739553549327
1772731637527747600,0.99974755859375,-0.0021691607326269147,-0.018966712407022714,-0.039335418832767755
1772731637537774600,1.009774658203125,-0.0016126958936452864,0.0030776538796722886,-0.03531777383937733
1772731637547802600,1.019802734375,0.020061375775933265,-0.018518237987160683,-0.03696294951380696
1772731637557830700,1.02983056640625,0.042031800043582916,-0.022628888176381586,-0.021427999370463656
1772731637567858700,1.039858642578125,0.014508417823910713,-0.03245850053429603,-0.008335056101356167
1772731637577886500,1.049886474609375,-0.06120294898152351,-0.034203152244538064,-0.02233133000191301
1772731637587914800,1.059914794921875,-0.13127718668282032,-0.012096972768008708,-0.020546305182087235
1772731637597942500,1.069942626953125,-0.13154898936152457,0.00405599739253521,-0.029017123342189005
1772731637607970800,1.079970703125,-0.12404022116661072,-0.012841945916414261,-0.04797636939538642
1772731637617998600,1.08999853515625,-0.09427695106565952,0.005003068984299898,-0.06376717344634235
1772731637628026600,1.100026611328125,-0.0730938777834177,0.01751505229398608,-0.030706309404992495
1772731637638054700,1.1100546875,-0.0906482391744852,-0.03305149799138307,-0.008573200822342187
1772731637648082700,1.120082763671875,-0.05907470478117466,-0.018881079950183628,0.0016423558129696175
1772731637658109700,1.130109619140625,-0.005065466696023941,-0.003784486974775791,-0.03375116612676065
1772731637668137500,1.140137451171875,0.05762392145097255,-0.004529752384126186,-0.09762578656952828
1772731637678165800,1.150165771484375,0.10411328542530536,-0.020330548106133935,-0.11372078859829343
1772731637688193500,1.160193603515625,0.08123159153163433,-0.037083822247385975,-0.05044219325333833
1772731637698221600,1.1702216796875,0.08706862712204456,-0.05467705434411764,-0.0018138033897383138
1772731637708249600,1.18024951171875,0.0823264010310173,-0.043118864627927536,0.01592890191397164
1772731637718277600,1.190277587890625,0.05698971520066261,-0.02907835657671094,0.02626968779757153
1772731637728305700,1.2003056640625,0.015415011274814604,-0.021741730078309773,0.01587355499754194
1772731637738333700,1.210333740234375,-0.03887479731738567,-0.008415507776290177,-0.006344838982075452
1772731637748361500,1.220361572265625,-0.09433715682029724,0.027454116375744343,-0.023649289865838363
1772731637758389800,1.2303896484375,-0.059903556820750235,0.030002339553833007,-0.03526115513117984
1772731637768416800,1.240416748046875,0.04530395358204841,-0.014235884492844342,0.015057589839003047
1772731637778444500,1.250444580078125,0.14840776970386504,-0.06322860959023237,0.043816601101122794
1772731637788472600,1.26047265625,0.18591829293072223,-0.07866422526165842,0.0675389790360583
1772731637798500600,1.27050048828125,0.14861527497470378,-0.10760872632563113,0.0963779967318289
1772731637808528600,1.280528564453125,0.09596271219551562,-0.07905161714404821,0.084895950124925
1772731637818556700,1.290556640625,0.042221769657731056,-0.05691957257390022,0.05294053570798132
1772731637828584700,1.300584716796875,0.02052256354689598,-0.04402195094749331,0.009176189950481056
1772731637838612500,1.310612548828125,0.028855507606267927,-0.03038973143622279,-0.009478748527052811
1772731637848640800,1.320640869140625,-0.0052186114311218255,0.012022884618490933,-0.049710700641013676
1772731637858668500,1.33066845703125,0.006374211207032203,0.020942834785580632,-0.07877625253507867
1772731637868696600,1.340696533203125,-0.0006757073044776916,-0.0017919979833066462,-0.05317354074625764
1772731637878723600,1.3507236328125,-0.02154781494140625,0.013729980797320603,-0.04235732850378845
1772731637888751600,1.360751708984375,-0.012438625812530517,0.024131986215710638,-0.06695676783446688
1772731637898779600,1.370779541015625,-0.033595980131626124,0.06058890873640775,-0.1035511945631355
1772731637908807400,1.380807373046875,-0.03337970703244209,0.096093498968333,-0.1002961291567888
1772731637918835700,1.390835693359375,-0.02320727258622646,0.08380509528145194,-0.0822501939896494
1772731637928863500,1.400863525390625,-0.017583587485551833,0.0788970111042261,-0.03946294963599648
1772731637938891800,1.410891845703125,0.004678513205051422,0.07415215466469526,-0.04405744238598272
1772731637948919600,1.42091943359375,0.02382394317984581,0.08365838028714061,-0.03215188683711458
1772731637958947600,1.430947509765625,0.01719604947268963,0.07849354486986994,-0.03428991721253842
1772731637968975600,1.4409755859375,0.04405015412867069,0.09341492740884423,-0.07996921604615635
1772731637979003600,1.451003662109375,0.07981529499292374,0.10325272307321429,-0.09758176476471125
1772731637989031700,1.46103173828125,0.14494856916069984,0.08572261934056878,-0.08769297869862057
1772731637999058700,1.47105859375,0.1782768382668495,0.05550999803692102,-0.05629050828958861
1772731638009086700,1.481086669921875,0.1924246060848236,0.025685353137552738,-0.03183579292553477
1772731638019114800,1.49111474609375,0.196319859957695,0.019952216313034295,-0.015883149376371874
1772731638029142500,1.501142578125,0.2033908212572336,-0.002544862177222967,-0.008663162394426762
1772731638039170600,1.511170654296875,0.17248539538383484,-0.015322364555299282,0.0045647323659621175
1772731638049198600,1.521198486328125,0.13134908287525177,-0.00126768184825778,0.0073114281250629565
1772731638059226600,1.5312265625,0.045052609169483185,0.004280453798174858,0.01588293931381777
1772731638069254700,1.541254638671875,-0.02281915005147457,-0.012234335412085056,0.01657651563512627
1772731638079282400,1.551282470703125,-0.0516267268627882,-0.009159311880916357,0.0253541575549636
1772731638089310700,1.561310791015625,-0.0553559765189886,-0.003586334054172039,0.034952650871011424
1772731638099338500,1.57133837890625,-0.07854512892663479,-0.03151435155197978,0.061620836466876786
1772731638109365800,1.58136572265625,-0.08305588434934616,-0.03433919971436262,0.07182015435344073
1772731638119393500,1.5913935546875,-0.06881693111658096,-0.039895372536778446,0.07916463993131183
1772731638129421800,1.601421875,-0.0833241798967123,-0.0511069407723844,0.08152787106446921
1772731638139449600,1.61144970703125,-0.09927110609114169,-0.04087590800672769,0.08866045375759712
1772731638149477600,1.6214775390625,-0.11559504890441893,-0.006080342826992273,0.07068331864350474
1772731638159505700,1.631505615234375,-0.1526402927070856,0.00267652573287487,0.005079696150775998
1772731638169533700,1.64153369140625,-0.1417173321545124,0.014876374353468417,-0.03422624085918069
1772731638179561700,1.651561767578125,-0.10705226148664951,0.013705723138898611,-0.036068763453327116
1772731638189589800,1.66158984375,-0.059624155357480044,0.0339434783950448,-0.05829086092710495
1772731638199617500,1.671617431640625,-0.020038579422235487,-0.0003121346890926361,-0.028477879066066816
1772731638209645600,1.6816455078125,0.01634498560130596,0.0030943127535283566,-0.0138767871231772
1772731638219672600,1.691672607421875,0.06301438231766224,-0.010377163238078356,-0.02018233527448028
1772731638229700600,1.70170068359375,0.10457681128382683,-0.007438187176734209,-0.039742428731080144
1772731638239728600,1.711728759765625,0.15137947899103163,-0.008668459624052048,-0.039297991165518756
1772731638249756700,1.721756591796875,0.18879589419364928,-0.014538959092646837,-0.02636954514258541
1772731638259784700,1.73178466796875,0.20187749408483505,-0.03726955407783389,-0.0055301067993976175
1772731638269812500,1.7418125,0.20602116976082324,-0.03624985564127564,0.002863974596373737
1772731638279840800,1.7518408203125,0.18718144473433493,-0.026672026087343693,-0.0033597404903732237
1772731638289868500,1.76186865234375,0.14569383457005022,-0.005485591804236173,-0.027601087098382413
1772731638299896800,1.771896728515625,0.15492051259875297,0.005158697937428951,-0.05731763198077678
1772731638309924600,1.781924560546875,0.16885434540510177,-0.01152282614186406,-0.051461325434315947
1772731638319952600,1.79195263671875,0.19832126290798185,-0.011328764874488115,-0.0403581312103197
1772731638329979600,1.801979736328125,0.21444588375687598,-0.02811111897975206,-0.012322442953800783
1772731638340007400,1.81200732421875,0.24454934559762476,-0.04547741045281291,0.009378740484989248
1772731638350035700,1.82203564453125,0.230068984824419,-0.05500467886328697,0.05576027843698393
1772731638360063500,1.8320634765625,0.16735504675805568,-0.04044350793883204,0.12197232885137199
1772731638370092000,1.842092041015625,0.037602877685427666,-0.035626316915452476,0.16550764705939217
1772731638380120300,1.852120361328125,-0.052453825336694716,-0.015101853672415018,0.1583383034192957
1772731638390148000,1.862148193359375,-0.1478863761782646,0.02423515432924032,0.14108711709273047
1772731638400176000,1.872176025390625,-0.19223639003634452,0.038988048433512446,0.11393067762246355
1772731638410204200,1.8822041015625,-0.20361644670665263,0.07269859485551715,0.06776545386884827
1772731638420232000,1.89223193359375,-0.19335925658643244,0.07612476991191507,0.08091908238320611
1772731638430260200,1.90226025390625,-0.21996026326417922,0.028901392574608324,0.09688889626287854
1772731638440288000,1.9122880859375,-0.2232768404662609,0.00010433715730905532,0.09274161299085244
1772731638450315300,1.922315185546875,-0.17397943333387375,0.0022943945474922654,0.08702321707773954
1772731638460343000,1.932343017578125,-0.09247019390463829,-0.005494798023998737,0.04500534509480931
1772731638470371300,1.942371337890625,0.012498247045278549,-0.027972879552841185,0.024317606165015604
1772731638480399000,1.952399169921875,0.10898410633206367,-0.03393675639331341,0.001516582571165054
1772731638490427100,1.96242724609375,0.18129414026141166,-0.04024988506287336,0.024937603510171172
1772731638500455200,1.972455078125,0.21294307797849177,-0.06640256345123052,0.03610809081671759
1772731638510483200,1.982483154296875,0.1873568013012409,-0.061333881884813306,0.05743501584932673
1772731638520511200,1.99251123046875,0.14216507592201233,-0.04102013878300786,0.004198032786796102
1772731638530539300,2.002539306640625,0.08318798629641533,-0.005363572859764099,-0.050817944930284284
1772731638540567000,2.012567138671875,0.04301671942770481,0.030504736118018624,-0.08344117560619488
1772731638550595000,2.022594970703125,0.009588497078418731,0.0649874359562993,-0.09866634513102471
1772731638560622300,2.032622314453125,0.035620763957500454,0.07605623472034931,-0.16435975566590205
1772731638570650000,2.042650146484375,0.018738018217682836,0.09672565939202904,-0.18343931733025237
1772731638580678100,2.05267822265625,0.0066606269329786295,0.10669862574338912,-0.20471574971806256
1772731638590706200,2.0627060546875,-0.016536124259233474,0.1007030385904014,-0.22927569728856906
1772731638600734200,2.072734130859375,-0.037648470392823215,0.10286430827751755,-0.23029097527833653
1772731638610762200,2.08276220703125,-0.04991641581356525,0.13449936359971762,-0.21087746895188464
1772731638620790300,2.092790283203125,-0.0036357261538505553,0.13860986765846608,-0.20212363259932026
1772731638630818000,2.102818115234375,0.07633329809606075,0.15295783422365783,-0.2060562593405135
1772731638640846300,2.112846435546875,0.1533282749712467,0.12439751017168163,-0.18165553918601943
1772731638650874000,2.1228740234375,0.17102175257205962,0.10344342333972453,-0.17204809994511305
1772731638660901000,2.132901123046875,0.11120295142531395,0.10505217371061444,-0.12952069840431213
1772731638670929200,2.14292919921875,0.09639993456900119,0.0832674812734127,-0.09338194758784957
1772731638680957200,2.152957275390625,0.11878946103155612,0.07463423909321427,-0.08852193120289593
1772731638690985200,2.162985107421875,0.1940326258033514,0.07320172207206488,-0.09759347346881404
1772731638701013000,2.173012939453125,0.2549520816683769,0.07006707730814814,-0.039875699721928684
1772731638711041300,2.183041259765625,0.2800707408338785,0.04533054932802915,0.04282837551506236
1772731638721069000,2.193069091796875,0.2669610838919878,0.02156403542384505,0.121144024801068
1772731638731097300,2.203097412109375,0.25300796186327934,-0.003071370269358158,0.12705165967596693
1772731638741125000,2.213125,0.24209260009527206,-0.011633593039959669,0.10086422963463701
1772731638751153200,2.223153076171875,0.20244857197105884,0.004440905056893825,0.07830612340583465
1772731638761181200,2.23318115234375,0.16738310380876062,0.008297142093628645,0.054022545091295615
1772731638771208000,2.2432080078125,0.11208908661007881,-0.005101268661767244,0.05038382326276041
1772731638781236200,2.253236328125,0.03888122705817222,-0.02509352472424507,0.07006817328669131
1772731638791264000,2.263263916015625,-0.023855507361888885,-0.05457520140483975,0.09699520618156529
1772731638801292300,2.273292236328125,-0.028427053061127663,-0.0649354135081172,0.10407200356684625
1772731638811320000,2.283320068359375,0.017854805642366408,-0.07365721075460314,0.08923794311829843
1772731638821348000,2.29334814453125,0.11783902843892574,-0.10385478061959147,0.08208936827159487
1772731638831376100,2.303376220703125,0.16410510505139828,-0.11225436017438768,0.06915477563566527
1772731638841404200,2.313404052734375,0.1505044497221708,-0.1558199456565082,0.0766031417131191
1772731638851432200,2.32343212890625,0.14041384834051132,-0.17963292905092237,0.10773873678031377
1772731638861460200,2.333460205078125,0.1105254905551672,-0.19104732638224958,0.15784125888366252
1772731638871488000,2.343488037109375,0.03656359776556491,-0.19081366375684736,0.13807716728756203
1772731638881515300,2.353515380859375,-0.006598083090782165,-0.13527809288725257,0.06314788163737393
1772731638891543000,2.36354296875,-0.013761983370780944,-0.0996802714139223,-0.032814031407120636
1772731638901571300,2.3735712890625,-0.031388825476169585,-0.06250117209851741,-0.09859406534610315
1772731638911599000,2.38359912109375,-0.056340311381220816,-0.04825988077819347,-0.14176992085827514
1772731638921627100,2.393627197265625,-0.08959083907604216,-0.020404197864234447,-0.16943643787568435
1772731638931655200,2.4036552734375,-0.13614157784879208,0.003976502415537834,-0.1395516054879874
1772731638941683000,2.413682861328125,-0.1544143166422844,0.031426381007581945,-0.13250667367884889
1772731638951711200,2.423711181640625,-0.20072715500593183,0.05245908603370189,-0.1893113511688076
1772731638961739000,2.433739013671875,-0.20978256812095641,0.09039382602199912,-0.24492932135853915
1772731638971767300,2.443767333984375,-0.20547522631585596,0.11164134284257889,-0.23612055821465328
1772731638981795000,2.453795166015625,-0.1709223838508129,0.07016615376845002,-0.1890954068631865
1772731638991823000,2.463822998046875,-0.0987257471680641,0.032411738783121105,-0.1319595794564113
1772731639001850000,2.47385009765625,-0.0507552047252655,0.03603796645626425,-0.08132327013676986
1772731639011878100,2.483878173828125,-0.024464579170942306,0.030629969932883975,-0.053770593323954376
1772731639021906200,2.49390625,-0.024377485409379004,0.028895255094766616,-0.03275947907513473
1772731639031934200,2.503934326171875,-0.022125322568416594,0.04456467952206731,-0.030505078611313362
1772731639041962200,2.513962158203125,0.0008691840499639511,0.035410043816268444,-0.04052108038680162
1772731639051990300,2.523990234375,0.03687573245465755,0.017648615545779466,-0.008118150531221181
1772731639062018000,2.53401806640625,0.1439221487224102,-0.006528086594492197,0.0460798881242983
1772731639072046300,2.54404638671875,0.23281214605271816,-0.04352554573267698,0.08835486754029989
1772731639082074000,2.55407421875,0.2562111418187618,-0.09647650693655013,0.11907949348669498
1772731639092102100,2.56410205078125,0.24586451984941957,-0.10997516319602728,0.1453836361097172
1772731639102129200,2.574129150390625,0.19947861624956129,-0.10672069144472479,0.14386713059954345
1772731639112157200,2.5841572265625,0.1711971091389656,-0.07697451860904693,0.13184318653512744
1772731639122185200,2.594185302734375,0.1176011280298233,-0.04982362296357751,0.10222032955186441
1772731639132213000,2.604212890625,0.12100012281835079,-0.029949148061871527,0.07808954891255125
1772731639142241300,2.6142412109375,0.12803425923883915,-0.050569472894817585,0.07266112608907278
1772731639152269000,2.62426904296875,0.11418225949704647,-0.05835545059591531,0.08859547136314212
1772731639162297300,2.63429736328125,0.039677345871925354,-0.047585927039384836,0.07238732781610452
1772731639172325000,2.6443251953125,-0.012211246797442435,-0.02324526650905609,0.04037899133525789
1772731639182353200,2.654353271484375,-0.05021335293352604,-0.013678104479610919,-0.013713577651791273
1772731639192381200,2.664381103515625,-0.045350130811333655,0.022184797670692206,-0.09012211467484012
1772731639202409200,2.6744091796875,-0.019852116939425467,0.05393105828240514,-0.0949864145092666
1772731639212436200,2.684436279296875,-0.01518646321594715,0.039678222654759884,-0.09012912893751636
1772731639222464000,2.694464111328125,-0.027435703936219212,0.05775193174481392,-0.10647742987391538
1772731639232492300,2.7044921875,-0.058522331595420835,0.05763488123640418,-0.0841099965121597
1772731639242520000,2.71452001953125,-0.07576280473172664,0.029818361289054154,-0.02577115455775056
1772731639252548000,2.724548095703125,-0.11842238128483294,0.04669073176532983,-0.07300423130516429
1772731639262576000,2.734576171875,-0.10327449651360511,0.071679627071321,-0.14956125972107984
1772731639272604200,2.744604248046875,-0.028116087415814398,0.09596958032771945,-0.15597911827359348
1772731639282632200,2.754632080078125,0.027729718446731565,0.0785290545746684,-0.13716957832281476
1772731639292660200,2.76466015625,0.015579261925816535,0.04198971446752548,-0.11482227443363517
1772731639302688000,2.77468798828125,-0.038843233135342596,0.037930648335069414,-0.08702132651475257
1772731639312716300,2.78471630859375,-0.008042436680197716,0.03765811500400305,-0.11323940742267295
1772731639322743300,2.794743408203125,0.048104982477426526,0.015926321797817944,-0.1109496616508346
1772731639332771000,2.80477099609375,0.14311784660220145,0.019585282696783543,-0.07204682554905302
1772731639342799000,2.814799072265625,0.15036708707809449,0.02002089763507247,-0.02120706607918255
1772731639352827100,2.8248271484375,0.04242109162211418,-0.01682517033368349,0.01924187152001541
1772731639362855200,2.834855224609375,-0.10263386052250861,0.003985416374355555,-0.012155488889059051
1772731639372883000,2.844883056640625,-0.20706980203092096,0.05532295103222131,-0.038101671220152636
1772731639382910700,2.85491064453125,-0.16542729356586933,0.05589812057167291,-0.06654793130524922
1772731639392938800,2.864938720703125,-0.06504559588432311,0.021457944700866937,-0.031929745686147364
1772731639402966800,2.874966796875,0.030558219870924948,-0.002570142748951912,-0.0035031355830142273
1772731639412994800,2.884994873046875,0.020081834042072293,-0.03328384544253349,0.019732554813520983
1772731639423022800,2.89502294921875,0.0007119476616382598,-0.038503187526017425,0.042706836061202916
1772731639433049600,2.905049560546875,0.012223521757125854,-0.00894391556456685,0.028129873912571927
1772731639443078000,2.915077880859375,0.05223930580317974,0.0007236380994319916,0.0002677338583627716
1772731639453105700,2.925105712890625,0.1279354750394821,-0.008731441857665776,-0.009615312020108104
1772731639463133700,2.9351337890625,0.18735446321368215,-0.02281578905060887,-0.008031394696375354
1772731639473161700,2.94516162109375,0.19991583862304688,-0.019001637589931487,0.00682236139990855
1772731639483189800,2.955189697265625,0.18605565557479858,-0.026250878065824507,0.06854180396962911
1772731639493217800,2.9652177734375,0.10962883397638797,-0.03498056635782122,0.11062496887426823
1772731639503245800,2.975245849609375,0.059384501382708545,-0.01917246411219239,0.07927979987673461
1772731639513273600,2.985273681640625,0.06860942584574223,0.008803191919624805,0.04982845440232195
1772731639523302000,2.995302001953125,0.1164636484324932,0.008267915999144315,0.007024555741390213
1772731639533329000,3.005328857421875,0.17033669291734693,0.031991905935853715,-0.017958928170544095
1772731639543357000,3.01535693359375,0.1483703603029251,0.049020343756675716,-0.017058531564986334
1772731639553384700,3.025384765625,0.10992869370579719,0.03483735849484801,0.015824697187403217
1772731639563413000,3.0354130859375,0.08952771071195602,0.018374591732770205,0.044614299950608984
1772731639573440800,3.045440673828125,0.10891863988041878,-0.00029416064098477363,0.03149382022060454
1772731639583468800,3.05546875,0.1316442664295435,0.03398132618740201,-0.029567610531533135
1772731639593496800,3.065496826171875,0.17072013927698135,0.08935469223260879,-0.033930267287022434
1772731639603524600,3.075524658203125,0.1837894642084837,0.0955250514306128,-0.04750812169597484
1772731639613553000,3.085552978515625,0.14442600659132002,0.059721624382585284,-0.02925637089158408
1772731639623580700,3.09558056640625,0.07860124302804469,0.0570186490342021,0.026370800951332783
1772731639633608700,3.105608642578125,0.02633972539305687,0.04059636041298508,0.08182050646864808
1772731639643635700,3.1156357421875,0.05902852755188941,0.03093129096701741,0.05005891129048541
1772731639653664000,3.1256640625,0.09317688086926937,0.05237886040434241,0.03333022816779557
1772731639663691800,3.13569189453125,0.09960311452448367,0.0877548558205366,0.015621027841465547
1772731639673719800,3.1457197265625,0.043106151276826855,0.11341726647391914,0.006839655028004199
1772731639683747800,3.155747802734375,-0.04390694626569747,0.10927549049407242,-0.0029679646938107905
1772731639693776000,3.16577587890625,-0.06662497403025627,0.10055062450766562,0.03221047145682387
1772731639703804000,3.175803955078125,-0.05041793559491634,0.10596388172805309,0.03673647924759425
1772731639713832000,3.18583203125,0.0002256254494190216,0.09796426127627492,0.021834335698629727
1772731639723859700,3.195859619140625,0.037626843082904815,0.08126900093257426,-0.029625528430962
1772731639733887700,3.2058876953125,0.08787585185170173,0.09772051564827561,-0.03683728187410161
1772731639743915800,3.215915771484375,0.07476853299736977,0.08328311723396181,-0.06634107905495912
1772731639753942800,3.22594287109375,0.02794131537079811,0.09690174661129712,-0.06104561669507529
1772731639763970800,3.235970703125,-0.016831892335414884,0.10085866754353046,-0.08160646185916848
1772731639773998800,3.245998779296875,0.006861702463030815,0.13519275269135833,-0.05471991167173255
1772731639784027000,3.25602685546875,0.08368833703398704,0.07861570994481444,-0.07687060157684608
1772731639794054700,3.2660546875,0.13043372159600258,0.09068360274881124,-0.0937911220437847
1772731639804083000,3.2760830078125,0.1319973176509142,0.10775675649419426,-0.08339734559762291
1772731639814110700,3.28611083984375,0.09316577495336532,0.11938786531612276,-0.10016788140092976
1772731639824138800,3.296138671875,0.045670448806881904,0.09654065821394324,-0.1121918071990367
1772731639834166800,3.306166748046875,-0.0005751695394515991,0.09833324071913957,-0.08221549713560379
1772731639844194800,3.31619482421875,-0.00500233833193779,0.12349836937487124,-0.10222284116935916
1772731639854222800,3.326222900390625,0.0037187282621860504,0.1105849656574428,-0.08438758047767915
1772731639864249600,3.33624951171875,0.03049801411628723,0.10158756633996963,-0.07209368319835048
1772731639874278000,3.34627783203125,0.028337621212005615,0.09742533209398388,-0.04801565109300427
1772731639884305700,3.3563056640625,0.00684708941578865,0.0807737647615373,-0.031027358052902854
1772731639894334000,3.366333984375,-0.027075638452172278,0.09468976965025067,-0.02869303335382137
1772731639904361700,3.37636181640625,-0.046292380097508426,0.12131152685508131,-0.05058018151849974
1772731639914389800,3.3863896484375,-0.009290390914678573,0.11893763733059168,-0.07226186110579874
1772731639924417800,3.396417724609375,0.012601122897863387,0.12850816036090254,-0.09785932133076712
1772731639934445800,3.40644580078125,0.045102878051996226,0.12391396443843841,-0.11662156067425385
1772731639944473900,3.416473876953125,0.0804138454079628,0.1200510053999722,-0.11977928491965867
1772731639954502000,3.426501953125,0.09561901332437991,0.10517901496067643,-0.11384764811466447
1772731639964529700,3.43652978515625,0.1380447811216116,0.09200549900233745,-0.1267301269708667
1772731639974556700,3.446556640625,0.1664040296435356,0.08673997968956827,-0.12721837627869098
1772731639984584700,3.456584716796875,0.11957856558263301,0.06122793729230761,-0.1225928353698924
1772731639994612700,3.46661279296875,0.07480477335453033,0.06508592789471149,-0.14062092435308732
1772731640004640800,3.476640869140625,0.014338906475901603,0.06097293961793184,-0.15983846058286724
1772731640014668800,3.486668701171875,0.007755436432361602,0.04636223046332597,-0.12806472744233904
1772731640024696800,3.49669677734375,-0.013932663762569427,0.029801848545670508,-0.06505714475822169
1772731640034724600,3.506724609375,-0.005911269870400428,0.0015745558403432369,-0.0320949370520655
1772731640044753000,3.5167529296875,-0.017491233026981353,-0.007033259637653827,0.0030409248987445605
1772731640054780700,3.52678076171875,-0.07750117283165454,-0.02043722335100174,0.02681885067950934
1772731640064809000,3.53680908203125,-0.08415537002384663,0.007309153969585895,0.0101836362602422
1772731640074836700,3.546836669921875,-0.05315115995109081,0.020469956576824187,0.041093601311440575
1772731640084864000,3.556864013671875,-0.008541033852100371,0.009263649038225411,0.05036515966148581
1772731640094891800,3.566891845703125,-0.02960778727829456,0.0018695932641625403,0.08512114631608128
1772731640104919600,3.57691943359375,-0.09878653744459151,0.007496785496175289,0.13318126673847436
1772731640114947800,3.58694775390625,-0.1980535518825054,0.01842866000756621,0.17271018058303741
1772731640124975600,3.5969755859375,-0.272581846383214,0.013812690644711256,0.1653757460417226
1772731640135004000,3.60700390625,-0.23620821823179722,0.01637406556531787,0.16215358739113434
1772731640145031700,3.61703173828125,-0.14502338796257971,0.0032104864791035652,0.16818742419527843
1772731640155059700,3.627059814453125,-0.07344517543911934,0.02103285115659237,0.1747108894135803
1772731640165087700,3.637087646484375,-0.03454115202724933,0.007476911751925945,0.18370392308318986
1772731640175115800,3.64711572265625,-0.03445464278757572,-0.01706935435310006,0.20659551731636747
1772731640185142800,3.657142822265625,-0.03316109584569931,-0.011003770703822373,0.23563348708376286
1772731640195170800,3.6671708984375,-0.045725393864512444,0.007236965516209602,0.2643343886502087
1772731640205198800,3.67719873046875,-0.044591421398520466,0.003889262523502111,0.2344722430183552
1772731640215227000,3.687226806640625,0.028857261171936988,-0.00023000936359167097,0.21252852409454062
1772731640225254700,3.697254638671875,0.13632161059081555,-0.012787731511145829,0.1857979910193011
1772731640235283000,3.707282958984375,0.22152736645042895,-0.03601078618839383,0.16716938799284398
1772731640245310700,3.717310791015625,0.25692893469929695,-0.03707666185423732,0.13361064373222178
1772731640255338800,3.7273388671875,0.23795886129140853,-0.02672682501450181,0.08207189654698595
1772731640265366800,3.73736669921875,0.2988023293107748,0.016020429822057484,0.06735927965417504
1772731640275394600,3.74739453125,0.3058879036575556,-0.04283157211914658,-0.011994507907377555
1772731640285422800,3.7574228515625,0.27900165029764173,-0.034795419049263,-0.05275621038333047
1772731640295449900,3.767449951171875,0.2204968543589115,-0.011944558685272931,-0.022994218924012964
1772731640305478000,3.777477783203125,0.1164811840891838,-0.008649462662637233,-0.015811997536034322
1772731640315505700,3.787505615234375,0.06110241121649742,0.03246712223216891,-0.03761976032156963
1772731640325534000,3.797533935546875,0.022325813576579093,0.08305997600257396,-0.12726791450884192
1772731640335561700,3.807561767578125,-0.0017798691540956495,0.11809753324463963,-0.18134287477396427
1772731640345589800,3.81758984375,-0.020827683973312378,0.13488646322116254,-0.20282759788390248
1772731640355617800,3.82761767578125,-0.03304068433642387,0.13737681873217225,-0.2020584584086202
1772731640365645800,3.837645751953125,-0.03151332863867283,0.12157514622732996,-0.1590530823588371
1772731640375673600,3.847673583984375,0.005209259080886841,0.08169628643393516,-0.13371831449093297
1772731640385701600,3.85770166015625,0.054852703171968456,0.051043374016880985,-0.14498855411121622
1772731640395729700,3.867729736328125,0.13953297385275362,0.05204582905769348,-0.15633322894088922
1772731640405756700,3.877756591796875,0.18648703272938727,0.030387539479136465,-0.16088453556969762
1772731640415784700,3.88778466796875,0.18916589654982088,0.037236236330121755,-0.14453458153232931
1772731640425812700,3.897812744140625,0.16585399454534053,0.057509209030121564,-0.1308413342825137
1772731640435840500,3.907840576171875,0.15884791517555713,0.05772489760741591,-0.12171912127528339
1772731640445868800,3.917868896484375,0.1982148799240589,0.05005260941386223,-0.10991108498387038
1772731640455896600,3.927896484375,0.13345862237513065,0.031776801880449054,-0.07456887310626917
1772731640465924900,3.9379248046875,0.0224082311630249,0.04107625288441777,-0.04142748204146046
1772731640475952600,3.94795263671875,-0.06055763681530952,0.08453077920749782,-0.08526719459011219
1772731640485980400,3.95798046875,-0.07779168021082877,0.1235088907688856,-0.1712768233116716
1772731640496008700,3.9680087890625,-0.011169044268131256,0.11094079335778952,-0.16992438578940927
1772731640506036500,3.978036376953125,0.05135083253085613,0.10326002959683536,-0.14405814139330758
1772731640516063700,3.988063720703125,0.021702713242173193,0.08745397317782044,-0.09496586491158232
1772731640526091500,3.998091552734375,-0.04853928224146366,0.08017609112933277,-0.043450224607298145
1772731640536119800,4.008119873046875,-0.10377543177306651,0.09052592796906829,-0.030293225958920082
1772731640546147600,4.018147705078125,-0.11506605659425258,0.07173939443454146,-0.06720996171082369
1772731640556175600,4.028175537109375,-0.06159633221328258,0.08347630171850323,-0.10115320264385082
1772731640566203600,4.03820361328125,0.010227379503846168,0.08212035706490278,-0.0740595490443753
1772731640576231700,4.048231689453125,0.016376549783349036,0.030573855831474064,-0.02477012885562144
1772731640586259700,4.058259765625,0.027600539109110832,0.028763883800059554,0.0011412196241086347
1772731640596287700,4.068287841796875,0.017235796961188314,0.025617402467876672,0.033587075305962937
1772731640606315500,4.0783154296875,0.03474456564486027,0.00136266665533185,0.029470780827244743
1772731640616343800,4.08834375,0.08982289426624775,-0.03744388773143291,0.057665760431857775
1772731640626370600,4.09837060546875,0.1522919176608324,-0.05118979675024748,0.07923869154821149
1772731640636398600,4.108398681640625,0.14134849884212017,-0.0684641721561551,0.09936978982579894
1772731640646426600,4.118426513671875,0.13301497026085854,-0.06759221162721514,0.0814009202165529
1772731640656454700,4.12845458984375,0.1333557465225458,-0.04978811325877905,0.09515281145158223
1772731640666482700,4.138482666015625,0.10289631085097789,-0.063215311717242,0.12076708124745636
1772731640676510500,4.148510498046875,0.07027355966567993,-0.022954759129881857,0.10649800687106326
1772731640686538800,4.158538818359375,0.0807967072457075,-0.020151976668834684,0.05739957007660996
1772731640696566500,4.16856640625,0.10860065997242926,-0.02227291434556246,0.06216493044805247
1772731640706594800,4.1785947265625,0.12657821521162985,-0.027723580966889858,0.09279113295469432
1772731640716622600,4.18862255859375,0.11200433093607425,-0.03838628314808011,0.08936154209850355
1772731640726649600,4.198649658203125,0.09895429522693157,-0.032102965094894166,0.1045392009534873
1772731640736677600,4.208677734375,0.08182137411832809,0.007266776132583618,0.05326105463292915
1772731640746705400,4.218705322265625,0.07076689614057541,0.03189180656224489,0.02683219421827234
1772731640756733700,4.228733642578125,0.07543079629838466,0.03673647011443972,0.010225826867576688
1772731640766761500,4.238761474609375,0.08296469893455505,0.0482040589377284,-0.026170355608942916
1772731640776789800,4.248789794921875,0.06155950733423233,0.05139101841077208,-0.03267169576040469
1772731640786817500,4.258817626953125,0.011548983496427535,0.06290127733200788,-0.013056136656366287
1772731640796845600,4.268845458984375,0.004969020584225654,0.0661857058301568,-0.029882640430610626
1772731640806873600,4.27887353515625,0.029452888977527618,0.0462077705539763,-0.07019522003273014
1772731640816901600,4.288901611328125,0.07959668380618094,0.06602525457143783,-0.09384957423275336
1772731640826929700,4.2989296875,0.1084901853352785,0.07521744580864906,-0.10592577820736915
1772731640836956700,4.308956787109375,0.11102350320518016,0.05172419588789343,-0.09896629619197919
1772731640846984700,4.318984619140625,0.12257950096428394,0.04391498344168067,-0.08616172314388677
1772731640857012500,4.329012451171875,0.07631868504881859,0.0270670167542994,-0.06820859909304418
1772731640867040500,4.33904052734375,0.08446808923482894,0.021215514247119427,-0.08902376151150092
1772731640877068500,4.349068603515625,0.12236673499643802,0.04659150917455554,-0.1136299411102198
1772731640887096600,4.3590966796875,0.13129238425195217,0.0579530072748661,-0.11469486692799255
1772731640897124600,4.36912451171875,0.11658347541987896,0.03888210384100675,-0.13238965970305724
1772731640907152600,4.379152587890625,0.062060442593693727,0.031511136681586505,-0.13858590226098894
1772731640917180400,4.389180419921875,-0.030312136155366896,0.030987551198899742,-0.12912089456492104
1772731640927208700,4.399208740234375,-0.06990647991895675,0.03274930017441511,-0.11887007025340571
1772731640937236500,4.409236572265625,-0.05423486353456974,0.01186550209969282,-0.11175476748864166
1772731640947263700,4.419263671875,-0.009323708662390708,-0.0073196753636002535,-0.07486201540052424
1772731640957291500,4.42929150390625,0.016354337951540947,0.003442541669309139,-0.05697597893625497
1772731640967319800,4.43931982421875,-0.017477789023518563,0.01806625643596053,-0.06552327356578316
1772731640977347600,4.44934765625,-0.062802200871706,0.04097308477088809,-0.06218232454084791
1772731640987375600,4.459375732421875,-0.10835691434442997,0.045064153476804494,-0.05861628892261069
1772731640997403600,4.469403564453125,-0.0974672715395689,0.04906769002974033,-0.03764415497730952
1772731641007431400,4.479431396484375,-0.04762625904977321,0.022236235596984625,-0.032613074608077296
1772731641017459700,4.489459716796875,0.057654316589236254,-0.02478445877507329,0.021216815721639432
1772731641027487500,4.499487548828125,0.16960253342390058,-0.0634611031718552,0.04448860491144005
1772731641037515500,4.509515625,0.23777356785237788,-0.0979128233499825,0.041382679351931434
1772731641047543600,4.51954345703125,0.25210662910938264,-0.10407865250334143,0.08679379223603755
1772731641057570800,4.52957080078125,0.253780699801445,-0.09301452991440892,0.09707308459021151
1772731641067598600,4.5395986328125,0.2543114456772804,-0.07995689542070031,0.07128862302631606
1772731641077626600,4.549626708984375,0.22605741109549998,-0.05610942523479461,0.0506623936089687
1772731641087654700,4.559654541015625,0.1912958943158388,-0.016921762575954197,0.03231973138442263
1772731641097682700,4.5696826171875,0.14927812279760835,0.007712181812524795,-0.03281188968238421
1772731641107710700,4.579710693359375,0.12442074491679668,0.03688186993449926,-0.06431020341501571
1772731641117738800,4.58973876953125,0.055120414197444914,0.05483151425346732,-0.05768015428339131
1772731641127766500,4.5997666015625,-0.028791210198402403,0.09427592815235257,-0.12803500815751032
1772731641137794800,4.609794921875,-0.10273790541887283,0.11708704102784395,-0.19116835894603282
1772731641147822600,4.619822509765625,-0.13100421496033668,0.14261296581998467,-0.19998663883693515
1772731641157849600,4.629849609375,-0.12107260353267192,0.13566343894302843,-0.1509954663758166
1772731641167877600,4.639877685546875,-0.11309387973845005,0.09464695342183113,-0.10647596856919117
1772731641177905700,4.64990576171875,-0.0937549730181694,0.0773617643609643,-0.05893994508613832
1772731641187933700,4.65993359375,-0.054822892555594444,0.06135331723764539,-0.00444009220614098
1772731641197961500,4.66996142578125,-0.003425298273563385,0.03412278048470616,-0.02929022749541327
1772731641207989800,4.67998974609375,0.05086801744997501,0.03585895662754774,-0.013782834362564608
1772731641218017500,4.690017578125,0.10277180768847465,0.021210253550112246,0.040561389564303676
1772731641228045800,4.7000458984375,0.10648995142877102,-0.0038043607190251347,0.07022986665442585
1772731641238073600,4.710073486328125,0.058441083052754396,-0.03741436937600374,0.11327286216770298
1772731641248101600,4.7201015625,0.046803252229094504,-0.06224266729280352,0.14278328088559208
1772731641258129700,4.730129638671875,0.046316345494985575,-0.0683662647396326,0.14580018102135509
1772731641268156400,4.740156494140625,0.08758826708197594,-0.06674217066913843,0.13880908915814943
1772731641278184700,4.750184814453125,0.09392857601940631,-0.06441241254732012,0.12927697104262187
1772731641288212500,4.76021240234375,0.07601239557862281,-0.03797565652057528,0.12712787585048935
1772731641298240800,4.77024072265625,0.05053776258230209,-0.038811376692354675,0.14480758978743105
1772731641308268500,4.7802685546875,0.009016834670305252,-0.026687515917420385,0.14982666005846113
1772731641318296600,4.790296630859375,-0.05858662900328636,-0.03594824234619737,0.14238354097828268
1772731641328324600,4.80032470703125,-0.09497370115816593,-0.017120646148920057,0.10709143358641303
1772731641338352600,4.8103525390625,-0.08565817580223083,0.01139393906518817,0.059348672017501665
1772731641348380700,4.820380615234375,-0.05807809495925903,0.027659429689496754,0.03695274321362376
1772731641358408700,4.83040869140625,0.007288403442502022,0.028070786969363687,0.025070299112284554
1772731641368436500,4.8404365234375,0.053100891068577766,0.005261866050958633,0.04747659404654987
1772731641378464000,4.850464111328125,0.07401449975967407,0.0011139525912702082,0.07467853489266708
1772731641388492000,4.860491943359375,0.06988952878415584,-0.010484861396253108,0.09340183046525344
1772731641398520000,4.87052001953125,0.0542190814435482,0.005976444061100482,0.08958070127451792
1772731641408547800,4.8805478515625,0.03645663025975227,0.0036615912474691867,0.09476361120459623
1772731641418576100,4.890576171875,-0.023379706543684004,0.009329992272704838,0.10036336744041181
1772731641428604000,4.90060400390625,-0.06791150670945643,-0.014312602990865706,0.04271155333551578
1772731641438632000,4.9106318359375,-0.04708908343315124,0.012644231387227773,0.09738891820688732
1772731641448660000,4.920659912109375,0.011930676290392874,0.01964285810291767,0.12297988932556472
1772731641458688000,4.93068798828125,0.09507131631374359,-0.03968070687279105,0.11500782360099256
1772731641468716000,4.940716064453125,0.14607318927645682,-0.052810529819875954,0.11015875786831601
1772731641478744000,4.950744140625,0.1851221741169691,-0.06890884718373418,0.09884431378012523
1772731641488771000,4.96077099609375,0.16932020935118197,-0.0635595951102674,0.03701426414251327
1772731641498799000,4.970799072265625,0.1044821187376976,-0.06417378148585558,0.03895199073944241
1772731641508827000,4.980826904296875,0.05527180536687374,-0.0757563749909401,0.07102463376130909
1772731641518855200,4.990855224609375,-0.008822773402929305,-0.05318886161297559,0.0948307307572104
1772731641528883000,5.000883056640625,-0.06033844110667705,-0.012365852837264537,0.09737248766189441
1772731641538911200,5.0109111328125,-0.07420622293949126,0.019910276867449284,0.0337774011131376
1772731641548939000,5.02093896484375,-0.05421382074654102,0.02527034259587526,-0.009332001566700637
1772731641558967000,5.030967041015625,-0.033197920724749565,0.0004983049109578133,0.024928744350280613
1772731641568995000,5.0409951171875,-0.004302081108093261,-0.05314209986180067,0.08360328909903764
1772731641579022800,5.05102294921875,-0.007784078004956245,-0.04701017297804355,0.1600264939682558
1772731641589050000,5.061050048828125,-0.04525310017764568,-0.036434710688889024,0.13660112165194005
1772731641599078000,5.071077880859375,-0.07385024910867213,-0.012959434816241264,0.09543066027858293
1772731641609106200,5.081106201171875,-0.07491174086034298,0.032429420570284126,0.03356512833563611
1772731641619134000,5.091134033203125,-0.06730886464118957,0.06278247325792909,0.01033385381931439
1772731641629162000,5.101161865234375,-0.04898118079006672,0.06606105653718114,0.03451309497654438
1772731641639190000,5.11118994140625,0.0034837504625320433,0.06073270112127065,0.048810838324995706
1772731641649218000,5.121218017578125,0.059607204222679136,0.03469020510911942,0.06348957121451385
1772731641659246000,5.13124609375,0.10619476787447929,0.003732464526593685,0.07154084878829307
1772731641669274000,5.141274169921875,0.1438829857558012,0.021265198607742786,0.03475572635969147
1772731641679302000,5.151302001953125,0.14948796615600585,0.03356602338477969,-0.01608156715845689
1772731641689330200,5.161330078125,0.14137597137093544,0.046415568085759876,-0.04911489930548705
1772731641699357000,5.17135693359375,0.1418389127075672,0.05594225197434425,-0.05804536173343658
1772731641709385000,5.181385009765625,0.1432803436875343,0.04443813053295016,-0.0626164051091764
1772731641719413000,5.1914130859375,0.15471183828413484,0.021498276711255312,-0.012835315246228128
1772731641729441000,5.20144091796875,0.17481296154856682,0.0006437047310173511,-0.0007528915933798998
1772731641739469000,5.211468994140625,0.18199907366037368,0.008974602963775396,-0.025143766207294537
1772731641749496800,5.221496826171875,0.19168167876303194,0.03572933889850974,-0.05715097931013442
1772731641759525000,5.231525146484375,0.14821546200215815,0.03594049743115902,-0.10286627190574071
1772731641769553000,5.241552978515625,0.1163116727411747,0.05121580797433853,-0.13813446869906038
1772731641779581200,5.251581298828125,0.07682371196150779,0.07152794364094733,-0.1695033473657444
1772731641789609000,5.26160888671875,0.07273030516803264,0.08805398489758372,-0.17169358741901813
1772731641799637000,5.271636962890625,0.03272504251599312,0.0723486123740673,-0.13052278811894358
1772731641809664000,5.2816640625,-0.0479798947930336,0.07499386618584394,-0.13910918634957634
1772731641819691800,5.29169189453125,-0.11383739158213138,0.10447656577974557,-0.18674224959947167
1772731641829720000,5.301719970703125,-0.15285247415304182,0.10687179035320878,-0.18252554521989076
1772731641839747800,5.311747802734375,-0.14271744910776615,0.09105039023458956,-0.1580457684798166
1772731641849776000,5.321776123046875,-0.14963175854086874,0.08970321340933442,-0.15993651412986218
1772731641859804000,5.331803955078125,-0.10658113684356212,0.09831555893197655,-0.20840506922267377
1772731641869832000,5.34183203125,-0.04611410092115402,0.11510288147330283,-0.18715302235744893
1772731641879860000,5.35185986328125,0.02085457198023796,0.06440510602369905,-0.124355178000452
1772731641889888000,5.361887939453125,0.060517889326810834,0.010546382325142621,-0.07806165625862777
1772731641899916000,5.371916015625,0.08507190034687519,-0.0029117957934737203,-0.045736253185244276
1772731641909943000,5.381943115234375,0.10244622899591922,-0.007701806548982859,-0.028299198030913245
1772731641919971000,5.39197119140625,0.1037543889850378,-0.01826616292223334,-0.017491707951016722
1772731641929999000,5.4019990234375,0.12114976042211055,-0.022469898222386837,-0.008999636940332128
1772731641940027000,5.41202685546875,0.07832417965233325,0.010815993046760558,-0.028167781070433554
1772731641950055000,5.422054931640625,0.053362172353267665,0.013523498439788818,-0.016363927763793615
1772731641960083000,5.4320830078125,0.03952069400548935,-0.010129618217796087,-0.0173290190694388
1772731641970111000,5.442111083984375,0.0349696065723896,-0.009101736474782228,0.012375652712071314
1772731641980139000,5.452138916015625,0.05850245785117149,-0.008149258055537938,0.06334012540699914
1772731641990166800,5.462166748046875,0.09431728307604789,-0.02730038711875677,0.057039052501413966
1772731642000195000,5.472195068359375,0.09153612792491912,-0.006250584827363491,0.029031466961372644
1772731642010222800,5.482222900390625,0.11721125192940235,0.009169541013985871,0.03110846503167413
1772731642020250000,5.49225,0.10933657303154468,0.0035831191837787627,0.054526083299797024
1772731642030278000,5.50227783203125,0.11401099458336829,-0.020664894627034663,0.06032188269752077
1772731642040306200,5.51230615234375,0.09450316103696822,-0.004319470634311437,0.0836756054165773
1772731642050334000,5.522333984375,0.05540741444528102,-0.00450169533342123,0.08550714995898306
1772731642060362000,5.532362060546875,0.013157003214955328,-0.00898293240070343,0.07225955498428084
1772731642070390000,5.54239013671875,0.00033317747712135315,0.019677637155354023,0.0461247684456408
1772731642080418000,5.55241796875,-0.03173193982541561,0.028625352112203836,0.03544093214487657
1772731642090446000,5.562446044921875,-0.027842531171441077,0.03664557696059346,0.01579087711619213
1772731642100473900,5.572473876953125,0.014279869765043259,0.030748774006962774,-0.0006596420856658369
1772731642110502000,5.582501953125,0.0841910258591175,0.04596782431825995,0.0011522570413537324
1772731642120530000,5.592530029296875,0.11551263131797312,0.019194237552583218,0.004591227647243067
1772731642130557200,5.60255712890625,0.10311258395016193,0.03217559193968773,-0.02637246775203384
1772731642140585000,5.6125849609375,0.0592208352535963,0.05949073823615908,-0.04269467526595108
1772731642150613000,5.622613037109375,0.014763269367814063,0.06752499160990119,-0.06411915608863346
1772731642160641000,5.63264111328125,-0.04385317025184631,0.093163582996279,-0.09809314835295081
1772731642170669000,5.6426689453125,-0.061033437633514404,0.1063351992584765,-0.14083847609390504
1772731642180697000,5.652697021484375,-0.05880114853680134,0.08978446195200085,-0.11658714694799854
1772731642190725000,5.66272509765625,-0.0346644861459732,0.04517126711308956,-0.04607946799919009
1772731642200753000,5.6727529296875,0.007180266892910003,0.031743922524154186,0.010207606224296614
1772731642210781200,5.68278125,0.05630290198028087,0.02522664958462119,0.03231994144697673
1772731642220809000,5.69280908203125,0.04382219059169292,0.04933408588096499,-0.024718626997247337
1772731642230836000,5.7028359375,-0.03470014198124408,0.08342135666087269,-0.0670111694694031
1772731642240864000,5.712864013671875,-0.10554127240180969,0.11274784277975558,-0.056730963799776504
1772731642250892000,5.72289208984375,-0.12545067248642444,0.08853285445570945,-0.035751861257571724
1772731642260920000,5.732920166015625,-0.05661795927882194,0.06701558078303933,0.037023516028048466
1772731642270947800,5.74294775390625,0.04101122482419014,0.03549903727397322,0.07151662766248919
1772731642280976100,5.75297607421875,0.15465455513894558,0.009333499404042959,0.06442504370003006
1772731642291004000,5.76300390625,0.21908815660476683,-0.014246844278275966,0.03816143401679583
1772731642301032200,5.7730322265625,0.2527864280670881,-0.014704963309317826,-0.005342877131607383
1772731642311060000,5.78306005859375,0.22632804473042487,-0.0049868485018610955,-0.010775560571672393
1772731642321088000,5.793087890625,0.1636328113645315,-0.01326455524265766,-0.006085037268418818
1772731642331116000,5.803115966796875,0.1269195759952068,-0.009041092328727246,0.00335218737157993
1772731642341142800,5.813142822265625,0.11978197920024394,-0.03706482528597116,-0.011679222279973327
1772731642351171000,5.823171142578125,0.13495441389083862,-0.03688450028300285,0.0024112441265024243
1772731642361198800,5.83319873046875,0.16277239514291286,-0.0501003940783441,-0.004061395086860284
1772731642371227100,5.84322705078125,0.12944821768999099,-0.05672989522069692,0.02887490185990464
1772731642381255200,5.853255126953125,0.07275777769684791,-0.030994711592048405,0.007255816347151995
1772731642391283000,5.863282958984375,0.00020458266139030456,-0.01469999487325549,-0.04486997804499697
1772731642401311000,5.87331103515625,-0.07935761435329913,0.006577478694170713,-0.05870803602640517
1772731642411339000,5.883339111328125,-0.12679448831081389,0.057950961448252195,-0.0695207959364634
1772731642421367000,5.893366943359375,-0.19720599514245984,0.06984232864156364,-0.10402909600688144
1772731642431395000,5.90339501953125,-0.2437374446928501,0.09009586598873139,-0.1143370847325772
1772731642441422000,5.913422119140625,-0.26451778239309787,0.10782017711922526,-0.12916454191040247
1772731642451450000,5.9234501953125,-0.26324118658602236,0.11263400714173913,-0.13173727847523986
1772731642461478000,5.933477783203125,-0.21269173356592655,0.11329597818180918,-0.14986717473194003
1772731642471506200,5.943506103515625,-0.12795008808672428,0.135413409704715,-0.16002512399507685
1772731642481534000,5.953533935546875,-0.0643839171051979,0.11835165413618087,-0.16846746497936546
1772731642491562200,5.963562255859375,0.02413666239082813,0.11308321221396327,-0.14090523032033817
1772731642501590000,5.973590087890625,0.06760872437059878,0.1106578847631812,-0.12424813742940313
1772731642511618000,5.9836181640625,0.05996025544404983,0.08494432844445109,-0.10891200921023264
1772731642521646000,5.99364599609375,0.0689022713124752,0.11990750527605414,-0.08870007338193245
1772731642531674000,6.003674072265625,0.10853753160834312,0.0874699013993144,-0.047075858625397086
1772731642541702100,6.0137021484375,0.13477438114881515,0.06791136057898402,-0.03673776702238247
1772731642551729000,6.02372900390625,0.15698387486934662,0.07013312828168272,-0.019563344859611243
1772731642561757200,6.033757080078125,0.12696633774638175,0.07415200853422284,0.009472971806814893
1772731642571785000,6.043784912109375,0.11672785232663153,0.0593430003285408,0.012051745386794209
1772731642581813000,6.05381298828125,0.09391863914728164,0.07312807231396436,0.015530134687619284
1772731642591841000,6.063841064453125,0.09318564869761467,0.06757058431729673,0.0026431714525446295
1772731642601869000,6.073869140625,0.05366846182346344,0.0660061114795506,-0.001046467712474987
1772731642611897000,6.08389697265625,0.023643325915932652,0.04998305130898952,0.015800704390462487
1772731642621925000,6.093925048828125,0.008624620482325554,0.04235284869149327,0.033203227087529374
1772731642631953000,6.103952880859375,0.016765256839990614,0.020804595358669756,0.057248238272685555
1772731642641981200,6.113981201171875,0.02736146965622902,0.01695376514941454,0.07355399697530082
1772731642652009000,6.124009033203125,0.020001754543185233,0.021338117713481188,0.0599874174456112
1772731642662036000,6.134035888671875,0.006601005700230598,0.038943478639423844,0.05924415219710208
1772731642672064000,6.14406396484375,-0.03204056738317013,0.033437866960465905,0.02494505616426468
1772731642682092000,6.154092041015625,-0.08173778748810291,0.07247106970995665,-0.010080262650735675
1772731642692120000,6.1641201171875,-0.08625731073915958,0.08377499240413308,-0.02940460198954679
1772731642702147800,6.17414794921875,-0.06577215659320354,0.05853957499116659,-0.005417129677906632
1772731642712176000,6.184176025390625,-0.07028057392835617,0.044726445955038066,0.024486014684615656
1772731642722204000,6.194203857421875,-0.08251520160138606,0.03263575679734349,0.032925953649263824
1772731642732232200,6.204232177734375,-0.022066285857558248,0.02504018710181117,0.003752676197560504
1772731642742260000,6.214260009765625,0.028630466678738593,0.03202770790159702,-0.013620638671331106
1772731642752288000,6.2242880859375,0.07013619702160358,0.02891995114460587,-0.035737905797455456
1772731642762315000,6.23431494140625,0.07676876690387725,0.034796149701625104,-0.06064907795842737
1772731642772343000,6.244343017578125,0.05591536396741867,0.055740007400512694,-0.05334304752768949
1772731642782371000,6.25437109375,0.03873977276086807,0.06261047769188881,-0.048398732126457615
1772731642792398800,6.26439892578125,0.04322422469854355,0.0418332087315619,-0.07525531186731532
1772731642802427100,6.27442724609375,0.02084112797677517,0.018412147264182565,-0.045439366297633385
1772731642812455000,6.284454833984375,0.006758242088556289,0.02164206909611821,-0.042264713750313966
1772731642822483000,6.29448291015625,0.0277238732278347,0.02531082073673606,-0.045237217621924355
1772731642832511000,6.304510986328125,0.060552376118302345,-0.0019020342290401457,-0.035759565073414705
1772731642842539000,6.3145390625,0.06687748748660087,0.020905133123695848,-0.018278401349298656
1772731642852567000,6.324567138671875,0.022905659291148184,0.03584580488502979,-0.03243912454696837
1772731642862595000,6.334594970703125,-0.047342181411385534,0.03274491626024246,-0.014940594129520467
1772731642872622800,6.344622802734375,-0.1252741468757391,0.03811594177410006,-0.0020283548892941323
1772731642882650000,6.354650146484375,-0.1073094511181116,0.05137684375494718,0.003961469243187457
1772731642892678100,6.36467822265625,-0.013102642679214477,0.041300270898640155,0.014954946881858631
1772731642902706200,6.3747060546875,0.10414134247601031,0.02196326387450099,-0.0015193961535813285
1772731642912734000,6.38473388671875,0.2253162373393774,-0.008313362576067447,0.014751925989892332
1772731642922762200,6.39476220703125,0.24516484714746473,-0.01368175774142146,0.013344333347445354
1772731642932790000,6.4047900390625,0.22646774546205997,-0.021692922500520944,0.02217358215693384
1772731642942818000,6.414818115234375,0.19029694640636444,-0.03194324448853731,0.03132467876535375
1772731642952846000,6.42484619140625,0.18220014919042588,-0.037629473431408406,0.03298900894811377
1772731642962873900,6.434873779296875,0.19826222619712353,-0.015010522127151489,0.005004384158551692
1772731642972902100,6.444902099609375,0.2171726783722639,-0.017714374258369206,-0.0014902248580241574
1772731642982929000,6.454928955078125,0.22269991736114023,-0.014485913731157778,-0.013164254939649253
1772731642992957200,6.464957275390625,0.1892734485775232,-0.007192834113538265,0.001976556203397922
1772731643002985000,6.47498486328125,0.10645663368105887,0.007603606871515512,0.0074553986064391205
1772731643013013200,6.48501318359375,0.05149287135004997,0.022757482992112634,-0.049005054855998605
1772731643023041000,6.495041015625,0.030032734692096708,0.0490364181086421,-0.08949110502861439
1772731643033069000,6.505069091796875,-0.01572714596390724,0.07344269122108817,-0.11166576489778235
1772731643043097000,6.51509716796875,-0.010337854140996932,0.09479951363503933,-0.14267942778547293
1772731643053125000,6.525125,-0.0017073884397745133,0.11485460580065845,-0.1565766823079437
1772731643063153200,6.535153076171875,0.006958148574829101,0.12159779645055532,-0.16156101005915552
1772731643073181200,6.54518115234375,-0.0078688336789608,0.1412044141963124,-0.15740805509816855
1772731643083209000,6.555208984375,-0.0452829107940197,0.1368403737679124,-0.1648996346962638
1772731643093236000,6.565236083984375,-0.025929975548386573,0.15365063879340887,-0.1714260225240141
1772731643103264000,6.575263916015625,-0.013561492362618445,0.13809168900325894,-0.14496370279775
1772731643113292000,6.5852919921875,0.02570785723030567,0.12909984264373778,-0.14204821720984764
1772731643123320000,6.595320068359375,0.0821387695044279,0.1024818848311901,-0.1222732571598608
1772731643133348000,6.60534814453125,0.15558686755299567,0.0999704865321517,-0.11442392276581376
1772731643143376100,6.615376220703125,0.20234394255280494,0.0714892190657556,-0.09858506005574018
1772731643153404000,6.62540380859375,0.16417466315627097,0.06383811979070306,-0.056639339993568134
1772731643163432200,6.63543212890625,0.11793430550694466,0.050620910821110005,-0.03724346522192936
1772731643173460000,6.6454599609375,0.06928922480344772,0.0696367230668664,-0.026885792135610244
1772731643183488300,6.65548828125,0.052664253216981885,0.05680106076076626,-0.02597281460969243
1772731643193515000,6.665514892578125,0.07968027043640613,0.02786211265474558,-0.008205577652924694
1772731643203543000,6.67554296875,0.0879249516904354,0.0379366396844387,0.009726508176466449
1772731643213571000,6.685571044921875,0.10823182666003703,0.052882864403724666,-0.011299328717449679
1772731643223598800,6.695598876953125,0.11928104394078254,0.01867518211454153,0.02241920008161105
1772731643233627100,6.705627197265625,0.10127309356331825,-0.010619301430881023,0.07441715770985464
1772731643243655000,6.715655029296875,0.08221592639386653,-0.020570202080905438,0.07671838842350989
1772731643253683200,6.72568310546875,0.07679214777946472,-0.0269995044760406,0.09512884605410508
1772731643263711000,6.7357109375,0.09362345559298992,-0.036731940069794654,0.10704616053942591
1772731643273739000,6.745739013671875,0.10378712221086024,-0.029713731870800255,0.11095809155246242
1772731643283767000,6.75576708984375,0.07324994512796401,-0.045927200046926735,0.09721481288215145
1772731643293795000,6.765795166015625,0.040404491102695464,-0.023879326628893614,0.0660469732129015
1772731643303822000,6.775822021484375,0.003168693163990974,-0.04514613267183304,0.06985388208203949
1772731643313849900,6.785849853515625,0.0062111295998096465,-0.048212242244184016,0.07039076543771662
1772731643323878100,6.795878173828125,0.03491466151475906,-0.06308145620450377,0.09727184943216852
1772731643333906000,6.805906005859375,0.09177461285591125,-0.06428221029639243,0.06341873903458473
1772731643343934000,6.815933837890625,0.10353343971073627,-0.05537731156796217,0.011989996129041537
1772731643353962000,6.8259619140625,0.09123509915173053,-0.036613720517605544,0.008859867710038088
1772731643363990000,6.835989990234375,0.0474175847351551,-0.02903685552254319,-0.03344849338575732
1772731643374019300,6.846019287109375,-0.044510757377743716,0.005485591804236173,-0.04817915282533504
1772731643384047600,6.856047607421875,-0.09427285941243171,0.019356296246498823,-0.07887184013035148
1772731643394075400,6.866075439453125,-0.09952420406937598,0.026410452541708946,-0.11210552628822625
1772731643404103400,6.876103515625,-0.10179682517647742,0.0455279715962708,-0.1001528573617339
1772731643414130400,6.88613037109375,-0.05924129351973533,0.060129036139696834,-0.11243511443561874
1772731643424158200,6.896158203125,-0.06710545102357864,0.04192892419099808,-0.12882604893734678
1772731643434186500,6.9061865234375,-0.10316577544212341,0.046885085293650625,-0.13829881068160757
1772731643444214300,6.91621435546875,-0.09542261396944522,0.062328738141059874,-0.10301894171680323
1772731643454242600,6.92624267578125,-0.09366904830038547,0.03378390391916036,-0.046113187605701385
1772731643464270300,6.936270263671875,-0.10014438179433345,0.03037175738811493,-0.03219323491094401
1772731643474298400,6.94629833984375,-0.08335749764442443,0.062463178175687785,-0.039521054765093135
1772731643484326400,6.956326416015625,-0.08516367028355598,0.06631590808108448,-0.07189715141267515
1772731643494354400,6.9663544921875,-0.08873042285442352,0.07396160052865743,-0.10723588355840183
1772731643504382500,6.976382568359375,-0.06554243949055671,0.07996551711857318,-0.08651209835098124
1772731643514409200,6.9864091796875,-0.010319149440526962,0.06438172514811158,-0.028970665268402078
1772731643524437500,6.9964375,0.06713467711806297,0.030802842281758783,0.02650512682152912
1772731643534465300,7.00646533203125,0.1555593950241804,-0.027369506832212207,0.07942243235097267
1772731643544493300,7.016493408203125,0.21471242573857305,-0.06844868232607841,0.10825824887608178
1772731643554521300,7.026521240234375,0.22081191165745256,-0.10743950723856686,0.11055650674793868
1772731643564549400,7.03654931640625,0.1940548376351595,-0.08863967583104967,0.08548263657223433
1772731643574577400,7.046577392578125,0.16432313171625137,-0.07365998723357915,0.06613813122822902
1772731643584605400,7.05660546875,0.12782675396800042,-0.07174275543540716,0.10306852561272681
1772731643594633200,7.06663330078125,0.08094868293702602,-0.06931508989706635,0.0763122598746093
1772731643604661500,7.07666162109375,0.050966217127442356,-0.07401318458542228,0.06154231873741373
1772731643614689300,7.086689208984375,0.015301614028215407,-0.043566754525899885,0.053333457715436815
1772731643624716500,7.096716552734375,-0.017931962531805037,-0.04169906095787883,0.07409461122460197
1772731643634744300,7.106744384765625,-0.06876315510272979,-0.02719225056916475,0.012475299994531086
1772731643644772600,7.116772705078125,-0.09808686474263667,-0.037638679651170966,-0.0050772062245232515
1772731643654800400,7.12680029296875,-0.09116554104685783,-0.0016672025598585606,0.013128102489101002
1772731643664828400,7.136828369140625,-0.0592471387386322,0.0037438627034425734,0.00567120033709798
1772731643674856400,7.1468564453125,-0.0290483998298645,0.01617722781896591,0.01690973192815436
1772731643684884200,7.15688427734375,-0.07516425431668758,0.025915362501144408,0.013383514580363408
1772731643694912500,7.16691259765625,-0.10423603502213954,0.06326484994739294,-0.017943181470496346
1772731643704940300,7.176940185546875,-0.07154840190708636,0.09061930534094571,-0.028292263683339113
1772731643714968300,7.18696826171875,-0.00440671052634716,0.07847177142947911,-0.05663906599893234
1772731643724996400,7.196996337890625,0.06391513054966926,0.07865297321528196,-0.02571189865118358
1772731643735023600,7.207023681640625,0.15069909551143645,0.05120879371166229,0.00809274380779534
1772731643745051400,7.217051513671875,0.18535832096040247,0.021860095760971306,0.03264447895991616
1772731643755079400,7.227079345703125,0.212314132425189,0.017474720283597707,0.05476206574644893
1772731643765107500,7.237107421875,0.1970908443301916,0.03350289502069354,0.05416567075587809
1772731643775135500,7.247135498046875,0.19293314012885093,0.042819297159463164,0.029541633556771557
1772731643785163500,7.25716357421875,0.17881927458047867,0.06816255886107683,-0.020818418388045393
1772731643795191600,7.267191650390625,0.1588748031824827,0.09078808603659272,-0.017146173315821214
1772731643805219300,7.27721923828125,0.12952011388242243,0.08850260544791817,0.0031057994078117187
1772731643815247400,7.287247314453125,0.10814940907359123,0.055784284933656454,-0.0012201312208606396
1772731643825275400,7.297275390625,0.09232289438843727,0.07017375255301594,-0.0023681750238669337
1772731643835302400,7.307302490234375,0.09782675250172615,0.0721089583992958,0.014435825228446627
1772731643845330400,7.317330322265625,0.12001929508745669,0.04589198260307312,0.045414624582021494
1772731643855358500,7.3273583984375,0.11502397101819514,0.03010682284161448,0.0805897682304494
1772731643865386500,7.337386474609375,0.10875380470752716,0.009242752380669116,0.10332452793410048
1772731643875414300,7.347414306640625,0.104660397914052,0.0016629647761583328,0.13339874541405589
1772731643885442600,7.357442626953125,0.06503448996841907,-0.006244885738939047,0.15158513936465606
1772731643895470300,7.36747021484375,0.04209200579822063,-0.008165478537976742,0.15684749860595912
1772731643905498600,7.37749853515625,0.02232639809846878,0.01715630198419094,0.13011870996323413
1772731643915526400,7.3875263671875,0.0007703998506069183,0.04051774221882224,0.11824897007984109
1772731643925554400,7.397554443359375,0.010933481946587562,0.032474721016734834,0.094810665216716
1772731643935582500,7.40758251953125,-0.014939210456609725,0.05500920890793204,0.10904697896782309
1772731643945609200,7.417609130859375,0.0014893617749214172,0.044666824722290034,0.11959073094446211
1772731643955637500,7.427637451171875,0.03547404896318912,0.02605404031947255,0.09226159265525638
1772731643965665300,7.437665283203125,0.08605565068721771,0.015718670396506786,0.06814735215879045
1772731643975693600,7.447693603515625,0.12273732187449932,0.03449555931985378,0.03871252856091596
1772731643985721300,7.457721435546875,0.17135142291784286,0.027978432510793207,0.017093889431090793
1772731643995749400,7.467749267578125,0.17430150489509105,-0.00044599020183086393,0.015111370419431476
1772731644005777400,7.47777734375,0.1429325531631708,-0.034506811366230246,0.02560608877270715
1772731644015805400,7.487805419921875,0.14020342046022413,-0.03349734206274151,0.05318992105890065
1772731644025833500,7.49783349609375,0.11490297498703002,-0.01628375693336129,0.07578918128199875
1772731644035861500,7.507861572265625,0.07582710213959216,-0.02716638547554612,0.07004539519930258
1772731644045889300,7.51788916015625,0.043106151276826855,-0.021417758820950983,0.07338200140926056
1772731644055916300,7.527916259765625,0.030453005930781363,-0.021724340552091596,0.08357650155681184
1772731644065944300,7.5379443359375,0.025518472138047216,-0.031658874589204786,0.07831016939328983
1772731644075972400,7.547972412109375,0.012929039677977561,-0.029983634853363035,0.08399313779999501
1772731644086000400,7.55800048828125,-0.014323124384880065,-0.015604980888962745,0.1046218560019508
1772731644096028400,7.5680283203125,-0.04841828621029853,-0.016353315038233996,0.09803295173146762
1772731644106056400,7.578056396484375,-0.11154606577455997,-0.01362842011898756,0.07105059018647297
1772731644116084200,7.588084228515625,-0.11818506539762019,0.012926701590418815,0.04796736410502344
1772731644126112500,7.598112548828125,-0.08853402349948883,-0.008841331972926855,0.05969342120140791
1772731644136140300,7.608140380859375,0.0068920976012945175,-0.017772972577810287,0.03451627559760818
1772731644146168600,7.61816845703125,0.09001111031472682,-0.049003831013292073,0.02171735597216757
1772731644156195300,7.6281953125,0.1880973905354738,-0.062149728312343354,0.013907339808356482
1772731644166223600,7.6382236328125,0.24030454763472078,-0.08739347516223787,0.03929030561598483
1772731644176251400,7.64825146484375,0.24773557441830635,-0.09681567576304077,0.030137085549137552
1772731644186279400,7.658279541015625,0.1795008271038532,-0.08205518287420273,-0.0033999674694845453
1772731644196307500,7.668307373046875,0.1577548592418432,-0.06827727128192781,-0.058009358838293695
1772731644206335200,7.678335205078125,0.1925806734293699,-0.07022928213253617,-0.06364921875563449
1772731644216363500,7.688363525390625,0.2891986346632242,-0.0929684988155961,-0.06324005343285388
1772731644226391300,7.698391357421875,0.3328858006983995,-0.09305617709904909,-0.008420489912084304
1772731644236419300,7.70841943359375,0.18657938718795775,-0.09937529711797832,0.03446385357391555
1772731644246447400,7.718447265625,-0.0591600449770689,-0.05373758153691888,-0.050817200578190384
1772731644256475400,7.728475341796875,-0.2378156534284353,0.04000044034644961,-0.1858044755590148
1772731644266502400,7.73850244140625,-0.25993103912472726,0.05895502392426133,-0.2177065660532564
1772731644276530400,7.748530517578125,-0.09748363815248012,0.05900573119819164,-0.22779495721152052
1772731644286558500,7.758558349609375,0.10214286213517189,0.01698854420185089,-0.22025849729208274
1772731644296586500,7.76858642578125,0.23920915361344813,0.0054375148788094515,-0.12723146408912725
1772731644306614300,7.7786142578125,0.17343348988890647,-0.030536592561006545,-0.060814401755086143
1772731644316642600,7.788642578125,0.005670446851849555,-0.031292817755788564,-0.0655569383733673
1772731644326670300,7.79867041015625,-0.154735803681612,0.05142053676620126,-0.13725666295122355
1772731644336698600,7.80869873046875,-0.2170768167823553,0.07506912337914108,-0.20251414802055806
1772731644346726400,7.818726318359375,-0.13306699270904063,0.07107040913179516,-0.2165479523363523
1772731644356754200,7.828754150390625,-0.0420890831887722,0.09290727014765143,-0.18662527215629815
1772731644366781400,7.838781494140625,0.10448854847848414,0.06828691589310765,-0.15772417184263468
1772731644376808000,7.848807861328125,0.15459902555942534,0.020698066244274376,-0.1263920815223828
1772731644386836000,7.8588359375,0.2091167976886034,-0.000702010789513588,-0.12230645617656409
1772731644396864000,7.868864013671875,0.20596505565941334,-0.014567454534769058,-0.059780793524184264
1772731644406892000,7.87889208984375,0.16482874315083026,-0.022699615325033663,-0.050470734361233185
1772731644416920000,7.888920166015625,0.11247662462294102,0.010722177283465861,-0.06847982181643601
1772731644426948000,7.898947998046875,0.09071955084502696,-0.004925912094861268,-0.04212139172290917
1772731644436975900,7.908975830078125,0.05508066670894622,-0.020271657525748013,-0.007988535085471812
1772731644447004200,7.919004150390625,-0.021627309918403625,-0.01932064041122794,0.014087203587021212
1772731644457032000,7.929031982421875,-0.0743178666204214,-0.009670330142974854,0.01991361275214003
1772731644467060000,7.93906005859375,-0.10209902299344539,-0.007463613878935575,0.031517121181089895
1772731644477087000,7.9490869140625,-0.09668635029494761,-0.0018444588229060172,0.027408336438680996
1772731644487115000,7.959114990234375,-0.08933131135702133,0.0016882453478872775,0.0045646935500553805
1772731644497143000,7.96914306640625,-0.05459317545294761,0.0013283259943127632,0.014360574885015374
1772731644507170800,7.9791708984375,-0.06949263842105866,-0.022698007889837026,0.06789756951564922
1772731644517199000,7.98919921875,-0.09646657006442547,-0.032528789291530844,0.0804201198851224
1772731644527227000,7.999226806640625,-0.0925567031443119,-0.03763561091125011,0.10766078530643135
1772731644537255200,8.009255126953125,-0.058413026002049444,-0.05009513338133693,0.12149223545053973
1772731644547283000,8.019282958984375,-0.010797872868180274,-0.05733092985376715,0.08799466505893505
1772731644557311000,8.02931103515625,0.046753567868471145,-0.04999518013820052,0.07268277623187751
1772731644567339000,8.039339111328125,0.11839490875601767,-0.04680836679562926,0.08448281187992543
1772731644577367000,8.049366943359376,0.1439969675242901,-0.07959697606712579,0.10364902891442179
1772731644587394000,8.05939404296875,0.13009469889998435,-0.09414368007481097,0.1250808710596524
1772731644597421800,8.069421875,0.11901099482774734,-0.08510521809458732,0.12486726484159007
1772731644607450000,8.0794501953125,0.068358081433177,-0.0747580116033554,0.15286664880886672
1772731644617478000,8.089477783203124,0.020151976668834684,-0.07763473608344792,0.14794690159331075
1772731644627506000,8.099505859375,0.009845686709880829,-0.05299231612756848,0.09176046559954992
1772731644637534000,8.109533935546875,0.04609539622068405,-0.024985388174653053,0.06846229072632268
1772731644647562000,8.11956201171875,0.056524435776472086,0.01277092650681734,0.026004225811397188
1772731644657590000,8.129590087890625,0.03875380128622055,0.026555267839878795,-0.004241984380487702
1772731644667618000,8.1396181640625,-0.028946108499169346,0.047473552706092596,-0.02533382715298794
1772731644677645800,8.149645751953125,-0.06382102252542972,0.03241246943548322,-0.03608764625031035
1772731644687673000,8.159673095703125,-0.051232759109139436,0.02636573661714792,0.01362479083170765
1772731644697700900,8.169700927734375,-0.008476736444234847,0.005736643955856561,0.04388255160995759
1772731644707729200,8.179729248046876,0.012671265524625778,0.011080489201843739,0.06368919457299635
1772731644717757000,8.1897568359375,-0.002397124269604683,0.0318486980728805,0.057974401689344084
1772731644727785200,8.19978515625,-0.030353052687644957,0.06361190981939435,0.015337782461784081
1772731644737813000,8.20981298828125,-0.028503040906786917,0.09047171356379985,-0.025688243780960327
1772731644747840800,8.2198408203125,-0.0033107319831848143,0.1104424884468317,-0.02334648012751713
1772731644757869000,8.229869140625,0.02722410701215267,0.09123071523755788,0.01002363366773934
1772731644767896800,8.239896728515625,0.07902735948562621,0.05082710091769695,0.05656482258578762
1772731644777925000,8.249925048828125,0.14501871178746223,0.015310089595615863,0.07768375372379087
1772731644787953000,8.259952880859375,0.20617197640836238,0.0028841771341860294,0.050184843791672026
1772731644797981000,8.26998095703125,0.25030571716725825,0.008855652759224175,0.022704433064046313
1772731644808008000,8.280008056640625,0.2808504930347204,0.027896891707181928,0.0012455830392369535
1772731644818036000,8.290035888671875,0.2439209845662117,0.03224061999991536,-0.0350016137124272
1772731644828064000,8.30006396484375,0.2210854679018259,0.04142535858303308,-0.021203184488508848
1772731644838092000,8.310092041015626,0.159890702226758,0.03361205448359251,0.008320401954918634
1772731644848120000,8.3201201171875,0.10101707297563552,0.01756999735161662,-0.0017086008660378866
1772731644858148000,8.330148193359374,0.06876432414650917,0.06667831165269017,-0.04565898669795133
1772731644868176000,8.34017578125,0.05277297428846359,0.10430924638882279,-0.0892195672113914
1772731644878204200,8.3502041015625,0.012483049476146698,0.09653379008173942,-0.10959926082203164
1772731644888232000,8.36023193359375,-0.052553194057941434,0.09258023015037178,-0.10371756410598754
1772731644898260000,8.370260009765625,-0.13314882577359677,0.1119594688810408,-0.08901487495214677
1772731644908287000,8.380286865234375,-0.1460042156934738,0.1326988900490105,-0.13087035944759845
1772731644918315000,8.39031494140625,-0.04065700455904007,0.1265353989832103,-0.1468405295202974
1772731644928343000,8.400343017578125,0.08756430168449879,0.11985782091543078,-0.129168195172213
1772731644938370800,8.410370849609375,0.13763327771127223,0.10035963198021054,-0.05104618246189784
1772731644948399000,8.420399169921875,-0.011631401082873343,0.09292407515197992,-0.05378404189399443
1772731644958427000,8.430427001953126,-0.23564941530525682,0.1339937521651387,-0.09409469896708615
1772731644968455200,8.440455078125,-0.2905184850901365,0.18674670657888054,-0.14970509777171537
1772731644978483000,8.45048291015625,-0.20841770950853825,0.16366408328562973,-0.17139511592909693
1772731644988511000,8.460510986328124,0.06880407163500786,0.11006927122026681,-0.09578404942667111
1772731644998539000,8.4705390625,0.23638006766736505,0.06115501818656921,-0.04680375455259345
1772731645008567000,8.480567138671875,0.23727964685559272,0.016396861919015644,-0.018523078559059648
1772731645018594000,8.490593994140625,0.11991583471298217,0.044714024864882226,-0.005962108433427056
1772731645028621800,8.500621826171875,0.03801204300820827,0.06285553849413991,-0.03425336632812395
1772731645038650000,8.510650146484375,0.09566460603177547,0.05202230205163359,-0.023458833911211695
1772731645048678000,8.520677978515625,0.1615986751884222,0.02332958379164338,-0.011418018627096899
1772731645058706000,8.530705810546875,0.20141163013875482,0.008751169471442699,0.02597907082054298
1772731645068734000,8.54073388671875,0.2199479883044958,0.026758681457489726,0.041720122012216594
1772731645078762000,8.550761962890626,0.22669220186769962,0.01892652652710676,0.02034658135890495
1772731645088790000,8.5607900390625,0.23733459191322326,0.008987462445348501,0.059710691996617236
1772731645098818000,8.570818115234376,0.22368542126715182,-0.024363164623081683,0.12614173262366093
1772731645108845800,8.580845703125,0.14523206227719784,-0.03491773025467992,0.17631456175055354
1772731645118872800,8.590872802734374,0.0479144283413887,-0.04170169130638242,0.1764000480769202
1772731645128901000,8.600901123046874,0.0012310030996799469,-0.0017433365359902381,0.13905120908464305
1772731645138929000,8.610928955078125,-0.009109773650765419,0.011930091768503188,0.07227727330406196
1772731645148957000,8.62095703125,0.02400514496564865,0.019071780216693878,0.06389137978132348
1772731645158985000,8.63098486328125,0.046446693876385683,0.021786153741925954,0.07675104858409613
1772731645169013000,8.641012939453125,0.05835165120363235,-0.008753507559001445,0.09177070386577398
1772731645179041000,8.651041015625,0.029841011512279508,0.0004126724541187286,0.08861196584021672
1772731645189069000,8.661069091796875,-0.017258593314886092,-0.005553542473912239,0.08631955318725668
1772731645199096800,8.671096923828125,-0.0597439823448658,-0.004403934047371149,0.0722749991485849
1772731645209125000,8.681125,-0.04705225855410099,0.011408113721013068,-0.005840501622552983
1772731645219153000,8.69115283203125,-0.0034971944659948346,0.04037175787687301,-0.06981660511184018
1772731645229180200,8.70118017578125,0.03749824826717377,0.03767959618344903,-0.08898057995690033
1772731645239208000,8.7112080078125,0.06628653585612773,0.011258622247725725,-0.06199653791147284
1772731645249236200,8.721236328125,0.07729892825782299,0.0023800270043313502,-0.04694758347007446
1772731645259264000,8.731263916015624,0.03629004152119159,-0.007613397613167762,-0.029648735776613463
1772731645269291800,8.741291748046875,0.047207156854867934,0.0001860240913927555,-0.0480809896804858
1772731645279320000,8.751320068359375,0.056548985695838924,0.03269669320434332,-0.09318075332678855
1772731645289347800,8.761347900390625,0.04611526996493339,0.048101475346088406,-0.12366034587039612
1772731645299376000,8.771376220703125,0.02172901672720909,0.056322629594057795,-0.16356977433199063
1772731645309404000,8.78140380859375,-0.01648877798616886,0.06435629844591022,-0.19449494608547538
1772731645319432000,8.791431884765625,-0.02570318105518818,0.05407178192734718,-0.17373400720544158
1772731645329460000,8.8014599609375,0.018891162952780722,0.035942104866355656,-0.13049720615311525
1772731645339487000,8.811487060546876,0.06001987667679786,0.015219050311297177,-0.07706975914444773
1772731645349515000,8.821514892578126,0.05956278055906295,0.015264350757747888,-0.0672192866615951
1772731645359543000,8.83154296875,0.04822539398670196,0.004664046288281679,-0.052231542621832334
1772731645369571000,8.841571044921874,-0.004587327790260315,0.03022358108907938,-0.07989050652044825
1772731645379598600,8.8515986328125,-0.01220014088153839,0.046610944527387614,-0.07152071931571699
1772731645389626600,8.861626708984375,0.011699205622076988,0.04348287563472986,-0.056239791882503776
1772731645399654700,8.871654541015625,-0.008880641070008277,0.020436784959584474,-0.00808629180494463
1772731645409682400,8.881682373046875,0.020702596288919448,-0.007549684727191925,0.016670664758561177
1772731645419710700,8.891710693359375,0.09748130006492137,-0.029050737917423245,0.018933887849655003
1772731645429738500,8.901738525390625,0.15568272914290426,-0.05373509731888771,0.017735216116998343
1772731645439765800,8.911765869140625,0.16936580205857754,-0.058928866569697855,0.030380593715119173
1772731645449793500,8.92179345703125,0.10352584092617034,-0.031387364171445366,0.016454882566432932
1772731645459821800,8.93182177734375,0.03218494428992271,-0.00998436452820897,0.000944950416625943
1772731645469849600,8.941849609375,0.026333295652270317,-0.008141805401444435,-0.0199784193333704
1772731645479877600,8.951877685546876,0.062221770635247226,-0.008517360715568065,-0.04074980654218234
1772731645489905700,8.96190576171875,0.09903729733526706,-0.010494067616015672,-0.013891612516262102
1772731645499933700,8.97193359375,0.08926818299293518,0.00391045144200325,0.019330561300332193
1772731645509961700,8.981961669921875,-0.011004793617129326,0.004441051187366247,0.02187674550167285
1772731645519989800,8.99198974609375,-0.1481003111898899,0.026681232307106256,-0.057373097628215325
1772731645530017500,9.002017578125,-0.20306115091145038,0.07498159122616052,-0.11165626641707495
1772731645540045800,9.0120458984375,-0.16336159320771693,0.09579670797884464,-0.08937735158898867
1772731645550072600,9.022072509765625,-0.0541623828202486,0.08266717729270458,-0.09593291071229613
1772731645560100600,9.0321005859375,-0.0006774608701467514,0.06961056571230292,-0.04221549061399418
1772731645570128600,9.042128662109375,-0.008539280286431312,0.05848872158676385,-0.02254125555870123
1772731645580156700,9.05215673828125,-0.08788111254870891,0.0701850045993924,-0.02446793560523074
1772731645590184700,9.062184814453126,-0.09959785382747649,0.0930940248914063,-0.07346518618068658
1772731645600212500,9.07221240234375,-0.02134381680190563,0.11926482345834374,-0.13112566764922812
1772731645610240800,9.08224072265625,0.06534077943861484,0.10348433987200259,-0.1425639390464872
1772731645620268500,9.0922685546875,0.1511889248549938,0.10246683339253067,-0.09747793906405568
1772731645630296800,9.102296875,0.19547931748032568,0.09102847066372632,-0.04931232614030596
1772731645640324600,9.11232470703125,0.1694365292072296,0.05418181817308068,-0.028794648831081574
1772731645650351600,9.1223515625,0.10429039555788039,0.06285919175595045,-0.01197915964119602
1772731645660379600,9.132379638671875,0.05062076469063759,0.07034910911992191,0.000042948659160174424
1772731645670407400,9.142407470703125,0.03218026811480522,0.0664881959080696,0.009512216971814633
1772731645680435700,9.152435791015625,0.04716857841014862,0.05624985661879182,0.029723002022644503
1772731645690463500,9.16246337890625,0.08311959723532199,0.036433833906054494,0.06448134959768503
1772731645700491800,9.17249169921875,0.03972410762310028,-0.015250176101922988,0.14551603945088573
1772731645710519600,9.18251953125,0.012756021198630332,-0.039947687245905396,0.21343336397977544
1772731645720547600,9.192547607421876,0.03780512225925922,-0.021728432205319403,0.16630058753537014
1772731645730575600,9.20257568359375,-0.034815877315402026,0.0035056700333952902,0.04540749615491368
1772731645740603600,9.212603759765624,-0.04450315859317779,0.051067339414358134,0.10641130583514459
1772731645750631700,9.222631591796874,-0.004051321217417717,-0.007243102996051311,0.16686127189174293
1772731645760658400,9.232658447265624,0.032384850776195524,-0.05125526320189237,0.14302347371648064
1772731645770686700,9.242686767578125,0.04816401918828487,-0.031634616930782795,0.12981819264669903
1772731645780714500,9.252714599609375,0.05689326908886432,-0.024949440078437326,0.17453894864646716
1772731645790742500,9.262742431640625,0.040464112335443496,-0.06095598848313093,0.13485716406144202
1772731645800770600,9.2727705078125,-0.019788988575339315,-0.048131285962462425,0.1331916785346344
1772731645810798600,9.282798583984375,-0.03228548205494881,-0.022850714233517644,0.10547336739790625
1772731645820826600,9.29282666015625,-0.027851298999786375,-0.01803805325478315,0.0752105959427543
1772731645830854700,9.302854736328126,0.008299041789770126,-0.003178630036115646,0.053768524664454156
1772731645840882400,9.31288232421875,0.024452304211258886,0.03077741557955742,0.0588502118429169
1772731645850910700,9.32291064453125,-0.011337971094250679,0.020973229923844337,0.04077655755179003
1772731645860938500,9.3329384765625,-0.03167524120211601,0.03833703717887401,0.012459211942832915
1772731645870965800,9.3429658203125,-0.005530746120214462,0.058899055953323835,0.011865346836065873
1772731645880993500,9.35299365234375,-0.005378185907006263,0.05755933178216219,-0.00821566522209905
1772731645891021800,9.363021728515625,0.006484101322293281,0.056793900367617604,-0.0271989908372052
1772731645901049600,9.373049560546875,0.02759235580265522,0.0961035819709301,-0.044464488816913214
1772731645911077600,9.38307763671875,0.09588146365284919,0.11115005219429731,-0.11643400221290066
1772731645921105700,9.393105712890625,0.1330067869544029,0.11052782864272594,-0.12452696350393816
1772731645931133400,9.403133544921875,0.14988368747532366,0.10540361749678849,-0.11061901405751705
1772731645941161700,9.41316162109375,0.12143149997293948,0.11196458344757557,-0.052349981369730084
1772731645951189500,9.423189453125,0.09445113858878612,0.10441694454699754,-0.061864920021593564
1772731645961217500,9.433217529296876,0.052075639674067496,0.09991203434318303,-0.12239020720357074
1772731645971244500,9.44324462890625,0.0787099640995264,0.09944821622371673,-0.10339212241075
1772731645981272600,9.4532724609375,0.12473521769344806,0.1000076036721468,-0.07247935348111205
1772731645991300600,9.463300537109374,0.15360183121562004,0.06693272480517626,-0.006807825984479859
1772731646001328600,9.47332861328125,0.14762217228412627,0.054666825211048126,0.015653733667824417
1772731646011356700,9.483356689453124,0.09926759895980357,0.07322568746954203,0.05138501792824827
1772731646021384700,9.493384765625,0.052984571212530134,0.08452887951135635,0.025990747558604924
1772731646031412500,9.50341259765625,0.01787000321149826,0.10091332034021615,-0.011278048467403276
1772731646041440800,9.513440673828125,0.04624620286822319,0.10176263064593076,-0.018964830977190286
1772731646051468500,9.523468505859375,0.12189677939713,0.09142419198304415,0.0064492218051571395
1772731646061496800,9.533496826171875,0.20869594192802904,0.0428512997329235,0.0122751423465088
1772731646071524600,9.543524658203125,0.23217092553973195,0.01677285562455654,0.016377426566183566
1772731646081551600,9.553551513671875,0.2499994276970625,0.01261544368416071,0.015416079853894189
1772731646091579600,9.56357958984375,0.21051614309251307,-0.01675531996786594,0.006251278947107494
1772731646101607700,9.573607666015626,0.13894552935361862,-0.030718086607754228,0.0032889676759485153
1772731646111635700,9.5836357421875,0.08004208948612213,-0.009796879132091998,-0.010146231425879523
1772731646121663500,9.59366357421875,0.04419043938219547,-0.009323124140501023,-0.028398009629733857
1772731646131691800,9.60369189453125,0.06001636954545975,-0.003968903630971909,-0.0442495034925174
1772731646141719600,9.613719482421875,0.07263502810001372,-0.027776772458851337,-0.04022412043395452
1772731646151747600,9.62374755859375,0.03660860595107078,-0.0471650712788105,-0.01944657747899182
1772731646161775600,9.633775634765625,-0.03574818972945213,-0.035087095472216605,-0.007228727410826832
1772731646171803600,9.6438037109375,-0.1167079785823822,-0.04012245929092169,-0.04365547398896888
1772731646181831700,9.653831787109375,-0.16037643991708755,-0.03593114508092403,-0.0393222670902498
1772731646191858400,9.6638583984375,-0.1615770478785038,-0.032737317475676535,-0.05670363740143366
1772731646201886700,9.67388671875,-0.1361661277681589,-0.023780688560009002,-0.0318014248650521
1772731646211915800,9.683915771484376,-0.12686521545946597,-0.029557518395781517,0.012306551264924928
1772731646221943600,9.693943603515624,-0.11503799954354763,-0.020183248589932916,-0.008568067989498376
1772731646231971600,9.7039716796875,-0.10289689537286757,-0.016745090834796427,-0.027687523272819814
1772731646241998600,9.71399853515625,-0.07768354366123675,0.020891104598343372,-0.03066078519625589
1772731646252026600,9.724026611328124,-0.053444589939713474,0.024711831930279732,-0.028060247309040276
1772731646262054700,9.7340546875,-0.045859833899140355,0.0183496034219861,-0.04554258464351296
1772731646272082700,9.744082763671875,-0.015032149437069892,0.014588789583742618,-0.03374632098828442
1772731646282110700,9.75411083984375,0.04447393249869346,0.0034171149671077725,-0.027007130660070103
1772731646292138500,9.764138427734375,0.09193009567856789,-0.005041793559491634,0.0017085118177812546
1772731646302166800,9.774166748046875,0.13547463837265966,-0.024149229611456394,-0.008484033834701404
1772731646312194600,9.784194580078125,0.18724106596708295,-0.004845394204556942,0.01672309819869697
1772731646322222600,9.79422265625,0.20722703841924667,-0.026231881104409695,0.0359928578060586
1772731646332250600,9.804250732421876,0.15693302146494387,-0.011694821707904339,0.024009912472311407
1772731646342277600,9.814277587890626,0.0914110402405262,0.01973696612715721,0.004812734043970704
1772731646352305700,9.8243056640625,0.09303659561574458,0.006394084951281547,0.020895972569705917
1772731646362333400,9.83433349609375,0.07945581403076649,-0.010296645347774028,0.05963625678722746
1772731646372361700,9.84436181640625,0.05088730667233467,-0.010761340250074863,0.033960100736282764
1772731646382390000,9.85439013671875,0.07266893036961555,0.027661329385638235,-0.02961397955706343
1772731646392417800,9.864417724609375,0.09541735327243804,0.04650163893401622,-0.0335984643496573
1772731646402446000,9.874446044921875,0.10129881252646446,0.010495090529322624,0.011622633254528045
1772731646412473900,9.884473876953125,0.04328559949696064,-0.01111000755727291,0.02984035392515361
1772731646422502100,9.894502197265625,-0.012726210582256316,0.0006783376529812812,0.0007672397791408002
1772731646432530000,9.904530029296875,-0.02757657371163368,0.026835399955511093,-0.04155080246045254
1772731646442558000,9.914557861328126,0.05810264487862587,0.024953531731665132,-0.037106993060419334
1772731646452585000,9.9245849609375,0.1046475384324789,0.022764497254788876,0.018775107958214358
1772731646462613000,9.934613037109376,0.043214287826418875,0.015342822821438312,0.017190651778364555
1772731646472641000,9.94464111328125,-0.07472177124619483,0.03186608759909868,-0.021169236553134397
1772731646482669000,9.9546689453125,-0.12824644068479538,0.04676467378437519,-0.08834285744209773
1772731646492697000,9.964697021484374,-0.07610241194963455,0.036169045490026475,-0.1059554335601162
1772731646502724900,9.974724853515625,0.030753450182080266,0.012829670956730842,-0.026869489454780703
1772731646512753000,9.9847529296875,0.08321019812822342,0.01875526161342859,0.0017267644271021707
1772731646522781000,9.994781005859375,0.03979834190309047,0.0111605687007308,-0.040516746704978866
1772731646532809000,10.00480908203125,0.023270400950312613,0.016409575270116328,-0.09261172126717865
1772731646542837000,10.0148369140625,0.10223229398429393,0.013649462907016276,-0.08802629317305982
1772731646552865000,10.024864990234375,0.1930646575540304,-0.011133972954750061,-0.009297154015605337
1772731646562892000,10.03489208984375,0.09373159214258193,-0.03577069382220507,0.068556846275134
1772731646572920000,10.044920166015626,-0.10698153433799742,0.008731003466248511,0.012797472020448186
1772731646582948000,10.054947998046876,-0.17706044821441172,0.051063832283020014,-0.10907327331970446
1772731646592976100,10.06497607421875,-0.11145546488165854,0.05330430468618869,-0.1354043678817339
1772731646603004000,10.07500390625,0.03872925136685371,0.04992693720757961,-0.05370219969628379
1772731646613032200,10.0850322265625,0.12544950344264508,0.005159282459318637,-0.04516190106312278
1772731646623060000,10.09506005859375,0.07581774978935718,-0.007566928122937679,-0.09099608449777588
1772731646633088000,10.105087890625,0.046509237718582154,0.002992752075195312,-0.0871736218664795
1772731646643116000,10.115115966796875,0.04829612113535404,-0.003361585387587547,-0.0522044262860436
1772731646653143800,10.125143798828125,0.043287353062629694,-0.022277298259735106,-0.016966295837424695
1772731646663171000,10.135171142578125,0.038361002576351166,-0.02159866834580898,0.009959412750042975
1772731646673198800,10.14519873046875,-0.0025379940450191494,0.036166707402467725,0.007884679702064022
1772731646683227100,10.15522705078125,-0.03584054418802261,0.054662441296875475,-0.009818328345497139
1772731646693255000,10.1652548828125,-0.038679567006230355,0.0800756994947791,-0.021564450982376
1772731646703283000,10.175282958984376,-0.01395253750681877,0.05997603753507137,-0.014686802031542174
1772731646713311000,10.18531103515625,0.03739361884891987,0.04876023151576519,0.013121073385048657
1772731646723339000,10.195339111328124,0.10511690950989723,0.02981792289763689,0.02817460353686474
1772731646733367000,10.205366943359374,0.12300152576863765,0.015846388429403304,0.033135591511684465
1772731646743395000,10.21539501953125,0.12649462858140467,0.016936521753668783,0.01860416042165598
1772731646753422800,10.2254228515625,0.13851006054580212,-0.004694587557017803,0.05842506349971518
1772731646763451100,10.235451171875,0.17426760262548924,0.00847878227084875,0.05418706060377881
1772731646773478100,10.24547802734375,0.16631518231630324,0.014272270980477331,0.038088213516958055
1772731646783506000,10.255505859375,0.1269429568707943,0.017247487398982048,0.02479240005293395
1772731646793534000,10.265533935546875,0.12210779179930686,0.02875526210218668,0.024773999029851983
1772731646803562000,10.27556201171875,0.11804887179732322,0.021653905664384365,0.047003807169338684
1772731646813590000,10.285590087890625,0.08212064932584762,0.012041735449433325,0.05239427260260563
1772731646823618000,10.2956181640625,0.011665887874364853,0.05654606308639049,0.001163365240546409
1772731646833646000,10.30564599609375,-0.023677228185534475,0.09261661663800477,-0.055368726402707395
1772731646843673900,10.315673828125,0.005831190371513366,0.10727408754378556,-0.059298631463851774
1772731646853702100,10.3257021484375,0.05063128608465194,0.10326982033848763,-0.033089701976766805
1772731646863730000,10.33572998046875,0.10435352392196655,0.0820057907745242,-0.021093403971102088
1772731646873758000,10.345758056640625,0.1285153207540512,0.10579057098776101,-0.004963145682576578
1772731646883785000,10.355784912109375,0.1274608432650566,0.10726444293260573,0.01537007843783358
1772731646893813000,10.36581298828125,0.08144085036814212,0.12422083843052387,-0.003999604729912244
1772731646903841000,10.375841064453125,-0.0013017302483320236,0.1580064959153533,-0.027668197517842053
1772731646913868800,10.385868896484375,-0.08031681477427483,0.15896102016121147,-0.025408070566132663
1772731646923897000,10.39589697265625,-0.05637304460704326,0.1670586941599846,-0.029001254486199467
1772731646933924900,10.4059248046875,0.05781038393378257,0.1440989665940404,0.0007294833183288574
1772731646943953200,10.415953125,0.14670447291731833,0.11326952856630086,0.031427113943232686
1772731646953981000,10.42598095703125,0.21361820076107976,0.0883259337067604,0.022575358757702634
1772731646964009000,10.436009033203124,0.21213351516127585,0.07745558012425899,0.0298351777098258
1772731646974037000,10.446037109375,0.17134616222083568,0.07671966706514358,0.01267099609656725
1772731646984064000,10.45606396484375,0.15766192026138304,0.07142477552741766,0.048176056685950604
1772731646994092000,10.466092041015624,0.16058569875359535,0.056468321675062175,0.11271931993816979
1772731647004120000,10.4761201171875,0.1101461358487606,0.02617839735150337,0.14603839195771143
1772731647014148000,10.486148193359375,0.09625380409657955,0.014849486346542835,0.09484123388491571
1772731647024175900,10.49617578125,0.10305880793631077,0.039510757133364674,0.05570697278059088
1772731647034204000,10.506203857421875,0.14272972406744955,0.03404927685707807,0.04927479344177991
1772731647044232000,10.51623193359375,0.18517185847759246,0.007405015559494495,0.06367235303604975
1772731647054260000,10.526260009765625,0.15679098264575003,-0.013486089038848877,0.07505598990293219
1772731647064288000,10.5362880859375,0.10750877308249474,-0.03190992674082518,0.11867991797616705
1772731647074316000,10.54631591796875,0.0998544589370489,-0.0489493243470788,0.17659876725310458
1772731647084343000,10.556343017578126,0.09768880533576012,-0.06936462812721729,0.18310442282008005
1772731647094371000,10.56637109375,0.08006137870848179,-0.06397825891375541,0.1486411035357043
1772731647104398800,10.57639892578125,0.038080432069301604,-0.03026362083852291,0.087788611959666
1772731647114427100,10.58642724609375,-0.01414075355529785,-0.014682605347037315,0.03906418697622139
1772731647124455000,10.596454833984374,-0.08115677272975444,0.00886310541331768,0.03192580016339198
1772731647134483200,10.606483154296875,-0.16869009475409982,-0.0011444938600063323,0.024366329261125065
1772731647144511000,10.616510986328125,-0.1968067666918039,-0.02194295173883438,0.07374662433741613
1772731647154539000,10.6265390625,-0.1502525207877159,-0.01979015761911869,0.048572481258166954
1772731647164567000,10.636567138671875,-0.08890168776810169,-0.013287059335410594,0.011313133480516262
1772731647174594800,10.6465947265625,-0.020157237365841865,0.007046411380171776,-0.031886641763360236
1772731647184623000,10.656623046875,0.032087329134345054,0.017232874351739882,-0.06729092255912256
1772731647194649900,10.66664990234375,0.07502747619450092,0.03608896599113941,-0.06575953914022538
1772731647204678100,10.67667822265625,0.09828267957568168,0.01163724630177021,-0.0411080088627059
1772731647214706000,10.686705810546876,0.09639175126254558,0.005213058473169803,-0.029966930313734336
1772731647224734000,10.69673388671875,0.060190557068586344,0.022293957133591173,-0.027637500985478982
1772731647234762000,10.706761962890624,0.039887189230322834,0.04294920714944601,-0.05492628443141002
1772731647244790000,10.7167900390625,-0.005342530071735381,0.05059679929316044,-0.08938289541378616
1772731647254818000,10.726818115234375,-0.040432548153400416,0.06404284858256579,-0.1037682896462269
1772731647264846000,10.73684619140625,-0.021457798570394513,0.08459522274583578,-0.14127937912866473
1772731647274873900,10.746873779296875,0.02404255436658859,0.06876490866839885,-0.15310006483909674
1772731647284902100,10.756902099609375,0.06470949579775333,0.03396948961913585,-0.09474666006979532
1772731647294929200,10.76692919921875,0.09524141218364238,0.011904665066301822,-0.01921823948267847
1772731647304957000,10.77695703125,0.11643792946934699,-0.029462825849652288,0.022593332805810495
1772731647314985000,10.78698486328125,0.0962386065274477,0.0011214052453637122,0.0053084816716611385
1772731647325013000,10.797012939453126,0.08016542360484599,0.03600800970941782,-0.005697325725620612
1772731647335041000,10.807041015625,0.047452656048536296,0.06158961021155119,-0.03120527646965347
1772731647345069000,10.817069091796874,0.007831424278020858,0.06537994240522384,-0.04039004245223477
1772731647355097000,10.82709716796875,-0.00006546645164489745,0.039305005428195,0.02842670600125566
1772731647365124900,10.837124755859374,0.02011339822411537,0.025507950744032858,0.07962298729121685
1772731647375152400,10.84715234375,0.10500877296030521,-0.004612462231516838,0.08410325624411925
1772731647385180200,10.85718017578125,0.1730792696237564,-0.04042582615166902,0.0841417433572933
1772731647395208400,10.86720849609375,0.2302694758325815,-0.0324555779248476,0.10480367884226142
1772731647405235200,10.877235107421875,0.20552023450136184,-0.0517225884526968,0.05425658217603341
1772731647415263200,10.88726318359375,0.13959376412928104,-0.06231412509381771,0.07237724481350742
1772731647425291300,10.897291259765625,0.05469897391498089,-0.03159340813755989,0.10768043985497205
1772731647435319300,10.9073193359375,-0.01926116530895233,-0.047967327572405336,0.1085902390431147
1772731647445347300,10.917347412109375,-0.022749591946601866,-0.035823008531332017,0.07977665261612274
1772731647455375000,10.927375,0.053196168136596673,-0.057010757988691325,0.13361275349091736
1772731647465403400,10.9374033203125,0.04753273554742336,-0.025426117679476737,0.013424531577341258
1772731647475431200,10.94743115234375,-0.026360768181085584,-0.026816987515985963,-0.07286637090416624
1772731647485459200,10.957459228515624,-0.033548633858561515,0.0291442614197731,-0.01604786581825465
1772731647495487200,10.9674873046875,-0.03200198893845081,0.03479980296343565,-0.04465091476710513
1772731647505515300,10.977515380859375,-0.02684416778385639,-0.009507540796697139,-0.04769123231107369
1772731647515542300,10.987542236328125,-0.024985388174653053,0.0343140652731061,-0.00753807648778893
1772731647525570300,10.9975703125,-0.012972878819704055,0.010744681376218795,-0.004438777031889185
1772731647535598300,11.007598388671875,-0.009562778115272522,0.03433803067058325,-0.040950087487790734
1772731647545626400,11.01762646484375,-0.06726093384623527,0.0629594372600317,-0.095005265340209
1772731647555654400,11.027654296875,-0.1316354986011982,0.09515139581263064,-0.11565709042311645
1772731647565682200,11.03768212890625,-0.13339783209860323,0.10111235004365443,-0.09288723200662061
1772731647575710200,11.047710205078126,-0.09335632908940315,0.13556085535138845,-0.1033512972100172
1772731647585738200,11.05773828125,-0.07578735465109347,0.11951748304516076,-0.16184004619624465
1772731647595766300,11.067766357421876,-0.058717561906576156,0.11293313621878623,-0.1531342959022615
1772731647605794300,11.077794189453124,-0.013426467806100845,0.11270488042086362,-0.16358460657494142
1772731647615821300,11.0878212890625,0.0471475356221199,0.11537585319578647,-0.17746588721014558
1772731647625849300,11.097849365234374,0.13318448160886764,0.0904720058247447,-0.13790849618976936
1772731647635877400,11.10787744140625,0.14659808993339538,0.06702157213240861,-0.10718067363929003
1772731647645905200,11.1179052734375,0.16463585092723368,0.070368544472754,-0.05624975615409203
1772731647655933400,11.127933349609375,0.12188450443744658,0.05329845946729183,-0.0382854987878818
1772731647665961200,11.137961181640625,0.07677753473222255,0.022618659043312072,0.012985455173486843
1772731647675989500,11.147989501953125,-0.002928454667329788,0.02556581841111183,0.05343458000235259
1772731647686017300,11.158017333984375,-0.04965104287564754,0.010049684849381447,0.06137362937331199
1772731647696045300,11.16804541015625,-0.03453530680835247,-0.014384206922352313,0.08042908864286728
1772731647706073300,11.1780732421875,0.01197276186645031,-0.013749416150152682,0.0876190640790388
1772731647716100000,11.18810009765625,0.07103168455660343,-0.03114157271683216,0.09108183568562381
1772731647726128400,11.19812841796875,0.1316442664295435,-0.03708236094266176,0.07498665099376813
1772731647736156200,11.20815625,0.16850304774940014,-0.038493104523420335,0.07622701557683759
1772731647746184400,11.218184326171874,0.20188509286940096,-0.06585954261571168,0.11487092674779704
1772731647756212200,11.228212158203124,0.21679215462207793,-0.05720101986378431,0.1525620398391038
1772731647766240300,11.238240234375,0.1486181975841522,-0.07991524823606014,0.1286278503509704
1772731647776268300,11.248268310546875,0.04508943404853344,-0.060466743661463256,0.08358501365683041
1772731647786296300,11.25829638671875,-0.0037631519258022306,-0.031003041028976438,0.053779383985185995
1772731647796324400,11.268324462890625,-0.004758592703938484,-0.02799830625504255,0.03664199676401913
1772731647806352400,11.278352294921875,0.0630202275365591,-0.03510229304134845,0.03793115065856836
1772731647816380200,11.288380126953125,0.10753215395808219,-0.047699908807873725,0.06847451088707894
1772731647826407200,11.2984072265625,0.12627835548222063,-0.05102934549152851,0.08651678365925326
1772731647836435200,11.308435302734376,0.11169921050965785,-0.05204992071092129,0.0475450196402613
1772731647846463200,11.318463134765626,0.10645721820294857,-0.04784165536612272,-0.00620849011815153
1772731647856491300,11.3284912109375,0.05796645127832889,-0.028215163876116275,-0.05622761738752015
1772731647866519300,11.338519287109374,0.02572130123376846,-0.003428220883011818,-0.06688839247310534
1772731647876547300,11.34854736328125,0.010241408029198646,0.009929857861995696,-0.06380162370521575
1772731647886575000,11.3585751953125,-0.020777999612689016,0.03243541191965341,-0.0288276332186535
1772731647896603400,11.368603271484375,-0.06403495753705502,0.018398410999774933,-0.0864129305591341
1772731647906631200,11.378631103515625,-0.05292670354545116,0.03780044608414173,-0.16094696981403975
1772731647916659500,11.388659423828125,0.0038350481182336804,0.06702595604658126,-0.19331888804342598
1772731647926687200,11.398687255859375,0.03340717956125736,0.08864537491947412,-0.1698412192842923
1772731647936714200,11.40871435546875,-0.018325345763564108,0.12501111202538012,-0.1911580567477271
1772731647946742300,11.4187421875,-0.052951253464818,0.075773326125741,-0.21252830489883198
1772731647956770300,11.428770263671876,-0.023797639694809913,0.04449877467900514,-0.16006625972306354
1772731647966798300,11.43879833984375,-0.016715572479367256,0.04024783923625946,-0.0683876454543788
1772731647976826000,11.448826171875,0.006487023931741714,0.001898234836757183,-0.023848520498676223
1772731647986854400,11.4588544921875,0.02706862418949604,-0.0015691490128636359,-0.03357749462686479
1772731647996882200,11.468882080078124,0.028501287341117856,0.014633797769248485,-0.03009198146550916
1772731648006910200,11.47891015625,0.08012918324768543,0.010163082095980644,-0.02686259848969057
1772731648016938200,11.488938232421875,0.13202479017972946,0.026006255654990672,-0.02975704128956422
1772731648026966300,11.49896630859375,0.1718634640932083,-0.015888181744515895,0.00492257849345915
1772731648036993300,11.5089931640625,0.24355390481948852,-0.0598243541046977,0.062184690027870235
1772731648047021300,11.519021240234375,0.2612731013834476,-0.08446896601766347,0.11883684383723885
1772731648057049300,11.52904931640625,0.23402152184247968,-0.12054039635211229,0.13077618749127723
1772731648067077400,11.539077392578125,0.20746903048157692,-0.16359335613697767,0.17162965533733368
1772731648077105400,11.54910546875,0.14502221891880035,-0.09245908798873424,0.21216668677851558
1772731648087133200,11.55913330078125,-0.06582710165083408,-0.06456307306438684,0.1583037252962589
1772731648097161200,11.5691611328125,-0.36175241422057147,0.0387689988553524,0.07298513844562694
1772731648107189200,11.579189208984374,-0.62942076959908,0.09137421536147594,-0.012230864813365041
1772731648117217300,11.58921728515625,-0.7898843032777308,0.11099252354502677,-0.1173281015084125
1772731648127245300,11.599245361328125,-0.7373030521690845,0.1322080377921462,-0.1339555207802914
1772731648137273300,11.6092734375,-0.5328332035034895,0.12053133626282214,-0.13072099583847446
1772731648147300400,11.61930029296875,-0.29340660774707794,0.09573620996326207,-0.1218136676909402
1772731648157328400,11.629328369140625,-0.07408055073320866,0.04579495196938514,-0.10939873328125103
1772731648167356200,11.639356201171875,0.13047288456261158,-0.014430676412582397,-0.0641513321920298
1772731648177384400,11.649384521484375,0.2680161459028721,-0.07481003405153751,-0.004803966215625405
1772731648187412200,11.659412109375,0.328498379394412,-0.07578326299786567,0.04704856875967234
1772731648197440500,11.6694404296875,0.3035889790654182,-0.05120353301465511,0.01199963160706684
1772731648207468300,11.67946826171875,0.2691267374932766,-0.014520985044538973,-0.019836188717931507
1772731648217496300,11.689496337890626,0.20219430494904517,0.04606587786525487,-0.048552287853509186
1772731648227524400,11.6995244140625,0.1734796671181917,0.09753449155688285,-0.07340531835276633
1772731648237552400,11.709552490234374,0.17435469638705253,0.14129355378448963,-0.10371942726951092
1772731648247579400,11.719579345703124,0.18853344386518,0.13114625377953051,-0.1249755475216545
1772731648257607200,11.729607177734374,0.16333470520079135,0.1321270815104246,-0.11750795158734545
1772731648267635500,11.739635498046875,0.15336451532840728,0.14410627311766147,-0.08914808201091363
1772731648277663200,11.749663330078125,0.1827180355846882,0.11205576886236666,-0.06768557073278353
1772731648287691300,11.759691162109375,0.27857787192761896,0.09055383888930081,-0.043396768253855404
1772731648297719300,11.76971923828125,0.3406435752183199,0.09497720828950404,-0.015745741066522895
1772731648307747300,11.779747314453125,0.34932781693339343,0.092491236692667,0.018170995452068746
1772731648317775400,11.789775390625,0.3225432703822851,0.07845774290412665,0.025041301346663384
1772731648327803400,11.799803466796876,0.2373065348625183,0.0979074165225029,0.02046281444998458
1772731648337831200,11.8098310546875,0.08141045522987841,0.12768442288786172,-0.014628920664731412
1772731648347859500,11.819859375,-0.04378887284398079,0.15781448047459123,-0.014051723564974963
1772731648357886200,11.82988623046875,-0.06570727466344833,0.1279153090342879,0.022179354310594496
1772731648367914200,11.839914306640624,-0.03161094379425049,0.10112345595955848,0.07174012508690357
1772731648377942300,11.8499423828125,0.0376665905714035,0.12167846047133207,0.0833629227382131
1772731648387970300,11.85997021484375,0.13525894979536532,0.09638882865309714,0.09558987856144086
1772731648397998300,11.869998291015625,0.19828794516026974,0.048373570285737515,0.09301975407879799
1772731648408026000,11.880026123046875,0.180306882789731,0.023278584256768226,0.07871496906820684
1772731648418054400,11.890054443359375,0.07147358310520649,0.013320961605012416,0.1163877153857611
1772731648428082200,11.900082275390625,-0.04513970293104648,0.04949526779204607,0.18539282601820303
1772731648438110500,11.9101103515625,-0.05086275675296783,0.062357087452709674,0.1478331116210669
1772731648448138200,11.92013818359375,0.08472878599762916,0.03399053240716457,0.03977649539746344
1772731648458165200,11.930165283203126,0.11609949129521846,-0.003231529267132282,0.14109165627053008
1772731648468193300,11.940193359375,0.07155307808220386,0.04330313515365124,0.1879838836910203
1772731648478221000,11.950220947265626,-0.1350163732111454,0.014042553877830504,0.07192571078687905
1772731648488249300,11.960249267578124,-0.23643793533444404,0.11636077257990836,0.03400530985118821
1772731648498277000,11.970277099609374,-0.2230593983232975,0.15303893663585186,-0.04840509793516248
1772731648508305400,11.980305419921875,-0.10070376924276352,0.13660071979314087,-0.10990133077483624
1772731648518333200,11.990333251953125,-0.07796177608072757,0.10472089592963456,-0.0601281228242442
1772731648528361200,12.000361328125,-0.2027893482327461,0.07699965305030346,0.0019409414673224091
1772731648538389200,12.01038916015625,-0.25127251637279985,0.03767623518258333,0.039416028054617344
1772731648548417300,12.020417236328125,-0.1571843658775091,0.02487783614695072,0.04738214809559285
1772731648558445300,12.0304453125,-0.009866729497909545,0.01554419061243534,0.061371199954207985
1772731648568472300,12.040472412109375,0.20264087967276573,-0.036812019568681714,0.036525731706898656
1772731648578500400,12.050500244140625,0.3164578129887581,-0.06156593707501888,-0.0224234104658477
1772731648588528400,12.0605283203125,0.31820670248270033,-0.06431523578315973,-0.08424681116696446
1772731648598556200,12.07055615234375,0.16271920365095138,-0.009162380620837211,-0.14650977232912554
