time,seconds_elapsed,z,y,x
1772641317405205500,0.05520556640625,-1.01947021484375,-0.1118621826171875,0.050506591796875
1772641317415250400,0.06525048828125,-1.0048065185546875,-0.118408203125,0.0463104248046875
1772641317425296600,0.075296630859375,-0.9887542724609375,-0.1240692138671875,0.0395355224609375
1772641317435341600,0.085341552734375,-0.975555419921875,-0.130096435546875,0.0381622314453125
1772641317445386800,0.09538671875,-0.9624481201171875,-0.134552001953125,0.039825439453125
1772641317455431400,0.105431396484375,-0.953369140625,-0.1370697021484375,0.0426177978515625
1772641317465477400,0.115477294921875,-0.9471282958984375,-0.13885498046875,0.0478057861328125
1772641317475522600,0.1255224609375,-0.94134521484375,-0.14642333984375,0.0506439208984375
1772641317485567500,0.1355673828125,-0.9360809326171875,-0.1524658203125,0.0539093017578125
1772641317495613700,0.14561376953125,-0.9231109619140625,-0.15179443359375,0.0528717041015625
1772641317505658600,0.15565869140625,-0.909088134765625,-0.1540374755859375,0.0556182861328125
1772641317515703600,0.16570361328125,-0.90057373046875,-0.15576171875,0.060638427734375
1772641317525749800,0.175749755859375,-0.8989410400390625,-0.1566314697265625,0.06915283203125
1772641317535794400,0.18579443359375,-0.895263671875,-0.1595611572265625,0.078338623046875
1772641317545839600,0.195839599609375,-0.8970947265625,-0.1635894775390625,0.0866851806640625
1772641317555884500,0.205884521484375,-0.9011993408203125,-0.1660308837890625,0.0941619873046875
1772641317565930500,0.215930419921875,-0.905181884765625,-0.16717529296875,0.0996856689453125
1772641317575975700,0.2259755859375,-0.908233642578125,-0.1715240478515625,0.1014556884765625
1772641317586020400,0.236020263671875,-0.914031982421875,-0.1721038818359375,0.1004180908203125
1772641317596066600,0.246066650390625,-0.919464111328125,-0.171630859375,0.102325439453125
1772641317606111500,0.256111572265625,-0.933685302734375,-0.1712799072265625,0.1021728515625
1772641317616156700,0.26615673828125,-0.94891357421875,-0.1716766357421875,0.1031646728515625
1772641317626202600,0.27620263671875,-0.959991455078125,-0.1703643798828125,0.0978240966796875
1772641317636247600,0.28624755859375,-0.961090087890625,-0.158966064453125,0.08612060546875
1772641317646292500,0.29629248046875,-0.96795654296875,-0.1427154541015625,0.0757293701171875
1772641317656337400,0.30633740234375,-0.9806976318359375,-0.1365509033203125,0.0658721923828125
1772641317666383600,0.316383544921875,-0.9925994873046875,-0.134307861328125,0.0623931884765625
1772641317676428500,0.326428466796875,-1.00677490234375,-0.1274566650390625,0.06060791015625
1772641317686473700,0.3364736328125,-1.01873779296875,-0.12451171875,0.056427001953125
1772641317696519700,0.346519775390625,-1.0330047607421875,-0.1221923828125,0.055450439453125
1772641317706564600,0.356564697265625,-1.040435791015625,-0.11932373046875,0.0554656982421875
1772641317716609500,0.366609619140625,-1.03997802734375,-0.1210174560546875,0.058380126953125
1772641317726655500,0.376655517578125,-1.0318756103515625,-0.128631591796875,0.0572357177734375
1772641317736700400,0.386700439453125,-1.0241546630859375,-0.134521484375,0.05267333984375
1772641317746745600,0.39674560546875,-1.0192413330078125,-0.1405487060546875,0.046966552734375
1772641317756790500,0.40679052734375,-1.0117645263671875,-0.1446380615234375,0.04364013671875
1772641317766836700,0.416836669921875,-1.002777099609375,-0.1514892578125,0.0431671142578125
1772641317776881400,0.42688134765625,-0.9918670654296875,-0.16046142578125,0.0421295166015625
1772641317786926600,0.436926513671875,-0.9808807373046875,-0.1656646728515625,0.0416107177734375
1772641317796972500,0.44697265625,-0.973846435546875,-0.167938232421875,0.0383453369140625
1772641317807017500,0.457017578125,-0.967803955078125,-0.172210693359375,0.0353546142578125
1772641317817062700,0.467062744140625,-0.96807861328125,-0.1776885986328125,0.028106689453125
1772641317827108600,0.477108642578125,-0.972381591796875,-0.182403564453125,0.0207672119140625
1772641317837153800,0.48715380859375,-0.978851318359375,-0.1891632080078125,0.016632080078125
1772641317847198500,0.497198486328125,-0.9845733642578125,-0.198333740234375,0.0183563232421875
1772641317857243600,0.50724365234375,-0.989990234375,-0.1941070556640625,0.009552001953125
1772641317867289600,0.51728955078125,-0.989532470703125,-0.1932373046875,0.0044403076171875
1772641317877334500,0.52733447265625,-0.99053955078125,-0.194793701171875,0.0040740966796875
1772641317887379700,0.537379638671875,-0.99078369140625,-0.195281982421875,0.005889892578125
1772641317897425700,0.54742578125,-0.9919586181640625,-0.19512939453125,0.0108489990234375
1772641317907470600,0.557470703125,-0.9915618896484375,-0.1949920654296875,0.0172119140625
1772641317917515500,0.567515625,-0.989776611328125,-0.1949310302734375,0.0262451171875
1772641317927561500,0.5775615234375,-0.9954833984375,-0.1915130615234375,0.03277587890625
1772641317937606700,0.587606689453125,-0.9983978271484375,-0.189300537109375,0.03717041015625
1772641317947651600,0.597651611328125,-0.9927978515625,-0.1854095458984375,0.0406341552734375
1772641317957696800,0.60769677734375,-0.9877471923828125,-0.184356689453125,0.043121337890625
1772641317967742700,0.61774267578125,-0.9849700927734375,-0.1893157958984375,0.0487213134765625
1772641317977787400,0.627787353515625,-0.9813232421875,-0.1888427734375,0.051300048828125
1772641317987832600,0.63783251953125,-0.9771881103515625,-0.1879425048828125,0.0509490966796875
1772641317997878500,0.64787841796875,-0.9711456298828125,-0.1883544921875,0.052947998046875
1772641318007923700,0.657923828125,-0.9667510986328125,-0.1891937255859375,0.0586700439453125
1772641318017968600,0.66796875,-0.9661102294921875,-0.1876373291015625,0.0700225830078125
1772641318028014600,0.6780146484375,-0.9682464599609375,-0.1842803955078125,0.0817413330078125
1772641318038059500,0.6880595703125,-0.974090576171875,-0.1832275390625,0.0918426513671875
1772641318048104400,0.6981044921875,-0.9821319580078125,-0.1824493408203125,0.098175048828125
1772641318058149600,0.708149658203125,-0.9930572509765625,-0.179595947265625,0.101837158203125
1772641318068195600,0.718195556640625,-0.9971160888671875,-0.17523193359375,0.1009063720703125
1772641318078240500,0.728240478515625,-1.00506591796875,-0.1723175048828125,0.097808837890625
1772641318088285700,0.73828564453125,-1.0171661376953125,-0.1704559326171875,0.094268798828125
1772641318098331400,0.748331298828125,-1.0352935791015625,-0.1731719970703125,0.0965423583984375
1772641318108376600,0.75837646484375,-1.052886962890625,-0.18634033203125,0.110565185546875
1772641318118421500,0.76842138671875,-1.0514984130859375,-0.2030792236328125,0.118438720703125
1772641318128467500,0.778467529296875,-1.0401611328125,-0.211090087890625,0.1164703369140625
1772641318138512600,0.7885126953125,-1.02679443359375,-0.208831787109375,0.1035003662109375
1772641318148557600,0.7985576171875,-1.0164031982421875,-0.2126312255859375,0.091796875
1772641318158602500,0.8086025390625,-1.0132904052734375,-0.2169342041015625,0.0867156982421875
1772641318168648400,0.8186484375,-1.003509521484375,-0.2079315185546875,0.0731353759765625
1772641318178693600,0.828693603515625,-0.9960174560546875,-0.186798095703125,0.0512237548828125
1772641318188738600,0.838738525390625,-0.995361328125,-0.1627044677734375,0.0241851806640625
1772641318198784500,0.848784423828125,-1.005218505859375,-0.1335601806640625,-0.004669189453125
1772641318208829700,0.85882958984375,-1.0294952392578125,-0.0991058349609375,-0.025726318359375
1772641318218874400,0.868874267578125,-1.062713623046875,-0.0644989013671875,-0.027099609375
1772641318228920600,0.878920654296875,-1.0910186767578125,-0.035247802734375,-0.01416015625
1772641318238965500,0.888965576171875,-1.11102294921875,-0.012115478515625,0.0023956298828125
1772641318249010700,0.8990107421875,-1.1278839111328125,0.0081939697265625,0.0176544189453125
1772641318259056600,0.909056640625,-1.1502227783203125,0.0280303955078125,0.03363037109375
1772641318269101600,0.9191015625,-1.1483612060546875,0.0428924560546875,0.037109375
1772641318279146800,0.929146728515625,-1.137176513671875,0.04705810546875,0.039276123046875
1772641318289191400,0.93919140625,-1.1124420166015625,0.04901123046875,0.036590576171875
1772641318299237400,0.9492373046875,-1.0797119140625,0.04437255859375,0.0379791259765625
1772641318309282600,0.959282470703125,-1.0430908203125,0.0370941162109375,0.0454254150390625
1772641318319327500,0.969327392578125,-1.004119873046875,0.027496337890625,0.0494232177734375
1772641318329373700,0.979373779296875,-0.969085693359375,0.0186004638671875,0.0479736328125
1772641318339418600,0.989418701171875,-0.93609619140625,0.0068511962890625,0.0449066162109375
1772641318349463600,0.999463623046875,-0.9015350341796875,-0.0036163330078125,0.0331878662109375
1772641318359509500,1.009509521484375,-0.87200927734375,-0.0144805908203125,0.021026611328125
1772641318369554400,1.019554443359375,-0.8459930419921875,-0.02557373046875,0.013671875
1772641318379599600,1.029599609375,-0.826202392578125,-0.033355712890625,0.0086822509765625
1772641318389644500,1.03964453125,-0.8162841796875,-0.0404510498046875,0.0052642822265625
1772641318399690800,1.049690673828125,-0.8140869140625,-0.04541015625,0.0048370361328125
1772641318409735700,1.059735595703125,-0.80975341796875,-0.0475616455078125,0.00762939453125
1772641318419780600,1.069780517578125,-0.807403564453125,-0.0478057861328125,0.0091705322265625
1772641318429826600,1.07982666015625,-0.812896728515625,-0.0426788330078125,0.00946044921875
1772641318439871500,1.08987158203125,-0.824920654296875,-0.03302001953125,0.01434326171875
1772641318449916700,1.099916748046875,-0.847198486328125,-0.025604248046875,0.0173797607421875
1772641318459962600,1.109962646484375,-0.881805419921875,-0.016876220703125,0.0244598388671875
1772641318470007600,1.120007568359375,-0.912933349609375,-0.00421142578125,0.0366973876953125
1772641318480052500,1.130052490234375,-0.940032958984375,0.008758544921875,0.0529937744140625
1772641318490097400,1.140097412109375,-0.9626617431640625,0.01806640625,0.0710296630859375
1772641318500143600,1.1501435546875,-0.981903076171875,0.021209716796875,0.0813751220703125
1772641318510188500,1.1601884765625,-1.0040130615234375,0.0202178955078125,0.0865936279296875
1772641318520233700,1.170233642578125,-1.0164794921875,0.01287841796875,0.0835723876953125
1772641318530279700,1.18027978515625,-1.015899658203125,-0.0042877197265625,0.071044921875
1772641318540324400,1.190324462890625,-1.00665283203125,-0.0235443115234375,0.052276611328125
1772641318550369500,1.20036962890625,-0.9906768798828125,-0.043609619140625,0.0329742431640625
1772641318560415500,1.21041552734375,-0.9755706787109375,-0.0640411376953125,0.0188446044921875
1772641318570460700,1.220460693359375,-0.95989990234375,-0.08245849609375,0.00946044921875
1772641318580505600,1.230505615234375,-0.9459686279296875,-0.097930908203125,0.0047760009765625
1772641318590550800,1.24055078125,-0.9335784912109375,-0.1089630126953125,0.0008392333984375
1772641318600596700,1.2505966796875,-0.927520751953125,-0.1198272705078125,-0.00433349609375
1772641318610641400,1.260641357421875,-0.9274139404296875,-0.1286468505859375,-0.0133514404296875
1772641318620686600,1.2706865234375,-0.92608642578125,-0.1325225830078125,-0.0181427001953125
1772641318630732500,1.280732666015625,-0.92462158203125,-0.132568359375,-0.0225067138671875
1772641318640777500,1.290777587890625,-0.92962646484375,-0.12847900390625,-0.0264434814453125
1772641318650822700,1.30082275390625,-0.939300537109375,-0.1229095458984375,-0.0281219482421875
1772641318660868600,1.31086865234375,-0.9519500732421875,-0.1158294677734375,-0.0274505615234375
1772641318670913500,1.32091357421875,-0.9601593017578125,-0.1102752685546875,-0.029022216796875
1772641318680958500,1.33095849609375,-0.9707183837890625,-0.100860595703125,-0.024810791015625
1772641318691003600,1.341003662109375,-0.9797515869140625,-0.091705322265625,-0.0187530517578125
1772641318701049600,1.351049560546875,-0.9874725341796875,-0.0848388671875,-0.0065155029296875
1772641318711094500,1.361094482421875,-0.994384765625,-0.0814666748046875,0.00592041015625
1772641318721139700,1.3711396484375,-0.996429443359375,-0.080718994140625,0.0124359130859375
1772641318731185700,1.381185546875,-0.99761962890625,-0.0777740478515625,0.0164794921875
1772641318741230600,1.391230712890625,-1.00152587890625,-0.07763671875,0.0190277099609375
1772641318751275500,1.401275634765625,-1.00543212890625,-0.0820465087890625,0.02105712890625
1772641318761322200,1.411322265625,-1.0071563720703125,-0.084625244140625,0.022674560546875
1772641318771367200,1.4213671875,-1.008575439453125,-0.083831787109375,0.023284912109375
1772641318781412000,1.431412109375,-1.01385498046875,-0.084869384765625,0.024139404296875
1772641318791457300,1.441457275390625,-1.0209808349609375,-0.084075927734375,0.0225677490234375
1772641318801503200,1.451503173828125,-1.0274200439453125,-0.0839385986328125,0.023345947265625
1772641318811548200,1.461548095703125,-1.0273284912109375,-0.0870208740234375,0.02203369140625
1772641318821593000,1.471593017578125,-1.0263214111328125,-0.0920562744140625,0.01971435546875
1772641318831639000,1.48163916015625,-1.02484130859375,-0.10198974609375,0.0174713134765625
1772641318841684200,1.491684326171875,-1.0235443115234375,-0.109344482421875,0.016937255859375
1772641318851729200,1.501729248046875,-1.0193939208984375,-0.116546630859375,0.0195159912109375
1772641318861775000,1.511775146484375,-1.0050201416015625,-0.12164306640625,0.0264129638671875
1772641318871820300,1.5218203125,-0.995941162109375,-0.12255859375,0.0347137451171875
1772641318881865200,1.531865234375,-0.9892578125,-0.1222686767578125,0.0388336181640625
1772641318891910100,1.54191015625,-0.9897918701171875,-0.12664794921875,0.043365478515625
1772641318901956000,1.5519560546875,-0.99627685546875,-0.13671875,0.054229736328125
1772641318912001000,1.5620009765625,-0.9986419677734375,-0.1342620849609375,0.0500640869140625
1772641318922046200,1.572046142578125,-1.0036468505859375,-0.131561279296875,0.0303192138671875
1772641318932092200,1.582092041015625,-1.009185791015625,-0.142333984375,0.0157623291015625
1772641318942137300,1.592137451171875,-1.0218048095703125,-0.153228759765625,0.0082244873046875
1772641318952182000,1.60218212890625,-1.034423828125,-0.1551055908203125,-0.0015716552734375
1772641318962228000,1.61222802734375,-1.0457305908203125,-0.16107177734375,-0.0036163330078125
1772641318972273200,1.622273193359375,-1.0543975830078125,-0.1788482666015625,0.0070953369140625
1772641318982318000,1.632318115234375,-1.0522003173828125,-0.1968841552734375,0.0239410400390625
1772641318992363300,1.64236328125,-1.048187255859375,-0.20050048828125,0.0326080322265625
1772641319002409200,1.6524091796875,-1.0602264404296875,-0.1981048583984375,0.036163330078125
1772641319012454100,1.6624541015625,-1.082275390625,-0.1966400146484375,0.039459228515625
1772641319022499000,1.6724990234375,-1.0909576416015625,-0.1988067626953125,0.0357818603515625
1772641319032545000,1.682544921875,-1.108551025390625,-0.1903228759765625,0.0260162353515625
1772641319042590200,1.692590087890625,-1.1309051513671875,-0.1691131591796875,0.0040740966796875
1772641319052635100,1.70263525390625,-1.1462249755859375,-0.14501953125,-0.01995849609375
1772641319062681000,1.71268115234375,-1.173187255859375,-0.120635986328125,-0.0342864990234375
1772641319072726300,1.722726318359375,-1.19244384765625,-0.0978240966796875,-0.0447845458984375
1772641319082771000,1.73277099609375,-1.21026611328125,-0.066131591796875,-0.0478057861328125
1772641319092816100,1.742816162109375,-1.2121429443359375,-0.0307464599609375,-0.0372467041015625
1772641319102862000,1.752862060546875,-1.1958770751953125,-0.005279541015625,-0.01953125
1772641319112907300,1.7629072265625,-1.16790771484375,0.0135345458984375,0.0002899169921875
1772641319122952200,1.7729521484375,-1.1304931640625,0.019256591796875,0.020294189453125
1772641319132998100,1.782998046875,-1.0867919921875,0.015167236328125,0.0319366455078125
1772641319143043000,1.79304296875,-1.0438995361328125,0.006317138671875,0.03533935546875
1772641319153088000,1.803087890625,-1.010223388671875,-0.0055999755859375,0.0342254638671875
1772641319163134200,1.81313427734375,-0.985382080078125,-0.0179595947265625,0.027313232421875
1772641319173179100,1.82317919921875,-0.9668426513671875,-0.0279541015625,0.0230255126953125
1772641319183224300,1.833224365234375,-0.950225830078125,-0.0350494384765625,0.0199127197265625
1772641319193269200,1.843269287109375,-0.930450439453125,-0.0377349853515625,0.0247650146484375
1772641319203315200,1.853315185546875,-0.906707763671875,-0.037994384765625,0.034881591796875
1772641319213360000,1.863360107421875,-0.883880615234375,-0.0329132080078125,0.04766845703125
1772641319223405000,1.873405029296875,-0.873260498046875,-0.02459716796875,0.0597991943359375
1772641319233451000,1.883450927734375,-0.873260498046875,-0.013702392578125,0.0731353759765625
1772641319243496200,1.89349609375,-0.873748779296875,-0.0070037841796875,0.0882720947265625
1772641319253541000,1.903541015625,-0.87353515625,-0.00347900390625,0.09814453125
1772641319263587300,1.91358740234375,-0.870086669921875,-0.0037841796875,0.1077423095703125
1772641319273632000,1.923632080078125,-0.85968017578125,-0.008453369140625,0.1114349365234375
1772641319283677200,1.93367724609375,-0.854766845703125,-0.016387939453125,0.1146087646484375
1772641319293722000,1.94372216796875,-0.8480377197265625,-0.02734375,0.114593505859375
1772641319303768000,1.95376806640625,-0.8433380126953125,-0.0369415283203125,0.1112060546875
1772641319313813200,1.963813232421875,-0.8420562744140625,-0.04443359375,0.1040496826171875
1772641319323858200,1.973858154296875,-0.842803955078125,-0.0477294921875,0.09490966796875
1772641319333904400,1.983904296875,-0.8462677001953125,-0.047821044921875,0.088714599609375
1772641319343949000,1.993948974609375,-0.852142333984375,-0.04296875,0.0877532958984375
1772641319353994200,2.003994140625,-0.856964111328125,-0.0360565185546875,0.08648681640625
1772641319364040200,2.014040283203125,-0.8702239990234375,-0.02703857421875,0.088470458984375
1772641319374085000,2.024085205078125,-0.8897705078125,-0.0177001953125,0.0949554443359375
1772641319384130300,2.03413037109375,-0.912506103515625,-0.007232666015625,0.1018218994140625
1772641319394175000,2.044175048828125,-0.941864013671875,0.0016632080078125,0.108795166015625
1772641319404221200,2.05422119140625,-0.9703369140625,0.0069427490234375,0.117889404296875
1772641319414266000,2.06426611328125,-0.985687255859375,0.0083160400390625,0.1195831298828125
1772641319424311000,2.07431103515625,-0.996734619140625,0.0028839111328125,0.1100311279296875
1772641319434357200,2.084357177734375,-0.9954071044921875,-0.0040435791015625,0.0924224853515625
1772641319444402200,2.094402099609375,-0.9935455322265625,-0.0160064697265625,0.070037841796875
1772641319454447000,2.104447021484375,-0.98681640625,-0.0299530029296875,0.0539703369140625
1772641319464493000,2.1144931640625,-0.9774169921875,-0.043243408203125,0.0416259765625
1772641319474538000,2.1245380859375,-0.9669036865234375,-0.05389404296875,0.033355712890625
1772641319484583200,2.134583251953125,-0.95953369140625,-0.0647430419921875,0.0313262939453125
1772641319494628000,2.144628173828125,-0.9549713134765625,-0.074462890625,0.028594970703125
1772641319504674300,2.15467431640625,-0.956634521484375,-0.0802001953125,0.023834228515625
1772641319514719200,2.16471923828125,-0.9554443359375,-0.08392333984375,0.0166473388671875
1772641319524764200,2.17476416015625,-0.9587554931640625,-0.088531494140625,0.007415771484375
1772641319534810000,2.18481005859375,-0.9653167724609375,-0.08746337890625,-0.0032958984375
1772641319544855000,2.19485498046875,-0.96966552734375,-0.08734130859375,-0.012481689453125
1772641319554900200,2.204900146484375,-0.97015380859375,-0.087249755859375,-0.020416259765625
1772641319564946200,2.2149462890625,-0.9788970947265625,-0.0865020751953125,-0.0364227294921875
1772641319574991000,2.2249912109375,-0.9990997314453125,-0.0842437744140625,-0.0470123291015625
1772641319585036000,2.2350361328125,-1.0093231201171875,-0.0843048095703125,-0.0467071533203125
1772641319595081200,2.245081298828125,-1.009063720703125,-0.082733154296875,-0.0332183837890625
1772641319605127200,2.255127197265625,-1.0014801025390625,-0.0811004638671875,-0.019683837890625
1772641319615172000,2.265172119140625,-0.9895782470703125,-0.079864501953125,-0.008819580078125
1772641319625217300,2.27521728515625,-0.983551025390625,-0.0807037353515625,0.0006866455078125
1772641319635263200,2.28526318359375,-0.9835052490234375,-0.0796661376953125,0.0068359375
1772641319645308200,2.29530810546875,-0.98223876953125,-0.078399658203125,0.012786865234375
1772641319655353000,2.30535302734375,-0.9776611328125,-0.079986572265625,0.016265869140625
1772641319665399000,2.31539892578125,-0.97674560546875,-0.0868377685546875,0.0189666748046875
1772641319675444200,2.3254443359375,-0.9752960205078125,-0.091644287109375,0.021636962890625
1772641319685489200,2.3354892578125,-0.9683990478515625,-0.100494384765625,0.024749755859375
1772641319695535000,2.34553515625,-0.9624176025390625,-0.112701416015625,0.02691650390625
1772641319705580300,2.355580322265625,-0.9588470458984375,-0.1214447021484375,0.022979736328125
1772641319715625000,2.365625,-0.9613037109375,-0.129425048828125,0.018707275390625
1772641319725670100,2.375670166015625,-0.967193603515625,-0.1380767822265625,0.0189971923828125
1772641319735716000,2.385716064453125,-0.969146728515625,-0.1455841064453125,0.0194854736328125
1772641319745761300,2.39576123046875,-0.968597412109375,-0.1512298583984375,0.0188140869140625
1772641319755806200,2.40580615234375,-0.96844482421875,-0.15216064453125,0.0190582275390625
1772641319765851400,2.415851318359375,-0.969390869140625,-0.1537322998046875,0.022186279296875
1772641319775896600,2.425896484375,-0.9745330810546875,-0.156768798828125,0.0313873291015625
1772641319785941500,2.43594140625,-0.976104736328125,-0.1587066650390625,0.043487548828125
1772641319795986700,2.445986572265625,-0.9738922119140625,-0.1562347412109375,0.05047607421875
1772641319806032600,2.45603271484375,-0.9767913818359375,-0.15179443359375,0.0493011474609375
1772641319816077600,2.46607763671875,-0.989013671875,-0.1439666748046875,0.0466461181640625
1772641319826122500,2.47612255859375,-1.00701904296875,-0.139617919921875,0.04705810546875
1772641319836168400,2.48616845703125,-1.022674560546875,-0.13519287109375,0.046478271484375
1772641319846213600,2.496213623046875,-1.0348663330078125,-0.125579833984375,0.04473876953125
1772641319856258600,2.506258544921875,-1.0481719970703125,-0.11651611328125,0.04559326171875
1772641319866304500,2.516304443359375,-1.0650634765625,-0.1055908203125,0.0471954345703125
1772641319876349400,2.526349365234375,-1.08331298828125,-0.1012420654296875,0.0550537109375
1772641319886394600,2.53639453125,-1.0944976806640625,-0.0982208251953125,0.0604248046875
1772641319896440600,2.546440673828125,-1.1020050048828125,-0.0998687744140625,0.0626983642578125
1772641319906485500,2.556485595703125,-1.11212158203125,-0.1102752685546875,0.064727783203125
1772641319916530700,2.56653076171875,-1.110809326171875,-0.1272735595703125,0.0697174072265625
1772641319926575600,2.57657568359375,-1.10614013671875,-0.1393890380859375,0.0711669921875
1772641319936621600,2.58662158203125,-1.1037445068359375,-0.13836669921875,0.0647430419921875
1772641319946666500,2.59666650390625,-1.119964599609375,-0.1360931396484375,0.06622314453125
1772641319956711400,2.60671142578125,-1.1291656494140625,-0.1358795166015625,0.0644073486328125
1772641319966757600,2.616757568359375,-1.13262939453125,-0.125457763671875,0.047515869140625
1772641319976802600,2.626802490234375,-1.131988525390625,-0.1054840087890625,0.016998291015625
1772641319986847700,2.63684765625,-1.1255645751953125,-0.0891265869140625,-0.02142333984375
1772641319996893700,2.646893798828125,-1.1275482177734375,-0.0612945556640625,-0.04364013671875
1772641320006938400,2.6569384765625,-1.135101318359375,-0.034210205078125,-0.0545196533203125
1772641320016983600,2.666983642578125,-1.142425537109375,-0.0069427490234375,-0.053314208984375
1772641320027028500,2.677028564453125,-1.146484375,0.02032470703125,-0.0353240966796875
1772641320037074700,2.68707470703125,-1.138580322265625,0.0388641357421875,-0.0110931396484375
1772641320047119600,2.69711962890625,-1.1136627197265625,0.0490570068359375,0.001220703125
1772641320057164500,2.70716455078125,-1.100006103515625,0.0499114990234375,0.0199127197265625
1772641320067210800,2.717210693359375,-1.05938720703125,0.04522705078125,0.036376953125
1772641320077255400,2.72725537109375,-1.0220947265625,0.0374908447265625,0.042572021484375
1772641320087300600,2.737300537109375,-0.97772216796875,0.0268096923828125,0.045074462890625
1772641320097346600,2.7473466796875,-0.928741455078125,0.014129638671875,0.0460205078125
1772641320107391500,2.7573916015625,-0.8867645263671875,0.0007781982421875,0.0527496337890625
1772641320117436700,2.767436767578125,-0.8532867431640625,-0.0068817138671875,0.057952880859375
1772641320127481300,2.7774814453125,-0.822967529296875,-0.00970458984375,0.0575714111328125
1772641320137527600,2.787527587890625,-0.8056793212890625,-0.0121612548828125,0.051605224609375
1772641320147572500,2.797572509765625,-0.80621337890625,-0.0123748779296875,0.0354156494140625
1772641320157617700,2.80761767578125,-0.81640625,-0.0124053955078125,0.011138916015625
1772641320167663600,2.81766357421875,-0.8263092041015625,-0.0136566162109375,-0.0120849609375
1772641320177708500,2.82770849609375,-0.8297576904296875,-0.0131072998046875,-0.0357818603515625
1772641320187753700,2.837753662109375,-0.83233642578125,-0.0124664306640625,-0.054046630859375
1772641320197799700,2.847799560546875,-0.83258056640625,-0.0161895751953125,-0.068878173828125
1772641320207844600,2.8578447265625,-0.8300018310546875,-0.022613525390625,-0.0792999267578125
1772641320217889500,2.8678896484375,-0.8344268798828125,-0.0236663818359375,-0.0792388916015625
1772641320227934700,2.877934814453125,-0.846954345703125,-0.020233154296875,-0.06903076171875
1772641320237980700,2.887980712890625,-0.869415283203125,-0.0181884765625,-0.0384063720703125
1772641320248025600,2.898025634765625,-0.8986358642578125,0.0051116943359375,-0.02459716796875
1772641320258070500,2.908070556640625,-0.922943115234375,0.013214111328125,-0.007110595703125
1772641320268116500,2.918116455078125,-0.94842529296875,0.0078125,0.01434326171875
1772641320278161400,2.928161376953125,-0.963897705078125,0.0128326416015625,0.020843505859375
1772641320288206600,2.93820654296875,-0.9734954833984375,0.016021728515625,0.0246429443359375
1772641320298252500,2.94825244140625,-0.9759368896484375,0.017242431640625,0.0206756591796875
1772641320308297700,2.958297607421875,-0.9854278564453125,0.00274658203125,0.0206451416015625
1772641320318342400,2.96834228515625,-0.9838409423828125,-0.0181121826171875,0.02593994140625
1772641320328387600,2.9783876953125,-0.9739227294921875,-0.035675048828125,0.0266876220703125
1772641320338433500,2.98843359375,-0.9529571533203125,-0.05450439453125,0.0279388427734375
1772641320348478500,2.998478515625,-0.93450927734375,-0.072998046875,0.027618408203125
1772641320358523600,3.008523681640625,-0.91900634765625,-0.0872039794921875,0.0249786376953125
1772641320368569600,3.018569580078125,-0.914459228515625,-0.098114013671875,0.02020263671875
1772641320378614800,3.02861474609375,-0.9180145263671875,-0.104888916015625,0.01507568359375
1772641320388659500,3.038659423828125,-0.923248291015625,-0.1083984375,0.00921630859375
1772641320398705400,3.048705322265625,-0.9352264404296875,-0.10504150390625,0.005401611328125
1772641320408750600,3.05875048828125,-0.944061279296875,-0.0957489013671875,0.0037994384765625
1772641320418795500,3.06879541015625,-0.9639129638671875,-0.0862579345703125,0.0071563720703125
1772641320428840700,3.0788408203125,-0.9962005615234375,-0.074432373046875,0.0139923095703125
1772641320438886700,3.08888671875,-1.01885986328125,-0.05908203125,0.01922607421875
1772641320448931300,3.098931396484375,-1.0334320068359375,-0.04736328125,0.0214385986328125
1772641320458976500,3.1089765625,-1.0531005859375,-0.042755126953125,0.0255889892578125
1772641320469022500,3.1190224609375,-1.0773162841796875,-0.0401611328125,0.0267333984375
1772641320479067600,3.129067626953125,-1.0916595458984375,-0.03985595703125,0.022979736328125
1772641320489112600,3.139112548828125,-1.1084747314453125,-0.04345703125,0.017578125
1772641320499158500,3.149158447265625,-1.1064300537109375,-0.0489349365234375,0.0184478759765625
1772641320509203700,3.15920361328125,-1.0885467529296875,-0.0444793701171875,0.0094757080078125
1772641320519248400,3.169248291015625,-1.0696258544921875,-0.0537261962890625,0.0105438232421875
1772641320529293600,3.17929345703125,-1.048004150390625,-0.071380615234375,0.01898193359375
1772641320539339500,3.189339599609375,-1.024505615234375,-0.0813446044921875,0.0292816162109375
1772641320549384700,3.199384765625,-1.0008544921875,-0.0874176025390625,0.037811279296875
1772641320559429600,3.2094296875,-0.984710693359375,-0.09783935546875,0.042205810546875
1772641320569475600,3.2194755859375,-0.9777679443359375,-0.1112823486328125,0.041778564453125
1772641320579520500,3.2295205078125,-0.9745941162109375,-0.1226348876953125,0.035369873046875
1772641320589565400,3.2395654296875,-0.9705352783203125,-0.1328277587890625,0.0267486572265625
1772641320599611600,3.249611572265625,-0.967437744140625,-0.1413726806640625,0.0209503173828125
1772641320609656600,3.259656494140625,-0.97113037109375,-0.145904541015625,0.0159912109375
1772641320619701500,3.269701416015625,-0.9763641357421875,-0.1436004638671875,0.012603759765625
1772641320629746700,3.27974658203125,-0.9821319580078125,-0.1376800537109375,0.012451171875
1772641320639792600,3.289792724609375,-0.9955291748046875,-0.1290435791015625,0.014129638671875
1772641320649837600,3.299837646484375,-1.0101470947265625,-0.118682861328125,0.0166778564453125
1772641320659882500,3.309882568359375,-1.0296783447265625,-0.1094207763671875,0.0206451416015625
1772641320669928400,3.319928466796875,-1.0478515625,-0.103240966796875,0.0265045166015625
1772641320679973600,3.3299736328125,-1.066070556640625,-0.109619140625,0.0424957275390625
1772641320690018600,3.3400185546875,-1.0701141357421875,-0.1162872314453125,0.0589141845703125
1772641320700064800,3.350064697265625,-1.0718994140625,-0.11053466796875,0.063079833984375
1772641320710109400,3.360109375,-1.084136962890625,-0.101806640625,0.062652587890625
1772641320720154600,3.370154541015625,-1.0981597900390625,-0.1038665771484375,0.0634918212890625
1772641320730200600,3.38020068359375,-1.101654052734375,-0.1031951904296875,0.056121826171875
1772641320740245500,3.39024560546875,-1.1022796630859375,-0.07867431640625,0.02911376953125
1772641320750290700,3.400290771484375,-1.1208343505859375,-0.0382843017578125,-0.0022735595703125
1772641320760335600,3.410335693359375,-1.154266357421875,-0.008575439453125,-0.0225372314453125
1772641320770382000,3.420382080078125,-1.1702880859375,0.015289306640625,-0.0334625244140625
1772641320780427300,3.43042724609375,-1.1832733154296875,0.0354156494140625,-0.04168701171875
1772641320790472000,3.440471923828125,-1.19952392578125,0.055328369140625,-0.0343475341796875
1772641320800518100,3.45051806640625,-1.1866607666015625,0.0714263916015625,-0.0156707763671875
1772641320810563000,3.46056298828125,-1.165130615234375,0.0779571533203125,-0.0025787353515625
1772641320820608300,3.470608154296875,-1.13763427734375,0.0824432373046875,0.00396728515625
1772641320830653200,3.480653076171875,-1.1066741943359375,0.0755615234375,0.0059356689453125
1772641320840699100,3.49069921875,-1.071990966796875,0.0561676025390625,0.004058837890625
1772641320850744300,3.500744384765625,-1.0318756103515625,0.033172607421875,0.00616455078125
1772641320860789000,3.5107890625,-0.989105224609375,0.016876220703125,0.0089263916015625
1772641320870835000,3.5208349609375,-0.9438934326171875,0.0008087158203125,0.013916015625
1772641320880880000,3.530880126953125,-0.901123046875,-0.016693115234375,0.016448974609375
1772641320890925000,3.540925048828125,-0.8596038818359375,-0.031707763671875,0.0214080810546875
1772641320900971300,3.55097119140625,-0.8241729736328125,-0.040252685546875,0.0226287841796875
1772641320911016200,3.56101611328125,-0.80291748046875,-0.043426513671875,0.0263214111328125
1772641320921061000,3.57106103515625,-0.8015594482421875,-0.0428009033203125,0.029937744140625
1772641320931107000,3.581107177734375,-0.8054656982421875,-0.0366973876953125,0.0300445556640625
1772641320941152000,3.591152099609375,-0.8199005126953125,-0.0292205810546875,0.0287017822265625
1772641320951197200,3.601197265625,-0.833740234375,-0.0219879150390625,0.029205322265625
1772641320961242000,3.6112421875,-0.8426361083984375,-0.01751708984375,0.03192138671875
1772641320971288300,3.621288330078125,-0.841278076171875,-0.01568603515625,0.0348663330078125
1772641320981333200,3.631333251953125,-0.836090087890625,-0.0154266357421875,0.0380096435546875
1772641320991378200,3.641378173828125,-0.8358306884765625,-0.0151519775390625,0.0399322509765625
1772641321001424100,3.651424072265625,-0.843414306640625,-0.0147857666015625,0.0447235107421875
1772641321011469000,3.661468994140625,-0.84808349609375,-0.0112152099609375,0.05047607421875
1772641321021514200,3.67151416015625,-0.8593597412109375,-0.0031585693359375,0.0596923828125
1772641321031560200,3.681560302734375,-0.877227783203125,0.0063323974609375,0.071746826171875
1772641321041605000,3.691605224609375,-0.9044189453125,0.01873779296875,0.083587646484375
1772641321051650000,3.701650146484375,-0.9384307861328125,0.0312347412109375,0.0944061279296875
1772641321061695000,3.711695068359375,-0.9653778076171875,0.0409698486328125,0.0987091064453125
1772641321071741200,3.7217412109375,-0.9878387451171875,0.04541015625,0.093597412109375
1772641321081786000,3.7317861328125,-1.00933837890625,0.0441741943359375,0.0866851806640625
1772641321091831300,3.741831298828125,-1.0222015380859375,0.0360870361328125,0.07598876953125
1772641321101877200,3.751877197265625,-1.0171051025390625,0.0228424072265625,0.0600128173828125
1772641321111922200,3.761922119140625,-1.0108489990234375,0.004608154296875,0.04486083984375
1772641321121967000,3.771967041015625,-1.0008697509765625,-0.0142822265625,0.0326690673828125
1772641321132013000,3.782012939453125,-0.990386962890625,-0.0347137451171875,0.027008056640625
1772641321142058200,3.792058349609375,-0.9844207763671875,-0.053924560546875,0.018707275390625
1772641321152103200,3.802103271484375,-0.9801025390625,-0.07012939453125,0.0120391845703125
1772641321162148400,3.8121484375,-0.974822998046875,-0.0842132568359375,0.0077362060546875
1772641321172194300,3.8221943359375,-0.9718475341796875,-0.094879150390625,0.0067901611328125
1772641321182239000,3.832239013671875,-0.9717559814453125,-0.099884033203125,0.002960205078125
1772641321192284200,3.8422841796875,-0.9801025390625,-0.100189208984375,-0.00146484375
1772641321202330000,3.852330078125,-0.986907958984375,-0.10107421875,-0.0044097900390625
1772641321212375000,3.862375,-0.9935150146484375,-0.09625244140625,-0.001861572265625
1772641321222420200,3.872420166015625,-0.9998931884765625,-0.090911865234375,0.00323486328125
1772641321232466200,3.882466064453125,-1.001434326171875,-0.0837249755859375,0.0110931396484375
1772641321242511000,3.892510986328125,-1.0043182373046875,-0.0761260986328125,0.01776123046875
1772641321252556000,3.90255615234375,-1.0098419189453125,-0.0718841552734375,0.0253448486328125
1772641321262601200,3.912601318359375,-1.01385498046875,-0.068939208984375,0.0319366455078125
1772641321272647200,3.922647216796875,-1.0146942138671875,-0.0676116943359375,0.0365142822265625
1772641321282692000,3.932692138671875,-1.0131683349609375,-0.0657501220703125,0.04217529296875
1772641321292737300,3.9427373046875,-1.0151824951171875,-0.0668487548828125,0.047027587890625
1772641321302783200,3.952783203125,-1.0172271728515625,-0.0675811767578125,0.051605224609375
1772641321312828200,3.962828125,-1.01239013671875,-0.0705413818359375,0.054779052734375
1772641321322873000,3.972873046875,-1.005767822265625,-0.0745697021484375,0.058319091796875
1772641321332919000,3.9829189453125,-0.9987030029296875,-0.0819854736328125,0.0631256103515625
1772641321342964200,3.992964111328125,-0.9888153076171875,-0.091033935546875,0.066436767578125
1772641321353009200,4.003009033203125,-0.9831085205078125,-0.1038055419921875,0.0628814697265625
1772641321363054000,4.01305419921875,-0.985137939453125,-0.1144561767578125,0.0568695068359375
1772641321373100000,4.02310009765625,-0.989715576171875,-0.12164306640625,0.0524749755859375
1772641321383145200,4.033145263671875,-0.9982757568359375,-0.1281585693359375,0.0554962158203125
1772641321393190100,4.043190185546875,-1.0023651123046875,-0.131683349609375,0.05560302734375
1772641321403236000,4.053236083984375,-1.0047607421875,-0.131072998046875,0.049713134765625
1772641321413281300,4.06328125,-0.9987030029296875,-0.130950927734375,0.0462493896484375
1772641321423326200,4.073326171875,-0.9915008544921875,-0.12774658203125,0.04736328125
1772641321433372200,4.0833720703125,-0.9812469482421875,-0.1293792724609375,0.0569915771484375
1772641321443417000,4.0934169921875,-0.974945068359375,-0.1301116943359375,0.0673065185546875
1772641321453462000,4.1034619140625,-0.9663238525390625,-0.129852294921875,0.07391357421875
1772641321463507200,4.113507080078125,-0.960601806640625,-0.1308746337890625,0.0733642578125
1772641321473553200,4.12355322265625,-0.961151123046875,-0.13226318359375,0.0731048583984375
1772641321483598300,4.133598388671875,-0.9665069580078125,-0.133758544921875,0.0701904296875
1772641321493643000,4.14364306640625,-0.969451904296875,-0.1346282958984375,0.06591796875
1772641321503689000,4.15368896484375,-0.975341796875,-0.133514404296875,0.060638427734375
1772641321513734100,4.163734130859375,-0.9832763671875,-0.132843017578125,0.059600830078125
1772641321523779000,4.173779052734375,-0.9919891357421875,-0.1329345703125,0.0642242431640625
1772641321533825300,4.1838251953125,-1.0060272216796875,-0.1380767822265625,0.07269287109375
1772641321543870200,4.1938701171875,-1.014312744140625,-0.1510009765625,0.08392333984375
1772641321553915100,4.2039150390625,-1.0169830322265625,-0.1570281982421875,0.0846710205078125
1772641321563960000,4.2139599609375,-1.0208892822265625,-0.151885986328125,0.072784423828125
1772641321574006000,4.224006103515625,-1.03778076171875,-0.1435089111328125,0.0609893798828125
1772641321584051200,4.23405126953125,-1.0577392578125,-0.1384429931640625,0.0525054931640625
1772641321594096000,4.24409619140625,-1.0854644775390625,-0.1291656494140625,0.045135498046875
1772641321604142000,4.25414208984375,-1.1046295166015625,-0.1119842529296875,0.02490234375
1772641321614187300,4.264187255859375,-1.102813720703125,-0.0921783447265625,0.003082275390625
1772641321624232000,4.27423193359375,-1.112823486328125,-0.07220458984375,-0.01312255859375
1772641321634278100,4.284278076171875,-1.140350341796875,-0.051239013671875,-0.0271148681640625
1772641321644323000,4.294322998046875,-1.1521148681640625,-0.0311126708984375,-0.0331268310546875
1772641321654368300,4.3043681640625,-1.187744140625,-0.0066070556640625,-0.0309906005859375
1772641321664413200,4.3144130859375,-1.20208740234375,0.0151519775390625,-0.0269317626953125
1772641321674459100,4.324459228515625,-1.208343505859375,0.028411865234375,-0.0244293212890625
1772641321684504000,4.334504150390625,-1.1966400146484375,0.036865234375,-0.0244293212890625
1772641321694549000,4.344549072265625,-1.169921875,0.0418243408203125,-0.0269927978515625
1772641321704595200,4.35459521484375,-1.131805419921875,0.04638671875,-0.032623291015625
1772641321714640100,4.36464013671875,-1.1055755615234375,0.0428924560546875,-0.01507568359375
1772641321724685300,4.374685302734375,-1.0589141845703125,0.0478973388671875,-0.0028228759765625
1772641321734731300,4.384731201171875,-1.019073486328125,0.04876708984375,0.001220703125
1772641321744776200,4.394776123046875,-0.97552490234375,0.0402679443359375,0.009765625
1772641321754821000,4.404821044921875,-0.9318389892578125,0.0311279296875,0.0193023681640625
1772641321764865500,4.414865478515625,-0.885528564453125,0.0244598388671875,0.026458740234375
1772641321774911700,4.424911865234375,-0.84130859375,0.0189971923828125,0.0294342041015625
1772641321784956700,4.434956787109375,-0.814483642578125,0.0129241943359375,0.0263214111328125
1772641321795001900,4.445001953125,-0.79974365234375,0.00726318359375,0.0204010009765625
1772641321805047800,4.4550478515625,-0.80755615234375,0.00347900390625,0.012451171875
1772641321815092700,4.4650927734375,-0.820220947265625,0.00140380859375,-0.0005950927734375
1772641321825137700,4.4751376953125,-0.8294525146484375,-0.001617431640625,-0.01263427734375
1772641321835183600,4.48518359375,-0.82232666015625,-0.007049560546875,-0.0233612060546875
1772641321845228800,4.495228759765625,-0.8153839111328125,-0.010894775390625,-0.0350799560546875
1772641321855273700,4.505273681640625,-0.8145599365234375,-0.011016845703125,-0.043243408203125
1772641321865319700,4.515319580078125,-0.8204345703125,-0.0077972412109375,-0.043182373046875
1772641321875364900,4.52536474609375,-0.8352508544921875,0.0003662109375,-0.028594970703125
1772641321885409500,4.535409423828125,-0.8598480224609375,0.006317138671875,-0.005462646484375
1772641321895454700,4.545454833984375,-0.8988037109375,0.0033721923828125,0.0160369873046875
1772641321905500700,4.555500732421875,-0.935455322265625,-0.0010528564453125,0.034149169921875
1772641321915545600,4.565545654296875,-0.9748382568359375,-0.003082275390625,0.0389556884765625
1772641321925590800,4.5755908203125,-1.0074920654296875,-0.004974365234375,0.0346527099609375
1772641321935636700,4.58563671875,-1.027252197265625,-0.0136260986328125,0.0289154052734375
1772641321945681700,4.595681640625,-1.041961669921875,-0.0273284912109375,0.024200439453125
1772641321955726600,4.6057265625,-1.0404052734375,-0.037994384765625,0.014617919921875
1772641321965771800,4.615771728515625,-1.039886474609375,-0.0494384765625,0.0012359619140625
1772641321975817700,4.625817626953125,-1.0363006591796875,-0.065582275390625,-0.01007080078125
1772641321985862700,4.635862548828125,-1.03472900390625,-0.0774688720703125,-0.0205078125
1772641321995907800,4.645907958984375,-1.0327606201171875,-0.0877227783203125,-0.0269622802734375
1772641322005953800,4.655953857421875,-1.027587890625,-0.096282958984375,-0.0301361083984375
1772641322015998700,4.665998779296875,-1.0198822021484375,-0.1023406982421875,-0.0350494384765625
1772641322026043600,4.676043701171875,-1.0096282958984375,-0.1038818359375,-0.04278564453125
1772641322036089600,4.686089599609375,-1.0015106201171875,-0.10272216796875,-0.0452423095703125
1772641322046134800,4.696134765625,-0.996612548828125,-0.101165771484375,-0.0416717529296875
1772641322056179700,4.7061796875,-0.99285888671875,-0.095306396484375,-0.033111572265625
1772641322066225700,4.7162255859375,-0.9886932373046875,-0.08856201171875,-0.0228729248046875
1772641322076270600,4.7262705078125,-0.9853515625,-0.079925537109375,-0.014495849609375
1772641322086315500,4.7363154296875,-0.9819488525390625,-0.0753326416015625,-0.0066070556640625
1772641322096360700,4.746360595703125,-0.9845733642578125,-0.0740509033203125,-0.0012054443359375
1772641322106406700,4.75640673828125,-0.9879608154296875,-0.07623291015625,-0.0016326904296875
1772641322116451800,4.766451904296875,-0.9881744384765625,-0.0786590576171875,-0.0046844482421875
1772641322126496800,4.776496826171875,-0.9844818115234375,-0.083953857421875,-0.0079803466796875
1772641322136542700,4.786542724609375,-0.9835052490234375,-0.0839691162109375,-0.005950927734375
1772641322146587600,4.796587646484375,-0.9724884033203125,-0.086944580078125,-0.0030364990234375
1772641322156632600,4.806632568359375,-0.9633026123046875,-0.0913543701171875,0.0025482177734375
1772641322166678800,4.8166787109375,-0.954681396484375,-0.093719482421875,0.00823974609375
1772641322176723700,4.8267236328125,-0.9425201416015625,-0.0982666015625,0.01312255859375
1772641322186769000,4.836768798828125,-0.936279296875,-0.1058197021484375,0.0149078369140625
1772641322196813600,4.8468134765625,-0.9303436279296875,-0.1169586181640625,0.0152130126953125
1772641322206859500,4.856859619140625,-0.9304351806640625,-0.1253662109375,0.01458740234375
1772641322216904700,4.86690478515625,-0.9357147216796875,-0.1323089599609375,0.0123443603515625
1772641322226949600,4.87694970703125,-0.937591552734375,-0.1347198486328125,0.0099945068359375
1772641322236995600,4.88699560546875,-0.9444427490234375,-0.1356658935546875,0.0123291015625
1772641322247040800,4.897040771484375,-0.9529876708984375,-0.1345062255859375,0.0165252685546875
1772641322257085700,4.907085693359375,-0.95709228515625,-0.135009765625,0.021270751953125
1772641322267132000,4.9171318359375,-0.9599609375,-0.1343231201171875,0.0248565673828125
1772641322277176600,4.927176513671875,-0.9563446044921875,-0.129791259765625,0.0283660888671875
1772641322287221800,4.9372216796875,-0.9525909423828125,-0.12615966796875,0.026824951171875
1772641322297266700,4.9472666015625,-0.9545745849609375,-0.1243896484375,0.024627685546875
1772641322307312600,4.957312744140625,-0.963653564453125,-0.1214141845703125,0.0203094482421875
1772641322317357800,4.96735791015625,-0.9823760986328125,-0.1155548095703125,0.0188140869140625
1772641322327402500,4.977402587890625,-1.003814697265625,-0.1092987060546875,0.01995849609375
1772641322337448700,4.98744873046875,-1.0152740478515625,-0.10577392578125,0.0193634033203125
1772641322347493600,4.99749365234375,-1.02081298828125,-0.1036529541015625,0.017364501953125
1772641322357538800,5.007538818359375,-1.0223388671875,-0.1046295166015625,0.01959228515625
1772641322367584800,5.017584716796875,-1.0230255126953125,-0.112518310546875,0.0302886962890625
1772641322377629700,5.027629638671875,-1.0191650390625,-0.1266021728515625,0.04248046875
1772641322387675000,5.0376748046875,-1.010528564453125,-0.141021728515625,0.04754638671875
1772641322397719600,5.047719482421875,-1.001373291015625,-0.1500091552734375,0.0439300537109375
1772641322407765500,5.057765625,-1.0078125,-0.1596527099609375,0.040496826171875
1772641322417810700,5.067810791015625,-1.02349853515625,-0.1648406982421875,0.0373687744140625
1772641322427855600,5.077855712890625,-1.0423126220703125,-0.15972900390625,0.0350341796875
1772641322437901800,5.08790185546875,-1.05902099609375,-0.146636962890625,0.027496337890625
1772641322447946800,5.09794677734375,-1.0741424560546875,-0.1236419677734375,0.0124359130859375
1772641322457991700,5.10799169921875,-1.084808349609375,-0.1009368896484375,-0.0004730224609375
1772641322468037600,5.11803759765625,-1.1204986572265625,-0.0813446044921875,-0.007904052734375
1772641322478082600,5.12808251953125,-1.134918212890625,-0.0665283203125,-0.01007080078125
1772641322488127700,5.138127685546875,-1.145843505859375,-0.05517578125,-0.003692626953125
1772641322498172700,5.148172607421875,-1.1390533447265625,-0.0445404052734375,0.00634765625
1772641322508219000,5.158218994140625,-1.1243743896484375,-0.034149169921875,0.01715087890625
1772641322518263600,5.168263671875,-1.1069793701171875,-0.03253173828125,0.0247802734375
1772641322528308700,5.178308837890625,-1.0845794677734375,-0.033966064453125,0.0308837890625
1772641322538354700,5.188354736328125,-1.0716094970703125,-0.039306640625,0.0326995849609375
1772641322548399600,5.198399658203125,-1.0584259033203125,-0.04888916015625,0.033447265625
1772641322558444800,5.20844482421875,-1.0357513427734375,-0.060638427734375,0.0286865234375
1772641322568489700,5.21848974609375,-1.012054443359375,-0.0683135986328125,0.0182037353515625
1772641322578535700,5.22853564453125,-0.9868316650390625,-0.0740966796875,0.00323486328125
1772641322588580600,5.23858056640625,-0.9633331298828125,-0.0773468017578125,-0.0112152099609375
1772641322598625500,5.24862548828125,-0.945343017578125,-0.077972412109375,-0.0164642333984375
1772641322608671700,5.258671630859375,-0.9277801513671875,-0.0745391845703125,-0.005889892578125
1772641322618716700,5.268716552734375,-0.91455078125,-0.0679168701171875,0.00927734375
1772641322628761900,5.278761962890625,-0.902679443359375,-0.054351806640625,0.030303955078125
1772641322638807800,5.288807861328125,-0.895111083984375,-0.0400390625,0.0470123291015625
1772641322648852500,5.2988525390625,-0.8895263671875,-0.025634765625,0.0584259033203125
1772641322658897700,5.308897705078125,-0.8912353515625,-0.0124969482421875,0.066558837890625
1772641322668942600,5.318942626953125,-0.8867034912109375,-0.00384521484375,0.073028564453125
1772641322678988800,5.32898876953125,-0.8848419189453125,0.002716064453125,0.079376220703125
1772641322689033700,5.33903369140625,-0.8868865966796875,0.00665283203125,0.086212158203125
1772641322699079000,5.349078857421875,-0.88092041015625,0.0097808837890625,0.094940185546875
1772641322709124900,5.359124755859375,-0.87457275390625,0.0138092041015625,0.105804443359375
1772641322719169500,5.36916943359375,-0.874298095703125,0.0163116455078125,0.114471435546875
1772641322729214700,5.379214599609375,-0.87579345703125,0.0186920166015625,0.1230621337890625
1772641322739260700,5.3892607421875,-0.882659912109375,0.0243988037109375,0.1255035400390625
1772641322749305600,5.3993056640625,-0.894775390625,0.0305328369140625,0.128631591796875
1772641322759350800,5.409350830078125,-0.9079437255859375,0.0332489013671875,0.1291961669921875
1772641322769397200,5.419397216796875,-0.92559814453125,0.033172607421875,0.129791259765625
1772641322779442200,5.429442138671875,-0.9437255859375,0.031005859375,0.12103271484375
1772641322789487000,5.439487060546875,-0.9584503173828125,0.0259552001953125,0.110260009765625
1772641322799532300,5.4495322265625,-0.9678955078125,0.0148468017578125,0.101715087890625
1772641322809578200,5.459578125,-0.980133056640625,-0.0006561279296875,0.0927886962890625
1772641322819623200,5.469623046875,-0.9864044189453125,-0.0159912109375,0.0823974609375
1772641322829668400,5.47966845703125,-0.9858551025390625,-0.0315399169921875,0.07183837890625
1772641322839714300,5.48971435546875,-0.9775238037109375,-0.044647216796875,0.0623626708984375
1772641322849759000,5.499759033203125,-0.9747467041015625,-0.0557708740234375,0.05059814453125
1772641322859804200,5.50980419921875,-0.9804229736328125,-0.068389892578125,0.043212890625
1772641322869849000,5.51984912109375,-0.982147216796875,-0.0778045654296875,0.039581298828125
1772641322879895300,5.529895263671875,-0.9805755615234375,-0.0847625732421875,0.0388946533203125
1772641322889940200,5.539940185546875,-0.975677490234375,-0.088897705078125,0.040313720703125
1772641322899985200,5.549985107421875,-0.9691925048828125,-0.0929107666015625,0.0456085205078125
1772641322910031000,5.560031005859375,-0.95703125,-0.093658447265625,0.0526275634765625
1772641322920076000,5.570075927734375,-0.9500274658203125,-0.09429931640625,0.055694580078125
1772641322930121200,5.580121337890625,-0.94622802734375,-0.091827392578125,0.0602569580078125
1772641322940167200,5.590167236328125,-0.9479827880859375,-0.086456298828125,0.0664520263671875
1772641322950212400,5.60021240234375,-0.95379638671875,-0.07904052734375,0.0722808837890625
1772641322960257300,5.61025732421875,-0.9588623046875,-0.07318115234375,0.076019287109375
1772641322970302200,5.62030224609375,-0.969573974609375,-0.0687103271484375,0.080108642578125
1772641322980348200,5.63034814453125,-0.9769439697265625,-0.0660858154296875,0.079010009765625
1772641322990393000,5.64039306640625,-0.981292724609375,-0.062469482421875,0.0773773193359375
1772641323000438300,5.650438232421875,-0.987030029296875,-0.0601348876953125,0.0730133056640625
1772641323010484200,5.660484130859375,-0.9921875,-0.055206298828125,0.0747833251953125
1772641323020529200,5.670529052734375,-0.9998779296875,-0.057037353515625,0.08062744140625
1772641323030574000,5.680573974609375,-1.00848388671875,-0.062591552734375,0.0863800048828125
1772641323040620000,5.6906201171875,-1.0093231201171875,-0.0671844482421875,0.0842132568359375
1772641323050665200,5.700665283203125,-1.006744384765625,-0.0712432861328125,0.0758514404296875
1772641323060710100,5.710710205078125,-1.0073699951171875,-0.0753936767578125,0.0615386962890625
1772641323070756000,5.720756103515625,-1.00762939453125,-0.078826904296875,0.052459716796875
1772641323080801300,5.73080126953125,-1.01123046875,-0.082763671875,0.04498291015625
1772641323090846200,5.74084619140625,-1.0167694091796875,-0.0894927978515625,0.0435638427734375
1772641323100891100,5.75089111328125,-1.0191192626953125,-0.091827392578125,0.04833984375
1772641323110937000,5.76093701171875,-1.0177154541015625,-0.092742919921875,0.0501556396484375
1772641323120982300,5.770982177734375,-1.013824462890625,-0.0946044921875,0.05352783203125
1772641323131027200,5.781027099609375,-1.0053558349609375,-0.098236083984375,0.05828857421875
1772641323141073200,5.7910732421875,-0.9913330078125,-0.1021881103515625,0.06768798828125
1772641323151118300,5.801118408203125,-0.97760009765625,-0.1080322265625,0.0741729736328125
1772641323161163000,5.8111630859375,-0.9646759033203125,-0.1075897216796875,0.0755767822265625
1772641323171208200,5.821208251953125,-0.9599456787109375,-0.101043701171875,0.0745086669921875
1772641323181254100,5.831254150390625,-0.966796875,-0.09368896484375,0.07574462890625
1772641323191299300,5.84129931640625,-0.98486328125,-0.084442138671875,0.0792388916015625
1772641323201344300,5.85134423828125,-1.0002288818359375,-0.0729522705078125,0.080841064453125
1772641323211390200,5.86139013671875,-1.0113983154296875,-0.0627593994140625,0.082427978515625
1772641323221435400,5.871435302734375,-1.021209716796875,-0.0577850341796875,0.08331298828125
1772641323231480000,5.88147998046875,-1.0245819091796875,-0.06024169921875,0.085601806640625
1772641323241526000,5.891526123046875,-1.0267333984375,-0.0654296875,0.09063720703125
1772641323251571200,5.9015712890625,-1.033966064453125,-0.0709991455078125,0.089508056640625
1772641323261616000,5.9116162109375,-1.0469512939453125,-0.0770111083984375,0.08526611328125
1772641323271661300,5.921661376953125,-1.06610107421875,-0.0917205810546875,0.088592529296875
1772641323281707300,5.931707275390625,-1.0799102783203125,-0.1097412109375,0.0904998779296875
1772641323291752200,5.941752197265625,-1.0887451171875,-0.1203460693359375,0.08111572265625
1772641323301797000,5.951797119140625,-1.103179931640625,-0.1206817626953125,0.0672607421875
1772641323311843000,5.961843017578125,-1.121673583984375,-0.121490478515625,0.0583343505859375
1772641323321888300,5.97188818359375,-1.1325836181640625,-0.1179656982421875,0.0475006103515625
1772641323331933200,5.98193310546875,-1.13385009765625,-0.09912109375,0.0328369140625
1772641323341979400,5.9919794921875,-1.1259002685546875,-0.0668182373046875,0.0159149169921875
1772641323352024000,6.002024169921875,-1.113677978515625,-0.0331573486328125,0.006500244140625
1772641323362069200,6.0120693359375,-1.109344482421875,-0.0032806396484375,0.0039215087890625
1772641323372114200,6.0221142578125,-1.11279296875,0.0191802978515625,0.01116943359375
1772641323382160100,6.03216015625,-1.1073150634765625,0.031707763671875,0.0220489501953125
1772641323392205300,6.042205322265625,-1.0963897705078125,0.040191650390625,0.0281219482421875
1772641323402250200,6.052250244140625,-1.0828399658203125,0.0425567626953125,0.02545166015625
1772641323412296200,6.062296142578125,-1.0689697265625,0.042083740234375,0.024444580078125
1772641323422341000,6.072341064453125,-1.0542449951171875,0.0388336181640625,0.0276031494140625
1772641323432386000,6.082385986328125,-1.036956787109375,0.0313720703125,0.0343475341796875
1772641323442431200,6.09243115234375,-1.0152740478515625,0.0233001708984375,0.0429534912109375
1772641323452477200,6.102477294921875,-0.988494873046875,0.014678955078125,0.0519256591796875
1772641323462522400,6.1125224609375,-0.9594879150390625,0.01116943359375,0.061126708984375
1772641323472567000,6.122567138671875,-0.9273834228515625,0.0083160400390625,0.0712432861328125
1772641323482613000,6.132613037109375,-0.89990234375,0.0065765380859375,0.08209228515625
1772641323492658200,6.142658203125,-0.87225341796875,0.006439208984375,0.08740234375
1772641323502703000,6.152703125,-0.856109619140625,0.0081024169921875,0.0877227783203125
1772641323512749300,6.162749267578125,-0.847625732421875,0.0091705322265625,0.0789642333984375
1772641323522794200,6.172794189453125,-0.844482421875,0.008331298828125,0.0672149658203125
1772641323532839400,6.18283935546875,-0.8458251953125,0.0078887939453125,0.054840087890625
1772641323542884000,6.192884033203125,-0.847900390625,0.0016021728515625,0.0378875732421875
1772641323552930000,6.202929931640625,-0.855621337890625,-0.0044708251953125,0.0206298828125
1772641323562975200,6.212975341796875,-0.8591766357421875,-0.005340576171875,0.0040283203125
1772641323573020200,6.223020263671875,-0.85516357421875,-0.00579833984375,-0.00543212890625
1772641323583066000,6.233066162109375,-0.8501129150390625,-0.009490966796875,-0.0096435546875
1772641323593111300,6.243111328125,-0.843536376953125,-0.0094757080078125,-0.007659912109375
1772641323603156000,6.253156005859375,-0.84210205078125,-0.0054473876953125,-0.00543212890625
1772641323613202200,6.2632021484375,-0.8531951904296875,-0.001007080078125,-0.0020599365234375
1772641323623247000,6.2732470703125,-0.8819427490234375,0.0072784423828125,0.000091552734375
1772641323633292300,6.283292236328125,-0.9216766357421875,0.0153045654296875,0.0030670166015625
1772641323643337200,6.293337158203125,-0.9597625732421875,0.0211181640625,0.0044097900390625
1772641323653383200,6.303383056640625,-0.9954681396484375,0.0258026123046875,0.00372314453125
1772641323663428400,6.313428466796875,-1.0345611572265625,0.0286865234375,0.0007476806640625
1772641323673473000,6.32347314453125,-1.056610107421875,0.0281219482421875,0.00335693359375
1772641323683519200,6.333519287109375,-1.0671844482421875,0.0214080810546875,0.00445556640625
1772641323693564200,6.343564208984375,-1.057464599609375,0.0094757080078125,0.00518798828125
1772641323703609300,6.353609375,-1.04290771484375,-0.00384521484375,0.0076904296875
1772641323713655300,6.3636552734375,-1.030120849609375,-0.01593017578125,0.0067291259765625
1772641323723700200,6.3737001953125,-1.02374267578125,-0.0273895263671875,0.0065460205078125
1772641323733745200,6.3837451171875,-1.015869140625,-0.0393218994140625,0.0090789794921875
1772641323743790000,6.3937900390625,-0.99908447265625,-0.048980712890625,0.0131988525390625
1772641323753836000,6.4038359375,-0.9826202392578125,-0.0540771484375,0.0195159912109375
1772641323763881200,6.413881103515625,-0.9640960693359375,-0.0562591552734375,0.025054931640625
1772641323773926000,6.42392578125,-0.953033447265625,-0.057220458984375,0.0268707275390625
1772641323783971800,6.433971923828125,-0.953216552734375,-0.0602874755859375,0.026214599609375
1772641323794016800,6.444016845703125,-0.9540557861328125,-0.0619659423828125,0.0256500244140625
1772641323804062000,6.45406201171875,-0.955078125,-0.057403564453125,0.025909423828125
1772641323814108000,6.46410791015625,-0.9591522216796875,-0.0490264892578125,0.0255889892578125
1772641323824152800,6.47415283203125,-0.970855712890625,-0.040618896484375,0.0292205810546875
1772641323834198000,6.484197998046875,-0.9881134033203125,-0.0355377197265625,0.0333709716796875
1772641323844242700,6.49424267578125,-1.00421142578125,-0.031341552734375,0.0379791259765625
1772641323854289000,6.504288818359375,-1.015625,-0.0257720947265625,0.042083740234375
1772641323864333800,6.514333740234375,-1.029144287109375,-0.0242767333984375,0.0475616455078125
1772641323874379000,6.52437890625,-1.0367584228515625,-0.0236358642578125,0.0555419921875
1772641323884425000,6.534425048828125,-1.0418548583984375,-0.0233306884765625,0.059844970703125
1772641323894470000,6.544469970703125,-1.0504913330078125,-0.027374267578125,0.0589447021484375
1772641323904514800,6.554514892578125,-1.05535888671875,-0.029693603515625,0.0548553466796875
1772641323914559700,6.564559814453125,-1.059112548828125,-0.0343017578125,0.050811767578125
1772641323924606000,6.57460595703125,-1.0570526123046875,-0.0383148193359375,0.0478363037109375
1772641323934651000,6.58465087890625,-1.052093505859375,-0.0412445068359375,0.0446624755859375
1772641323944696000,6.594696044921875,-1.049285888671875,-0.043792724609375,0.0399627685546875
1772641323954742000,6.604741943359375,-1.044403076171875,-0.049560546875,0.0383453369140625
1772641323964787000,6.614786865234375,-1.034393310546875,-0.0568389892578125,0.0389556884765625
1772641323974831900,6.624831787109375,-1.0161895751953125,-0.0656280517578125,0.04022216796875
1772641323984877800,6.6348779296875,-1.0048980712890625,-0.0748748779296875,0.0369415283203125
1772641323994922800,6.6449228515625,-0.9925994873046875,-0.0807342529296875,0.034393310546875
1772641324004968000,6.654968017578125,-0.9786834716796875,-0.087005615234375,0.0321502685546875
1772641324015012900,6.665012939453125,-0.9688568115234375,-0.0881195068359375,0.030487060546875
1772641324025059000,6.67505908203125,-0.963592529296875,-0.087371826171875,0.030059814453125
1772641324035103700,6.685103759765625,-0.9604949951171875,-0.08135986328125,0.03265380859375
1772641324045149000,6.69514892578125,-0.9679412841796875,-0.076141357421875,0.0321502685546875
1772641324055195000,6.70519482421875,-0.9790496826171875,-0.0729827880859375,0.0309600830078125
1772641324065239800,6.71523974609375,-0.9860687255859375,-0.0710906982421875,0.0297698974609375
1772641324075285000,6.725284912109375,-0.9894561767578125,-0.0723876953125,0.0305023193359375
1772641324085331000,6.7353310546875,-0.98876953125,-0.074920654296875,0.0316162109375
1772641324095376100,6.745376220703125,-0.9820709228515625,-0.079986572265625,0.029449462890625
1772641324105420800,6.7554208984375,-0.9788360595703125,-0.08074951171875,0.026824951171875
1772641324115466000,6.765466064453125,-0.97967529296875,-0.0816802978515625,0.03253173828125
1772641324125512000,6.775511962890625,-0.9827117919921875,-0.0880126953125,0.0555877685546875
1772641324135556900,6.785556884765625,-0.9771881103515625,-0.094329833984375,0.0894317626953125
1772641324145602000,6.79560205078125,-0.97247314453125,-0.0944061279296875,0.116424560546875
1772641324155648000,6.80564794921875,-0.981689453125,-0.0911102294921875,0.1285247802734375
1772641324165693000,6.81569287109375,-0.9830780029296875,-0.0861358642578125,0.1334228515625
1772641324175737900,6.82573779296875,-0.987030029296875,-0.082275390625,0.1235504150390625
1772641324185783800,6.83578369140625,-1.0097198486328125,-0.076080322265625,0.0969085693359375
1772641324195829000,6.8458291015625,-1.031280517578125,-0.069244384765625,0.0521697998046875
1772641324205874000,6.8558740234375,-1.0631256103515625,-0.065338134765625,0.009429931640625
1772641324215919000,6.865919189453125,-1.092041015625,-0.0585479736328125,-0.0210113525390625
1772641324225964800,6.87596484375,-1.1195068359375,-0.047454833984375,-0.0365142822265625
1772641324236009700,6.886009765625,-1.1480560302734375,-0.0326385498046875,-0.0367431640625
1772641324246055000,6.896054931640625,-1.1637725830078125,-0.0143585205078125,-0.0241546630859375
1772641324256100900,6.906100830078125,-1.1661224365234375,0.0055999755859375,-0.006988525390625
1772641324266146000,6.91614599609375,-1.1590576171875,0.014801025390625,0.010223388671875
1772641324276191000,6.92619091796875,-1.147247314453125,0.0116424560546875,0.0170440673828125
1772641324286236000,6.93623583984375,-1.125885009765625,-0.0002899169921875,0.013885498046875
1772641324296281900,6.94628173828125,-1.0976409912109375,-0.0140228271484375,0.00177001953125
1772641324306326800,6.956326904296875,-1.0703277587890625,-0.027862548828125,-0.011322021484375
1772641324316372000,6.9663720703125,-1.0440521240234375,-0.0405731201171875,-0.025421142578125
1772641324326418000,6.97641796875,-1.0214996337890625,-0.0556793212890625,-0.0357513427734375
1772641324336462800,6.986462890625,-0.998077392578125,-0.0663299560546875,-0.0347747802734375
1772641324346507800,6.9965078125,-0.9727783203125,-0.0747222900390625,-0.026824951171875
1772641324356553700,7.0065537109375,-0.945404052734375,-0.0794830322265625,-0.0194244384765625
1772641324366599000,7.016598876953125,-0.9104461669921875,-0.0842742919921875,-0.019287109375
1772641324376643800,7.026643798828125,-0.89697265625,-0.089508056640625,-0.006561279296875
1772641324386689000,7.03668896484375,-0.8660430908203125,-0.0898284912109375,0.0101776123046875
1772641324396735000,7.04673486328125,-0.8412322998046875,-0.092254638671875,0.0264434814453125
1772641324406780000,7.05677978515625,-0.833526611328125,-0.0851593017578125,0.039764404296875
1772641324416824800,7.066824951171875,-0.821136474609375,-0.077117919921875,0.0494842529296875
1772641324426870800,7.076870849609375,-0.8269805908203125,-0.0689849853515625,0.0630645751953125
1772641324436916000,7.086916015625,-0.842437744140625,-0.058807373046875,0.0726470947265625
1772641324446961000,7.0969609375,-0.852935791015625,-0.0467071533203125,0.0824432373046875
1772641324457006000,7.107006103515625,-0.861114501953125,-0.03692626953125,0.093780517578125
1772641324467052000,7.117052001953125,-0.8715362548828125,-0.0295257568359375,0.10662841796875
1772641324477096700,7.1270966796875,-0.875640869140625,-0.0221099853515625,0.1222076416015625
1772641324487142000,7.137141845703125,-0.8792266845703125,-0.0125885009765625,0.137115478515625
1772641324497187800,7.147187744140625,-0.8900299072265625,-0.0037994384765625,0.151214599609375
1772641324507233000,7.15723291015625,-0.9034576416015625,-0.000518798828125,0.1589813232421875
1772641324517278000,7.16727783203125,-0.913177490234375,0.0205841064453125,0.1822967529296875
1772641324527324000,7.177323974609375,-0.9268798828125,0.025634765625,0.1920013427734375
1772641324537369000,7.187369140625,-0.9510498046875,0.022918701171875,0.1862945556640625
1772641324547413800,7.197413818359375,-0.9764404296875,0.025421142578125,0.169342041015625
1772641324557459000,7.207458984375,-0.998504638671875,0.02178955078125,0.1403045654296875
1772641324567505000,7.2175048828125,-1.0143280029296875,0.008697509765625,0.1113128662109375
1772641324577549800,7.2275498046875,-1.0264129638671875,-0.0047607421875,0.0888519287109375
1772641324587595000,7.237594970703125,-1.024261474609375,-0.01849365234375,0.071685791015625
1772641324597641000,7.247640869140625,-1.019287109375,-0.03076171875,0.0612640380859375
1772641324607686000,7.257685791015625,-1.013946533203125,-0.0419769287109375,0.0569305419921875
1772641324617730800,7.267730712890625,-1.00408935546875,-0.05255126953125,0.057586669921875
1772641324627776800,7.27777685546875,-0.9947052001953125,-0.0590362548828125,0.06060791015625
1772641324637822000,7.287822021484375,-0.98779296875,-0.0627288818359375,0.061859130859375
1772641324647867000,7.297866943359375,-0.9864501953125,-0.0656280517578125,0.0590667724609375
1772641324657912000,7.307912109375,-0.979644775390625,-0.0670623779296875,0.0562286376953125
1772641324667957800,7.317957763671875,-0.972442626953125,-0.0677490234375,0.053497314453125
1772641324678003000,7.3280029296875,-0.966339111328125,-0.0690765380859375,0.050750732421875
1772641324688047900,7.3380478515625,-0.9646453857421875,-0.0711517333984375,0.0503082275390625
1772641324698093800,7.34809375,-0.9657745361328125,-0.0718536376953125,0.05438232421875
1772641324708139000,7.358138916015625,-0.970184326171875,-0.0709075927734375,0.0584259033203125
1772641324718184000,7.368183837890625,-0.97454833984375,-0.066925048828125,0.0643310546875
1772641324728230000,7.37822998046875,-0.975555419921875,-0.0660858154296875,0.068084716796875
1772641324738274800,7.38827490234375,-0.978179931640625,-0.0679931640625,0.066986083984375
1772641324748319700,7.39831982421875,-0.983795166015625,-0.06951904296875,0.0640716552734375
1772641324758365000,7.408364990234375,-0.9829254150390625,-0.0711822509765625,0.0623626708984375
1772641324768410600,7.41841064453125,-0.982269287109375,-0.074920654296875,0.0571441650390625
1772641324778455800,7.428455810546875,-0.985565185546875,-0.0787353515625,0.0546112060546875
1772641324788500700,7.438500732421875,-0.9881591796875,-0.0816802978515625,0.052490234375
1772641324798546700,7.448546630859375,-0.989898681640625,-0.0861053466796875,0.049835205078125
1772641324808592000,7.458591796875,-0.9857330322265625,-0.0911712646484375,0.05096435546875
1772641324818636500,7.468636474609375,-0.986480712890625,-0.0978546142578125,0.0517425537109375
1772641324828681700,7.478681640625,-0.98388671875,-0.1007843017578125,0.0541229248046875
1772641324838727700,7.488727783203125,-0.990570068359375,-0.1075592041015625,0.05816650390625
1772641324848772900,7.49877294921875,-0.9906768798828125,-0.1126556396484375,0.0598602294921875
1772641324858817800,7.50881787109375,-0.98858642578125,-0.1179046630859375,0.057891845703125
1772641324868863700,7.51886376953125,-0.98321533203125,-0.1214447021484375,0.05841064453125
1772641324878909000,7.528908935546875,-0.9770965576171875,-0.1212005615234375,0.0631561279296875
1772641324888953600,7.53895361328125,-0.972076416015625,-0.1224365234375,0.07269287109375
1772641324898999800,7.548999755859375,-0.9651947021484375,-0.1233978271484375,0.08343505859375
1772641324909044700,7.559044677734375,-0.9590606689453125,-0.1237030029296875,0.0918731689453125
1772641324919090000,7.56908984375,-0.956268310546875,-0.12353515625,0.0989990234375
1772641324929134800,7.579134765625,-0.955291748046875,-0.1244354248046875,0.0985107421875
1772641324939180800,7.589180908203125,-0.952056884765625,-0.1299896240234375,0.101531982421875
1772641324949225700,7.599225830078125,-0.9510345458984375,-0.1324920654296875,0.102752685546875
1772641324959270700,7.609270751953125,-0.953094482421875,-0.134063720703125,0.101165771484375
1772641324969316600,7.619316650390625,-0.960052490234375,-0.1336212158203125,0.09844970703125
1772641324979361800,7.62936181640625,-0.966400146484375,-0.130096435546875,0.09368896484375
1772641324989406700,7.63940673828125,-0.9791107177734375,-0.1227874755859375,0.0935516357421875
1772641324999453000,7.649452880859375,-0.990478515625,-0.113433837890625,0.09429931640625
1772641325009497900,7.659497802734375,-1.0023956298828125,-0.1060333251953125,0.09735107421875
1772641325019542800,7.669542724609375,-1.012786865234375,-0.10052490234375,0.100799560546875
1772641325029587700,7.679587646484375,-1.0277557373046875,-0.0942230224609375,0.09930419921875
1772641325039633700,7.689633544921875,-1.0456695556640625,-0.0887451171875,0.09619140625
1772641325049678800,7.699678955078125,-1.05859375,-0.0878448486328125,0.0933837890625
1772641325059723800,7.709723876953125,-1.0673675537109375,-0.091888427734375,0.0905609130859375
1772641325069770000,7.71977001953125,-1.070556640625,-0.10235595703125,0.0895843505859375
1772641325079814700,7.729814697265625,-1.0714111328125,-0.120635986328125,0.0930023193359375
1772641325089859800,7.73985986328125,-1.0579071044921875,-0.1426544189453125,0.095977783203125
1772641325099904800,7.74990478515625,-1.0363311767578125,-0.1557464599609375,0.0920867919921875
1772641325109950700,7.75995068359375,-1.027130126953125,-0.15814208984375,0.0891265869140625
1772641325119996000,7.769995849609375,-1.0339813232421875,-0.1556854248046875,0.08575439453125
1772641325130040800,7.780040771484375,-1.048004150390625,-0.1530609130859375,0.0771636962890625
1772641325140086800,7.790086669921875,-1.058502197265625,-0.1483612060546875,0.073211669921875
1772641325150131700,7.800131591796875,-1.0607452392578125,-0.1334228515625,0.0632476806640625
1772641325160176600,7.8101767578125,-1.0722808837890625,-0.1137237548828125,0.04888916015625
1772641325170222800,7.820222900390625,-1.0909423828125,-0.0908660888671875,0.04302978515625
1772641325180267800,7.830267822265625,-1.109954833984375,-0.063720703125,0.0601654052734375
1772641325190313000,7.84031298828125,-1.107330322265625,-0.040496826171875,0.082366943359375
1772641325200357600,7.850357666015625,-1.1029205322265625,-0.02288818359375,0.10760498046875
1772641325210403600,7.860403564453125,-1.0906982421875,-0.00897216796875,0.1285858154296875
1772641325220448800,7.87044873046875,-1.0660400390625,0.0048675537109375,0.1401824951171875
1772641325230493700,7.88049365234375,-1.05426025390625,0.01055908203125,0.147247314453125
1772641325240540000,7.890539794921875,-1.0380096435546875,0.00347900390625,0.152557373046875
1772641325250584800,7.900584716796875,-1.0226287841796875,0.0067901611328125,0.1512603759765625
1772641325260630000,7.910630126953125,-1.0050201416015625,-0.0027313232421875,0.1497039794921875
1772641325270674700,7.9206748046875,-0.970550537109375,-0.0153350830078125,0.149200439453125
1772641325280720600,7.930720703125,-0.932159423828125,-0.020721435546875,0.14251708984375
1772641325290765800,7.940765869140625,-0.9186248779296875,-0.0184783935546875,0.1309661865234375
1772641325300810800,7.950810791015625,-0.919158935546875,-0.0111083984375,0.1209869384765625
1772641325310856700,7.960856689453125,-0.921234130859375,-0.009613037109375,0.118377685546875
1772641325320902000,7.97090185546875,-0.915863037109375,-0.006805419921875,0.1158294677734375
1772641325330946600,7.980946533203125,-0.9226531982421875,-0.0047149658203125,0.109130859375
1772641325340992800,7.99099267578125,-0.9263916015625,-0.003265380859375,0.1015167236328125
1772641325351037700,8.00103759765625,-0.911651611328125,0.00439453125,0.1066436767578125
1772641325361083000,8.011082763671874,-0.8885650634765625,0.0043182373046875,0.11700439453125
1772641325371127800,8.0211279296875,-0.8721923828125,-0.0004119873046875,0.1257171630859375
