time,seconds_elapsed,z,y,x
1772641317405205500,0.05520556640625,0.12849485874176025,0.18170374631881714,-0.005642172880470753
1772641317415250400,0.06525048828125,0.14336222410202026,0.1914285570383072,-0.0014383733505383134
1772641317425296600,0.075296630859375,0.14210307598114014,0.18154209852218628,0.0017028251895681024
1772641317435341600,0.085341552734375,0.13048744201660156,0.1551632136106491,0.007400658447295427
1772641317445386800,0.09538671875,0.1185799092054367,0.1136714369058609,0.013056413270533085
1772641317455431400,0.105431396484375,0.11161654442548752,0.07400099188089371,0.022100774571299553
1772641317465477400,0.115477294921875,0.10336074233055115,0.033484987914562225,0.032934512943029404
1772641317475522600,0.1255224609375,0.09949037432670593,0.01660454273223877,0.04561116173863411
1772641317485567500,0.1355673828125,0.09428602457046509,0.009236907586455345,0.045348573476076126
1772641317495613700,0.14561376953125,0.08800708502531052,-0.0016407734947279096,0.03229961544275284
1772641317505658600,0.15565869140625,0.0789792388677597,-0.021986525505781174,0.011968512088060379
1772641317515703600,0.16570361328125,0.06807093322277069,-0.032821062952280045,-0.012626312673091888
1772641317525749800,0.175749755859375,0.06431560963392258,-0.0391620509326458,-0.04236822947859764
1772641317535794400,0.18579443359375,0.05950354039669037,-0.043769583106040955,-0.07170428335666656
1772641317545839600,0.195839599609375,0.05955520644783974,-0.039865124970674515,-0.09933963418006897
1772641317555884500,0.205884521484375,0.06113472580909729,-0.03002634271979332,-0.12618190050125122
1772641317565930500,0.215930419921875,0.061707839369773865,-0.02893923968076706,-0.15980936586856842
1772641317575975700,0.2259755859375,0.0573868602514267,-0.02774348109960556,-0.19285494089126587
1772641317586020400,0.236020263671875,0.052569203078746796,-0.03461523354053497,-0.23005983233451843
1772641317596066600,0.246066650390625,0.04610864073038101,-0.033062610775232315,-0.26727643609046936
1772641317606111500,0.256111572265625,0.04189738258719444,-0.007909854874014854,-0.3013313412666321
1772641317616156700,0.26615673828125,0.04397810995578766,0.029046032577753067,-0.3281989097595215
1772641317626202600,0.27620263671875,0.040824130177497864,0.05396522954106331,-0.36242425441741943
1772641317636247600,0.28624755859375,0.039796147495508194,0.05940340459346771,-0.3902231454849243
1772641317646292500,0.29629248046875,0.03236006945371628,0.07941786199808121,-0.4105624854564667
1772641317656337400,0.30633740234375,0.03038560226559639,0.09808874875307083,-0.42433664202690125
1772641317666383600,0.316383544921875,0.03243783488869667,0.12262871116399765,-0.43204301595687866
1772641317676428500,0.326428466796875,0.036797694861888885,0.1510736644268036,-0.4272677004337311
1772641317686473700,0.3364736328125,0.043956805020570755,0.1800251603126526,-0.4065142273902893
1772641317696519700,0.346519775390625,0.052137769758701324,0.20151926577091217,-0.36995062232017517
1772641317706564600,0.356564697265625,0.06414330005645752,0.20904935896396637,-0.3174077868461609
1772641317716609500,0.366609619140625,0.07444547116756439,0.19022001326084137,-0.25812023878097534
1772641317726655500,0.376655517578125,0.07507557421922684,0.14338086545467377,-0.19566084444522858
1772641317736700400,0.386700439453125,0.06677263975143433,0.08950112015008926,-0.13255777955055237
1772641317746745600,0.39674560546875,0.05199289321899414,0.03202025219798088,-0.07225555181503296
1772641317756790500,0.40679052734375,0.03724004700779915,-0.01889379695057869,-0.014624216593801975
1772641317766836700,0.416836669921875,0.018029866740107536,-0.06959985196590424,0.03424984961748123
1772641317776881400,0.42688134765625,0.006068279035389423,-0.12928208708763123,0.06991489976644516
1772641317786926600,0.436926513671875,-0.007481884676963091,-0.1897648721933365,0.0931222215294838
1772641317796972500,0.44697265625,-0.0178234726190567,-0.24687689542770386,0.10473839938640594
1772641317807017500,0.457017578125,-0.02869742549955845,-0.29196420311927795,0.10878613591194153
1772641317817062700,0.467062744140625,-0.048532381653785706,-0.32145339250564575,0.10606198757886887
1772641317827108600,0.477108642578125,-0.06992502510547638,-0.33615297079086304,0.09613744914531708
1772641317837153800,0.48715380859375,-0.09177599102258682,-0.3378811180591583,0.08301019668579102
1772641317847198500,0.497198486328125,-0.11159763485193253,-0.32620447874069214,0.06787172704935074
1772641317857243600,0.50724365234375,-0.13663454353809357,-0.3000786006450653,0.05300009995698929
1772641317867289600,0.51728955078125,-0.16666807234287262,-0.27403101325035095,0.033847179263830185
1772641317877334500,0.52733447265625,-0.19916875660419464,-0.2522200047969818,0.016053535044193268
1772641317887379700,0.537379638671875,-0.22806432843208313,-0.22994957864284515,0.0022687469609081745
1772641317897425700,0.54742578125,-0.2531169354915619,-0.20293766260147095,-0.0031121699139475822
1772641317907470600,0.557470703125,-0.2719217836856842,-0.18860985338687897,-0.010062221437692642
1772641317917515500,0.567515625,-0.2876376509666443,-0.17499151825904846,-0.009846772067248821
1772641317927561500,0.5775615234375,-0.2960524260997772,-0.15610970556735992,-0.001424791174940765
1772641317937606700,0.587606689453125,-0.302085280418396,-0.14433375000953674,0.012745089828968048
1772641317947651600,0.597651611328125,-0.30914080142974854,-0.14363493025302887,0.03160799294710159
1772641317957696800,0.60769677734375,-0.31597766280174255,-0.1482515186071396,0.046955790370702744
1772641317967742700,0.61774267578125,-0.32080572843551636,-0.1549307256937027,0.06449244171380997
1772641317977787400,0.627787353515625,-0.3270995616912842,-0.1563429981470108,0.0772966518998146
1772641317987832600,0.63783251953125,-0.3342088758945465,-0.15517760813236237,0.0830962210893631
1772641317997878500,0.64787841796875,-0.3430987596511841,-0.15418104827404022,0.08243122696876526
1772641318007923700,0.657923828125,-0.3491486608982086,-0.14831463992595673,0.08263576030731201
1772641318017968600,0.66796875,-0.34321674704551697,-0.14198589324951172,0.08050788938999176
1772641318028014600,0.6780146484375,-0.32944580912590027,-0.1349724680185318,0.08284667879343033
1772641318038059500,0.6880595703125,-0.3082939088344574,-0.12982244789600372,0.08634927123785019
1772641318048104400,0.6981044921875,-0.28574731945991516,-0.1210918053984642,0.09458589553833008
1772641318058149600,0.708149658203125,-0.2649376690387726,-0.11674366146326065,0.11064741760492325
1772641318068195600,0.718195556640625,-0.2464641034603119,-0.12490997463464737,0.12737499177455902
1772641318078240500,0.728240478515625,-0.23314297199249268,-0.12945599853992462,0.15579359233379364
1772641318088285700,0.73828564453125,-0.21917442977428436,-0.13484330475330353,0.19243308901786804
1772641318098331400,0.748331298828125,-0.20879928767681122,-0.12302552163600922,0.24307763576507568
1772641318108376600,0.75837646484375,-0.19820895791053772,-0.11265970021486282,0.30531835556030273
1772641318118421500,0.76842138671875,-0.19916211068630219,-0.13540256023406982,0.3475981652736664
1772641318128467500,0.778467529296875,-0.20735132694244385,-0.1701110154390335,0.3662533462047577
1772641318138512600,0.7885126953125,-0.21999122202396393,-0.20726077258586884,0.35494691133499146
1772641318148557600,0.7985576171875,-0.24295645952224731,-0.232390359044075,0.31801313161849976
1772641318158602500,0.8086025390625,-0.266365647315979,-0.2444145381450653,0.25507089495658875
1772641318168648400,0.8186484375,-0.2871566712856293,-0.2498955875635147,0.1587582230567932
1772641318178693600,0.828693603515625,-0.3022322952747345,-0.23993191123008728,0.03241972625255585
1772641318188738600,0.838738525390625,-0.31974685192108154,-0.20109635591506958,-0.12273550778627396
1772641318198784500,0.848784423828125,-0.3415274918079376,-0.12109419703483582,-0.2935551702976227
1772641318208829700,0.85882958984375,-0.35431280732154846,0.003686081152409315,-0.44730454683303833
1772641318218874400,0.868874267578125,-0.345901757478714,0.1365296095609665,-0.5557785630226135
1772641318228920600,0.878920654296875,-0.3103565275669098,0.23985306918621063,-0.6099703907966614
1772641318238965500,0.888965576171875,-0.26213309168815613,0.29497385025024414,-0.6051282286643982
1772641318249010700,0.8990107421875,-0.2047499418258667,0.33886221051216125,-0.5339637994766235
1772641318259056600,0.909056640625,-0.14017760753631592,0.35945695638656616,-0.40221989154815674
1772641318269101600,0.9191015625,-0.09004627168178558,0.3342381715774536,-0.2364215850830078
1772641318279146800,0.929146728515625,-0.05928729102015495,0.27250877022743225,-0.05124587565660477
1772641318289191400,0.93919140625,-0.04656590521335602,0.18164542317390442,0.13038943707942963
1772641318299237400,0.9492373046875,-0.045751508325338364,0.0726877823472023,0.3038043677806854
1772641318309282600,0.959282470703125,-0.04644766077399254,-0.05116917937994003,0.45644477009773254
1772641318319327500,0.969327392578125,-0.052506349980831146,-0.1689394861459732,0.5816903114318848
1772641318329373700,0.979373779296875,-0.05700070038437843,-0.250079870223999,0.6659681797027588
1772641318339418600,0.989418701171875,-0.05781163275241852,-0.29858243465423584,0.7071640491485596
1772641318349463600,0.999463623046875,-0.06404928863048553,-0.3217575252056122,0.6969516277313232
1772641318359509500,1.009509521484375,-0.07986687123775482,-0.30789363384246826,0.642876148223877
1772641318369554400,1.019554443359375,-0.08923906832933426,-0.27338653802871704,0.5549098253250122
1772641318379599600,1.029599609375,-0.09413741528987885,-0.21304835379123688,0.43639037013053894
1772641318389644500,1.03964453125,-0.0970248132944107,-0.11962493509054184,0.29585909843444824
1772641318399690800,1.049690673828125,-0.09458163380622864,-0.002266349969431758,0.14538009464740753
1772641318409735700,1.059735595703125,-0.08918846398591995,0.11462751030921936,-0.01985493116080761
1772641318419780600,1.069780517578125,-0.08193667978048325,0.2202543467283249,-0.1845272332429886
1772641318429826600,1.07982666015625,-0.07697973400354385,0.3109855651855469,-0.3440985083580017
1772641318439871500,1.08987158203125,-0.07509981095790863,0.37827593088150024,-0.4810912609100342
1772641318449916700,1.099916748046875,-0.07402335852384567,0.4236559271812439,-0.5847835540771484
1772641318459962600,1.109962646484375,-0.07140760123729706,0.4561414420604706,-0.6441922783851624
1772641318470007600,1.120007568359375,-0.05783506855368614,0.4641801714897156,-0.6647396683692932
1772641318480052500,1.130052490234375,-0.014427941292524338,0.4474395513534546,-0.650863528251648
1772641318490097400,1.140097412109375,0.04826020821928978,0.408998966217041,-0.6070265769958496
1772641318500143600,1.1501435546875,0.12222897261381149,0.36423707008361816,-0.5362642407417297
1772641318510188500,1.1601884765625,0.20664824545383453,0.32484254240989685,-0.4430170953273773
1772641318520233700,1.170233642578125,0.2816274166107178,0.28113579750061035,-0.3441073000431061
1772641318530279700,1.18027978515625,0.3389112055301666,0.23564395308494568,-0.25624775886535645
1772641318540324400,1.190324462890625,0.36900681257247925,0.1911206841468811,-0.18751609325408936
1772641318550369500,1.20036962890625,0.38041284680366516,0.1480856090784073,-0.1341351717710495
1772641318560415500,1.21041552734375,0.3819281756877899,0.10674508661031723,-0.09619417786598206
1772641318570460700,1.220460693359375,0.3822948932647705,0.06552974134683609,-0.07734512537717819
1772641318580505600,1.230505615234375,0.38299453258514404,0.029581593349575996,-0.07374905794858932
1772641318590550800,1.24055078125,0.3808501362800598,-0.00475374236702919,-0.08382512629032135
1772641318600596700,1.2505966796875,0.3737770617008209,-0.02375859208405018,-0.10176923871040344
1772641318610641400,1.260641357421875,0.36191585659980774,-0.03934713825583458,-0.12417973577976227
1772641318620686600,1.2706865234375,0.3429078161716461,-0.051350273191928864,-0.14818094670772552
1772641318630732500,1.280732666015625,0.3234606087207794,-0.065994992852211,-0.1763920783996582
1772641318640777500,1.290777587890625,0.3054525852203369,-0.07418501377105713,-0.19764436781406403
1772641318650822700,1.30082275390625,0.2894909381866455,-0.0699005201458931,-0.21643643081188202
1772641318660868600,1.31086865234375,0.2746850848197937,-0.05423474311828613,-0.232315793633461
1772641318670913500,1.32091357421875,0.2601114809513092,-0.036497022956609726,-0.24597647786140442
1772641318680958500,1.33095849609375,0.24721617996692657,-0.017230652272701263,-0.2574427127838135
1772641318691003600,1.341003662109375,0.2424272894859314,0.0019893813878297806,-0.2609975039958954
1772641318701049600,1.351049560546875,0.2420203536748886,0.007682953495532274,-0.2511129081249237
1772641318711094500,1.361094482421875,0.24754375219345093,-0.0003581951605156064,-0.23331421613693237
1772641318721139700,1.3711396484375,0.25309857726097107,-0.01495444867759943,-0.21098947525024414
1772641318731185700,1.381185546875,0.2563207447528839,-0.03365702927112579,-0.1863541603088379
1772641318741230600,1.391230712890625,0.25669917464256287,-0.045394912362098694,-0.162511944770813
1772641318751275500,1.401275634765625,0.2585037350654602,-0.05663930997252464,-0.13993340730667114
1772641318761322200,1.411322265625,0.2585031986236572,-0.06998840719461441,-0.12145932018756866
1772641318771367200,1.4213671875,0.2584605813026428,-0.08463552594184875,-0.10163740813732147
1772641318781412000,1.431412109375,0.2587119936943054,-0.0965113565325737,-0.07810332626104355
1772641318791457300,1.441457275390625,0.2602933645248413,-0.09255017340183258,-0.05023707076907158
1772641318801503200,1.451503173828125,0.265323281288147,-0.08098406344652176,-0.01865570992231369
1772641318811548200,1.461548095703125,0.2752329111099243,-0.0805387869477272,0.011803928762674332
1772641318821593000,1.471593017578125,0.2729998528957367,-0.06715107709169388,0.04343242943286896
1772641318831639000,1.48163916015625,0.26518747210502625,-0.031980037689208984,0.06362318247556686
1772641318841684200,1.491684326171875,0.26008671522140503,0.02075774222612381,0.07858056575059891
1772641318851729200,1.501729248046875,0.25459739565849304,0.08883292973041534,0.07018893957138062
1772641318861775000,1.511775146484375,0.2571958601474762,0.1397179514169693,0.054131411015987396
1772641318871820300,1.5218203125,0.27305203676223755,0.16867023706436157,0.03617478162050247
1772641318881865200,1.531865234375,0.28816333413124084,0.17070169746875763,0.028780249878764153
1772641318891910100,1.54191015625,0.30919113755226135,0.1610565334558487,0.03747120872139931
1772641318901956000,1.5519560546875,0.34290117025375366,0.1256474107503891,0.055750079452991486
1772641318912001000,1.5620009765625,0.37194374203681946,0.11161281168460846,0.08475430309772491
1772641318922046200,1.572046142578125,0.3883677124977112,0.09708979725837708,0.10518820583820343
1772641318932092200,1.582092041015625,0.3970187306404114,0.08632796257734299,0.12963895499706268
1772641318942137300,1.592137451171875,0.40731823444366455,0.09383781254291534,0.15197968482971191
1772641318952182000,1.60218212890625,0.4080117344856262,0.10975978523492813,0.1694076657295227
1772641318962228000,1.61222802734375,0.40930548310279846,0.13854137063026428,0.18131279945373535
1772641318972273200,1.622273193359375,0.4102884531021118,0.15740986168384552,0.183970108628273
1772641318982318000,1.632318115234375,0.41764092445373535,0.1274583488702774,0.1660853773355484
1772641318992363300,1.64236328125,0.42898625135421753,0.08114118874073029,0.13497379422187805
1772641319002409200,1.6524091796875,0.4355248510837555,0.024454742670059204,0.12461277097463608
1772641319012454100,1.6624541015625,0.4268637001514435,-0.042331479489803314,0.11302002519369125
1772641319022499000,1.6724990234375,0.40648946166038513,-0.11460567265748978,0.08007726073265076
1772641319032545000,1.682544921875,0.3776458203792572,-0.15524151921272278,0.05459453538060188
1772641319042590200,1.692590087890625,0.3361566960811615,-0.19155052304267883,0.028414864093065262
1772641319052635100,1.70263525390625,0.28058958053588867,-0.19342778623104095,0.00817830115556717
1772641319062681000,1.71268115234375,0.20704533159732819,-0.14548583328723907,-0.0017901768442243338
1772641319072726300,1.722726318359375,0.13547340035438538,-0.060140036046504974,0.001924932817928493
1772641319082771000,1.73277099609375,0.08607549965381622,0.058932024985551834,0.029062544927001
1772641319092816100,1.742816162109375,0.06993673741817474,0.16431809961795807,0.0827806368470192
1772641319102862000,1.752862060546875,0.07500340044498444,0.23072722554206848,0.1490320861339569
1772641319112907300,1.7629072265625,0.10005415976047516,0.25946566462516785,0.22638973593711853
1772641319122952200,1.7729521484375,0.1315508335828781,0.24928812682628632,0.2994849681854248
1772641319132998100,1.782998046875,0.16328878700733185,0.19935785233974457,0.36684244871139526
1772641319143043000,1.79304296875,0.17781127989292145,0.11850906908512115,0.41927024722099304
1772641319153088000,1.803087890625,0.177360400557518,0.04370860010385513,0.45941391587257385
1772641319163134200,1.81313427734375,0.1612088680267334,-0.005281847435981035,0.48107022047042847
1772641319173179100,1.82317919921875,0.13106614351272583,-0.02810114249587059,0.48530757427215576
1772641319183224300,1.833224365234375,0.09615635871887207,-0.02514849603176117,0.47817668318748474
1772641319193269200,1.843269287109375,0.05830644816160202,-0.025950906798243523,0.46349814534187317
1772641319203315200,1.853315185546875,0.01931670680642128,-0.04647349193692207,0.4327700734138489
1772641319213360000,1.863360107421875,-0.01248276885598898,-0.07050292938947678,0.3935435712337494
1772641319223405000,1.873405029296875,-0.036848828196525574,-0.08916183561086655,0.35529258847236633
1772641319233451000,1.883450927734375,-0.04645538330078125,-0.09721630066633224,0.3248944580554962
1772641319243496200,1.89349609375,-0.04306731000542641,-0.10603881627321243,0.2996056079864502
1772641319253541000,1.903541015625,-0.0405450277030468,-0.10628142952919006,0.2854791581630707
1772641319263587300,1.91358740234375,-0.03850318491458893,-0.11833170056343079,0.26940563321113586
1772641319273632000,1.923632080078125,-0.03472282737493515,-0.14857669174671173,0.2511070668697357
1772641319283677200,1.93367724609375,-0.037939127534627914,-0.1890396922826767,0.2345115691423416
1772641319293722000,1.94372216796875,-0.04484337195754051,-0.24381107091903687,0.20430253446102142
1772641319303768000,1.95376806640625,-0.06301172077655792,-0.2898198366165161,0.1685274988412857
1772641319313813200,1.963813232421875,-0.07908762991428375,-0.31031766533851624,0.118817999958992
1772641319323858200,1.973858154296875,-0.10177509486675262,-0.3046049177646637,0.0519111342728138
1772641319333904400,1.983904296875,-0.12084200233221054,-0.27318572998046875,-0.03128521889448166
1772641319343949000,1.993948974609375,-0.13580310344696045,-0.22193346917629242,-0.1318296641111374
1772641319353994200,2.003994140625,-0.137272909283638,-0.151584193110466,-0.24070262908935547
1772641319364040200,2.014040283203125,-0.1293633133172989,-0.07620368897914886,-0.34206172823905945
1772641319374085000,2.024085205078125,-0.10588089376688004,-0.013699300587177277,-0.42946454882621765
1772641319384130300,2.03413037109375,-0.07092291116714478,0.026322683319449425,-0.49143123626708984
1772641319394175000,2.044175048828125,-0.02051832526922226,0.09218186140060425,-0.5129426717758179
1772641319404221200,2.05422119140625,0.04851427301764488,0.12454086542129517,-0.5120561122894287
1772641319414266000,2.06426611328125,0.1265273094177246,0.15927061438560486,-0.491488516330719
1772641319424311000,2.07431103515625,0.1873062402009964,0.17636944353580475,-0.4709411561489105
1772641319434357200,2.084357177734375,0.22105835378170013,0.1939966380596161,-0.4437590539455414
1772641319444402200,2.094402099609375,0.22679772973060608,0.2083180546760559,-0.4237518012523651
1772641319454447000,2.104447021484375,0.2195161134004593,0.21172529458999634,-0.4086644649505615
1772641319464493000,2.1144931640625,0.19825662672519684,0.19642090797424316,-0.3972586691379547
1772641319474538000,2.1245380859375,0.17042073607444763,0.16676262021064758,-0.382589191198349
1772641319484583200,2.134583251953125,0.1405121088027954,0.11680784076452255,-0.36558809876441956
1772641319494628000,2.144628173828125,0.11671622842550278,0.0673004761338234,-0.34664344787597656
1772641319504674300,2.15467431640625,0.092258021235466,0.02009221911430359,-0.3309025466442108
1772641319514719200,2.16471923828125,0.06554785370826721,-0.03086071088910103,-0.31499576568603516
1772641319524764200,2.17476416015625,0.030014092102646828,-0.07233624905347824,-0.3007100224494934
1772641319534810000,2.18481005859375,-0.01158768031746149,-0.10066881775856018,-0.2849790155887604
1772641319544855000,2.19485498046875,-0.05368346720933914,-0.1364864706993103,-0.2720019519329071
1772641319554900200,2.204900146484375,-0.09964776039123535,-0.17918066680431366,-0.26717764139175415
1772641319564946200,2.2149462890625,-0.15845276415348053,-0.1885664463043213,-0.24845854938030243
1772641319574991000,2.2249912109375,-0.22374920547008514,-0.17358669638633728,-0.22369220852851868
1772641319585036000,2.2350361328125,-0.27705076336860657,-0.16008447110652924,-0.19157475233078003
1772641319595081200,2.245081298828125,-0.3127448558807373,-0.14317314326763153,-0.16308851540088654
1772641319605127200,2.255127197265625,-0.3213370144367218,-0.13805267214775085,-0.14850345253944397
1772641319615172000,2.265172119140625,-0.32185155153274536,-0.12660615146160126,-0.14473401010036469
1772641319625217300,2.27521728515625,-0.31905627250671387,-0.10580046474933624,-0.14478515088558197
1772641319635263200,2.28526318359375,-0.3086419999599457,-0.07600075751543045,-0.14280295372009277
1772641319645308200,2.29530810546875,-0.2927679419517517,-0.05675302818417549,-0.13876107335090637
1772641319655353000,2.30535302734375,-0.2779376208782196,-0.046723563224077225,-0.13471972942352295
1772641319665399000,2.31539892578125,-0.2722397744655609,-0.03965926170349121,-0.1200137585401535
1772641319675444200,2.3254443359375,-0.26263242959976196,-0.04108458757400513,-0.10112927854061127
1772641319685489200,2.3354892578125,-0.2596893608570099,-0.057467021048069,-0.08569226413965225
1772641319695535000,2.34553515625,-0.2620268166065216,-0.08616630733013153,-0.0707135871052742
1772641319705580300,2.355580322265625,-0.2762920558452606,-0.1103704497218132,-0.056290969252586365
1772641319715625000,2.365625,-0.2945466935634613,-0.1299566626548767,-0.04381459206342697
1772641319725670100,2.375670166015625,-0.31484875082969666,-0.14078561961650848,-0.029200229793787003
1772641319735716000,2.385716064453125,-0.33897486329078674,-0.14801156520843506,-0.019519904628396034
1772641319745761300,2.39576123046875,-0.3635323941707611,-0.1511431783437729,-0.016919860616326332
1772641319755806200,2.40580615234375,-0.388383686542511,-0.14528422057628632,-0.01684369519352913
1772641319765851400,2.415851318359375,-0.40540048480033875,-0.1304301768541336,-0.022460835054516792
1772641319775896600,2.425896484375,-0.41938501596450806,-0.11731943488121033,-0.026693662628531456
1772641319785941500,2.43594140625,-0.4187391996383667,-0.12371581792831421,-0.03556731343269348
1772641319795986700,2.445986572265625,-0.41902974247932434,-0.14573323726654053,-0.050798200070858
1772641319806032600,2.45603271484375,-0.41787099838256836,-0.159389927983284,-0.07055272907018661
1772641319816077600,2.46607763671875,-0.4192635715007782,-0.16218571364879608,-0.07923383265733719
1772641319826122500,2.47612255859375,-0.41487520933151245,-0.1475343257188797,-0.08332738280296326
1772641319836168400,2.48616845703125,-0.40869376063346863,-0.1325143724679947,-0.07871052622795105
1772641319846213600,2.496213623046875,-0.40423643589019775,-0.11940788477659225,-0.07282201200723648
1772641319856258600,2.506258544921875,-0.3895014226436615,-0.10854565352201462,-0.053999319672584534
1772641319866304500,2.516304443359375,-0.3686653673648834,-0.09939876198768616,-0.019205385819077492
1772641319876349400,2.526349365234375,-0.3374866843223572,-0.09864481538534164,0.029550701379776
1772641319886394600,2.53639453125,-0.3066193163394928,-0.11870800703763962,0.0834307074546814
1772641319896440600,2.546440673828125,-0.28052008152008057,-0.12557150423526764,0.14336754381656647
1772641319906485500,2.556485595703125,-0.2593761682510376,-0.14958256483078003,0.1933220624923706
1772641319916530700,2.56653076171875,-0.2554836869239807,-0.17800329625606537,0.22150975465774536
1772641319926575600,2.57657568359375,-0.2636590600013733,-0.23036183416843414,0.22573991119861603
1772641319936621600,2.58662158203125,-0.2673478126525879,-0.26224175095558167,0.21853341162204742
1772641319946666500,2.59666650390625,-0.24581775069236755,-0.27073243260383606,0.20161008834838867
1772641319956711400,2.60671142578125,-0.22689412534236908,-0.26350221037864685,0.16403260827064514
1772641319966757600,2.616757568359375,-0.21497595310211182,-0.22034914791584015,0.10492881387472153
1772641319976802600,2.626802490234375,-0.23066569864749908,-0.13952593505382538,0.015030348673462868
1772641319986847700,2.63684765625,-0.259943425655365,-0.04152906686067581,-0.0893983244895935
1772641319996893700,2.646893798828125,-0.28764429688453674,0.08463206142187119,-0.18552325665950775
1772641320006938400,2.6569384765625,-0.3184213936328888,0.20803788304328918,-0.24502120912075043
1772641320016983600,2.666983642578125,-0.3331499993801117,0.3035907745361328,-0.254408061504364
1772641320027028500,2.677028564453125,-0.32026615738868713,0.36107245087623596,-0.2045225203037262
1772641320037074700,2.68707470703125,-0.30293431878089905,0.3867354691028595,-0.1294432133436203
1772641320047119600,2.69711962890625,-0.2634042203426361,0.378445565700531,0.008037686347961426
1772641320057164500,2.70716455078125,-0.21179693937301636,0.3199535012245178,0.16558443009853363
1772641320067210800,2.717210693359375,-0.17758411169052124,0.22111932933330536,0.32726600766181946
1772641320077255400,2.72725537109375,-0.16973763704299927,0.1177881509065628,0.484016478061676
1772641320087300600,2.737300537109375,-0.18366196751594543,-0.003641073824837804,0.6102537512779236
1772641320097346600,2.7473466796875,-0.2084922194480896,-0.13434343039989471,0.6984331607818604
1772641320107391500,2.7573916015625,-0.2373446375131607,-0.25680676102638245,0.7438371181488037
1772641320117436700,2.767436767578125,-0.2555851638317108,-0.36314359307289124,0.7491322755813599
1772641320127481300,2.7774814453125,-0.26227423548698425,-0.464478462934494,0.7114986181259155
1772641320137527600,2.787527587890625,-0.2526295781135559,-0.5283474326133728,0.6458852887153625
1772641320147572500,2.797572509765625,-0.23783546686172485,-0.5374621152877808,0.5649107694625854
1772641320157617700,2.80761767578125,-0.22548532485961914,-0.4964587688446045,0.4668947458267212
1772641320167663600,2.81766357421875,-0.21185553073883057,-0.4141063690185547,0.3535862863063812
1772641320177708500,2.82770849609375,-0.2032172977924347,-0.3083844780921936,0.2298169583082199
1772641320187753700,2.837753662109375,-0.2001059353351593,-0.18097777664661407,0.09363407641649246
1772641320197799700,2.847799560546875,-0.2131093442440033,-0.052084241062402725,-0.06344102323055267
1772641320207844600,2.8578447265625,-0.24001473188400269,0.07838162034749985,-0.23178556561470032
1772641320217889500,2.8678896484375,-0.27239423990249634,0.1889704465866089,-0.39488235116004944
1772641320227934700,2.877934814453125,-0.294683575630188,0.2542874217033386,-0.5258139967918396
1772641320237980700,2.887980712890625,-0.29722583293914795,0.29719918966293335,-0.6133680939674377
1772641320248025600,2.898025634765625,-0.28303250670433044,0.3290979862213135,-0.6553727984428406
1772641320258070500,2.908070556640625,-0.25116512179374695,0.34244415163993835,-0.6538992524147034
1772641320268116500,2.918116455078125,-0.2137354463338852,0.3307107985019684,-0.6201391816139221
1772641320278161400,2.928161376953125,-0.17109479010105133,0.29693394899368286,-0.5571482181549072
1772641320288206600,2.93820654296875,-0.13319480419158936,0.23812335729599,-0.47478756308555603
1772641320298252500,2.94825244140625,-0.10429205000400543,0.18486572802066803,-0.3742316663265228
1772641320308297700,2.958297607421875,-0.08378517627716064,0.1316176801919937,-0.2682783305644989
1772641320318342400,2.96834228515625,-0.07146432995796204,0.07236474752426147,-0.17203247547149658
1772641320328387600,2.9783876953125,-0.06069743633270264,0.010811102576553822,-0.09717555344104767
1772641320338433500,2.98843359375,-0.057007092982530594,-0.05462303012609482,-0.05399159714579582
1772641320348478500,2.998478515625,-0.05113722011446953,-0.10298896580934525,-0.046955257654190063
1772641320358523600,3.008523681640625,-0.04216529801487923,-0.13103711605072021,-0.07230695337057114
1772641320368569600,3.018569580078125,-0.03633963316679001,-0.12400530278682709,-0.11906939744949341
1772641320378614800,3.02861474609375,-0.031445540487766266,-0.0904763713479042,-0.18527451157569885
1772641320388659500,3.038659423828125,-0.027127491310238838,-0.030974427238106728,-0.26748043298721313
1772641320398705400,3.048705322265625,-0.024651283398270607,0.02984125167131424,-0.3457494080066681
1772641320408750600,3.05875048828125,-0.02304566465318203,0.06566396355628967,-0.41733092069625854
1772641320418795500,3.06879541015625,-0.011365040205419064,0.11973278969526291,-0.46179717779159546
1772641320428840700,3.0788408203125,0.009013734757900238,0.15634246170520782,-0.48032692074775696
1772641320438886700,3.08888671875,0.03044525720179081,0.16844706237316132,-0.46753284335136414
1772641320448931300,3.098931396484375,0.055519718676805496,0.13909690082073212,-0.4436999559402466
1772641320458976500,3.1089765625,0.08835835754871368,0.12719763815402985,-0.3870457112789154
1772641320469022500,3.1190224609375,0.12320475280284882,0.11353109031915665,-0.31409215927124023
1772641320479067600,3.129067626953125,0.15163692831993103,0.10420283675193787,-0.22791358828544617
1772641320489112600,3.139112548828125,0.17428205907344818,0.12550120055675507,-0.12476829439401627
1772641320499158500,3.149158447265625,0.19083572924137115,0.11980203539133072,-0.021927403286099434
1772641320509203700,3.15920361328125,0.19301871955394745,0.10946657508611679,0.07355517894029617
1772641320519248400,3.169248291015625,0.1904575675725937,0.08431514352560043,0.1576780378818512
1772641320529293600,3.17929345703125,0.18521033227443695,0.049009352922439575,0.2314116507768631
1772641320539339500,3.189339599609375,0.18792515993118286,-0.004643221385776997,0.2915969491004944
1772641320549384700,3.199384765625,0.19981084764003754,-0.06528127193450928,0.3395160138607025
1772641320559429600,3.2094296875,0.22097525000572205,-0.1206182911992073,0.37321218848228455
1772641320569475600,3.2194755859375,0.2391982078552246,-0.14972823858261108,0.3884499967098236
1772641320579520500,3.2295205078125,0.25170761346817017,-0.15492619574069977,0.38845187425613403
1772641320589565400,3.2395654296875,0.2586957514286041,-0.14307460188865662,0.3709013760089874
1772641320599611600,3.249611572265625,0.26367905735969543,-0.11649651825428009,0.3386733829975128
1772641320609656600,3.259656494140625,0.26447001099586487,-0.07348354160785675,0.29689186811447144
1772641320619701500,3.269701416015625,0.26901015639305115,-0.032102543860673904,0.24848304688930511
1772641320629746700,3.27974658203125,0.27896425127983093,0.0036195022985339165,0.20086492598056793
1772641320639792600,3.289792724609375,0.2961656153202057,0.034262631088495255,0.16897250711917877
1772641320649837600,3.299837646484375,0.31980249285697937,0.059774383902549744,0.1484145075082779
1772641320659882500,3.309882568359375,0.35179558396339417,0.08844704180955887,0.14559634029865265
1772641320669928400,3.319928466796875,0.382963627576828,0.1212121769785881,0.15145689249038696
1772641320679973600,3.3299736328125,0.4063033163547516,0.13391758501529694,0.15998460352420807
1772641320690018600,3.3400185546875,0.4296722710132599,0.0901796966791153,0.16186240315437317
1772641320700064800,3.350064697265625,0.4409662187099457,0.027590082958340645,0.16443368792533875
1772641320710109400,3.360109375,0.44489437341690063,-0.028971996158361435,0.16494634747505188
1772641320720154600,3.370154541015625,0.4384995996952057,-0.09108996391296387,0.15508891642093658
1772641320730200600,3.38020068359375,0.4184401333332062,-0.17554917931556702,0.11909842491149902
1772641320740245500,3.39024560546875,0.3905235528945923,-0.24151141941547394,0.06443332135677338
1772641320750290700,3.400290771484375,0.36535292863845825,-0.23068088293075562,0.006640858482569456
1772641320760335600,3.410335693359375,0.35570111870765686,-0.16711628437042236,-0.04296024888753891
1772641320770382000,3.420382080078125,0.3471190631389618,-0.07624443620443344,-0.0920388475060463
1772641320780427300,3.43042724609375,0.34750816226005554,0.07811211049556732,-0.11810906231403351
1772641320790472000,3.440471923828125,0.3819231390953064,0.24990570545196533,-0.10911370068788528
1772641320800518100,3.45051806640625,0.43361908197402954,0.3526672422885895,-0.07337994128465652
1772641320810563000,3.46056298828125,0.48600584268569946,0.41239768266677856,-0.007484814152121544
1772641320820608300,3.470608154296875,0.534460723400116,0.42597901821136475,0.08177502453327179
1772641320830653200,3.480653076171875,0.559710681438446,0.4183293282985687,0.19374123215675354
1772641320840699100,3.49069921875,0.5572260022163391,0.3919574022293091,0.30826330184936523
1772641320850744300,3.500744384765625,0.5354642271995544,0.360291063785553,0.413410484790802
1772641320860789000,3.5107890625,0.5053675770759583,0.30850937962532043,0.5028561949729919
1772641320870835000,3.5208349609375,0.46228426694869995,0.2436121255159378,0.564861536026001
1772641320880880000,3.530880126953125,0.40583884716033936,0.1634371280670166,0.5898308157920837
1772641320890925000,3.540925048828125,0.34197998046875,0.09226441383361816,0.5722312927246094
1772641320900971300,3.55097119140625,0.27367496490478516,0.012797021307051182,0.5197166800498962
1772641320911016200,3.56101611328125,0.21284569799900055,-0.051775578409433365,0.4495503902435303
1772641320921061000,3.57106103515625,0.15925942361354828,-0.09056399017572403,0.3744247257709503
1772641320931107000,3.581107177734375,0.11652102321386337,-0.11549463868141174,0.3096987307071686
1772641320941152000,3.591152099609375,0.07750730961561203,-0.10518340766429901,0.24978746473789215
1772641320951197200,3.601197265625,0.05203497037291527,-0.07693766057491302,0.19541290402412415
1772641320961242000,3.6112421875,0.03442135825753212,-0.034321222454309464,0.13166561722755432
1772641320971288300,3.621288330078125,0.02046133205294609,0.009768474847078323,0.049734000116586685
1772641320981333200,3.631333251953125,0.009543703868985176,0.05498628690838814,-0.051853079348802567
1772641320991378200,3.641378173828125,0.000150202278746292,0.12037647515535355,-0.16855572164058685
1772641321001424100,3.651424072265625,-0.013654826208949089,0.18466386198997498,-0.29550647735595703
1772641321011469000,3.661468994140625,-0.02215323969721794,0.23672571778297424,-0.41931337118148804
1772641321021514200,3.67151416015625,-0.023457922041416168,0.26298344135284424,-0.5307586789131165
1772641321031560200,3.681560302734375,-0.011981295421719551,0.2714288532733917,-0.610368013381958
1772641321041605000,3.691605224609375,0.01925225742161274,0.2774167060852051,-0.6502725481987
1772641321051650000,3.701650146484375,0.06683123111724854,0.2687899172306061,-0.6525945663452148
1772641321061695000,3.711695068359375,0.1296836882829666,0.2497301995754242,-0.6312552094459534
1772641321071741200,3.7217412109375,0.18327981233596802,0.22757510840892792,-0.5902310609817505
1772641321081786000,3.7317861328125,0.2356111854314804,0.22925662994384766,-0.5176748633384705
1772641321091831300,3.741831298828125,0.2761208117008209,0.2004273682832718,-0.44499796628952026
1772641321101877200,3.751877197265625,0.2915381193161011,0.1693059355020523,-0.377693772315979
1772641321111922200,3.761922119140625,0.2914177179336548,0.1308714598417282,-0.3154202699661255
1772641321121967000,3.771967041015625,0.28199252486228943,0.0755661278963089,-0.2659131586551666
1772641321132013000,3.782012939453125,0.2593333125114441,0.017601097002625465,-0.21835683286190033
1772641321142058200,3.792058349609375,0.2237928807735443,-0.04200950264930725,-0.18149922788143158
1772641321152103200,3.802103271484375,0.17942115664482117,-0.09543650597333908,-0.1538393646478653
1772641321162148400,3.8121484375,0.13269439339637756,-0.14822089672088623,-0.13744227588176727
1772641321172194300,3.8221943359375,0.08807553350925446,-0.18809081614017487,-0.12976226210594177
1772641321182239000,3.832239013671875,0.041419610381126404,-0.19575512409210205,-0.13449601829051971
1772641321192284200,3.8422841796875,-0.006116748321801424,-0.1772131323814392,-0.14366209506988525
1772641321202330000,3.852330078125,-0.05065252631902695,-0.15468917787075043,-0.15070535242557526
1772641321212375000,3.862375,-0.09139489382505417,-0.1293633133172989,-0.15394935011863708
1772641321222420200,3.872420166015625,-0.12749750912189484,-0.11474868655204773,-0.1487330198287964
1772641321232466200,3.882466064453125,-0.15815235674381256,-0.11331803351640701,-0.13570430874824524
1772641321242511000,3.892510986328125,-0.18360871076583862,-0.11620836704969406,-0.11817430704832077
1772641321252556000,3.90255615234375,-0.2090807855129242,-0.11892426013946533,-0.09681602567434311
1772641321262601200,3.912601318359375,-0.2289828509092331,-0.1200326606631279,-0.07027709484100342
1772641321272647200,3.922647216796875,-0.24825134873390198,-0.1233629435300827,-0.042449455708265305
1772641321282692000,3.932692138671875,-0.2592478096485138,-0.12915638089179993,-0.015048191882669926
1772641321292737300,3.9427373046875,-0.2684863209724426,-0.11744087934494019,0.013665478676557541
1772641321302783200,3.952783203125,-0.2714831829071045,-0.09917452186346054,0.03933675214648247
1772641321312828200,3.962828125,-0.2710496187210083,-0.08592742681503296,0.060500361025333405
1772641321322873000,3.972873046875,-0.2634415030479431,-0.0737844780087471,0.07502604275941849
1772641321332919000,3.9829189453125,-0.25342267751693726,-0.0813680961728096,0.08865450322628021
1772641321342964200,3.992964111328125,-0.24565982818603516,-0.12682212889194489,0.10276419669389725
1772641321353009200,4.003009033203125,-0.25735244154930115,-0.17528313398361206,0.12236905843019485
1772641321363054000,4.01305419921875,-0.2757143974304199,-0.23156079649925232,0.14384984970092773
1772641321373100000,4.02310009765625,-0.29818588495254517,-0.2726251482963562,0.17303968966007233
1772641321383145200,4.033145263671875,-0.3180229663848877,-0.2997411787509918,0.20229797065258026
1772641321393190100,4.043190185546875,-0.32554852962493896,-0.2937788963317871,0.21955685317516327
1772641321403236000,4.053236083984375,-0.3389735221862793,-0.26568254828453064,0.22121840715408325
1772641321413281300,4.06328125,-0.34232884645462036,-0.20557312667369843,0.20447351038455963
1772641321423326200,4.073326171875,-0.3354160785675049,-0.1503159999847412,0.1783399134874344
1772641321433372200,4.0833720703125,-0.31621283292770386,-0.1033325120806694,0.15003690123558044
1772641321443417000,4.0934169921875,-0.2946681082248688,-0.07272560149431229,0.1204712837934494
1772641321453462000,4.1034619140625,-0.2715175151824951,-0.060207679867744446,0.09916999191045761
1772641321463507200,4.113507080078125,-0.25452443957328796,-0.06828132271766663,0.08578015118837357
1772641321473553200,4.12355322265625,-0.24360492825508118,-0.07738932967185974,0.08252150565385818
1772641321483598300,4.133598388671875,-0.24147361516952515,-0.09282448142766953,0.09030752629041672
1772641321493643000,4.14364306640625,-0.2436683177947998,-0.11235130578279495,0.09901686012744904
1772641321503689000,4.15368896484375,-0.24860341846942902,-0.12201645225286484,0.10918986797332764
1772641321513734100,4.163734130859375,-0.24858424067497253,-0.13077744841575623,0.11867525428533554
1772641321523779000,4.173779052734375,-0.2402874380350113,-0.14445917308330536,0.13544118404388428
1772641321533825300,4.1838251953125,-0.23378479480743408,-0.15634752810001373,0.1420964151620865
1772641321543870200,4.1938701171875,-0.22708748281002045,-0.18135593831539154,0.13619112968444824
1772641321553915100,4.2039150390625,-0.2315535992383957,-0.21351733803749084,0.10047680884599686
1772641321563960000,4.2139599609375,-0.2395595908164978,-0.24163898825645447,0.047203198075294495
1772641321574006000,4.224006103515625,-0.2513968050479889,-0.2389470636844635,-0.015626896172761917
1772641321584051200,4.23405126953125,-0.25838974118232727,-0.23611745238304138,-0.08864225447177887
1772641321594096000,4.24409619140625,-0.26109498739242554,-0.16254043579101562,-0.14468315243721008
1772641321604142000,4.25414208984375,-0.26993587613105774,-0.13079769909381866,-0.21912622451782227
1772641321614187300,4.264187255859375,-0.2880656123161316,-0.12047741562128067,-0.29676589369773865
1772641321624232000,4.27423193359375,-0.3080776631832123,-0.07962292432785034,-0.35574400424957275
1772641321634278100,4.284278076171875,-0.3253732919692993,-0.060071591287851334,-0.4019889831542969
1772641321644323000,4.294322998046875,-0.3293219804763794,-0.01338877622038126,-0.4065890610218048
1772641321654368300,4.3043681640625,-0.30942443013191223,0.03771808370947838,-0.36348605155944824
1772641321664413200,4.3144130859375,-0.2786547839641571,0.07121691852807999,-0.2791703939437866
1772641321674459100,4.324459228515625,-0.2522293031215668,0.08932188898324966,-0.15591396391391754
1772641321684504000,4.334504150390625,-0.23262712359428406,0.07976832985877991,-0.018128138035535812
1772641321694549000,4.344549072265625,-0.2506071925163269,0.07065499573945999,0.08802013844251633
1772641321704595200,4.35459521484375,-0.23742347955703735,0.031385887414216995,0.24593892693519592
1772641321714640100,4.36464013671875,-0.2312774360179901,-0.02599484845995903,0.3770071864128113
1772641321724685300,4.374685302734375,-0.2283570021390915,-0.0703764259815216,0.49977731704711914
1772641321734731300,4.384731201171875,-0.23229102790355682,-0.10552722215652466,0.6022219657897949
1772641321744776200,4.394776123046875,-0.2430344820022583,-0.13061606884002686,0.6763854026794434
1772641321754821000,4.404821044921875,-0.24315273761749268,-0.16168557107448578,0.7149319648742676
1772641321764865500,4.414865478515625,-0.24775494635105133,-0.2060977667570114,0.7067326307296753
1772641321774911700,4.424911865234375,-0.24717304110527039,-0.2540549039840698,0.6646482944488525
1772641321784956700,4.434956787109375,-0.24379348754882812,-0.299169659614563,0.5868802666664124
1772641321795001900,4.445001953125,-0.2379997819662094,-0.3084273338317871,0.49563851952552795
1772641321805047800,4.4550478515625,-0.22999431192874908,-0.2757114768028259,0.40533310174942017
1772641321815092700,4.4650927734375,-0.21959014236927032,-0.20425300300121307,0.32046055793762207
1772641321825137700,4.4751376953125,-0.21225208044052124,-0.13279639184474945,0.23023027181625366
1772641321835183600,4.48518359375,-0.2163030058145523,-0.06435555219650269,0.12332858890295029
1772641321845228800,4.495228759765625,-0.2336156815290451,-0.0012828446924686432,-0.0029734193813055754
1772641321855273700,4.505273681640625,-0.26142361760139465,0.07296714931726456,-0.14162904024124146
1772641321865319700,4.515319580078125,-0.2790795862674713,0.14229163527488708,-0.2806313931941986
1772641321875364900,4.52536474609375,-0.2707079350948334,0.201790913939476,-0.4027082920074463
1772641321885409500,4.535409423828125,-0.23884665966033936,0.24562281370162964,-0.49340730905532837
1772641321895454700,4.545454833984375,-0.19297851622104645,0.2656199634075165,-0.538712203502655
1772641321905500700,4.555500732421875,-0.13948360085487366,0.2595370411872864,-0.5429660677909851
1772641321915545600,4.565545654296875,-0.08453752100467682,0.25083035230636597,-0.5079537630081177
1772641321925590800,4.5755908203125,-0.042762111872434616,0.23170647025108337,-0.44554391503334045
1772641321935636700,4.58563671875,-0.005194761790335178,0.2143639624118805,-0.36161014437675476
1772641321945681700,4.595681640625,0.024581508710980415,0.18741409480571747,-0.2769823372364044
1772641321955726600,4.6057265625,0.046846069395542145,0.15471048653125763,-0.20752495527267456
1772641321965771800,4.615771728515625,0.05584462359547615,0.12739764153957367,-0.14650927484035492
1772641321975817700,4.625817626953125,0.059904877096414566,0.09494622051715851,-0.09657474607229233
1772641321985862700,4.635862548828125,0.053886935114860535,0.07387422025203705,-0.05000298097729683
1772641321995907800,4.645907958984375,0.046074286103248596,0.06377258896827698,-0.011216701939702034
1772641322005953800,4.655953857421875,0.03868827223777771,0.05988224223256111,0.01210113801062107
1772641322015998700,4.665998779296875,0.026563433930277824,0.06136242672801018,0.02479136548936367
1772641322026043600,4.676043701171875,0.0079748360440135,0.0691061019897461,0.026550650596618652
1772641322036089600,4.686089599609375,-0.015543540008366108,0.08309409022331238,0.018560634925961494
1772641322046134800,4.696134765625,-0.03182850405573845,0.09950795024633408,0.007947138510644436
1772641322056179700,4.7061796875,-0.037270672619342804,0.11092012375593185,0.0027566379867494106
1772641322066225700,4.7162255859375,-0.03133795037865639,0.11661715805530548,0.005563343409448862
1772641322076270600,4.7262705078125,-0.016702547669410706,0.11402084678411484,0.008360994048416615
1772641322086315500,4.7363154296875,0.001719869440421462,0.10301852971315384,0.0153177035972476
1772641322096360700,4.746360595703125,0.0268971286714077,0.09104841947555542,0.02695172280073166
1772641322106406700,4.75640673828125,0.044134438037872314,0.08700946718454361,0.04197993874549866
1772641322116451800,4.766451904296875,0.054971106350421906,0.09620722383260727,0.052683450281620026
1772641322126496800,4.776496826171875,0.061575744301080704,0.10730595141649246,0.06186523288488388
1772641322136542700,4.786542724609375,0.06418617814779282,0.12351901084184647,0.0681697353720665
1772641322146587600,4.796587646484375,0.07243584841489792,0.13337670266628265,0.07159775495529175
1772641322156632600,4.806632568359375,0.08756446838378906,0.14543336629867554,0.0730917900800705
1772641322166678800,4.8166787109375,0.10206218808889389,0.1414809674024582,0.0725860521197319
1772641322176723700,4.8267236328125,0.11686243861913681,0.12373259663581848,0.07359858602285385
1772641322186769000,4.836768798828125,0.1275678128004074,0.09728793799877167,0.07537811249494553
1772641322196813600,4.8468134765625,0.1279398500919342,0.07056551426649094,0.07004539668560028
1772641322206859500,4.856859619140625,0.12485751509666443,0.05549575015902519,0.06489324569702148
1772641322216904700,4.86690478515625,0.12118847668170929,0.04849403351545334,0.0549740344285965
1772641322226949600,4.87694970703125,0.1150517538189888,0.05229223147034645,0.03984914720058441
1772641322236995600,4.88699560546875,0.1141555979847908,0.07075193524360657,0.03278963640332222
1772641322247040800,4.897040771484375,0.11748934537172318,0.07998857647180557,0.028786107897758484
1772641322257085700,4.907085693359375,0.12288650870323181,0.08646085858345032,0.02382117696106434
1772641322267132000,4.9171318359375,0.1367061883211136,0.10539859533309937,0.014704643748700619
1772641322277176600,4.927176513671875,0.1532132476568222,0.1172962635755539,-0.008248874917626381
1772641322287221800,4.9372216796875,0.16883429884910583,0.12812094390392303,-0.039080023765563965
1772641322297266700,4.9472666015625,0.18083636462688446,0.13530190289020538,-0.06824403256177902
1772641322307312600,4.957312744140625,0.19348691403865814,0.140579491853714,-0.08281286060810089
1772641322317357800,4.96735791015625,0.20975136756896973,0.1501636654138565,-0.07829533517360687
1772641322327402500,4.977402587890625,0.23106756806373596,0.16067463159561157,-0.055992960929870605
1772641322337448700,4.98744873046875,0.2561146020889282,0.1613665223121643,-0.02889210171997547
1772641322347493600,4.99749365234375,0.28030356764793396,0.15625937283039093,-0.0012934972764924169
1772641322357538800,5.007538818359375,0.30699989199638367,0.15208619832992554,0.02274206466972828
1772641322367584800,5.017584716796875,0.340971440076828,0.1431845873594284,0.04204678535461426
1772641322377629700,5.027629638671875,0.371308296918869,0.11589065194129944,0.045749910175800323
1772641322387675000,5.0376748046875,0.3908601701259613,0.05849713087081909,0.0326751209795475
1772641322397719600,5.047719482421875,0.3912827968597412,-0.008792426437139511,0.013618607074022293
1772641322407765500,5.057765625,0.37347397208213806,-0.07147205621004105,-0.01305454969406128
1772641322417810700,5.067810791015625,0.3489049971103668,-0.1246575117111206,-0.035953208804130554
1772641322427855600,5.077855712890625,0.32379990816116333,-0.17193713784217834,-0.055516522377729416
1772641322437901800,5.08790185546875,0.30451834201812744,-0.22213053703308105,-0.07003101706504822
1772641322447946800,5.09794677734375,0.28409165143966675,-0.2815517783164978,-0.0981108546257019
1772641322457991700,5.10799169921875,0.26784104108810425,-0.25435611605644226,-0.10915285348892212
1772641322468037600,5.11803759765625,0.25957831740379333,-0.17972874641418457,-0.11442910879850388
1772641322478082600,5.12808251953125,0.2529808580875397,-0.08086422085762024,-0.1118096187710762
1772641322488127700,5.138127685546875,0.25651299953460693,0.02810194157063961,-0.09552732110023499
1772641322498172700,5.148172607421875,0.2663760185241699,0.10338737815618515,-0.07267500460147858
1772641322508219000,5.158218994140625,0.2781629264354706,0.16051989793777466,-0.038486938923597336
1772641322518263600,5.168263671875,0.2972452640533447,0.18369047343730927,-0.0016791230300441384
1772641322528308700,5.178308837890625,0.31118157505989075,0.18591687083244324,0.041605234146118164
1772641322538354700,5.188354736328125,0.31915083527565,0.18424999713897705,0.10161983221769333
1772641322548399600,5.198399658203125,0.3119267225265503,0.16126851737499237,0.16593624651432037
1772641322558444800,5.20844482421875,0.2868480086326599,0.12319570034742355,0.22931627929210663
1772641322568489700,5.21848974609375,0.24414582550525665,0.0830320343375206,0.2797674536705017
1772641322578535700,5.22853564453125,0.18113143742084503,0.05696608126163483,0.3069881796836853
1772641322588580600,5.23858056640625,0.10295248031616211,0.051658399403095245,0.3069596588611603
1772641322598625500,5.24862548828125,0.022671490907669067,0.05820365250110626,0.29407158493995667
1772641322608671700,5.258671630859375,-0.047933436930179596,0.0572262704372406,0.27524808049201965
1772641322618716700,5.268716552734375,-0.1008634939789772,0.045157890766859055,0.253924161195755
1772641322628761900,5.278761962890625,-0.1378052681684494,0.029280390590429306,0.23093201220035553
1772641322638807800,5.288807861328125,-0.155711829662323,0.0173781905323267,0.1995365470647812
1772641322648852500,5.2988525390625,-0.1640499234199524,0.01774623990058899,0.16339051723480225
1772641322658897700,5.308897705078125,-0.16989102959632874,0.03304876387119293,0.1250452697277069
1772641322668942600,5.318942626953125,-0.17242209613323212,0.057435061782598495,0.0764593556523323
1772641322678988800,5.32898876953125,-0.17608581483364105,0.08726219832897186,0.027539748698472977
1772641322689033700,5.33903369140625,-0.17842726409435272,0.11863689869642258,-0.0201601292937994
1772641322699079000,5.349078857421875,-0.17906562983989716,0.127372607588768,-0.07452669739723206
1772641322709124900,5.359124755859375,-0.17619074881076813,0.13130609691143036,-0.1344933658838272
1772641322719169500,5.36916943359375,-0.16825132071971893,0.12958142161369324,-0.1958959996700287
1772641322729214700,5.379214599609375,-0.15309634804725647,0.12301354110240936,-0.2559305727481842
1772641322739260700,5.3892607421875,-0.13294845819473267,0.11433456838130951,-0.3084483742713928
1772641322749305600,5.3993056640625,-0.10882101953029633,0.10794457793235779,-0.34906691312789917
1772641322759350800,5.409350830078125,-0.07221507281064987,0.09802749752998352,-0.37715715169906616
1772641322769397200,5.419397216796875,-0.035171303898096085,0.09863869100809097,-0.3916114568710327
1772641322779442200,5.429442138671875,-0.0015789881581440568,0.10807773470878601,-0.3952144384384155
1772641322789487000,5.439487060546875,0.02815866656601429,0.11941108107566833,-0.39137041568756104
1772641322799532300,5.4495322265625,0.0488775260746479,0.1315995752811432,-0.3802493214607239
1772641322809578200,5.459578125,0.06221890076994896,0.1456725150346756,-0.36243411898612976
1772641322819623200,5.469623046875,0.06709594279527664,0.15051041543483734,-0.3417797088623047
1772641322829668400,5.47966845703125,0.060572266578674316,0.13833363354206085,-0.323116272687912
1772641322839714300,5.48971435546875,0.045757900923490524,0.10524892807006836,-0.3063831031322479
1772641322849759000,5.499759033203125,0.018798721954226494,0.07194396108388901,-0.2864517271518707
1772641322859804200,5.50980419921875,-0.01323990523815155,0.056166067719459534,-0.2648327350616455
1772641322869849000,5.51984912109375,-0.04766419157385826,0.041488852351903915,-0.24193567037582397
1772641322879895300,5.529895263671875,-0.08375348895788193,0.03352972865104675,-0.21827028691768646
1772641322889940200,5.539940185546875,-0.11208179593086243,0.021384650841355324,-0.19547656178474426
1772641322899985200,5.549985107421875,-0.1365320086479187,-0.0007206514128483832,-0.17941848933696747
1772641322910031000,5.560031005859375,-0.1603582501411438,-0.03142663091421127,-0.17392359673976898
1772641322920076000,5.570075927734375,-0.18696242570877075,-0.06364688277244568,-0.17163300514221191
1772641322930121200,5.580121337890625,-0.20509696006774902,-0.10001741349697113,-0.17568208277225494
1772641322940167200,5.590167236328125,-0.2191976010799408,-0.12174294888973236,-0.18302202224731445
1772641322950212400,5.60021240234375,-0.22539903223514557,-0.13368216156959534,-0.18830253183841705
1772641322960257300,5.61025732421875,-0.224863201379776,-0.13640205562114716,-0.19285893440246582
1772641322970302200,5.62030224609375,-0.22235611081123352,-0.126907080411911,-0.19168341159820557
1772641322980348200,5.63034814453125,-0.2279846966266632,-0.11516227573156357,-0.1917894035577774
1772641322990393000,5.64039306640625,-0.23526285588741302,-0.1028430238366127,-0.1920357495546341
1772641323000438300,5.650438232421875,-0.2441929578781128,-0.07863009721040726,-0.19659748673439026
1772641323010484200,5.660484130859375,-0.23920273780822754,-0.0639350414276123,-0.1945178210735321
1772641323020529200,5.670529052734375,-0.22997620701789856,-0.049360357224941254,-0.1828869879245758
1772641323030574000,5.680573974609375,-0.22124023735523224,-0.04380500316619873,-0.1618216633796692
1772641323040620000,5.6906201171875,-0.21809984743595123,-0.0462372712790966,-0.14272785186767578
1772641323050665200,5.700665283203125,-0.22486107051372528,-0.055509865283966064,-0.12419598549604416
1772641323060710100,5.710710205078125,-0.2436872273683548,-0.0634242445230484,-0.10673336684703827
1772641323070756000,5.720756103515625,-0.27067676186561584,-0.07468515634536743,-0.08682677149772644
1772641323080801300,5.73080126953125,-0.30335429310798645,-0.08304109424352646,-0.06030035763978958
1772641323090846200,5.74084619140625,-0.33332177996635437,-0.08965159207582474,-0.018022943288087845
1772641323100891100,5.75089111328125,-0.3568018078804016,-0.10634587705135345,0.026762105524539948
1772641323110937000,5.76093701171875,-0.3803020715713501,-0.11725551635026932,0.07189496606588364
1772641323120982300,5.770982177734375,-0.40278181433677673,-0.11966913938522339,0.10894539207220078
1772641323131027200,5.781027099609375,-0.41820043325424194,-0.12479785829782486,0.13626623153686523
1772641323141073200,5.7910732421875,-0.43302786350250244,-0.13454370200634003,0.14454573392868042
1772641323151118300,5.801118408203125,-0.44595563411712646,-0.1497626006603241,0.1331050544977188
1772641323161163000,5.8111630859375,-0.46131330728530884,-0.16501665115356445,0.104782335460186
1772641323171208200,5.821208251953125,-0.4745899438858032,-0.1781497597694397,0.06915084272623062
1772641323181254100,5.831254150390625,-0.47701263427734375,-0.17578700184822083,0.038061097264289856
1772641323191299300,5.84129931640625,-0.4671940803527832,-0.15370593965053558,0.015234879218041897
1772641323201344300,5.85134423828125,-0.44599878787994385,-0.12479785829782486,0.0043718451634049416
1772641323211390200,5.86139013671875,-0.41952189803123474,-0.0956554189324379,0.0017981663113459945
1772641323221435400,5.871435302734375,-0.3932306468486786,-0.06983527541160583,0.011270764283835888
1772641323231480000,5.88147998046875,-0.3658975660800934,-0.07226274162530899,0.028208201751112938
1772641323241526000,5.891526123046875,-0.34883496165275574,-0.1019122526049614,0.05254629999399185
1772641323251571200,5.9015712890625,-0.3341316282749176,-0.14094220101833344,0.08353537321090698
1772641323261616000,5.9116162109375,-0.32657119631767273,-0.18067310750484467,0.12494619935750961
1772641323271661300,5.921661376953125,-0.3252771496772766,-0.22180695831775665,0.1667940467596054
1772641323281707300,5.931707275390625,-0.33635085821151733,-0.27512505650520325,0.19676153361797333
1772641323291752200,5.941752197265625,-0.3605448603630066,-0.3291406035423279,0.2071603685617447
1772641323301797000,5.951797119140625,-0.39131343364715576,-0.35439029335975647,0.20694385468959808
1772641323311843000,5.961843017578125,-0.4225272834300995,-0.3417525291442871,0.19427840411663055
1772641323321888300,5.97188818359375,-0.45619577169418335,-0.30384698510169983,0.15992175042629242
1772641323331933200,5.98193310546875,-0.48337891697883606,-0.23842908442020416,0.1069624051451683
1772641323341979400,5.9919794921875,-0.5017416477203369,-0.1652214527130127,0.04473258554935455
1772641323352024000,6.002024169921875,-0.5086893439292908,-0.09114189445972443,-0.01600240170955658
1772641323362069200,6.0120693359375,-0.4989839792251587,-0.01733211800456047,-0.05031350255012512
1772641323372114200,6.0221142578125,-0.4698370099067688,0.03634442389011383,-0.048773132264614105
1772641323382160100,6.03216015625,-0.4290107488632202,0.05992512032389641,-0.01997157745063305
1772641323392205300,6.042205322265625,-0.38575780391693115,0.06358110904693604,0.025495773181319237
1772641323402250200,6.052250244140625,-0.35326164960861206,0.05843827500939369,0.08297211676836014
1772641323412296200,6.062296142578125,-0.327302485704422,0.045289717614650726,0.150650754570961
1772641323422341000,6.072341064453125,-0.30850696563720703,0.03278644382953644,0.22334280610084534
1772641323432386000,6.082385986328125,-0.2943331003189087,0.014362693764269352,0.30273163318634033
1772641323442431200,6.09243115234375,-0.2851145565509796,-0.010135192424058914,0.38244137167930603
1772641323452477200,6.102477294921875,-0.28879451751708984,-0.04151788353919983,0.45000311732292175
1772641323462522400,6.1125224609375,-0.294015109539032,-0.07991853356361389,0.507926881313324
1772641323472567000,6.122567138671875,-0.2945123314857483,-0.12921391427516937,0.5441080331802368
1772641323482613000,6.132613037109375,-0.28993460536003113,-0.18663538992404938,0.5578036308288574
1772641323492658200,6.142658203125,-0.2785128653049469,-0.24509550631046295,0.5481504797935486
1772641323502703000,6.152703125,-0.2629261612892151,-0.27897384762763977,0.5226107239723206
1772641323512749300,6.162749267578125,-0.25049692392349243,-0.29923704266548157,0.4769290089607239
1772641323522794200,6.172794189453125,-0.2303280085325241,-0.28671565651893616,0.422864705324173
1772641323532839400,6.18283935546875,-0.20944589376449585,-0.25561419129371643,0.3554707467556
1772641323542884000,6.192884033203125,-0.194881871342659,-0.1947537660598755,0.27836719155311584
1772641323552930000,6.202929931640625,-0.18552352488040924,-0.11040639877319336,0.19139526784420013
1772641323562975200,6.212975341796875,-0.18221108615398407,-0.014448181726038456,0.09136559814214706
1772641323573020200,6.223020263671875,-0.1845826357603073,0.08139392733573914,-0.025618011131882668
1772641323583066000,6.233066162109375,-0.1794496476650238,0.16865719854831696,-0.16186080873012543
1772641323593111300,6.243111328125,-0.17242316901683807,0.23088274896144867,-0.31239011883735657
1772641323603156000,6.253156005859375,-0.15938380360603333,0.2707175016403198,-0.4618195593357086
1772641323613202200,6.2632021484375,-0.14534974098205566,0.28794044256210327,-0.5980058908462524
1772641323623247000,6.2732470703125,-0.11771917343139648,0.3018418848514557,-0.6950389742851257
1772641323633292300,6.283292236328125,-0.08522115647792816,0.3129485845565796,-0.7530801892280579
1772641323643337200,6.293337158203125,-0.047019705176353455,0.31423649191856384,-0.7742560505867004
1772641323653383200,6.303383056640625,-0.012284096330404282,0.32640713453292847,-0.7487256526947021
1772641323663428400,6.313428466796875,0.02787184529006481,0.34732308983802795,-0.681790292263031
1772641323673473000,6.32347314453125,0.06772152334451675,0.3424212634563446,-0.5785144567489624
1772641323683519200,6.333519287109375,0.09147212654352188,0.3034328520298004,-0.46592801809310913
1772641323693564200,6.343564208984375,0.100970558822155,0.2226429283618927,-0.3519796133041382
1772641323703609300,6.353609375,0.09420985728502274,0.11349406838417053,-0.24044856429100037
1772641323713655300,6.3636552734375,0.07556399703025818,-0.0027830032631754875,-0.13194099068641663
1772641323723700200,6.3737001953125,0.0466734953224659,-0.09525701403617859,-0.0372333899140358
1772641323733745200,6.3837451171875,0.02213273197412491,-0.1604117751121521,0.03760649636387825
1772641323743790000,6.3937900390625,0.0007294398383237422,-0.1976052224636078,0.08333004266023636
1772641323753836000,6.4038359375,-0.004716724622994661,-0.21413998305797577,0.09813002496957779
1772641323763881200,6.413881103515625,-0.0017587515758350492,-0.2170015573501587,0.07631287723779678
1772641323773926000,6.42392578125,0.0025715483352541924,-0.1946033090353012,0.03953089937567711
1772641323783971800,6.433971923828125,0.005917011294513941,-0.14583976566791534,-0.011022024787962437
1772641323794016800,6.444016845703125,0.00902705080807209,-0.08739615976810455,-0.07134821265935898
1772641323804062000,6.45406201171875,0.016218651086091995,-0.026256637647747993,-0.13676556944847107
1772641323814108000,6.46410791015625,0.02514876239001751,0.03881131112575531,-0.20052270591259003
1772641323824152800,6.47415283203125,0.036683179438114166,0.10070663690567017,-0.25032541155815125
1772641323834198000,6.484197998046875,0.05197717994451523,0.15527081489562988,-0.2797999680042267
1772641323844242700,6.49424267578125,0.06250705569982529,0.18763141334056854,-0.2883756160736084
1772641323854289000,6.504288818359375,0.08000774681568146,0.20439308881759644,-0.2776057720184326
1772641323864333800,6.514333740234375,0.10076975077390671,0.20678353309631348,-0.25184234976768494
1772641323874379000,6.52437890625,0.1290123164653778,0.18648305535316467,-0.21368831396102905
1772641323884425000,6.534425048828125,0.1616072654724121,0.1597001850605011,-0.16835252940654755
1772641323894470000,6.544469970703125,0.18760105967521667,0.1351756602525711,-0.11652075499296188
1772641323904514800,6.554514892578125,0.20740404725074768,0.11669785529375076,-0.06391853094100952
1772641323914559700,6.564559814453125,0.22636176645755768,0.09566101431846619,-0.009733054786920547
1772641323924606000,6.57460595703125,0.24424143135547638,0.06707410514354706,0.04038603976368904
1772641323934651000,6.58465087890625,0.2594009339809418,0.0423746220767498,0.09187719225883484
1772641323944696000,6.594696044921875,0.26914599537849426,0.031244738027453423,0.1380196511745453
1772641323954742000,6.604741943359375,0.28214672207832336,0.03738785162568092,0.18658985197544098
1772641323964787000,6.614786865234375,0.2942734360694885,0.030172016471624374,0.2231750339269638
1772641323974831900,6.624831787109375,0.3013550639152527,0.016981113702058792,0.25232893228530884
1772641323984877800,6.6348779296875,0.30163121223449707,0.008989499881863594,0.27652907371520996
1772641323994922800,6.6449228515625,0.29633820056915283,0.0031156321056187153,0.28567489981651306
1772641324004968000,6.654968017578125,0.2911474108695984,-0.0006295712664723396,0.2815488576889038
1772641324015012900,6.665012939453125,0.28493639826774597,-0.00010839065362233669,0.26896408200263977
1772641324025059000,6.67505908203125,0.28052645921707153,-0.01181910838931799,0.2526639401912689
1772641324035103700,6.685103759765625,0.28405889868736267,-0.021584654226899147,0.24373090267181396
1772641324045149000,6.69514892578125,0.288822203874588,-0.02135375887155533,0.24522413313388824
1772641324055195000,6.70519482421875,0.30113932490348816,-0.006368150934576988,0.25769492983818054
1772641324065239800,6.71523974609375,0.31226202845573425,0.014200241304934025,0.270999550819397
1772641324075285000,6.725284912109375,0.33384642004966736,0.035231757909059525,0.28728875517845154
1772641324085331000,6.7353310546875,0.3592905104160309,0.05645022541284561,0.2916877865791321
1772641324095376100,6.745376220703125,0.3735205829143524,0.08081229031085968,0.2846756875514984
1772641324105420800,6.7554208984375,0.38238945603370667,0.11159949749708176,0.2708738446235657
1772641324115466000,6.765466064453125,0.3838872015476227,0.14967577159404755,0.25704485177993774
1772641324125512000,6.775511962890625,0.38957226276397705,0.1614975482225418,0.24986043572425842
1772641324135556900,6.785556884765625,0.41139551997184753,0.11758921295404434,0.23704557120800018
1772641324145602000,6.79560205078125,0.45094799995422363,0.05270981788635254,0.22180908918380737
1772641324155648000,6.80564794921875,0.49938610196113586,-0.002142246812582016,0.19452421367168427
1772641324165693000,6.81569287109375,0.5518120527267456,-0.08404776453971863,0.14108414947986603
1772641324175737900,6.82573779296875,0.600350022315979,-0.1407374143600464,0.07763593643903732
1772641324185783800,6.83578369140625,0.6338672041893005,-0.1707208752632141,0.00039760995423421264
1772641324195829000,6.8458291015625,0.6318008899688721,-0.15807965397834778,-0.08252150565385818
1772641324205874000,6.8558740234375,0.5963147878646851,-0.10433252900838852,-0.16217505931854248
1772641324215919000,6.865919189453125,0.5453980565071106,-0.02449602261185646,-0.22858497500419617
1772641324225964800,6.87596484375,0.48917287588119507,0.07663911581039429,-0.2654463052749634
1772641324236009700,6.886009765625,0.448712557554245,0.18114714324474335,-0.26934972405433655
1772641324246055000,6.896054931640625,0.4363434910774231,0.2522655427455902,-0.23442049324512482
1772641324256100900,6.906100830078125,0.45166945457458496,0.2824905514717102,-0.1656709909439087
1772641324266146000,6.91614599609375,0.48503485321998596,0.2741311490535736,-0.0655028447508812
1772641324276191000,6.92619091796875,0.5166287422180176,0.234744593501091,0.05103175714612007
1772641324286236000,6.93623583984375,0.5295043587684631,0.17868532240390778,0.16636474430561066
1772641324296281900,6.94628173828125,0.5220929980278015,0.10682791471481323,0.27324697375297546
1772641324306326800,6.956326904296875,0.49319693446159363,0.032582443207502365,0.36261922121047974
1772641324316372000,6.9663720703125,0.45086172223091125,-0.024658741429448128,0.43160760402679443
1772641324326418000,6.97641796875,0.39033472537994385,-0.05114627629518509,0.484506756067276
1772641324336462800,6.986462890625,0.3334096670150757,-0.057857438921928406,0.5211129784584045
1772641324346507800,6.9965078125,0.29164570569992065,-0.03773779049515724,0.5407007932662964
1772641324356553700,7.0065537109375,0.23467136919498444,-0.0510738380253315,0.5253777503967285
1772641324366599000,7.016598876953125,0.1728372871875763,-0.01985333301126957,0.5040514469146729
1772641324376643800,7.026643798828125,0.11818469315767288,0.0008719189208932221,0.4666502773761749
1772641324386689000,7.03668896484375,0.07092530280351639,-0.027097664773464203,0.4074290096759796
1772641324396735000,7.04673486328125,0.01966851018369198,-0.03762194514274597,0.34347987174987793
1772641324406780000,7.05677978515625,-0.02430693805217743,-0.04737177491188049,0.2726088762283325
1772641324416824800,7.066824951171875,-0.07042010128498077,-0.06868558377027512,0.19016674160957336
1772641324426870800,7.076870849609375,-0.10553494840860367,-0.046667370945215225,0.11235370486974716
1772641324436916000,7.086916015625,-0.13652509450912476,0.004625378176569939,0.03628556802868843
1772641324446961000,7.0969609375,-0.16354551911354065,0.07071784883737564,-0.04296397790312767
1772641324457006000,7.107006103515625,-0.18459701538085938,0.14888136088848114,-0.12175226956605911
1772641324467052000,7.117052001953125,-0.19720788300037384,0.22259126603603363,-0.19816447794437408
1772641324477096700,7.1270966796875,-0.19987663626670837,0.27263978123664856,-0.2719170153141022
1772641324487142000,7.137141845703125,-0.19881722331047058,0.28648290038108826,-0.3315773904323578
1772641324497187800,7.147187744140625,-0.1995980590581894,0.2796444296836853,-0.37491050362586975
1772641324507233000,7.15723291015625,-0.15800002217292786,0.23759418725967407,-0.40899842977523804
1772641324517278000,7.16727783203125,-0.07995954900979996,0.18495680391788483,-0.43744152784347534
1772641324527324000,7.177323974609375,0.004832305945456028,0.1301175206899643,-0.45074719190597534
1772641324537369000,7.187369140625,0.0914100706577301,0.09140448272228241,-0.4545760154724121
1772641324547413800,7.197413818359375,0.17194007337093353,0.07597572356462479,-0.45043668150901794
1772641324557459000,7.207458984375,0.22201761603355408,0.09573052078485489,-0.4379650950431824
1772641324567505000,7.2175048828125,0.25350522994995117,0.14323198795318604,-0.41793039441108704
1772641324577549800,7.2275498046875,0.26567456126213074,0.1850643903017044,-0.3918103873729706
1772641324587595000,7.237594970703125,0.25958842039108276,0.2004406899213791,-0.3647553324699402
1772641324597641000,7.247640869140625,0.24167494475841522,0.18725325167179108,-0.32361534237861633
1772641324607686000,7.257685791015625,0.21480657160282135,0.14519980549812317,-0.27079129219055176
1772641324617730800,7.267730712890625,0.18973131477832794,0.07571659982204437,-0.21173381805419922
1772641324627776800,7.27777685546875,0.16928090155124664,-0.009219330735504627,-0.1530524045228958
1772641324637822000,7.287822021484375,0.14780916273593903,-0.07613205164670944,-0.10005975514650345
1772641324647867000,7.297866943359375,0.1316637545824051,-0.12203536182641983,-0.05822468921542168
1772641324657912000,7.307912109375,0.11824382096529007,-0.14460724592208862,-0.03855032101273537
1772641324667957800,7.317957763671875,0.10556983202695847,-0.1431124210357666,-0.03484213724732399
1772641324678003000,7.3280029296875,0.09210649132728577,-0.1338970810174942,-0.045629002153873444
1772641324688047900,7.3380478515625,0.07277487218379974,-0.13195297122001648,-0.061826083809137344
1772641324698093800,7.34809375,0.05517164245247841,-0.13298548758029938,-0.0676024779677391
1772641324708139000,7.358138916015625,0.0425485260784626,-0.130906343460083,-0.06994499266147614
1772641324718184000,7.368183837890625,0.03389272093772888,-0.1429843157529831,-0.06522826850414276
1772641324728230000,7.37822998046875,0.02310132421553135,-0.15231098234653473,-0.057911235839128494
1772641324738274800,7.38827490234375,0.010358098894357681,-0.14473427832126617,-0.05710482969880104
1772641324748319700,7.39831982421875,0.004596349783241749,-0.12249235808849335,-0.06239786371588707
1772641324758365000,7.408364990234375,-0.006098372396081686,-0.1010749489068985,-0.07322441041469574
1772641324768410600,7.41841064453125,-0.020715398713946342,-0.07185501605272293,-0.08928034454584122
1772641324778455800,7.428455810546875,-0.03448367491364479,-0.04152959957718849,-0.10201851278543472
1772641324788500700,7.438500732421875,-0.046666838228702545,-0.0017270599491894245,-0.11289592832326889
1772641324798546700,7.448546630859375,-0.06492866575717926,0.025966353714466095,-0.11455347388982773
1772641324808592000,7.458591796875,-0.08537322282791138,0.03903048858046532,-0.11005060374736786
1772641324818636500,7.468636474609375,-0.10361241549253464,0.04574405401945114,-0.10042407363653183
1772641324828681700,7.478681640625,-0.11952719837427139,0.05546538904309273,-0.08600679039955139
1772641324838727700,7.488727783203125,-0.13083897531032562,0.07151013612747192,-0.06621470302343369
1772641324848772900,7.49877294921875,-0.14588530361652374,0.08407013863325119,-0.048296693712472916
1772641324858817800,7.50881787109375,-0.17012831568717957,0.10169147700071335,-0.030305441468954086
1772641324868863700,7.51886376953125,-0.1940656155347824,0.1062484085559845,-0.017665280029177666
1772641324878909000,7.528908935546875,-0.21205712854862213,0.10808998346328735,-0.0015566176734864712
1772641324888953600,7.53895361328125,-0.22477026283740997,0.09809035062789917,0.015296664088964462
1772641324898999800,7.548999755859375,-0.22958685457706451,0.07544761896133423,0.032584309577941895
1772641324909044700,7.559044677734375,-0.23177143931388855,0.0397932194173336,0.05026343837380409
1772641324919090000,7.56908984375,-0.2256626933813095,0.005921804811805487,0.06187082454562187
1772641324929134800,7.579134765625,-0.2247534841299057,-0.025184448808431625,0.06881661713123322
1772641324939180800,7.589180908203125,-0.22520755231380463,-0.05464806407690048,0.06467380374670029
1772641324949225700,7.599225830078125,-0.22702063620090485,-0.08210951834917068,0.05281953886151314
1772641324959270700,7.609270751953125,-0.2276720404624939,-0.09515900909900665,0.03375769779086113
1772641324969316600,7.619316650390625,-0.22968752682209015,-0.09584769606590271,0.009443568997085094
1772641324979361800,7.62936181640625,-0.23640507459640503,-0.09049714356660843,-0.015586682595312595
1772641324989406700,7.63940673828125,-0.2369488924741745,-0.08223521709442139,-0.03657292574644089
1772641324999453000,7.649452880859375,-0.23145931959152222,-0.07752328366041183,-0.044205810874700546
1772641325009497900,7.659497802734375,-0.2187451273202896,-0.0894521176815033,-0.04140682891011238
1772641325019542800,7.669542724609375,-0.20580722391605377,-0.09623812139034271,-0.02611522376537323
1772641325029587700,7.679587646484375,-0.18860134482383728,-0.09595689177513123,-0.004569984506815672
1772641325039633700,7.689633544921875,-0.1703978329896927,-0.09471932053565979,0.035526569932699203
1772641325049678800,7.699678955078125,-0.15490809082984924,-0.10074285417795181,0.0884142816066742
1772641325059723800,7.709723876953125,-0.14644642174243927,-0.11256010085344315,0.14828108251094818
1772641325069770000,7.71977001953125,-0.1408199667930603,-0.1267867088317871,0.21067415177822113
1772641325079814700,7.729814697265625,-0.14662885665893555,-0.14427754282951355,0.2560133934020996
1772641325089859800,7.73985986328125,-0.16290690004825592,-0.1784762591123581,0.27001816034317017
1772641325099904800,7.74990478515625,-0.18670596182346344,-0.22087538242340088,0.25011396408081055
1772641325109950700,7.75995068359375,-0.21171890199184418,-0.24643588066101074,0.2109026461839676
1772641325119996000,7.769995849609375,-0.23568762838840485,-0.24048185348510742,0.15804609656333923
1772641325130040800,7.780040771484375,-0.2618579864501953,-0.19987982511520386,0.10450536757707596
1772641325140086800,7.790086669921875,-0.28771328926086426,-0.15397092700004578,0.04151282086968422
1772641325150131700,7.800131591796875,-0.3162117600440979,-0.08618202060461044,-0.02799008972942829
1772641325160176600,7.8101767578125,-0.3500054180622101,0.017584852874279022,-0.09039168059825897
1772641325170222800,7.820222900390625,-0.37851110100746155,0.14249642193317413,-0.12174827605485916
1772641325180267800,7.830267822265625,-0.3845287561416626,0.2222820669412613,-0.12351235002279282
1772641325190313000,7.84031298828125,-0.3713440001010895,0.26311764121055603,-0.0892752856016159
1772641325200357600,7.850357666015625,-0.3467142879962921,0.27126505970954895,-0.021214207634329796
1772641325210403600,7.860403564453125,-0.31352463364601135,0.222621351480484,0.050392068922519684
1772641325220448800,7.87044873046875,-0.27135878801345825,0.17988267540931702,0.13298600912094116
1772641325230493700,7.88049365234375,-0.23738431930541992,0.11235583573579788,0.2187696248292923
1772641325240540000,7.890539794921875,-0.20641069114208221,0.04405613988637924,0.30920684337615967
1772641325250584800,7.900584716796875,-0.17742325365543365,-0.00020133497309871018,0.4044572114944458
1772641325260630000,7.910630126953125,-0.17094990611076355,-0.07572592049837112,0.48724475502967834
1772641325270674700,7.9206748046875,-0.1693325638771057,-0.17909304797649384,0.5432238578796387
1772641325280720600,7.930720703125,-0.17561976611614227,-0.27669230103492737,0.558205246925354
1772641325290765800,7.940765869140625,-0.17504478991031647,-0.3220920264720917,0.544167160987854
1772641325300810800,7.950810791015625,-0.1711520403623581,-0.2847774028778076,0.519429087638855
1772641325310856700,7.960856689453125,-0.15942001342773438,-0.2125607281923294,0.4682561457157135
1772641325320902000,7.97090185546875,-0.13600097596645355,-0.09039700776338577,0.3951624929904938
1772641325330946600,7.980946533203125,-0.11017177999019623,0.07860959321260452,0.30710187554359436
1772641325340992800,7.99099267578125,-0.08922521770000458,0.22026951611042023,0.23711028695106506
1772641325351037700,8.00103759765625,-0.064949169754982,0.2534543573856354,0.18961280584335327
1772641325361083000,8.011082763671874,-0.04790254309773445,0.1785992980003357,0.16467416286468506
1772641325371127800,8.0211279296875,-0.022962840273976326,0.05134547874331474,0.15135276317596436
