time,seconds_elapsed,z,y,x
1772732445141180000,0.073179931640625,0.2500415132731199,-0.22614450485706328,-0.3361322352737188
1772732445151206700,0.08320654296875,0.4865858315914869,-0.2142962461531162,-0.40007703030928965
1772732445161235000,0.09323486328125,0.6818114665716886,-0.2523649877846241,-0.41315819180905816
1772732445171263200,0.10326318359375,0.7786796031743287,-0.31145722822248934,-0.36931853862591085
1772732445181290200,0.113290283203125,0.7276449969857931,-0.3903039704442024,-0.37179720369912683
1772732445191318300,0.123318359375,0.6782979054927826,-0.42291795380115504,-0.3473735410604626
1772732445201346000,0.133345947265625,0.7501385683447123,-0.40320846020281315,-0.3217377261530608
1772732445211373300,0.143373291015625,0.8824684789508581,-0.4578681250207126,-0.39903665441088376
1772732445221401000,0.153401123046875,0.8839163396716118,-0.5460074501141905,-0.5060741932524367
1772732445231428000,0.163427978515625,0.7840221332460642,-0.5696190657176077,-0.5424748920738697
1772732445241456400,0.173456298828125,0.6857675107210874,-0.5486250852666795,-0.5805495154568925
1772732445251484200,0.183484130859375,0.6665875939548015,-0.5658417391359806,-0.5966760725345462
1772732445261511400,0.193511474609375,0.6721469816476107,-0.7186528583653271,-0.5262317228792235
1772732445271539200,0.203539306640625,0.82394088665843,-0.8066416690722107,-0.35412970078978684
1772732445281567200,0.213567138671875,1.2280331439584493,-0.6402832321360707,-0.22852986562363803
1772732445291594200,0.22359423828125,1.3961328716039656,-0.38945086074620483,0.6045382207443938
1772732445301622300,0.233622314453125,1.215148527944088,-0.843469470731914,0.2211106388757005
1772732445311649300,0.243649169921875,0.7503530878782272,-1.4884078351974486,-1.0708441019058228
1772732445321677300,0.25367724609375,0.29412147801816463,-1.453481190983951,-1.7758948436371982
1772732445331705300,0.263705322265625,-0.3370692238628864,-0.6568690407559276,-1.5646256902202962
1772732445341732400,0.273732421875,-0.8576204534202814,0.1864857175551355,-0.9932435603529214
1772732445351760100,0.283760009765625,-0.9177595725625752,0.06862915345951914,-1.20047191394642
1772732445361788200,0.2937880859375,-0.7799450930655002,-0.26086758932247756,-1.344844875176251
1772732445371815200,0.303815185546875,-0.5376935030162334,-0.35097573027089235,-1.093413222718984
1772732445381843500,0.313843505859375,-0.3935229324907064,-0.429918334082514,-0.7755420358009636
1772732445391870200,0.3238701171875,-0.1846954731374979,-0.5221133643075824,-0.5769795114830136
1772732445401898200,0.333898193359375,0.08894085073471068,-0.5555664288371801,-0.45339127186760303
1772732445411926300,0.34392626953125,0.2834095298677683,-0.3798191090479493,-0.05021196469403803
1772732445421953300,0.353953369140625,0.47358489572107787,-0.756349405683577,-0.1671500987704843
1772732445431981300,0.363981201171875,0.5662777924656868,-1.3425403976261614,-0.6928442441742867
1772732445442009000,0.374009033203125,0.5300654923558235,-0.8068906753972173,0.0397809523768723
1772732445452036400,0.384036376953125,0.5304413399308919,-0.6375244349472224,0.23376294397152958
1772732445462064400,0.394064453125,0.5487304453372955,-0.8194964744701981,-0.10464607712775469
1772732445472091100,0.404091064453125,0.623491964071989,-0.7355182145789265,-0.1642915675342083
1772732445482119400,0.414119384765625,0.7395575530976056,-0.6109583534523845,-0.05836933299079537
1772732445492147200,0.424147216796875,0.7450263398975133,-0.582120673763752,-0.07239161126557737
1772732445502174500,0.434174560546875,0.7135761396229267,-0.5827851290218532,-0.14386121231541038
1772732445512202200,0.4442021484375,0.635045623743534,-0.611353636380285,-0.17261716853734105
1772732445522230300,0.454230224609375,0.5031617033392191,-0.638951837401837,-0.1553743938460946
1772732445532257300,0.46425732421875,0.3999006508290767,-0.6511212908841669,-0.20001257699579
1772732445542285300,0.474285400390625,0.33968262123167514,-0.7095828322030604,-0.2303551813546568
1772732445552313300,0.484313232421875,0.34228257459700107,-0.853302736351639,-0.24372944404948502
1772732445562340400,0.49434033203125,0.36478725187182426,-1.028868562094122,-0.1949814692270942
1772732445572368400,0.504368408203125,0.4895195469558239,-1.1373125702001154,-0.12184910433050244
1772732445582395400,0.5143955078125,0.6032616614699363,-1.0019589278586207,0.0949397988885641
1772732445592423200,0.524423095703125,0.5340057544142007,-0.48756636706143613,0.8055755742106586
1772732445602451200,0.534451171875,0.5355892242133617,-1.1717346258923411,0.04866263462649658
1772732445612478200,0.544478271484375,0.9188017750918864,-1.4423207684136927,-0.4663348515275865
1772732445622506500,0.554506591796875,0.9459194991201162,-1.4511018946319818,-0.3343669426342472
1772732445632534300,0.5645341796875,0.42304245696365833,-1.2115886435054242,-0.07210914106238633
1772732445642561300,0.574561279296875,0.11816636069715022,-0.6471367512926459,-0.23883747075684367
1772732445652589300,0.58458935546875,0.030433132186532017,-0.3403250107884407,-0.65921896488294
1772732445662616300,0.5946162109375,0.06947627180814743,-0.579166500133276,-1.0171750555604695
1772732445672644400,0.604644287109375,0.05097615399956703,-1.2015556175298987,-1.234998452926427
1772732445682672400,0.61467236328125,-0.2638403215229511,-1.9540588691793381,-1.3925170191943645
1772732445692699100,0.62469921875,-0.6517559355258942,-2.4589105714321136,-1.4245182774804532
1772732445702727400,0.6347275390625,-1.0229524699181318,-2.5587179763570425,-1.4269221237517893
1772732445712755200,0.644755126953125,-1.2346429174870253,-2.460078738428652,-1.566557388935238
1772732445722782500,0.654782470703125,-1.4839982020616531,-1.9255992290228605,-1.2481059179112315
1772732445732810200,0.664810302734375,-1.9902070180118083,-1.1209937419533729,-0.3546551859686151
1772732445742837200,0.674837158203125,-2.5134604922652244,-1.2280758140563963,-0.39676132989004254
1772732445752865300,0.684865234375,-3.0695529908031225,-1.3665584020733832,-0.6398988359283656
1772732445762893300,0.694893310546875,-3.377490228205919,-1.087974538796395,-0.6144025756221264
1772732445772920300,0.70492041015625,-3.2707682215869425,-0.8397305764645338,-0.5966548836160451
1772732445782948400,0.7149482421875,-2.7884166665643453,-0.9447351116411388,-0.7330879917573183
1772732445792976400,0.724976318359375,-2.1123779381752015,-1.1359886281199754,-0.694718294417858
1772732445803003400,0.73500341796875,-1.4264192887961864,-1.1732825859867035,-0.48272871777191756
1772732445813031200,0.74503125,-0.9209247585952282,-1.1293287318393588,-0.4467955999296158
1772732445823058400,0.755058349609375,-0.748635762566328,-0.9847400820322334,-0.45506293140687043
1772732445833086200,0.765086181640625,-0.7984300133049488,-0.7578418361984193,-0.3212917359512299
1772732445843114500,0.775114501953125,-0.8761492128014564,-0.46656420330405235,-0.0693977266792208
1772732445853141200,0.785141357421875,-0.9293699308574199,-0.12750731275528668,0.12705555039979516
1772732445863169300,0.795169189453125,-1.012819198438525,0.19956629453301428,0.20127762849554418
1772732445873197300,0.805197265625,-0.9916536608129739,0.43369259192422027,0.15361710184998809
1772732445883224300,0.815224365234375,-0.9874603007763624,0.658410424979031,0.07769304214194417
1772732445893252400,0.82525244140625,-1.0917477737247943,0.8627785668358207,0.017605872382596133
1772732445903280400,0.8352802734375,-1.0499065278172492,1.0415953571982681,-0.1446459329523146
1772732445913307100,0.84530712890625,-0.7050701770842075,1.202470978809148,-0.3051807783015072
1772732445923335400,0.85533544921875,-0.22131401596069333,1.2701938310787082,-0.4101933506540954
1772732445933362200,0.865362060546875,0.3877513633519411,1.2476502830982208,-0.4616629872590303
1772732445943390500,0.875390380859375,1.0885697282105684,1.230305472804606,-0.4648498736668378
1772732445953418200,0.885418212890625,1.735419771516323,1.124840772770345,-0.3879861950211227
1772732445963445200,0.8954453125,2.0518279001444575,1.0251321520447731,-0.3475654834359884
1772732445973473300,0.905473388671875,2.245649513545632,1.0285703097999095,-0.29082528601698576
1772732445983501300,0.915501220703125,2.3362194267868994,1.0795496786698697,-0.3457298655066639
1772732445993528300,0.9255283203125,2.277142383918166,1.10212537535429,-0.31583303215391934
1772732446003556400,0.935556396484375,2.044833511212468,1.0497972222238778,-0.25306334531232716
1772732446013583000,0.9455830078125,1.7725713983029125,0.9951265976205468,-0.15769311911724507
1772732446023611400,0.955611328125,1.4123305576890706,0.9692819622680544,-0.03125350865870714
1772732446033639200,0.96563916015625,1.1537760676145552,0.9408332818970083,0.1390189599160105
1772732446043666400,0.97566650390625,1.1503741502165794,0.8879632769748568,0.29804113567993046
1772732446053694200,0.985694091796875,1.3556500545680523,0.7906132020741701,0.48551454909816383
1772732446063722500,0.995722412109375,1.5135335086256265,0.6645563803881407,0.6636406537827104
1772732446073749200,1.005749267578125,1.4847972434848546,0.5405354484438896,0.7987201553579419
1772732446083777300,1.01577734375,1.2698106769800186,0.46307285405695436,0.9714772803552448
1772732446093804300,1.02580419921875,0.9862678761214018,0.4418193458870053,1.0042728308241813
1772732446103832300,1.035832275390625,0.626349107068777,0.41687107485234737,0.8492245271272957
1772732446113860400,1.0458603515625,0.3758113347113132,0.47854222586750983,0.6594838994294404
1772732446123887400,1.055887451171875,0.33355975443720814,0.5339899723231792,0.5414229353355243
1772732446133915100,1.0659150390625,0.380617858210206,0.5128834714084863,0.39141869022045284
1772732446143943400,1.075943359375,0.45911154921054836,0.4715875844240188,0.26655316067822277
1772732446153970200,1.08597021484375,0.600638327229023,0.42110009072422977,0.18057192693408577
1772732446163998000,1.095998046875,0.8525070559293031,0.3648495034530759,0.10822430094070731
1772732446174024700,1.106024658203125,1.1769991222918033,0.221396725808084,0.11088782106153666
1772732446184052700,1.116052734375,1.4321107784360647,0.031254677702486515,0.23778913074769079
1772732446194080800,1.126080810546875,1.542649128472805,-0.15160042826533315,0.3490115175258368
1772732446204107800,1.136107666015625,1.5033224957346916,-0.17499504011720418,0.4229604412360117
1772732446214135800,1.1461357421875,1.4246756599992514,0.2142395475298166,0.9827615485008805
1772732446224163800,1.156163818359375,1.5094704969704151,-0.5363854891575872,0.4549330944821238
1772732446234190600,1.166190673828125,1.5852116743922233,-1.2908714390568434,0.08835680376905948
1772732446244219000,1.176218994140625,1.6779004794836043,-1.4825357282936573,0.3621063787573948
1772732446254246700,1.18624658203125,1.4370271920502184,-1.2845984962671995,0.8690108853541314
1772732446264274000,1.19627392578125,0.6219418120205402,-0.7688618273846805,1.0559797102510928
1772732446274301700,1.2063017578125,-0.31360826877653597,-0.21525500818267462,-0.35577016147319224
1772732446284328700,1.21632861328125,-0.8193710945248603,-0.34724501930996776,-0.5277488859765231
1772732446294356700,1.226356689453125,-0.7838403469383716,-0.6994105438873172,-0.06467530126720666
1772732446304384800,1.236384765625,-0.33587504564225673,-0.8886500901952386,0.2582565300412476
1772732446314411800,1.246411865234375,0.15808511410951614,-0.90874273789227,0.3408100908916443
1772732446324439800,1.256439697265625,0.7347352475076914,-0.789897162759304,0.6757769356478005
1772732446334467800,1.2664677734375,1.1909978370279073,-0.671969286993146,1.1918015546262264
1772732446344494800,1.276494873046875,1.3628151238918305,-0.40716538113504647,0.905386851593107
1772732446354522600,1.286522705078125,1.3602934964597224,-0.3302326558411121,0.5734440308332442
1772732446364550000,1.2965498046875,0.846272545453906,-0.46787528590261934,0.6126058283984661
1772732446374577700,1.30657763671875,0.10522212345004081,-0.6679004301190375,0.635813247115165
1772732446384606000,1.31660595703125,-0.43411154798865315,-0.9007666444465517,0.518533825320378
1772732446394632700,1.3266328125,-0.5271405448198319,-0.9688941319942473,0.34174313395805656
1772732446404660700,1.33666064453125,-0.2824240259617567,-0.9513638821311294,0.41474195386916396
1772732446414688800,1.346688720703125,0.0617132365912199,-1.025040674369037,0.605885799428448
1772732446424715800,1.3567158203125,0.25017536878585817,-1.2331867273293435,0.7649947766929864
1772732446434743800,1.366743896484375,0.40246144122779365,-1.3860365711338818,0.8452901833530515
1772732446444770800,1.376770751953125,0.6376110903173685,-1.3946522776573895,0.8421491819135845
1772732446454798600,1.386798583984375,0.8829396035939454,-1.364235219822824,0.7441115631401538
1772732446464827000,1.396826904296875,0.9528349775969982,-1.3227736208826302,0.5693441942989826
1772732446474853600,1.406853515625,0.736483552479744,-1.2814924930758773,0.4144766539964825
1772732446484882000,1.4168818359375,0.2488566874027252,-1.2778298789151012,0.3817122293181717
1772732446494909700,1.42690966796875,-0.29486031368672844,-1.1329324554197489,0.3657288435708731
1772732446504936700,1.436936767578125,-0.7054816804945468,-0.8775187475889921,0.47735769225805996
1772732446514964700,1.44696484375,-0.9389368006259202,-0.7766150718599557,0.751906381734833
1772732446524992800,1.45699267578125,-0.9782231013536453,-0.703473701673001,0.7951775143150239
1772732446535019800,1.467019775390625,-1.1017980430960654,-0.6993504842631518,0.5341081918753683
1772732446545047800,1.4770478515625,-1.021805053448677,-0.564694030405581,0.29410942225418985
1772732446555074800,1.48707470703125,-0.7375847917199134,-0.2163518635086715,0.27398389520086347
1772732446565102800,1.497102783203125,-0.4623082994252443,-0.5864560726195573,-0.28925222801398487
1772732446575130600,1.507130615234375,-0.1668839221149683,-1.0679539334222674,-0.9498019665766507
1772732446585158000,1.517157958984375,0.31135259880423544,-1.2882438670322298,-1.480789615278691
1772732446595185700,1.527185546875,0.8262175994187593,-1.4107292599722743,-1.729065726314485
1772732446605212700,1.537212646484375,1.1290455309838057,-1.4643699570059776,-1.7331738922856748
1772732446615240700,1.54724072265625,0.6228460673838854,-1.5376426984876392,-1.5202733382746576
1772732446625268700,1.557268798828125,-0.9225491449266672,-1.4212149981513618,-1.2225775819662958
1772732446635295700,1.567295654296875,-3.098388624665141,-0.7717712850905954,-0.4265616805983707
1772732446645323800,1.57732373046875,-5.186560926866531,-0.22775383974984287,0.013557021683477796
1772732446655351800,1.587351806640625,-6.184512811040878,0.36486440876126286,-0.05259746245793066
1772732446665378800,1.59737890625,-6.137384564641118,1.0172605418868361,-0.3776911571085453
1772732446675406600,1.607406494140625,-5.205952440556883,1.3174382512040435,-0.9389737716354429
1772732446685435000,1.617434814453125,-4.007315486952662,1.160090511458367,-1.3304917940445244
1772732446695461600,1.627461669921875,-2.822248209017515,0.9374383787617087,-1.0321880619056523
1772732446705490000,1.637489990234375,-1.63107793803215,0.8394305706046521,-0.6283046981159597
1772732446715517000,1.647516845703125,-0.8777958109647035,0.5361779838867485,-0.3968162018824368
1772732446725544700,1.657544677734375,-0.39976036557555195,0.2551834062062204,-0.20942034721244127
1772732446735572700,1.66757275390625,-0.05218085361421108,0.26947686610519883,-0.11483683268195018
1772732446745599700,1.677599853515625,0.13285714935064316,0.28292379217743874,-0.07796550240777432
1772732446755627800,1.687627685546875,0.21771511468589305,0.2785921927139163,-0.09483937072139233
1772732446765655800,1.69765576171875,0.42599896868169307,0.4503264774695038,-0.2260967201925814
1772732446775682600,1.7076826171875,0.690423227572441,0.5895410330228508,-0.3828739665739238
1772732446785710800,1.7177109375,1.0418535697430371,0.6851354964278638,-0.4905982090380043
1772732446795737900,1.72773779296875,1.37512457036674,0.6497061633892357,-0.6332642932847142
1772732446805766000,1.737765869140625,1.5468816514760255,0.5853986725211143,-0.725889239359647
1772732446815793700,1.747793701171875,1.4553747496455907,0.5369479453459381,-0.6516770250707864
1772732446825821000,1.757821044921875,1.2901619756132363,0.42982597962394353,-0.5586268027884885
1772732446835848700,1.7678486328125,1.2147989838540554,0.3287060307957232,-0.453558298997581
1772732446845876700,1.777876708984375,1.3337240539640187,0.3379065514698624,-0.4505915216138586
1772732446855903700,1.78790380859375,1.4442887074857949,0.4037389138177037,-0.5771031743953005
1772732446865931800,1.797931884765625,1.3114075927376747,0.48934009873569007,-0.6799995217788964
1772732446875959000,1.807958984375,1.041510455393791,0.5772830244742334,-0.6170310974948108
1772732446885986800,1.81798681640625,0.8792758203893899,0.6899443580143153,-0.4521326866412535
1772732446896014600,1.8280146484375,0.8904261599570512,0.7379182614579797,-0.31772231649924065
1772732446906041900,1.838041748046875,1.0269389092057943,0.79063672908023,-0.18895068289656192
1772732446916069600,1.848069580078125,1.1367933686316012,0.8253921083800494,-0.12977153136022387
1772732446926098000,1.858097900390625,1.3338140703350305,0.8304255725026131,0.04087846528999507
1772732446936125000,1.868125,1.776283696824312,0.7511701033495366,0.07573496687673031
1772732446946152700,1.878152587890625,2.1983856580674646,0.6007964404001832,0.02303388878069818
1772732446956180700,1.8881806640625,2.521104285016656,0.530900189614296,-0.1094953072572127
1772732446966207700,1.898207763671875,2.664244927972555,0.5181736867710948,-0.25792485040146856
1772732446976235800,1.90823583984375,2.6705191859364508,0.5437690235376358,-0.3856011630481109
1772732446986262800,1.9182626953125,2.563306765452027,0.4516854908630252,-0.5563598077045754
1772732446996290800,1.928290771484375,2.3262334548234938,0.34088790536820884,-0.6879470467172563
1772732447006318800,1.93831884765625,2.0258324581444263,0.2641945417881012,-0.7582220676876604
1772732447016345900,1.948345947265625,1.7552122672230004,0.2419604981482029,-0.8613876969993114
1772732447026374000,1.958373779296875,1.565073726248741,0.19666472787261008,-0.9281107245765626
1772732447036401700,1.968401611328125,1.367774792125821,0.14792670818865297,-0.9918306248150766
1772732447046429000,1.978428955078125,1.1104717634171246,0.09532003037780523,-0.9288893077336251
1772732447056456700,1.988456787109375,1.0187298837870358,0.07333586984574794,-0.7653193324722349
1772732447066483700,1.998483642578125,1.0681295822501182,-0.026934476415812966,-0.5673777530642226
1772732447076511700,2.00851171875,1.0907447341620922,-0.17720161025077102,-0.569663160587661
1772732447086539800,2.018539794921875,1.004818262812495,-0.2625058580487966,-0.7046192915115504
1772732447096567000,2.028567138671875,0.7335480835497379,-0.1607069870457053,-0.9284302388545125
1772732447106594800,2.0385947265625,0.40195816788077354,0.053669046345353126,-1.1151580215372145
1772732447116622800,2.048622802734375,0.2895025860458612,0.0825531955242157,-1.3730321281321345
1772732447126649900,2.05864990234375,0.5392541764616966,-0.005926029048115015,-1.6528256594598292
1772732447136677600,2.068677734375,0.8797872770428657,-0.12186273099705576,-1.9168604806415737
1772732447146705000,2.078704833984375,0.976670026692748,-0.3325624139629304,-2.041946557599306
1772732447156732700,2.088732666015625,0.8733627969533204,-0.5270309469655156,-2.1750398537933826
1772732447166760700,2.0987607421875,0.7742857521295547,-0.49661476591378445,-2.1330833109430967
1772732447176787700,2.10878759765625,0.7229425183832645,-0.03002747399508953,-1.4949050882622599
1772732447186815700,2.118815673828125,0.2281003150999546,-0.49008726384118195,-1.5055106534287332
1772732447196843500,2.128843505859375,-0.5694523308485746,-1.0926264562554657,-1.9403964006602763
1772732447206870800,2.138870849609375,-1.5211907453805207,-1.1079052739299833,-1.7462446785219012
1772732447216898600,2.148898681640625,-2.298887182736397,-0.7561500837191939,-1.0153682253342122
1772732447226925600,2.158925537109375,-2.960782819482684,-0.48724283419549463,-0.4320123837523162
1772732447236953900,2.168953857421875,-3.574015255346894,-0.5737547042176127,-0.36150479613505304
1772732447246981600,2.178981689453125,-3.740134622830152,-0.7087681548193097,-0.4280091029277071
1772732447257009000,2.1890087890625,-3.5379455785781144,-0.8141358242198824,-0.31423684900365767
1772732447267036700,2.19903662109375,-3.303628288659453,-0.9117733377598225,0.008484773620218038
1772732447277064400,2.209064453125,-3.1136119127601383,-1.0281744423501193,0.44954606768153604
1772732447287091700,2.219091796875,-2.9177018026471138,-1.2741704796247184,0.7248926295377314
1772732447297119700,2.22911962890625,-2.801946010223031,-1.4769355701990425,0.9215773772850632
1772732447307147800,2.239147705078125,-2.9639427448183295,-1.5349446915753184,1.1667309723861514
1772732447317174800,2.2491748046875,-3.152940299063921,-1.366251966472715,1.45400068481341
1772732447327202800,2.259202880859375,-3.3486341360777616,-1.00826898778826,1.6499387058466672
1772732447337229800,2.269229736328125,-3.622095103383064,-0.6435325893208385,1.6026871253281831
1772732447347257600,2.279257568359375,-3.75690514036715,-0.230207954903692,1.4369588029891252
1772732447357285600,2.28928564453125,-3.7493975412160157,0.19948621503412722,1.240711716006696
1772732447367312600,2.299312744140625,-3.773412623053789,0.619029870096594,0.9145329386662692
1772732447377340700,2.309340576171875,-3.7062662554979324,1.0034886216439307,0.622062004334107
1772732447387368700,2.31936865234375,-3.370526234412193,1.3302679221607745,0.4441836638655513
1772732447397395700,2.329395751953125,-2.6639175957143304,1.4943500847280025,0.31163287705034015
1772732447407423700,2.339423828125,-1.782697655519843,1.5481832355938852,0.19540142993852494
1772732447417450800,2.34945068359375,-0.9032640142202377,1.5833029181614517,0.19383337690420446
1772732447427478800,2.359478759765625,-0.1331780518680811,1.5822221371874212,0.26827669653519987
1772732447437506600,2.369506591796875,0.5701017346680164,1.5466406823270022,0.38443727036789055
1772732447447533600,2.379533447265625,1.3113690142929553,1.4937227466098963,0.5112314664177596
1772732447457561900,2.389561767578125,2.0757138026446103,1.432787362523377,0.6227499865982681
1772732447467589600,2.399589599609375,2.6764877389520407,1.3958312583088874,0.6970207261413336
1772732447477617000,2.409616943359375,3.187129568913579,1.3141700431883334,0.8118408451505005
1772732447487644700,2.419644775390625,3.616310090240836,1.2130042093917728,0.9534878885477781
1772732447497671700,2.429671630859375,3.8691421110153197,1.061540851509571,0.9968651118509471
1772732447507699700,2.43969970703125,3.920938349226117,0.9141168321460484,1.0398498287051916
1772732447517727500,2.4497275390625,3.743314421910047,0.7852595660865307,1.1051271144535393
1772732447527754800,2.459754638671875,3.536728019481897,0.680294632267952,1.1244242278587073
1772732447537782800,2.46978271484375,3.321068668282032,0.6797726542204618,1.162127643309161
1772732447547810800,2.479810791015625,3.0089941849440334,0.7432040929064154,1.1015532745547592
1772732447557837800,2.489837890625,2.680888604259491,0.8341825869485735,0.8419236295294016
1772732447567865600,2.499865478515625,2.4413456886470315,0.9429279160887002,0.5070126796789467
1772732447577893600,2.5098935546875,2.182881799465418,1.0225295683309434,0.19782178895324468
1772732447587920600,2.519920654296875,1.8987123911410568,1.0271256639495492,-0.18295732423327862
1772732447597948700,2.52994873046875,1.6409949364125727,1.0821291737690568,-0.5045361334975809
1772732447607975700,2.5399755859375,1.4110627297103404,1.0850646426990627,-0.6952009633682668
1772732447618003700,2.550003662109375,1.3097352756112812,1.0282470691949128,-0.8122680575866251
1772732447628031700,2.56003173828125,1.339066584035754,0.9398580071240663,-0.9343472808785735
1772732447638058800,2.570058837890625,1.3677625171661376,0.8309092643663286,-1.0448401112731545
1772732447648086800,2.580086669921875,1.4350035772681236,0.6875219531729817,-1.0795625381514429
1772732447658114600,2.590114501953125,1.5251894596278666,0.5536015585049987,-1.0782416648112236
1772732447668141600,2.6001416015625,1.4743763872355222,0.4032122595950961,-1.0842229311779141
1772732447678169600,2.610169677734375,1.2694061878323555,0.23085721259266137,-0.8461866938013582
1772732447688196600,2.620196533203125,0.9160650436043739,0.058015697247534984,-0.5277446116602048
1772732447698225000,2.630224853515625,0.4421118990927934,-0.17242562802061437,-0.2949422198165208
1772732447708252700,2.640252685546875,-0.14758827001452446,-0.3277599821172654,-0.06569602261707186
1772732447718279700,2.65027978515625,-0.9728916771978139,-0.399286610583961,0.2524156219933182
1772732447728307700,2.6603076171875,-1.9568349097639322,-0.420773342987895,0.4194618585305288
1772732447738335500,2.67033544921875,-2.871760720205307,-0.3794600664772093,0.36422234799806025
1772732447748362800,2.68036279296875,-3.152835669645667,-0.2010043645121157,0.11428049570713192
1772732447758390800,2.690390869140625,-2.8344723152965305,-0.06890490166097879,-0.21266564927659928
1772732447768417500,2.70041748046875,-2.183295056441426,-0.01793839227259159,-0.48741450096797195
1772732447778445800,2.71044580078125,-1.3847399554520845,-0.08782149131596088,-0.5165159461593255
1772732447788473600,2.7204736328125,-0.48055882638692854,-0.24501462502181529,-0.32883875379730015
1772732447798500900,2.7305009765625,0.308140066498518,-0.47732378998845815,-0.02281233671819791
1772732447808528600,2.740528564453125,0.8323059794217348,-0.7554080331802367,0.19859564113626255
1772732447818556700,2.750556640625,1.2053706457734108,-0.9548647298589348,0.23129187768287957
1772732447828583700,2.760583740234375,1.4632798236817122,-1.0426567028194664,0.21929334205435588
1772732447838611700,2.77061181640625,1.6787971360623835,-1.1108885275244713,0.16871325643397866
1772732447848639700,2.7806396484375,1.7202373999536036,-1.198204699666798,0.1083881497329101
1772732447858666800,2.790666748046875,1.5763222654938698,-1.2193068166673182,0.029209526942018418
1772732447868694800,2.80069482421875,1.3806576545745133,-1.1052037598863242,-0.018218469589296727
1772732447878721800,2.8107216796875,1.159675647047162,-0.9824667302727699,-0.08213708900399505
1772732447888749600,2.82074951171875,1.0087421582579612,-0.9155722916513681,-0.12084979109484702
1772732447898777600,2.830777587890625,0.892132963874936,-0.8445739248424768,-0.18141575734708457
1772732447908804600,2.8408046875,0.7602846993058919,-0.8036620687395334,-0.24295714450273662
1772732447918833000,2.8508330078125,0.7012602634072304,-0.7234267947688698,-0.23777320252619683
1772732447928860700,2.860860595703125,0.6381050113141536,-0.653201458159089,-0.1506661796225235
1772732447938887700,2.8708876953125,0.5003934076696634,-0.7054623912721872,-0.01854092474300414
1772732447948915700,2.880915771484375,0.2375251460492611,-0.8151072996005415,0.23769725121315569
1772732447958942700,2.890942626953125,-0.12920154945254325,-0.8950821690693497,0.5501237263265997
1772732447968970800,2.900970703125,-0.6771972507745028,-0.8289324113354086,0.6945262789770961
1772732447978998800,2.910998779296875,-1.17163379586637,-0.7682000024750828,0.7280801735326647
1772732447989025500,2.921025634765625,-1.4770838926285503,-0.7388485280454158,0.48841560430191455
1772732447999053800,2.9310537109375,-1.530362478351593,-0.879245717512071,0.005793927101045847
1772732448009081600,2.94108154296875,-1.3288871353268623,-1.1340662817552685,-0.37686464315652846
1772732448019108900,2.95110888671875,-1.0335802469164133,-1.3757871259286998,-0.557037962694466
1772732448029136600,2.96113671875,-0.7910019091308117,-1.5286358006894587,-0.6666475805137306
1772732448039163600,2.97116357421875,-0.76575290158391,-1.86330906932652,-0.39348278314340857
1772732448049191700,2.981191650390625,-0.8868190753757953,-1.9841320820122956,-0.049172063719667494
1772732448059219700,2.9912197265625,-1.014986605605483,-1.699712498319149,0.1603625209895894
1772732448069246700,3.001246826171875,-1.1906360179781914,-1.2369459337323903,0.19822130966484547
1772732448079274800,3.011274658203125,-1.7745295466333626,-0.7474310629516839,0.010543861574493349
1772732448089302800,3.021302734375,-2.6805525041729212,-0.24232611659020184,-0.017488968004658816
1772732448099329800,3.031329833984375,-3.293707198625803,0.38428777889460325,-0.052922758022695776
1772732448109357600,3.041357666015625,-3.490132857045531,0.9645759765341877,-0.3535273144498467
1772732448119384800,3.051384765625,-3.2682635452896354,1.3416165607795119,-0.7854924249943346
1772732448129412600,3.06141259765625,-2.6465023505330083,1.571483593291044,-1.0964278212998062
1772732448139441000,3.07144091796875,-1.6628940490096806,1.662429061846435,-1.1424636693529784
1772732448149467600,3.081467529296875,-0.5128454774856567,1.665939115794003,-1.04464794970192
1772732448159495700,3.09149560546875,0.6103963356554508,1.5913433090150355,-0.7769462035104632
1772732448169523500,3.1015234375,1.5100544343382118,1.4422522332221268,-0.5524276193547993
1772732448179550500,3.111550537109375,2.358490295305848,1.0923887019768357,-0.23475513334665446
1772732448189578200,3.121578125,2.6656536257266996,0.7407420867070555,0.4716122804738581
1772732448199606500,3.1316064453125,2.8789328037917614,1.2598314270183444,-0.5513204618304968
1772732448209633300,3.14163330078125,3.4742192485988137,0.9478098429113626,-0.5071378404285758
1772732448219661600,3.15166162109375,2.86032221134603,0.6905486075177788,-0.5210254229404032
1772732448229688300,3.161688232421875,2.3772306516110895,0.9082885643839835,-0.34134346711598335
1772732448239716400,3.17171630859375,1.5347732805311678,0.9097288263201713,-0.027206461757607756
1772732448249744400,3.181744384765625,0.9712614456474781,0.8016068897753953,0.03528170472886413
1772732448259771400,3.191771484375,0.5577274062633514,0.7189855974510312,0.14861509231161324
1772732448269799400,3.20179931640625,0.05372399140298366,0.7619768901765346,0.2238782404255122
1772732448279827500,3.211827392578125,-0.5123813671052455,0.8765741602152586,0.3415691656306386
1772732448289854200,3.221854248046875,-1.0397820241659879,0.9957438527360558,0.38675088107250627
1772732448299882500,3.231882568359375,-1.4436995094209908,1.103912258771062,0.2929540416739881
1772732448309909200,3.2419091796875,-1.6503016939401625,1.180369767768681,0.1579661273723468
1772732448319937500,3.2519375,-1.7151310167253015,1.2394327821120619,0.0010054598486516624
1772732448329965300,3.26196533203125,-1.6196259851694106,1.2802096136584877,-0.16187595775984226
1772732448339992300,3.271992431640625,-1.411559573316574,1.3008610642820595,-0.30404004730116574
1772732448350020400,3.282020263671875,-1.0217039311617613,1.2636895637512207,-0.3667717036873102
1772732448360048400,3.29204833984375,-0.5372691401243209,1.1511603321582078,-0.38473665517326444
1772732448370075400,3.302075439453125,-0.022954759129881857,1.036251511952281,-0.42076779002994297
1772732448380103400,3.312103515625,0.33737200620174407,0.8988596417814493,-0.35027298882901664
1772732448390131500,3.32213134765625,0.7053992629081011,0.8012623141214251,-0.2563074600663967
1772732448400158500,3.332158447265625,1.1006921276807784,0.6576335953876375,-0.1793480476949364
1772732448410186200,3.342186279296875,1.4594395148664712,0.5436985886499285,-0.13238713895240797
1772732448420213500,3.352213623046875,1.6651988188207147,0.4734694526478648,-0.10329024207200854
1772732448430241300,3.3622412109375,1.6899895612061022,0.3818441851347685,-0.11022122864527627
1772732448440269600,3.37226953125,1.6831833883225917,0.3239394009158015,-0.03844272604305297
1772732448450296300,3.38229638671875,1.628879551205039,0.2718868498563766,-0.017680819048639385
1772732448460324400,3.392324462890625,1.56017075663805,0.2223331298753619,-0.022860103116370736
1772732448470352400,3.402352294921875,1.603520653542876,0.15921645622700453,-0.012262355930171906
1772732448480379400,3.41237939453125,1.6815432199001312,0.05604629687070846,-0.006964560049306601
1772732448490407400,3.422407470703125,1.7536252902925014,-0.01971387751251459,0.01236354214916937
1772732448500434400,3.432434326171875,1.7802701361119746,-0.10531623147428035,0.04799551248727366
1772732448510462200,3.442462158203125,1.646816774433851,-0.19914222390204667,0.07396700735613704
1772732448520490500,3.452490478515625,1.4424638301461934,-0.2512067576602101,0.010876381464488804
1772732448530517200,3.462517333984375,1.1654261733978986,-0.21706191147416828,-0.1040004544342868
1772732448540545500,3.472545654296875,0.9090729927599429,-0.20931699643582105,-0.20419561656778676
1772732448550573300,3.4825732421875,0.7348211722254753,-0.23454086954146622,-0.2614890456890687
1772732448560600300,3.492600341796875,0.6923001273602247,-0.2989347235187888,-0.3046284416483715
1772732448570628400,3.50262841796875,0.6802969703555106,-0.40353199306875465,-0.25805826752278954
1772732448580656400,3.512656494140625,0.5575087950766087,-0.5101812267124652,-0.14402253122380934
1772732448590683400,3.522683349609375,0.3676993399262428,-0.5812596730202436,-0.019851463918876832
1772732448600711400,3.53271142578125,0.11203472607433795,-0.6066413670361042,0.0709273565324489
1772732448610738200,3.54273828125,-0.15012977119088172,-0.6219535024583339,0.12095152530311606
1772732448620766500,3.552766357421875,-0.3503893086850643,-0.5271326537743211,0.11970294088097289
1772732448630794200,3.562794189453125,-0.49962359234094617,-0.4063189934387803,0.08850591164985672
1772732448640821500,3.572821533203125,-0.7502864523828029,-0.3373115081861615,0.0807331404902041
1772732448650849300,3.582849365234375,-1.0929349376827477,-0.29133418538719413,0.15866874095005915
1772732448660877600,3.592877685546875,-1.443061211517453,-0.2054462924823165,0.26175577033385633
1772732448670904300,3.602904296875,-1.723062394246459,-0.10973083304613827,0.2721336276916787
1772732448680932400,3.612932373046875,-1.8976853861808776,-0.10412453747168182,0.16159078414291142
1772732448690959400,3.62295947265625,-1.8648539606809615,-0.21284940834566948,-0.03154156835246831
1772732448700987400,3.6329873046875,-1.5659586923897266,-0.39408538867905735,-0.15462461665840818
1772732448711015400,3.643015380859375,-1.2294786665916442,-0.5260280535332859,-0.09563251212676986
1772732448721042400,3.65304248046875,-0.9726450089603662,-0.7335568513780832,-0.009914842955954373
1772732448731070200,3.6630703125,-0.7953758864313364,-1.0334677264526486,0.20890282614435998
1772732448741098500,3.673098388671875,-0.785368871679902,-1.1767235202208162,0.5715772871132939
1772732448751125200,3.683125244140625,-0.9881611425220965,-1.1195353598386049,0.8914902820572257
1772732448761153500,3.693153564453125,-1.2292173853069543,-0.9061857468858361,1.0980815067909657
1772732448771181300,3.703181396484375,-1.429310918584466,-0.5905180613614618,1.1931295883595943
1772732448781208300,3.713208251953125,-1.6028683271139859,-0.11828487251028418,1.3044570429474114
1772732448791236400,3.723236328125,-1.870461279168725,0.36106969265341754,1.3668284511864184
1772732448801263400,3.733263427734375,-2.1728630942761895,0.7330114924550056,1.370846162395179
1772732448811291400,3.74329150390625,-2.5254297470003366,1.0174429127164184,1.181219224204868
1772732448821319400,3.7533193359375,-2.828984823796153,1.2043861647807061,0.875381077973172
1772732448831346200,3.76334619140625,-2.9205840800851584,1.2981667106315493,0.5630939747978001
1772732448841374500,3.77337451171875,-2.723988910317421,1.3966381907775998,0.2784007252624258
1772732448851402200,3.78340234375,-2.258582060354948,1.4321156007416544,0.1101772251067683
1772732448861429500,3.793429443359375,-1.4876964720577002,1.3010520568095147,0.10672171435803174
1772732448871457300,3.803457275390625,-0.42058804954886436,1.0941055888973177,0.21153185947369782
1772732448881484500,3.813484619140625,0.7302601479202508,0.9036338704459369,0.2004919580105692
1772732448891512300,3.82351220703125,1.6496937911748886,0.7462291398160159,0.14448982907515018
1772732448901540400,3.833540283203125,2.3007062148571014,0.6783832456886768,0.08905855883024633
1772732448911567400,3.8435673828125,2.620465407478809,0.624655747154355,0.08619732418023049
1772732448921595400,3.853595458984375,2.6542110252141953,0.491738684310019,0.11572072111070156
1772732448931623400,3.86362353515625,2.5183850891858337,0.4059685725659132,0.20519005269892512
1772732448941650400,3.873650390625,2.3405068948477505,0.3151806326597929,0.28798860128633674
1772732448951678200,3.88367822265625,2.130597485476732,0.21354425874203442,0.3921368118945509
1772732448961706500,3.89370654296875,2.007747350877523,0.1712511774137616,0.4838909664843231
1772732448971733200,3.903733154296875,1.8938018227458,0.09899448110684751,0.48160541283041236
1772732448981761500,3.913761474609375,1.7962287527441978,0.050447453950345514,0.44545434138849377
1772732448991788300,3.923788330078125,1.792752016544342,-0.011938567335903644,0.41267859159857034
1772732449001816300,3.93381640625,1.8073615566551684,-0.06951689607948064,0.3631426264699548
1772732449011844400,3.94384423828125,1.8189216460675,-0.14627601837217807,0.21036190237887203
1772732449021871400,3.953871337890625,1.8106904088169335,-0.22928294901326296,0.017682079423964023
1772732449031899400,3.9638994140625,1.8497849863648415,-0.2868066249601543,-0.05022511643655598
1772732449041927400,3.973927490234375,1.748333029103279,-0.3539465627752244,-0.12119557232521473
1772732449051954400,3.983954345703125,1.566800988432765,-0.4126189703658223,-0.1414102389667183
1772732449061982500,3.993982421875,1.388224290436506,-0.4534245896153152,-0.0718516957025975
1772732449072009200,4.00400927734375,1.170429096251726,-0.46564621167629955,-0.024468524693697688
1772732449082037500,4.01403759765625,0.9079828594356775,-0.4712093987613916,-0.07006130515448748
1772732449092065300,4.024065185546875,0.6416144807398318,-0.4288960052974522,-0.14300707970410584
1772732449102092500,4.034092529296875,0.446247391462326,-0.37558074082583187,-0.1517269041892141
1772732449112120300,4.044120361328125,0.29545711053609847,-0.3553996841929853,-0.12911226373389362
1772732449122148400,4.0541484375,0.2147317149609327,-0.36808497824296355,-0.13234225863106547
1772732449132175400,4.06417529296875,0.19146365209817887,-0.44787455427274103,-0.06268040112294257
1772732449142203400,4.074203369140625,0.19084464341700075,-0.6076333006829023,0.11477781423740088
1772732449152231400,4.0842314453125,0.29613164879679676,-0.7441273452311754,0.35489235572535544
1772732449162258400,4.094258544921875,0.44118250928819175,-0.87238459957093,0.5392942162111402
1772732449172287200,4.104287353515625,0.5382698415994643,-1.0286845838293432,0.6374836645454168
1772732449182314200,4.114314208984375,0.5962941605448723,-1.1318402762688695,0.630681583315134
1772732449192342300,4.12434228515625,0.5762596727758645,-1.1693702348485588,0.5872940943462773
1772732449202370000,4.1343701171875,0.509390953117609,-1.2138589265249669,0.5205814785651862
1772732449212397000,4.14439697265625,0.5368202273130417,-1.216493220551312,0.4928000299312174
1772732449222425300,4.15442529296875,0.5772907693892717,-1.2524183742828667,0.35244920035693794
1772732449232453000,4.164453125,0.5960498303949833,-1.2755858993805944,0.18317710446380078
1772732449242480400,4.17448046875,0.6465735644519328,-1.2729609577044845,0.03398580143311992
1772732449252508200,4.184508056640625,0.6545318299800157,-1.2924068319305777,-0.05590739985667169
1772732449262535200,4.19453515625,0.640972675704956,-1.3023539331883192,-0.12040800214409828
1772732449272563200,4.204563232421875,0.5735603506892919,-1.3350083946861326,-0.09785811575436965
1772732449282591200,4.21459130859375,0.4203682693183422,-1.3195498365305363,-0.018015110770612953
1772732449292618200,4.2246181640625,0.2047889976173639,-1.2914828489534556,0.05952031139051541
1772732449302646300,4.234646240234375,-0.07721358806192874,-1.2707093793854116,0.2112451697531156
1772732449312674300,4.24467431640625,-0.3637473874300718,-1.2673511549986898,0.4110171246597543
1772732449322701300,4.254701416015625,-0.6141302614867686,-1.197798895344883,0.581945682523027
1772732449332729000,4.26472900390625,-0.8674480199515819,-1.1653868643008172,0.5856554237611592
1772732449342757000,4.274757080078125,-1.1305483367621898,-1.1333927664078771,0.42316557188667353
1772732449352784100,4.2847841796875,-1.3435773394584656,-1.063339863755554,0.14769216878041624
1772732449362812200,4.294812255859375,-1.5420032317847012,-1.0148467587433754,-0.14631565626282245
1772732449372839200,4.304839111328125,-1.8658125765800475,-0.9337105904102325,-0.40398751828391105
1772732449382867200,4.3148671875,-2.249666932493448,-0.7476379837006331,-0.5016339457826688
1772732449392895200,4.324895263671875,-2.610014740613103,-0.4615913833275437,-0.47353345779478545
1772732449402922200,4.334922119140625,-2.96987330391109,-0.06888488178625703,-0.394061350216344
1772732449412950300,4.3449501953125,-3.2653175549656153,0.36086759421005843,-0.31837234137319026
1772732449422978000,4.35497802734375,-3.6350837642937894,0.6462514928907156,-0.1423061557599809
1772732449433005000,4.365005126953125,-4.035919065624475,0.8379778875783085,-0.0033191436185035852
1772732449443033300,4.375033447265625,-4.166019025221467,1.0366964792408049,-0.020927372354967517
1772732449453060000,4.38506005859375,-3.913599676901102,1.192501811850071,-0.11648100142609327
1772732449463088400,4.39508837890625,-3.41184199514091,1.24879375404492,-0.2355739571825601
1772732449473116200,4.4051162109375,-2.849045030528307,1.1937499122150241,-0.36824911929611115
1772732449483143200,4.41514306640625,-2.2709721708506345,1.1105803383581339,-0.41775494501478966
1772732449493171200,4.425171142578125,-1.6967419580757617,0.9923197235062717,-0.3929646775534376
1772732449503199000,4.435198974609375,-1.1319324845969676,0.8742949632368981,-0.29186880372054874
1772732449513226200,4.445226318359375,-0.6948188321828842,0.7995427968524396,-0.1638036013541743
1772732449523254300,4.455254150390625,-0.3868617210358381,0.7789845774702727,-0.12530213086120784
1772732449533282300,4.4652822265625,-0.21066344260871409,0.8186817970864474,-0.1495338693906553
1772732449543309300,4.475309326171875,-0.2427098552107811,0.8747374463073909,-0.2104618738883175
1772732449553337000,4.485337158203125,-0.30417934617400166,0.9670004272021353,-0.23381525868065653
1772732449563364400,4.4953642578125,-0.36076574127078054,1.0496614670149982,-0.19690056418878957
1772732449573392100,4.50539208984375,-0.33750469267070293,1.0821582537330687,-0.16107658754307777
1772732449583420200,4.515420166015625,-0.22930033853948115,1.0450476896092296,-0.08041847591730765
1772732449593447200,4.525447265625,-0.09293722689449786,0.971228858552128,0.10119257567301392
1772732449603475200,4.53547509765625,0.013479074776172637,0.9003725305624306,0.22824211645713074
1772732449613503200,4.545503173828125,0.03735036422908306,0.8682182736717164,0.23139248851314187
1772732449623530200,4.5555302734375,-0.01632452733516693,0.9232209067083895,0.19949107387233525
1772732449633558300,4.565558349609375,-0.01713409015238285,0.9708416128002106,0.06737790215625428
1772732449643586000,4.5755859375,0.07061141331791877,0.9628644964411854,-0.1541339835972525
1772732449653613000,4.585613037109375,0.32481998314261434,1.002228976971656,-0.3331797786762938
1772732449663641000,4.59564111328125,0.7011193936318159,1.0630967026494442,-0.3914765213549137
1772732449673668000,4.605668212890625,1.1757558442324398,1.1234234533183276,-0.49025326805785296
1772732449683696400,4.6156962890625,1.750692159450054,1.0554242683254182,-0.5973762932257727
1772732449693724200,4.62572412109375,2.219256596660614,0.9687804424867034,-0.6817372322916985
1772732449703751200,4.635751220703125,2.465978025600314,0.8808771181061863,-0.7081270073715596
1772732449713779200,4.645779296875,2.579704358023405,0.8053622967861592,-0.6522495642617344
1772732449723807000,4.655806884765625,2.512968909355998,0.6647394818700849,-0.5694682590700686
1772732449733834200,4.665834228515625,2.384725391280651,0.5104908771835267,-0.5308006016973406
1772732449743862300,4.6758623046875,2.3432559012949463,0.4451483441792428,-0.5180083401415497
1772732449753889000,4.685888916015625,2.4422955367177726,0.3764614691831171,-0.528211169726029
1772732449763917300,4.695917236328125,2.5772593029588458,0.2573500827208161,-0.525241031341441
1772732449773945000,4.705945068359375,2.7149668149501083,0.1523575302429497,-0.49875908446609973
1772732449783972400,4.715972412109375,2.7861294324100014,0.037578035505115986,-0.4307465650675818
1772732449794000100,4.726000244140625,2.7589661156743763,-0.0933526758275926,-0.3677258626069873
1772732449804028200,4.736028076171875,2.6232570840239524,-0.19293284786790607,-0.3770303185796365
1772732449814055200,4.74605517578125,2.462074588420987,-0.2585867849089205,-0.384321315838024
1772732449824083200,4.756083251953125,2.3387860624045134,-0.3141679484859109,-0.3590180573532358
1772732449834111200,4.766111328125,2.1760107446521517,-0.37641894521564245,-0.37149416563194243
1772732449844138200,4.77613818359375,1.9373732534468173,-0.4124963668994605,-0.37850240042619404
1772732449854166300,4.786166259765625,1.649010485085845,-0.42723698604404925,-0.43142672935146836
1772732449864193300,4.796193359375,1.439534790956974,-0.4063292225718498,-0.5520305463286116
1772732449874221000,4.806220947265625,1.2796049257636068,-0.40698739421963687,-0.6788523245051503
1772732449884249000,4.8162490234375,1.0994242997020482,-0.41224940640106794,-0.7403258340563624
1772732449894276000,4.826276123046875,0.937344562998414,-0.3718815940469503,-0.687313790315017
1772732449904304400,4.836304443359375,0.780460056850314,-0.3380084044091403,-0.5977527618553489
1772732449914332200,4.846332275390625,0.5163403338640928,-0.3073290423765778,-0.5728130394533276
1772732449924359200,4.856359130859375,0.16428922944664953,-0.25230039811581373,-0.4776120323453098
1772732449934387200,4.86638720703125,-0.1502308934777975,-0.2878881365865469,-0.325961116001755
1772732449944415000,4.8764150390625,-0.4901935006946325,-0.41053675726428623,-0.23368527562543748
1772732449954442200,4.886442138671875,-0.8893991549968719,-0.41167511364445086,-0.06386573844999074
1772732449964470300,4.89647021484375,-1.34021166241765,-0.2979360678702593,0.06192980195134878
1772732449974497000,4.9064970703125,-1.7619167332977055,-0.16071896974444388,0.0071713529340922825
1772732449984525300,4.916525390625,-2.2497429203391075,-0.11050094063580035,-0.20657770766504108
1772732449994553000,4.926552978515625,-2.678362885174155,-0.04373451230823994,-0.47305977586843073
1772732450004580400,4.936580322265625,-2.8689567687004804,-0.05484934217110276,-0.654094899867475
1772732450014608100,4.946608154296875,-2.8304554808706044,-0.05365998625606298,-0.6077377839706838
1772732450024636200,4.95663623046875,-2.7216934928566214,-0.007134820315986871,-0.4352157463708892
1772732450034663200,4.9666630859375,-2.64705881537199,-0.06803147982731461,-0.3573727743642404
1772732450044691200,4.976691162109375,-2.8807272859930992,-0.22017375988438725,-0.22481442529708145
1772732450054718200,4.98671826171875,-3.3173651375889777,-0.8938374297052621,-0.004609356958977878
1772732450064746200,4.996746337890625,-3.502192128151655,0.19701748683303594,0.11486198538951575
1772732450074774300,5.006774169921875,-3.4807997960329056,1.083835393165052,0.6102812579084187
1772732450084801300,5.01680126953125,-3.8774101731449364,0.6402084133341908,-0.23599512347038834
1772732450094829000,5.0268291015625,-3.8279163666576146,0.9594682781316339,-0.5046500422008335
1772732450104857000,5.036857177734375,-4.5343911498427385,1.4405479135222732,-0.4156440172754228
1772732450114884000,5.046884033203125,-5.183575773575901,1.8064529173776507,-0.4614603042937815
1772732450124912400,5.056912353515625,-5.580329358550906,1.963098792464286,-0.6311221666894853
1772732450134940200,5.066940185546875,-5.208597986629605,1.9409148715764284,-0.6454930757388472
1772732450144967200,5.07696728515625,-4.147924565604328,1.8842149331025777,-0.4204708529099822
1772732450154995200,5.0869951171875,-2.514558224374056,1.7288417083002625,-0.10550276702232658
1772732450165022200,5.097022216796875,-0.6509177311360835,1.4670970438823103,0.18679251848198472
1772732450175050000,5.107050048828125,1.0322305858731269,1.2539230797573924,0.5326304840056225
1772732450185078000,5.117078125,2.3623276815116405,1.103005373059213,0.8138624141059816
1772732450195105000,5.12710498046875,3.1710821049541233,0.9039882368415594,1.0353946028620005
1772732450205133000,5.137133056640625,3.5393986999958753,0.7278294136419892,1.1456425916500388
1772732450215161000,5.1471611328125,3.522273962193727,0.6038362464874982,1.2624803340919315
1772732450225188000,5.15718798828125,3.288503784763813,0.5601876588970423,1.307413846926391
1772732450235216000,5.1672158203125,3.0740999865829943,0.5318047372385859,1.278213471405208
1772732450245244000,5.177243896484375,3.020627339592576,0.5367945083498954,1.2929071826681493
1772732450255271000,5.18727099609375,3.0848551893532274,0.5210179702863097,1.322806061847508
1772732450265299200,5.19729931640625,3.1675287963867187,0.4845902738600969,1.3236527418047188
1772732450275326000,5.207325927734375,3.142988229370117,0.4523354792043566,1.2919710708618164
1772732450285354000,5.21735400390625,3.0212305661827323,0.39733547651618717,1.262728317503631
1772732450295382000,5.227382080078125,2.744382879048586,0.37037557339817284,1.300754096776247
1772732450305409000,5.237408935546875,2.203506654343009,0.3905722659915685,1.3837626348525285
1772732450315437000,5.24743701171875,1.5588362931638955,0.5321317772358656,1.406310420616716
1772732450325465000,5.257465087890625,1.0328314743757248,0.6272647606089711,1.1576223677791655
1772732450335491800,5.267491943359375,0.6469692857712507,0.6749392427146435,0.7835853492639958
1772732450345520000,5.27752001953125,0.44666883174479005,0.732568717123568,0.48747130918912585
1772732450355548000,5.2875478515625,0.3833388076066971,0.8206247478477656,0.19691965248174964
1772732450365575200,5.2975751953125,0.38845921936035155,0.8627157307326793,-0.05031140648052096
1772732450375603000,5.30760302734375,0.4316133014321327,0.8662045957617461,-0.24635084206163882
1772732450385630200,5.317630126953125,0.5908434939235448,0.8847240027926861,-0.3958943012645468
1772732450395657000,5.327656982421875,0.8343038752406835,0.8365542845159769,-0.4865697937721386
1772732450405685000,5.33768505859375,1.057668978512287,0.6598983254492282,-0.4234874242521822
1772732450415712000,5.3477119140625,1.2829285172283649,0.4249927142485976,-0.18477062073294073
1772732450425740000,5.357739990234375,1.5167080470085144,0.20731194022372365,0.04112392795104533
1772732450435768000,5.36776806640625,1.7554618580698966,-0.004128916498273611,0.18845676189977675
1772732450445795000,5.377795166015625,1.9700924507439135,-0.18503727231249212,0.34444501332789657
1772732450455822800,5.38782275390625,2.114943404749036,-0.32811639433950185,0.4665058241803199
1772732450465851100,5.39785107421875,2.132033655759692,-0.5243037139587104,0.6315136502251029
1772732450475878000,5.4078779296875,2.179274130362272,-0.7287419984422624,0.8863200398124754
1772732450485906200,5.41790625,2.2516987305819987,-0.9055541709840297,1.0873790571212767
1772732450495933000,5.427932861328125,2.2186188832789657,-1.0221367696210741,1.0654811135679483
1772732450505961000,5.4379609375,2.106751330465078,-1.1321177780359983,0.950083486931771
1772732450515989000,5.447989013671875,1.877829762110114,-1.2342287837281822,0.872818899334967
1772732450526016000,5.45801611328125,1.6297797149151563,-1.284842680286616,0.8296073879875242
1772732450536044000,5.4680439453125,1.4408879591315984,-1.3185922435447572,0.7530317325029522
1772732450546072000,5.478072021484375,1.3504162455677986,-1.3780255525052547,0.6494960277698933
1772732450556098800,5.488098876953125,1.2931588193416594,-1.445617471871525,0.5330792141538113
1772732450566127000,5.498127197265625,1.174233749231696,-1.4939290828369558,0.43995727834217246
1772732450576155000,5.50815478515625,0.9635855041921139,-1.5925411404974759,0.4041311280056834
1772732450586182100,5.51818212890625,0.6858937674492597,-1.6775740240082144,0.3947428662071004
1772732450596210000,5.5282099609375,0.3570692248404026,-1.751772355902195,0.39038733787871893
1772732450606237000,5.53823681640625,0.1240367140352726,-1.757919188094139,0.4028760864432901
1772732450616265000,5.548264892578125,-0.0560270076483488,-1.8135748782120644,0.36715456552505493
1772732450626293000,5.55829296875,-0.2612339384168386,-1.9069523962199686,0.2717923217070289
1772732450636320000,5.568320068359375,-0.4258785571724176,-1.9442530760884285,0.21898367331698534
1772732450646348000,5.57834814453125,-0.47402620974779125,-1.9726500262722373,0.25070779516212643
1772732450656376000,5.5883759765625,-0.450111665675044,-1.9861451754003763,0.29294574876967816
1772732450666403000,5.598403076171875,-0.3993880251318216,-2.0039464972898364,0.28168657853268086
1772732450676430800,5.608430908203125,-0.39658115101754665,-2.018553114791214,0.2606920866250992
1772732450686459100,5.618459228515625,-0.4531137701004743,-2.048323399154842,0.24429732533162457
1772732450696486000,5.62848583984375,-0.6165010822713375,-2.07713609053269,0.2547280271215364
1772732450706514200,5.63851416015625,-0.9335855027258395,-2.0763998852126297,0.32344836599584664
1772732450716541000,5.648541015625,-1.425595697453618,-1.9461290990933775,0.36945823935754596
1772732450726569000,5.65856884765625,-2.0101848071575166,-1.7214847696661948,0.3770413514303043
1772732450736597000,5.668596923828125,-2.462689505448937,-1.6419748873606324,0.33934242949187754
1772732450746624000,5.6786240234375,-2.712253464338183,-1.7649582929506897,0.17364853914538397
1772732450756652000,5.688652099609375,-2.7471622806340457,-1.8506407264113425,-0.017310615763068197
1772732450766680800,5.698680908203125,-2.72123055151999,-1.7574580003231763,-0.34833895202651616
1772732450776709000,5.708709228515625,-2.783320220208168,-1.766027237356454,-0.4682304560158401
1772732450786736000,5.718736083984375,-2.815148021623492,-1.7948684241764246,-0.40253242410477247
1772732450796764000,5.728763916015625,-2.7285294763565062,-1.742735939748585,-0.30550190001465377
1772732450806792000,5.7387919921875,-2.706077406051755,-1.5931310692146419,-0.21285096098193898
1772732450816819000,5.74881884765625,-2.872050058540702,-1.4062934694819151,-0.08655543516920879
1772732450826847000,5.758846923828125,-3.2393782270669935,-1.1187601376824081,-0.0189775899940636
1772732450836874000,5.7688740234375,-3.7169384561598298,-0.6865650908395647,-0.026272797636687755
1772732450846902000,5.778902099609375,-4.224245004218816,-0.15477452825680374,-0.1902550069607794
1772732450856930000,5.788929931640625,-4.487301481887698,0.36903307274803515,-0.37265933695379644
1772732450866957000,5.79895703125,-4.347240684768558,0.8390744506433606,-0.5416393180325627
1772732450876985000,5.808985107421875,-3.8710885689079757,1.2243838276706636,-0.7223718058232218
1772732450887012900,5.819012939453125,-3.234433756402135,1.4574962718442082,-0.7987883252233267
1772732450897040100,5.8290400390625,-2.50212953543365,1.6212398501068352,-0.7427854291029274
1772732450907068000,5.83906787109375,-1.8086743928194045,1.768909660924971,-0.625982392648235
1772732450917096000,5.849095947265625,-1.2960025183349848,1.83869076089859,-0.5227466937750578
1772732450927123000,5.859123046875,-0.9916291108936071,1.8852257175803184,-0.5271908867675811
1772732450937151000,5.86915087890625,-0.8914812219679356,2.0061635888174174,-0.6273578457199037
1772732450947178200,5.87917822265625,-0.8232394603908062,2.1626044428512454,-0.7443352888934314
1772732450957206000,5.8892060546875,-0.6558966885924339,2.284352753688395,-0.7779965162809938
1772732450967233800,5.89923388671875,-0.46175358815193174,2.3364833384200927,-0.7472079947855323
1772732450977261000,5.909260986328125,-0.22137948241233824,2.327139756013453,-0.6620218934744596
1772732450987288800,5.919288818359375,0.15918576882779598,2.256289857764542,-0.5596710511444136
1772732450997317000,5.929317138671875,0.6925555634260178,2.146319955265522,-0.3720738652160391
1772732451007344000,5.93934423828125,1.1179209103792904,1.9831193978384136,-0.20767653575241565
1772732451017372200,5.9493720703125,1.3683686663657426,1.7846379759326576,-0.015992811162769793
1772732451027400000,5.95939990234375,1.4573130242317913,1.7000588275387882,0.08005524122864008
1772732451037427000,5.969427001953125,1.5258762728482484,1.7061065832704305,0.08805953785553575
1772732451047455000,5.979455078125,1.686875228577852,1.64882373034209,0.01971570414341986
1772732451057483000,5.98948291015625,1.9711077652662992,1.533191856558621,-0.15230134307630358
1772732451067510000,5.999510009765625,2.274831184366345,1.3991416980311273,-0.2941967352114618
1772732451077538000,6.0095380859375,2.4854648163586854,1.2897563174217939,-0.36819442996680735
1772732451087565000,6.01956494140625,2.7081886991173025,1.0552528572812676,-0.34593948966935273
1772732451097593000,6.029593017578125,3.227959591951966,0.6107721832305193,-0.363130205379799
1772732451107620900,6.039620849609375,3.660537939023971,0.16402210294306277,-0.5475475191630422
1772732451117648100,6.049648193359375,3.7425831850260494,-0.23467998575121163,-0.8648025469440966
1772732451127676000,6.059676025390625,3.524577562960982,-0.6374997388973832,-1.1956651712518185
1772732451137704000,6.069703857421875,3.1900568545371293,-1.0962196584418415,-1.5580673546180128
1772732451147731000,6.07973095703125,2.9034529125422237,-1.5668974345445632,-1.974217860110849
1772732451157759000,6.089759033203125,2.561170922467112,-2.130913419558108,-2.545237440276146
1772732451167787000,6.099787109375,2.131473099267483,-2.5829282885059714,-3.0804812120527028
1772732451177814300,6.109814208984375,1.500130421695113,-2.7840853593617676,-3.286754018487036
1772732451187842000,6.119842041015625,0.8328443240821362,-2.6785838344484567,-3.0476290360257026
1772732451197869000,6.129869140625,0.3143091105222702,-2.4357488915532826,-2.48607155008018
1772732451207897000,6.13989697265625,0.08959317716360092,-2.44560948357135,-1.8278300519272683
1772732451217925000,6.149925048828125,0.13241583532392978,-2.615461900103092,-1.1269023814752697
1772732451227952000,6.1599521484375,0.31215514735877514,-2.654322668895125,-0.3250250041954219
1772732451237980200,6.169980224609375,0.5721311946690082,-2.524658470366895,0.4497730813704431
1772732451248008200,6.18000830078125,0.8118278395384549,-2.2558289622545242,1.013011506140232
1772732451258035200,6.19003515625,0.9486270045131444,-1.944345138286054,1.2748564160622655
1772732451268063000,6.20006298828125,1.099087030571699,-1.7581474438920617,1.0982106861285865
1772732451278091300,6.21009130859375,1.2712041771650313,-1.5918308002710342,0.49815775757208464
1772732451288118000,6.220117919921875,1.5289052652806043,-1.4004709008082747,0.0037112756080925464
1772732451298146300,6.230146240234375,2.064834096711874,-1.213050386621058,-0.25472704074084757
1772732451308173000,6.240173095703125,2.7415263205736875,-1.068210246270895,-0.39396716912686824
1772732451318201000,6.250201171875,3.147380326849222,-0.8996072452783584,-0.41388899030163884
1772732451328229000,6.26022900390625,2.9144518609404564,-1.0733397181138395,-0.7469866801850498
1772732451338256100,6.270256103515625,2.0664146439015862,-1.4561872350722551,-1.1803778049446643
1772732451348284200,6.2802841796875,0.46325990106165404,-1.6688921203806995,-1.356321962480247
1772732451358312200,6.290312255859375,-1.8225486043930053,-1.3082128883495927,-0.7466713306255638
1772732451368339200,6.300339111328125,-4.353489808291196,-0.7940297325193881,-0.0838210235029459
1772732451378367200,6.3103671875,-6.444868213057518,-0.3438526003926992,-0.06314677652567624
1772732451388395000,6.32039501953125,-7.390159935668111,0.3170703919291496,-0.0607620733462274
1772732451398422300,6.33042236328125,-7.137827096587419,0.8317202884882688,0.049369303324818606
1772732451408450000,6.340449951171875,-6.112660457751154,1.0411705559149385,0.3892502236075699
1772732451418478300,6.350478271484375,-5.039875158649683,1.2443103250205516,0.9871740311808883
1772732451428505000,6.360505126953125,-4.233766281279921,1.3542606460362672,1.4849061106868087
1772732451438533000,6.370533203125,-3.611953064075112,1.2526643118679524,1.5982447589665651
1772732451448560000,6.38056005859375,-3.140535575520992,1.086293015450239,1.4186533309698104
1772732451458588200,6.390588134765625,-2.879544798210263,1.1896005374506116,1.4159937563717364
1772732451468616200,6.4006162109375,-2.7287796517252922,1.4569322082206606,1.411065067797899
1772732451478643200,6.410643310546875,-2.2649819905251265,1.6194550125166773,1.1610641787961125
1772732451488671000,6.4206708984375,-1.5353952118217944,1.6086773056536912,0.8569067521929741
1772732451498699300,6.43069921875,-0.8662433203369378,1.550026963764429,0.5467573916986584
1772732451508726000,6.44072607421875,-0.4650310023874044,1.4601789350569248,0.14458696930669246
1772732451518754300,6.45075439453125,-0.5362175852447748,1.476058933494985,-0.23463475836999714
1772732451528782000,6.460781982421875,-1.1138730962932109,1.6157897680073976,-0.44138329255729913
1772732451538809300,6.470809326171875,-1.9333891522467135,1.8339210622787474,-0.7070144430197774
1772732451548837000,6.480837158203125,-2.8420933116942644,1.9297858670577406,-1.0057407114196568
1772732451558864100,6.490864013671875,-3.400056864801049,2.0667814313873647,-1.0772140753291546
1772732451568892200,6.50089208984375,-3.3785487973481416,2.3227765923678874,-0.9804437000125646
1772732451578920200,6.510920166015625,-2.8991619373500344,2.399192308050394,-1.025373340389505
1772732451588947200,6.520947265625,-2.499934071215987,2.096919964541495,-1.082020818023756
1772732451598975200,6.530975341796875,-2.1955174091547724,2.2746105273529884,-1.0544657985568047
1772732451609003000,6.5410029296875,-2.0939625760406253,2.6106083225920793,-0.9083993312820792
1772732451619030300,6.5510302734375,-2.3176228628665205,2.216514604476094,-1.420302851742506
1772732451629058000,6.56105810546875,-2.5217203710883855,2.290654484181106,-1.2582545330904424
1772732451639086300,6.57108642578125,-2.8192706545114516,2.3756603335544466,-1.0073189935870468
1772732451649113000,6.581113037109375,-2.8504315164506435,2.3541288852259514,-0.8139877940513193
1772732451659141000,6.59114111328125,-2.6410323946893213,2.4049016256079074,-0.6316047625746578
1772732451669169200,6.601169189453125,-2.202659682124853,2.4840979119196533,-0.37836211517266927
1772732451679196200,6.611196044921875,-1.5535802723318337,2.414213643832505,-0.2655750363610685
1772732451689224200,6.62122412109375,-0.9101029203295707,1.4105202933967114,-0.659170449566096
1772732451699251200,6.631251220703125,-0.2227145304083824,2.6622803499013186,1.398872671831399
1772732451709279200,6.641279296875,-0.1444412041604519,2.7929925961777564,1.9332532509073614
1772732451719307300,6.651307373046875,0.12560966244041918,1.9554253352269528,1.080806108471751
1772732451729334000,6.661333984375,0.49371992125511166,1.0809598377287388,0.3942861354155466
1772732451739362300,6.6713623046875,0.9480436516672373,2.012906925597787,1.7310712209179997
1772732451749390000,6.68139013671875,1.045292896541953,2.9232687891244886,2.9955899289697405
1772732451759417300,6.691417236328125,1.6600591178447006,2.287519985547662,2.430189357730001
1772732451769445000,6.701445068359375,2.267425876545906,1.6474872210413216,2.1015020316347477
1772732451779473200,6.71147314453125,2.6476468443930146,0.813239459902048,1.4264735032014548
1772732451789500200,6.721500244140625,2.9111557420045138,2.0613737271249293,2.430013562771678
1772732451799528200,6.731528076171875,2.935397618335485,2.7760435072034597,2.9486174576535817
1772732451809555200,6.74155517578125,3.215654237130284,1.7317901828423141,1.5892178412936626
1772732451819583200,6.751583251953125,3.4452918448001144,1.894483959791064,1.303060912413895
1772732451829611000,6.761611083984375,3.5717782900750636,2.754783277031779,1.9215271572783588
1772732451839638300,6.77163818359375,3.6432653171837326,2.3374559828445314,1.7857510517410933
1772732451849666000,6.781666015625,3.5670220354586837,1.9229215342462063,1.6510298620842396
1772732451859694300,6.7916943359375,3.6439416090101,2.469645023675263,2.2072740440525114
1772732451869721000,6.80172119140625,3.6355893757283684,2.782320687776804,2.1343381333097815
1772732451879749400,6.811749267578125,3.6824464039713143,2.440542847831547,1.562645622318983
1772732451889777200,6.821777099609375,3.551464400842786,2.004608468329906,0.8564362120717763
1772732451899804200,6.83180419921875,3.3636095868915317,1.859358578135073,0.3824081026278436
1772732451909832200,6.841832275390625,3.2574294320642947,1.805607698725164,-0.07468911108560859
1772732451919860200,6.851860107421875,3.25962080462873,1.995802646061778,-0.3742583331156522
1772732451929887200,6.86188720703125,3.22908947276473,1.7910031270503997,-0.4190622282210737
1772732451939915300,6.871915283203125,3.027958413133025,1.3300658237174152,-0.522821293381229
1772732451949942000,6.88194189453125,2.6836609915822742,1.2027213003084063,-0.4662654395531863
1772732451959970300,6.89197021484375,2.110090119498968,1.2049296240076421,-0.06505136803798377
1772732451969998000,6.901998046875,1.6173492724090814,0.9714701199620962,0.4603680520776659
1772732451980025300,6.912025390625,1.4748767379730938,0.6035971770346165,0.8249533516366034
1772732451990053000,6.92205322265625,1.4767898781180382,0.2698088745385408,0.9932290203709154
1772732452000081200,6.9320810546875,1.4103133726477621,0.07676818238198757,1.092627259973064
1772732452010108200,6.942108154296875,1.2559049012243746,0.03163695501834154,1.107434879939258
1772732452020136200,6.95213623046875,1.2077712771743536,-0.0541948237851262,1.0192324264816939
1772732452030164200,6.962164306640625,1.3471452610731125,-0.1774079464778304,0.8899206946529448
1772732452040191200,6.972191162109375,1.4968284575402735,-0.24195582197308538,0.7948400259889662
1772732452050219300,6.98221923828125,1.695018203023076,-0.38681203667521474,0.7100691544152796
1772732452060247300,6.992247314453125,1.9552356578737495,-0.548981205227971,0.7023615026473998
1772732452070274000,7.002274169921875,2.0731167718887327,-0.7404433960214257,0.7052147731866687
1772732452080302300,7.01230224609375,1.9733342091441153,-0.9908040582463145,0.7093108103286474
1772732452090329000,7.0223291015625,1.7145938411086796,-1.165423543049395,0.7618089862637222
1772732452100357400,7.032357421875,1.4162176282554864,-1.2197609901756048,0.7779025543872267
1772732452110385200,7.04238525390625,0.9802531458765268,-1.2692691174492239,0.6731112235698848
1772732452120412200,7.052412109375,0.46337563639581203,-1.296471889412403,0.47021695365794003
1772732452130440200,7.062440185546875,0.09931494523286818,-1.2812582459285855,0.2656475170753896
1772732452140468200,7.07246826171875,-0.2150374199092388,-1.3518781348139046,0.06175561442822217
1772732452150495200,7.0824951171875,-0.47981882167458534,-1.4170458957731722,-0.08868388029895723
1772732452160523300,7.092523193359375,-0.6898971578717231,-1.4922428833156822,-0.0488352695133537
1772732452170550800,7.10255078125,-0.9776900173902511,-1.6574100646406411,0.44767998154871164
1772732452180577800,7.112577880859375,-1.3813415451854467,-1.8217559927105902,1.1957737461928277
1772732452190605800,7.122605712890625,-1.6261299602359531,-1.972637459051609,1.6938859841227532
1772732452200633900,7.1326337890625,-1.3058207325160502,-1.838992958715558,2.749493938452005
1772732452210660600,7.14266064453125,-1.572830331724882,-1.5657164080664514,2.323189703213423
1772732452220689000,7.15268896484375,-1.3035796755909919,-2.3871350827708837,0.41448878282569346
1772732452230715600,7.162715576171875,-0.6958668799310922,-2.6194971469685435,0.15617087798602877
1772732452240744000,7.172743896484375,-0.51951604129076,-1.8129916714966297,0.45687546072155233
1772732452250771700,7.182771728515625,-0.5093213950127363,-1.5807915198624134,0.4467899739064276
1772732452260798700,7.192798828125,-0.5910515837162733,-1.7911282147347927,0.16406060832254588
1772732452270826800,7.20282666015625,-0.5900964749485254,-1.8547496230348943,0.22259258452914654
1772732452280854800,7.212854736328125,-0.5343208117127418,-1.866518386761844,0.4097181343577802
1772732452290881800,7.2228818359375,-0.2821025389224291,-2.0067647695809603,0.3318799481241032
1772732452300909800,7.232909912109375,0.0716775812447071,-2.0793968750715255,0.1489656227823347
1772732452310937900,7.242937744140625,0.33147242676913735,-2.0356717151135206,0.6276049523487687
1772732452320964900,7.25296484375,-0.6031453416138887,-1.8524290711328386,-0.21606522858701646
1772732452330992600,7.26299267578125,-0.8004471983462572,-1.976484782129526,-0.7781425736881792
1772732452341020000,7.27302001953125,-1.624461150240898,-1.5484180672630667,-0.637118119168654
1772732452351047700,7.283047607421875,-2.632669055491686,-1.028666463650763,-0.9893512290894985
1772732452361076000,7.293075927734375,-3.724849375414848,-0.6644257397457957,-1.648851787392795
1772732452371102700,7.303102783203125,-4.52762004827261,-0.24394378091990945,-2.3493420893408357
1772732452381130800,7.313130859375,-4.975677704027295,0.2303060084506869,-2.7977035503476855
1772732452391158800,7.32315869140625,-4.940135850524902,0.6063964523643255,-3.0047979022979736
1772732452401185800,7.333185791015625,-4.420983381849527,0.7706529485851525,-3.075063278657198
1772732452411213800,7.3432138671875,-3.34403044167459,0.7295350485160946,-3.0351337115898724
1772732452421241900,7.353241943359375,-1.8426181634753942,0.5077154211208224,-2.9072882529214024
1772732452431268600,7.3632685546875,-0.4701724569290876,0.24776596955657004,-2.7904700919628143
1772732452441297000,7.373296875,0.5810942533254623,0.02756751362234354,-2.612113758718967
1772732452451324700,7.38332470703125,1.3168009762138126,-0.2122331761434674,-2.316206858588755
1772732452461352000,7.39335205078125,1.7876842117607592,-0.4533054932802915,-2.0097499228715896
1772732452471379700,7.403379638671875,1.9425228912949561,-0.6258578164204954,-1.7623447494514286
1772732452481406700,7.41340673828125,1.7004846517354248,-0.6433560637101531,-1.5679497200764714
1772732452491434800,7.423434814453125,1.1134826356709002,-0.5667173529267311,-1.5370545233361421
1772732452501462800,7.433462890625,0.3839870423823595,-0.46786330320388075,-1.6400858587436378
1772732452511489800,7.44348974609375,-0.31990181596279144,-0.2793707758709788,-1.6402629688762127
1772732452521517800,7.453517822265625,-0.9418553184211254,-0.0819935158148408,-1.62318923060894
1772732452531545900,7.4635458984375,-1.3813292702257634,0.036322190225124354,-1.6716101471677423
1772732452541572900,7.47357275390625,-1.6783061376750468,0.12184037303477525,-1.7405086190879344
1772732452551600600,7.4836005859375,-1.9503595762699841,0.25461598158180715,-1.7608143250137567
1772732452561629000,7.49362890625,-2.1223551423102616,0.48947833816260095,-1.6970916482962668
1772732452571655700,7.50365576171875,-2.1218390094816684,0.7042027465999126,-1.6558967374682425
1772732452581684000,7.51368408203125,-1.8878584041714668,0.7800938538864255,-1.6789140404403209
1772732452591711700,7.523711669921875,-1.5099153181284666,0.8028133429557085,-1.665243242484331
1772732452601738800,7.53373876953125,-0.951315220683813,0.7901888391822576,-1.4993033232212065
1772732452611766800,7.543766845703125,-0.3036199587255716,0.7722092381164432,-1.2824559312805532
1772732452621794800,7.553794921875,0.2986567833602428,0.7678028198510408,-1.0490683234274387
1772732452631821800,7.56382177734375,0.7696873184233903,0.8249272673472762,-0.7519342195898294
1772732452641849900,7.573849853515625,1.08748485558331,0.8891007565721869,-0.5715525179982185
1772732452651876600,7.583876708984375,1.2989941013664006,0.9638397712141274,-0.4446642869893461
1772732452661905000,7.59390478515625,1.4930945317089557,1.0604007415637373,-0.3451177249576896
1772732452671932700,7.6039326171875,1.7926614156514404,1.1353683042645453,-0.3161947050731629
1772732452681960000,7.6139599609375,2.1946651762396097,1.1867030624434352,-0.2563717392079532
1772732452691987700,7.62398779296875,2.5958126122593876,1.1986740707442163,-0.1534369229774922
1772732452702016000,7.63401611328125,2.7823569281339644,1.0585983683168887,-0.046630964402109384
1772732452712042800,7.644042724609375,2.5064070666223763,0.8882008851230144,0.001215732465311885
1772732452722070800,7.65407080078125,1.9313731362491844,0.8140355787158012,0.12071275724433361
1772732452732098800,7.664098876953125,1.390285314619541,0.8938336303129791,0.1473907016158104
1772732452742125800,7.674125732421875,1.015934115588665,0.9556263618811964,0.011897395075298845
1772732452752153900,7.68415380859375,0.7193062077075243,0.9026800768524408,-0.21383929616585373
1772732452762181600,7.694181640625,0.654910015642643,0.9100617115363479,-0.2832254785377532
1772732452772208600,7.704208740234375,0.7868500501483678,0.9844640415698289,-0.29998215021248903
1772732452782237000,7.71423681640625,0.960157283309102,0.9464026064619422,-0.34713984190244224
1772732452792263700,7.724263671875,1.1424661535710097,0.8141454688310623,-0.2689862330440432
1772732452802292000,7.7342919921875,1.2568605945140123,0.6357204542651772,-0.14232519838716834
1772732452812319700,7.74431982421875,1.3785095366299152,0.42268268374055623,0.0748208111738786
1772732452822346800,7.7543466796875,1.428562730565667,0.24079496150016783,0.26087632061820476
1772732452832374800,7.764374755859375,1.456992706236243,0.17718495137691498,0.3030681335290894
1772732452842402800,7.77440283203125,1.4482172791063785,0.1326879302635789,0.21863935339134186
1772732452852429800,7.784429931640625,1.2913158218234777,0.1134223810404539,0.0897213335879147
1772732452862457900,7.794457763671875,1.041857661396265,0.17693039209395647,-0.028411015241779386
1772732452872486000,7.80448583984375,0.7014777055501937,0.2245183649599552,-0.05640786019209772
1772732452882513000,7.814512939453125,0.2615618551969528,0.1944412066042423,0.02709434315264225
1772732452892540700,7.824540771484375,-0.21685586750805377,0.2007607650145888,-0.020526216808706522
1772732452902568700,7.834568603515625,-0.5812479825824499,0.3295607479289174,-0.09893876886423676
1772732452912595700,7.844595703125,-0.6902589769214391,0.4495046396926045,-0.2450141500977799
1772732452922624000,7.8546240234375,-0.7491513108730316,0.43610564441531896,-0.38609764132816343
1772732452932650800,7.864650634765625,-0.897088540455699,0.4203434271380305,-0.41841413957588375
1772732452942678800,7.8746787109375,-1.140475272014737,0.46867754219621416,-0.4179847351826727
1772732452952706800,7.884706787109375,-1.344611358681321,0.4984858204826712,-0.47149559529162943
1772732452962733800,7.89473388671875,-1.4911293691158294,0.4592603100314736,-0.5896105545951054
1772732452972761900,7.904761962890625,-1.506506970989704,0.38405981535762546,-0.6983036786239594
1772732452982789600,7.91478955078125,-1.3914759857088326,0.39724604466706515,-0.7032211882166564
1772732452992816600,7.924816650390625,-1.266976914858818,0.38687341147363186,-0.6230790724221617
1772732453002845000,7.934844970703125,-1.217986966240406,0.19604425788670776,-0.43422731985542923
1772732453012872700,7.944872802734375,-1.103428859168291,-0.05008154324740171,-0.11692684549745172
1772732453022900000,7.95489990234375,-0.7724252189546823,-0.1714367631137371,0.2911820270327851
1772732453032927700,7.964927734375,-0.3571037116318941,-0.25858137808144094,0.606034121857956
1772732453042955800,7.974955810546875,0.046638417056202884,-0.34143998629301786,0.921129852713272
1772732453052982800,7.984982666015625,0.23286299945712088,-0.33475042552649975,1.1884339778892694
1772732453063010800,7.9950107421875,0.11693828020691871,-0.20419307755082844,1.3834757807351648
1772732453073037800,8.005037841796875,-0.255513222682476,0.02860971615165472,1.5026941347032785
1772732453083065900,8.01506591796875,-0.8148316975295543,0.31263328626453873,1.319791682462394
1772732453093094000,8.025093994140626,-1.4952455722630023,0.6047454702869057,0.9004936727240681
1772732453103121000,8.035120849609376,-2.158498468837142,0.8684875921323895,0.5140951487531885
1772732453113148700,8.045148681640624,-2.5951602858304974,1.0832052785679698,0.2363222730655223
1772732453123176700,8.0551767578125,-2.7413901269733905,1.289783789950609,-0.12178856978230178
1772732453133203700,8.06520361328125,-2.6111902141332624,1.4725874579921363,-0.4343824373519048
1772732453143231700,8.075231689453124,-2.3270284045934675,1.615074897736311,-0.6469037462543695
1772732453153259800,8.085259765625,-1.8933149160116909,1.6451318900868295,-0.7002468485809862
1772732453163286800,8.095286865234375,-1.3653788368999957,1.6053978455916047,-0.6531215978559106
1772732453173314600,8.105314453125,-0.8740981254905462,1.5831740310847757,-0.5274938883021474
1772732453183342300,8.11534228515625,-0.5560270320862531,1.5300368996590374,-0.24214739902243015
1772732453193369600,8.12536962890625,-0.42816988297998904,1.44446581761837,0.14715979720307512
1772732453203397600,8.135397705078125,-0.4068792576700449,1.4159355964437126,0.5245034012492745
1772732453213425700,8.14542578125,-0.2810352019518614,1.4457301384657621,0.6845389918394387
1772732453223452700,8.15545263671875,-0.1595990258038044,1.3643983014300465,0.7617449811168014
1772732453233480400,8.16548046875,0.0837859521895647,1.2527423455402253,0.9714021692924201
1772732453243507700,8.1755078125,0.3689455405950546,1.077300146177411,1.3133674946337937
1772732453253535500,8.185535400390625,0.5956225448936223,0.8442009998768567,1.506686857601255
1772732453263563500,8.1955634765625,0.8671633577913045,0.6904086145251989,1.641929733044654
1772732453273590500,8.205590576171875,1.1411626697570085,0.5309221091851591,1.6747811784192919
1772732453283618600,8.21561865234375,1.4774047951459883,0.37790450759828087,1.6978279997467993
1772732453293646600,8.225646484375,1.7885867135584352,0.2705100085452199,1.6340645526275037
1772732453303673600,8.235673583984376,1.9668173745959996,0.21413053419739006,1.374576873356104
1772732453313701600,8.24570166015625,1.9444933145850896,0.19381430687755344,1.0787311288286
1772732453323729400,8.2557294921875,1.8303198229163884,0.22605302718132733,0.8464585695452987
1772732453333756400,8.26575634765625,1.7111515917003153,0.233810217179358,0.6509995642006396
1772732453343784400,8.275784423828124,1.5672218441933392,0.22379385007768868,0.4084941820533946
1772732453353812500,8.2858125,1.4739204601615667,0.21303075626194476,0.2562236359741539
1772732453363839700,8.29583984375,1.4513982472300528,0.16253069534152745,0.22566649381546303
1772732453373867500,8.305867431640625,1.3700041586130858,0.1268836278989911,0.20303795269895344
1772732453383895600,8.3158955078125,1.2554682633727787,0.018636895930767058,0.1772057201703079
1772732453393922600,8.325922607421875,1.18038058142364,-0.03672375676333904,0.15568550562188027
1772732453403950300,8.335950439453125,1.2175509129106998,-0.05415653760135174,0.1586013200033456
1772732453413977600,8.3459775390625,1.3950462454110384,-0.1258911097303033,0.20282286690985782
1772732453424005600,8.356005615234375,1.5645768826425075,-0.2649325006738305,0.2465865322473459
1772732453434033700,8.36603369140625,1.6291215432673691,-0.39962329519242046,0.35867636777609585
1772732453444060700,8.376060791015625,1.6045219395399093,-0.510101439474523,0.4398009187366813
1772732453454088400,8.38608837890625,1.5002899961709975,-0.5837365845277905,0.4443865660265088
1772732453464116500,8.396116455078126,1.3908487937211989,-0.6791761496320367,0.48904951829127963
1772732453474143500,8.4061435546875,1.2022884618490934,-0.7571253584921359,0.5975717062000185
1772732453484171500,8.416171630859376,1.0234259326487778,-0.752841397562623,0.6674363197386265
1772732453494199600,8.426199462890626,0.9019172757863998,-0.765336721998453,0.6529781707972288
1772732453504226600,8.4362265625,0.7925964848458766,-0.7449953602373599,0.521593395554088
1772732453514254600,8.446254638671874,0.7687742952316999,-0.7259788173392414,0.40855475313421336
1772732453524282400,8.456282470703124,0.7345633980721235,-0.7379223531112075,0.33541334641464055
1772732453534309600,8.4663095703125,0.6498802047818899,-0.7505106165274977,0.21518813522523267
1772732453544337400,8.47633740234375,0.5423825376152992,-0.7441714766338468,0.10892257627001962
1772732453554365700,8.48636572265625,0.3204869223743677,-0.8036734669163823,0.04597010760689154
1772732453564392400,8.496392333984375,0.1280149700164795,-0.8389332886070012,0.038881501052808014
1772732453574420500,8.50642041015625,0.08089841405451298,-0.8678457870975136,0.0886225968320854
1772732453584448500,8.516448486328125,0.16599077266752718,-0.8926689704477786,0.1597792777415365
1772732453594475500,8.5264755859375,0.27604280049204827,-0.9736147307753562,0.2782211126455106
1772732453604503600,8.536503662109375,0.31283202370703217,-1.025822180135548,0.33381687100343405
1772732453614530600,8.546530517578125,0.29334347938299177,-1.0282064449235797,0.3585936213960871
1772732453624558300,8.556558349609375,0.23204408428966997,-0.9979092140763998,0.3499963638447225
1772732453634586600,8.566586669921875,0.06860007349550723,-0.9947910820558666,0.3553552605293691
1772732453644613600,8.576613525390625,-0.16502923415899276,-0.9938812737345695,0.4136085659250617
1772732453654641700,8.5866416015625,-0.3732540514439344,-0.9675023853749036,0.5385554901404306
1772732453664669400,8.59666943359375,-0.570863366690278,-1.013183063314855,0.6591670885652303
1772732453674696400,8.606696533203126,-0.7559668361067772,-1.0420873784989118,0.8038614637691527
1772732453684724500,8.616724365234376,-0.951216436484456,-1.0453215381145478,0.9473818267576396
1772732453694752500,8.62675244140625,-1.083613567107916,-1.0067314029574395,0.9728466690123081
1772732453704779500,8.636779541015626,-1.0395844557672738,-1.0322194799572229,0.8331853926047682
1772732453714807600,8.6468076171875,-0.7461351779222488,-1.1433899904176592,0.4988846105419099
1772732453724835600,8.656835693359374,-0.2898363480448723,-1.1548553872838616,0.20306957167992368
1772732453734862600,8.666862548828124,0.018186814075708387,-1.0774871931821106,0.0019656923160888255
1772732453744890400,8.676890380859374,0.0008288520395755767,-1.0909653911754489,-0.05618512081950903
1772732453754917600,8.686917724609375,-0.36383623475730414,-1.1428528148010373,0.0694605993149802
1772732453764945400,8.6969453125,-1.061792780444026,-1.073043950037658,0.28704326499393207
1772732453774973700,8.7069736328125,-1.9197621934324502,-0.836393540996313,0.593957826551795
1772732453785000400,8.71700048828125,-2.9512814161658287,-0.4719362517312169,0.7053501630693674
1772732453795028500,8.727028564453125,-4.014340271022916,0.007643792751431465,0.6772079182989895
1772732453805056500,8.737056396484375,-4.615119468027353,0.35569136061593887,0.5796856286365538
1772732453815083500,8.74708349609375,-4.792832242670655,0.544086565054208,0.4510964754613116
1772732453825111600,8.757111572265625,-4.591596553620696,0.7666080571085214,0.22814002605583517
1772732453835139600,8.7671396484375,-4.0372722337991,0.9415504902556538,0.019989173622825183
1772732453845166300,8.777166259765625,-3.1466432447463273,1.0611515599310397,-0.16114815494194626
1772732453855194600,8.787194580078125,-2.1510423076123,1.0424196791931986,-0.235171897454001
1772732453865222400,8.797222412109376,-1.2956126422345637,0.9679670802772045,-0.18979798390828073
1772732453875249700,8.807249755859376,-0.5780769513309002,1.2290823607504366,-0.2952170547025278
1772732453885277400,8.81727734375,0.08533435067534446,1.0511991979762911,-0.2776596793704666
1772732453895305700,8.8273056640625,-0.11142331617772579,0.46592415183484553,-0.33466008036192507
1772732453905332500,8.83733251953125,-0.18974281965494155,0.8491212128832936,-0.033621699094772334
1772732453915360500,8.847360595703124,-0.4934031103909015,1.1169798301368952,0.23522209327127783
1772732453925388500,8.857388427734374,-0.6680775402516126,1.1421581105351448,0.004199150456581265
1772732453935415600,8.86741552734375,-0.5199713838428258,1.1163745577201247,-0.08051628286913037
1772732453945443600,8.877443603515625,-0.17884148641228675,1.1362632072776555,-0.04568376494618132
1772732453955470600,8.887470703125,0.14882628737688064,1.070218955744803,-0.002523874188121408
1772732453965498400,8.897498291015625,0.4456558553099632,0.9836503870993852,0.12701810446623713
1772732453975526700,8.907526611328125,0.7278846509605645,0.9360419559672475,0.31356399124339224
1772732453985553400,8.917553466796875,0.9343535644888877,0.9031389265358447,0.43533060492221265
1772732453995581700,8.927581787109375,0.9816998375535011,0.8745297949060797,0.5472376494962722
1772732454005609500,8.937609375,0.7578501656353474,0.8989975889474153,0.49562765457257624
1772732454015636500,8.947636474609375,0.4726315405189991,0.9644798226833343,0.2906258909873664
1772732454025664500,8.95766455078125,0.2808241895496845,1.1153025445744396,0.05416403592121787
1772732454035692500,8.967692626953125,0.33792145677804947,1.2245543619319796,-0.1991754320519045
1772732454045719600,8.977719482421875,0.5296610032081603,1.2305264220789074,-0.45798988823685793
1772732454055747600,8.98774755859375,0.7773428016126155,1.181656300447881,-0.6177909028861671
1772732454065775600,8.997775634765626,1.035056164687872,1.2055629534751175,-0.6918620282039046
1772732454075802600,9.007802734375,1.205180091637373,1.1997986908599734,-0.7838821402534842
1772732454085830400,9.017830322265626,1.2791507522553205,1.140057338863611,-0.8265824872083961
1772732454095858700,9.027858642578124,1.3126912028074265,1.0592831357106567,-0.7699036645878106
1772732454105885400,9.037885498046874,1.444575707733631,0.9734645086497068,-0.6459068441715091
1772732454115913700,9.047913818359374,1.7755588896811008,1.0274927436962724,-0.44066659565530714
1772732454125940500,9.0579404296875,2.3935738836467264,1.2378308998733758,-0.3620529315371066
1772732454135968500,9.067968505859374,2.6960031712830066,0.4675160972014069,-0.8429958618707954
1772732454145996500,9.07799658203125,3.290978650444746,0.4579226316869259,-0.7235011751793324
1772732454156023600,9.0880234375,3.40544498758018,0.5655930250719189,-0.611643047780916
1772732454166051600,9.098051513671875,3.0471804154753683,0.29697189901322124,-0.836363730379939
1772732454176080000,9.108079833984375,2.6402882983237506,0.022386311592161656,-0.8111109965059906
1772732454186106600,9.118106689453125,2.112439897495508,-0.24300503876507282,-0.4108845843212679
1772732454196135000,9.128135009765625,1.559609615623951,-0.1800894406467676,-0.2200655868021771
1772732454206162700,9.13816259765625,1.1262100152969359,-0.07568944723457098,-0.24452850373899562
1772732454216190000,9.14818994140625,0.9229968886941671,-0.20581863292604682,-0.09842701994981616
1772732454226217700,9.1582177734375,0.6910977658331394,-0.30635172177702186,-0.03497374389139004
1772732454236245800,9.168245849609375,0.5683966843158006,-0.2637333540171385,0.05039053156476002
1772732454246272800,9.178272705078125,0.6671423052281141,-0.32875703033059833,-0.08535648944191634
1772732454256300800,9.18830078125,0.7922779204159974,-0.3940852425485849,-0.3569937849840149
1772732454266328800,9.198328857421876,0.9600292730152606,-0.3215145118564367,-0.5958256662502884
1772732454276355800,9.20835595703125,1.0662731407284736,-0.2895984476357698,-0.8143501245576887
1772732454286383900,9.2183837890625,1.050593341037631,-0.29281331802904603,-0.9013095922168344
1772732454296411600,9.22841162109375,0.8708014220327138,-0.36966713286787267,-0.8940377745829522
1772732454306438700,9.238438720703124,0.612096709832549,-0.47301820174902676,-0.8403623715620487
1772732454316466700,9.248466796875,0.2448714171588421,-0.574520720154047,-0.7661536644045263
1772732454326494700,9.25849462890625,-0.04762859713733196,-0.6558060876995325,-0.7383369983267039
1772732454336522000,9.26852197265625,-0.22184885348975658,-0.7016239821530879,-0.8003438110370188
1772732454346549800,9.2785498046875,-0.35530163064599035,-0.736199036449939,-0.844182002915442
1772732454356576800,9.28857666015625,-0.48582186148166656,-0.8005166103206575,-0.7983728032249957
1772732454366604800,9.298604736328125,-0.6509042871326207,-0.7872729517355561,-0.708438338343054
1772732454376632600,9.308632568359375,-0.8943167376548051,-0.7472029532842338,-0.6459282522857189
1772732454386659800,9.318659912109375,-1.2666080815464258,-0.6949576561316847,-0.5874157114319503
1772732454396686800,9.328686767578125,-1.713528257703781,-0.6449141068071127,-0.5597280420286581
1772732454406713600,9.338713623046875,-2.1488369065225124,-0.5982122691258788,-0.5773358141073957
1772732454416742000,9.348741943359375,-2.471037647077441,-0.588337502451986,-0.6079750633252784
1772732454426769700,9.358769775390625,-2.5270097096681594,-0.6435492481946945,-0.5289636320611462
1772732454436796700,9.368796630859375,-2.4215607917249202,-0.6039364919915795,-0.32876572509370744
1772732454446824700,9.37882470703125,-2.334945753589272,-0.5370256867572665,-0.07139394199773669
1772732454456852700,9.388852783203125,-2.4181384160608053,-0.5763789152413606,0.27773842542879285
1772732454466879700,9.398879638671875,-2.59899767203629,-0.6099317868836224,0.8073495250806212
1772732454476907800,9.40890771484375,-2.685709156283736,-0.4037706241302192,1.3200572015307843
1772732454486935800,9.418935791015626,-2.6676374930202957,-0.028804508071392773,1.333414988014847
1772732454496962800,9.428962890625,-2.595578803503513,0.33396336680203675,1.1364360065612942
1772732454506990600,9.438990478515626,-2.4047435124367476,0.669790773910284,0.9286695275031029
1772732454517017900,9.449017822265626,-2.2130694324582816,1.0773754033707081,0.43148028616961087
1772732454527045600,9.459045654296874,-2.1373370228648185,1.4065456906773148,-0.3115712099909782
1772732454537074000,9.469073974609374,-2.2768635669767856,1.7206633702807128,-0.9544650630168616
1772732454547100700,9.4791005859375,-2.5406167947381735,2.053130068784207,-1.3670368332400917
1772732454557128700,9.489128662109374,-2.7893220909714698,2.2318369690313933,-1.556001508129388
1772732454567156700,9.49915673828125,-2.819135045433044,2.2314885939851403,-1.6222262307956814
1772732454577183700,9.509183837890625,-2.5164707799971104,2.150467284203321,-1.4013997060909866
1772732454587211800,9.519211669921875,-1.9518413392603395,1.973710495110601,-1.0178523703001439
1772732454597239800,9.52923974609375,-1.2258739200979472,1.7683803763538597,-0.5475796313343569
1772732454607266600,9.5392666015625,-0.4644990874677896,1.5849049465306102,-0.04762877980042249
1772732454617294800,9.549294921875,0.254280466017127,1.4535888891421258,0.3631699163356796
1772732454627322600,9.559322509765625,0.7771849807024002,1.3542371190302074,0.649711131825298
1772732454637350000,9.569349853515625,0.9570102174550295,1.2828849703475833,0.8517557991705834
1772732454647377700,9.579377685546875,0.8149977017462253,1.2403697707012296,1.0258891078919172
1772732454657406000,9.589406005859376,0.2806353889793157,1.3250108784154058,1.2055347502939402
1772732454667432700,9.5994326171875,-0.4763303950369358,1.4546701085075735,1.5407127535827456
1772732454677460700,9.609460693359376,-1.0177958178073168,1.4700485871642828,1.957872436118126
1772732454687488800,9.61948876953125,-1.1803916873395441,1.3749004062220453,2.3920345452502367
1772732454697515800,9.629515869140626,-0.8670335939317941,1.2404480966344476,2.700487623220682
1772732454707543800,9.639543701171876,-0.14942659135758876,1.1425696139454842,2.7846830329939722
1772732454717571800,9.64957177734375,0.6952420260310173,1.0486027517423033,2.5802275051146744
1772732454727598600,9.6595986328125,1.3828934508025645,1.0105562219426036,2.276860352106392
1772732454737627000,9.669626953125,1.8156266961753367,0.9707789228275417,1.877570526652038
1772732454747654700,9.679654541015625,1.9662439586222171,0.9766405083373189,1.4485428577989339
1772732454757682700,9.6896826171875,1.9478852951109409,0.9951815426781773,1.0751276244439183
1772732454767709700,9.699709716796875,1.955036920431256,1.0002478861570359,0.713571755708754
1772732454777737700,9.70973779296875,2.0043378346949816,0.9842045138508081,0.3432874407906085
1772732454787765800,9.719765869140625,2.0111971990704536,0.9802791571006179,0.0782103440143168
1772732454797792800,9.729792724609375,1.9871376935690641,0.9648942487031221,-0.10737020486202091
1772732454807820800,9.73982080078125,2.089886704903841,0.95322310013175,-0.2224851055666804
1772732454817848600,9.7498486328125,2.2275211516588924,0.9258940714403986,-0.335085648830235
1772732454827875800,9.759875732421875,2.3483552702605723,0.8711521351665258,-0.4166377410205081
1772732454837903600,9.769903564453125,2.529140876477957,0.8407493981182574,-0.40472595209367573
1772732454847932000,9.779931884765626,2.7056600574225187,0.771112675051391,-0.3275967909121886
1772732454857959000,9.789958984375,2.630873988768458,0.6333589858308434,-0.277309422894381
1772732454867986700,9.799986572265626,2.291250988769531,0.47139586124420163,-0.11018431243468076
1772732454878014000,9.810013916015626,1.884952161335945,0.32485914610922334,0.14278565550576894
1772732454888041700,9.820041748046876,1.6133686783403158,0.1568839216262102,0.3600000541279092
1772732454898069800,9.83006982421875,1.3944745830029248,0.058497781676053996,0.5081731748256832
1772732454908096800,9.8400966796875,1.1650216842502354,-0.0364554612159729,0.6334331470455974
1772732454918124800,9.850124755859374,1.0165893646270037,-0.09891162512898445,0.7352445122040808
1772732454928152800,9.86015283203125,0.9072849402993917,-0.17242226701974867,0.7969303493317216
1772732454938179800,9.870179931640624,0.8055325387865304,-0.2446244566604495,0.8862702093213796
1772732454948207900,9.880207763671875,0.7408394096016884,-0.3327458077058196,0.9205838362030685
1772732454958235600,9.890235595703125,0.6537918252676725,-0.38859541296064853,0.8601385737210512
1772732454968262700,9.9002626953125,0.42540567896366116,-0.43159021281749005,0.756939261335507
1772732454978290700,9.910290771484375,0.18838322173953057,-0.4491749693468213,0.6472659306302666
1772732454988318700,9.920318603515625,-0.029189854127168655,-0.4148983134746551,0.5212486737696453
1772732454998345700,9.930345703125,-0.2287012036025524,-0.4347323102355003,0.3857850682476535
1772732455008373800,9.940373779296875,-0.2805208226889372,-0.458121953651309,0.2881691454850137
1772732455018401800,9.95040185546875,-0.29868191780149933,-0.4838651744559407,0.24719083654973653
1772732455028428800,9.9604287109375,-0.33907997916340826,-0.5646984143197536,0.23903810789547858
1772732455038456600,9.97045654296875,-0.27376842581927774,-0.6513783343851566,0.2643307719210163
1772732455048484900,9.98048486328125,-0.18683248516619205,-0.7378364283934236,0.30366503997631367
1772732455058511600,9.99051171875,-0.12805530202686785,-0.825265120999515,0.3288392652539536
1772732455068540000,10.000539794921876,0.001219312661886215,-0.9013988048702478,0.38675690895449366
1772732455078567700,10.010567626953126,0.18072423141896723,-0.9719444594755768,0.48110838656108823
1772732455088594700,10.0205947265625,0.3380699253380298,-1.0602125255152584,0.6304642142374068
1772732455098622700,10.030622802734374,0.4959790983587503,-1.1462488869801164,0.7946760675989091
1772732455108650800,10.040650634765624,0.6023626668035984,-1.199812427124381,0.8573961431451141
1772732455118677800,10.050677734375,0.6202139653146267,-1.2025149640813468,0.8674481660820543
1772732455128705800,10.060705810546875,0.5766255834788083,-1.208124912917614,0.8955146422024816
1772732455138732500,10.070732666015624,0.4106114299356937,-1.1968746201068161,0.9412599828764796
1772732455148760800,10.0807607421875,0.27603812431693076,-1.11806148789376,0.9610814854819327
1772732455158788600,10.09078857421875,0.1520861659556627,-1.0166618453413248,0.9014392830111085
1772732455168815900,10.10081591796875,0.06503507449030876,-0.8719622825056313,0.6800020059969276
1772732455178844200,10.11084423828125,0.035113398957252503,-0.7277882048487663,0.42169126155041153
1772732455188872200,10.1208720703125,0.09305705388188362,-0.580712560531497,0.10665801973836496
1772732455198899200,10.130899169921875,0.19887071348428725,-0.47069735758602615,-0.15713827997976912
1772732455208927200,10.14092724609375,0.09477379467189312,-0.3739569390162825,-0.35085027726031837
1772732455218955300,10.150955322265625,-0.20360650983452797,-0.29321985300332304,-0.491833303790912
1772732455228982300,10.160982177734375,-0.6300678353309631,-0.25566432159096003,-0.5973688771042972
1772732455239010000,10.171010009765626,-1.0605687916070223,-0.24842034181207417,-0.6145464410722256
1772732455249038300,10.181038330078126,-1.3635621428668498,-0.16884002461880446,-0.4723812190197408
1772732455259065000,10.191065185546876,-1.4388853871375322,-0.0328761414244771,-0.1611066173551604
1772732455269093400,10.20109326171875,-1.4113573287427426,0.09153963505625724,0.13255078681521118
1772732455279121200,10.21112109375,-1.4577841488748788,0.13021160327792167,0.34007556607201694
1772732455289148200,10.221148193359374,-1.446843652665615,0.1502051745146513,0.5217446040604263
1772732455299176200,10.23117626953125,-1.2513123127371073,0.2241477780818939,0.5672034559432417
1772732455309204200,10.241204345703125,-0.9088783469706774,0.349651349799335,0.4092618054250255
1772732455319231200,10.251231201171874,-0.5168582202583551,0.41038726579099893,0.2228986913362518
1772732455329259300,10.26125927734375,-0.273471488699317,0.41050387790799137,0.13607091463222168
1772732455339287300,10.271287353515625,-0.23740473453998565,0.38541795196831224,0.07704912734837271
1772732455349314300,10.281314208984375,-0.3743535371184349,0.36817952465862036,-0.008475738647102844
1772732455359342000,10.291342041015625,-0.6136211429208517,0.40065760667622086,-0.07525779151876923
1772732455369370000,10.3013701171875,-0.8892407495647668,0.478553039522469,-0.11007451365096493
1772732455379397000,10.311397216796875,-1.132550908756256,0.5358998975977302,-0.10889167880825698
1772732455389425200,10.321425048828125,-1.3619143756598233,0.5750158101946116,-0.0022481111452856565
1772732455399452200,10.3314521484375,-1.4549965639829634,0.6374675901934505,0.09499582165842875
1772732455409480200,10.341480224609375,-1.476404093670845,0.7324938983216881,0.08486641350318677
1772732455419508200,10.35150830078125,-1.5058189887255429,0.8571303318157791,0.012433124228572704
1772732455429535200,10.36153515625,-1.4729261884272098,0.9560732288658619,-0.03588921933507081
1772732455439563300,10.371563232421876,-1.3455647138834,1.05052027580142,-0.11729423577142879
1772732455449591000,10.381591064453126,-1.1929969018906355,1.0777595803827047,-0.23048485388262197
1772732455459618000,10.3916181640625,-1.0056991373002528,1.0873834410354495,-0.25797047964148223
1772732455469646300,10.401646240234374,-0.7446341257095337,1.0689192713230848,-0.21476444818675516
1772732455479674000,10.411674072265624,-0.5050999779254198,1.0557999697700142,-0.2501074911814183
1772732455489701400,10.421701416015624,-0.3719774556368589,1.0564517116770147,-0.2890887628142722
1772732455499729200,10.431729248046874,-0.32332594519257546,1.054972579035163,-0.2690771809968166
1772732455509757200,10.441757080078125,-0.294504924377799,1.0604191540032624,-0.2867276231735013
1772732455519784200,10.4517841796875,-0.17935761924088,1.1001581669345497,-0.41331119041368364
1772732455529812200,10.461812255859375,0.03748188165426254,1.1471794458284974,-0.49734709877632555
1772732455539840300,10.47184033203125,0.3514648289620876,1.1728291431307791,-0.5124428149688989
1772732455549867300,10.4818671875,0.6937713689565658,1.1631661195114253,-0.4953365992041304
1772732455559895300,10.491895263671875,0.9820523042529821,1.106196570315957,-0.5030945563871413
1772732455569923000,10.501923095703125,1.1709288624674081,1.0607637296572328,-0.49588235998600716
1772732455579950000,10.5119501953125,1.273021455720067,0.9755018596962094,-0.4182367006497457
1772732455589978000,10.52197802734375,1.3707482549786567,0.8438131696030498,-0.28932553071221334
1772732455600006100,10.532006103515625,1.4479285252928733,0.6940057622343301,-0.13543399583501742
1772732455610033200,10.542033203125,1.517191446611285,0.5624982739269733,-0.02383436410916038
1772732455620061200,10.552061279296876,1.5641197865247725,0.46076048546135423,-0.003333491804264486
1772732455630089200,10.562089111328126,1.5335843630075454,0.3882254106044769,-0.03874528005304746
1772732455640116200,10.5721162109375,1.3873995300501585,0.33692367791235445,-0.00715416890385095
1772732455650144000,10.58214404296875,1.212798165425658,0.26397885321080683,0.053137725080782544
1772732455660171300,10.592171142578126,1.0675783781081438,0.2460840078189969,0.07732508561238646
1772732455670199000,10.602198974609376,0.954465209147334,0.19096739301383495,0.07175327682942152
1772732455680227300,10.612227294921874,0.9501087675034999,0.18720657917559147,0.04997832490152213
1772732455690254300,10.62225439453125,0.9945815309584141,0.15892974824011324,-0.055620116481045256
1772732455700282000,10.6322822265625,1.091707441714406,0.14008739286512137,-0.12361027791728264
1772732455710310100,10.64231005859375,1.1698743849784135,0.07486760945767164,-0.09152741489550098
1772732455720337200,10.652337158203125,1.067275595769286,0.01695113480091095,-0.05143402643543668
1772732455730365200,10.662365234375,0.8747872767984867,-0.0020016952112317083,-0.07062662002020514
1772732455740393200,10.672393310546875,0.5984586451023817,-0.023314824613928795,-0.1093751880088821
1772732455750420000,10.682419921875,0.42254327526986596,-0.031709143471717834,-0.14247786819823086
1772732455760448300,10.6924482421875,0.3976999259144067,-0.07367606158554553,-0.18344037677617742
1772732455770476000,10.70247607421875,0.4400841926574707,-0.06865238820463418,-0.22570470693400127
1772732455780503300,10.71250341796875,0.46791912504434585,-0.10410130272656679,-0.2166542805213481
1772732455790531000,10.722531005859375,0.48289399133622646,-0.12496171992570161,-0.160244557165727
1772732455800559400,10.732559326171875,0.4298088823586702,-0.1190431435316801,-0.0972763794768136
1772732455810586000,10.742586181640625,0.29903496902287,-0.125330260977149,-0.005050798849854618
1772732455820614100,10.7526142578125,0.07979249863922595,-0.14495061498731374,0.03970344842756167
1772732455830642200,10.76264208984375,-0.13830197075307368,-0.1537353944674134,0.06247842141059227
1772732455840669200,10.772669189453126,-0.2677969501942396,-0.12209580910056829,0.05154627290456555
1772732455850697200,10.782697265625,-0.28790625676512716,-0.11333499501794576,0.012069244510866701
1772732455860725200,10.792725341796874,-0.3044055561453104,-0.1315598030164838,-0.026901341331191358
1772732455870752000,10.802751953125,-0.3519108191639185,-0.11740531319677829,-0.025773908203840255
1772732455880780300,10.8127802734375,-0.41390579530596733,-0.1106929560765624,0.02981791376448236
1772732455890808000,10.82280810546875,-0.516474189376831,-0.17325579523444173,0.05109835560712963
1772732455900835300,10.83283544921875,-0.5907528930306434,-0.19698329230248926,0.1099677927403245
1772732455910863000,10.842863037109375,-0.659538844487071,-0.16731792961806058,0.12211880638366564
1772732455920891400,10.852891357421875,-0.570943446189165,-0.18473492836505173,0.1116168111895211
1772732455930918100,10.862918212890625,-0.30573183631300926,-0.24045710784792898,0.18952325862012803
1772732455940946200,10.8729462890625,0.01678279249668121,-0.29684038158804177,0.30929201301261783
1772732455950973200,10.88297314453125,0.29592998874485493,-0.35872312952727076,0.33506394845508036
1772732455961001200,10.893001220703125,0.45505087564289565,-0.3966097925901413,0.2354524496947415
1772732455971029200,10.903029296875,0.4446855489730835,-0.3842977157667279,0.13196581740095278
1772732455981056300,10.91305615234375,0.39059038617014885,-0.45470717677176,0.04911183056556619
1772732455991084000,10.923083984375,0.5540706373214721,-0.518270132882893,-0.06629249067287891
1772732456001112300,10.9331123046875,0.6495242309510707,-0.5147787836357951,-0.16463375030169264
1772732456011139000,10.94313916015625,0.5988152034550905,-0.5227078230693936,-0.12394247814686968
1772732456021167400,10.95316748046875,0.5228045614421367,-0.5855512327343225,-0.2064283440559171
1772732456031195100,10.963195068359376,0.21637305242717264,-0.5765577789396047,-0.05237893346957862
1772732456041222100,10.97322216796875,-0.03831833247840404,-0.6134183138251305,0.299780070035439
1772732456051250200,10.983250244140624,-0.419874348321557,-0.551750962202251,0.5904571980196982
1772732456061278200,10.9932783203125,-0.9194044171601533,-0.30616642833799124,0.9150155345514416
1772732456071305200,11.00330517578125,-1.2436983306020497,-0.10045885457098483,1.0259883304826916
1772732456081333200,11.013333251953124,-1.272056994602084,-0.4383008163720369,0.47121447679530826
1772732456091361300,11.023361328125,-1.4518430683881043,-0.7107553831137716,-0.2998288045479916
1772732456101388300,11.03338818359375,-1.7959534429341553,0.3258376357525587,0.19266520990766584
1772732456111416000,11.043416015625,-1.712685377138853,0.9692081663794815,0.264820035008993
1772732456121444400,11.0534443359375,-1.7098919470280407,1.5368356198884545,0.25933380388393995
1772732456131471000,11.06347119140625,-1.9634324083328245,1.9622328232847153,0.23441702396608888
1772732456141499400,11.07349951171875,-2.1232225727945564,2.0977248511835933,0.11391894151889718
1772732456151527200,11.083527099609375,-2.093660962745547,2.033870364779979,0.12805785931013525
1772732456161554200,11.09355419921875,-1.7499363726466892,1.9220690090700983,0.23444931880049405
1772732456171582200,11.103582275390625,-1.2117793437719344,1.853474780793488,0.4150872601754963
1772732456181610000,11.11360986328125,-0.5168085358977318,1.7402131432726977,0.5966044686030596
1772732456191636700,11.12363671875,0.2112725144177675,1.5759950793661177,0.8630626444742083
1772732456201664800,11.133664794921875,0.6932850467443465,1.239703123486042,1.071020992842689
1772732456211692800,11.14369287109375,0.9545575636059045,0.5785255718812347,0.8630128139831125
1772732456221719800,11.1537197265625,1.1354086362749338,0.11277633822187781,0.7198676409825682
1772732456231747800,11.163747802734376,1.008675522762537,0.0867326731659472,0.9353368764378129
1772732456241774800,11.17377490234375,0.8822703260302543,0.10627280154675245,1.3109750465393066
1772732456251802600,11.183802734375,0.7399976980805396,0.11245660474821924,1.7296207298487425
1772732456261831000,11.193830810546874,0.3007049480617046,0.13049042021930218,2.076070799388736
1772732456271857700,11.203857666015624,-0.29157120901346206,0.10093407086730002,2.1532751812309026
1772732456281886000,11.213885986328124,-0.7852198185980319,0.1653542283296585,2.0172417399317024
1772732456291913700,11.223913818359375,-1.2008411856502295,0.42208004167228935,1.6380812409229575
1772732456301940700,11.233940673828124,-1.5059090050965547,0.7515985578946769,1.0706165767602622
1772732456311968800,11.24396875,-1.515240897065401,0.9510516013115644,0.4369910854803398
1772732456321996800,11.253996826171875,-1.2200783855617046,1.1552234899438918,-0.09504559735059738
1772732456332023800,11.26402392578125,-0.8748357921153307,1.2582913579694925,-0.5558700148936361
1772732456342051800,11.2740517578125,-0.4495043474316597,1.187494943473488,-0.9087938835576176
1772732456352080000,11.284079833984375,0.21752865220308304,1.0356583683647216,-1.0898122756175697
1772732456362107000,11.29410693359375,0.8384235855191946,0.8714556481577456,-1.1357204056378454
1772732456372134700,11.304134765625,1.221456103655696,0.692121409792453,-1.0300129828888922
1772732456382162700,11.31416259765625,1.489594999155402,0.5188857805632054,-0.9004453766029328
1772732456392189700,11.324189697265625,1.6372078190892934,0.3810274619244039,-0.7270382632642984
1772732456402218000,11.334218017578126,1.6561393140524625,0.2196988358490169,-0.5153540993057191
1772732456412245800,11.344245849609376,1.6309727240920067,0.04097308477088809,-0.33015345312505956
1772732456422272800,11.354272705078126,1.6200304743170737,-0.05901274546086788,-0.08271543688122182
1772732456432300800,11.36430078125,1.5784762286573648,-0.08546294549107551,0.08084558788873254
1772732456442328600,11.37432861328125,1.4240063824355602,-0.10885843412578106,0.2623076685955748
1772732456452355800,11.38435595703125,1.3956506410449743,-0.12234803029596805,0.49343003493044524
1772732456462383900,11.3943837890625,1.3644675672739743,-0.14095394656658172,0.6857149768162518
1772732456472412000,11.404411865234374,1.279757485976815,-0.16915186704695223,0.7955749161347746
1772732456482439000,11.41443896484375,1.2235732419401406,-0.1989972624734044,0.7647370025396346
1772732456492466700,11.424466796875,1.1932932544887065,-0.20538374864012002,0.7571963779017329
1772732456502494700,11.43449462890625,1.1011118143975733,-0.15367460419088602,0.7195161971963941
1772732456512521700,11.444521728515625,0.9118483026921749,-0.048149406141042704,0.6226084592357277
1772732456522549800,11.4545498046875,0.6847118641883134,0.07536123819351195,0.505559960119985
1772732456532577800,11.464577880859375,0.28600422253608704,0.20437749420702456,0.36141452403571456
1772732456542604800,11.474604736328125,-0.16105682339668273,0.3200003079012036,0.22151443390361963
1772732456552632800,11.4846328125,-0.49118017364442346,0.49984161900579926,0.05935454463586211
1772732456562659800,11.494659912109375,-0.7215712300300597,0.7122723635479807,-0.10288999070804565
1772732456572688000,11.50468798828125,-0.7216483869194984,0.9148629743382334,-0.23227628561034797
1772732456582715600,11.514715576171875,-0.572282585838437,0.9750970782876014,-0.3053982752433978
1772732456592742700,11.52474267578125,-0.42118075474500655,0.8876295149758457,-0.1566313716372475
1772732456602770700,11.534770751953126,-0.3141255706489086,0.7452870366603136,0.03883267520871013
1772732456612798700,11.544798828125,-0.2960515692979097,0.6018742987647653,0.07231728565404191
1772732456622826000,11.554825927734376,-0.27359891447126866,0.45606735920906066,0.01448285412439145
1772732456632853800,11.564853759765626,-0.13671207121312617,0.36309798361063,0.027475268761627373
1772732456642881800,11.5748818359375,0.08988894523978233,0.3399275359034538,0.06945703281813767
1772732456652908800,11.58490869140625,0.20767010601162908,0.2876855997517705,0.12502967059537767
1772732456662936600,11.5949365234375,0.1821948884934187,0.13721534456014634,0.38648185487277803
1772732456672964900,11.60496484375,-0.22054653871953486,0.06147708974778652,1.038315751005709
1772732456682991600,11.61499169921875,-0.9430898286521434,0.10891600953191519,1.7378396921396255
1772732456693020000,11.62502001953125,-1.6046405974835156,0.12732289609909056,2.093308349915594
1772732456703047700,11.635047607421875,-2.020475899547338,0.1570174848780036,2.027821732265502
1772732456713074700,11.64507470703125,-2.1096751089572905,0.35071254929006096,1.6676336447522042
1772732456723102700,11.655102783203125,-1.9313158531039951,0.5633329711854458,1.1956321457650512
1772732456733130800,11.665130859375,-1.6342641668528317,0.7395882404968142,0.7229371115557849
1772732456743157800,11.67515771484375,-1.2597305969923733,0.938724619179964,0.28656728151263666
1772732456753185800,11.685185791015625,-0.9222358411937952,1.039105147817731,-0.1634848542612046
1772732456763213800,11.6952138671875,-0.7626660414844751,1.0193588293403386,-0.5234799764856696
1772732456773240800,11.70524072265625,-0.6523942334294319,0.9699053548634051,-0.7013166697695851
1772732456783268600,11.7152685546875,-0.6676625297099351,1.0084355765268207,-0.8080209215361625
1772732456793297000,11.725296875,-0.6589508154660463,1.0410583277121186,-0.871957971656695
1772732456803323600,11.73532373046875,-0.4979898536592722,1.0393570767521858,-0.8306826890688389
1772732456813352000,11.74535205078125,-0.3554699729502201,1.0275047263950108,-0.7435754104368388
1772732456823379700,11.755379638671876,-0.1824205139428377,0.9905693727076053,-0.6221831464957446
1772732456833406700,11.76540673828125,-0.044424248138070103,0.9998621017098426,-0.46623961099218575
1772732456843434800,11.775434814453124,-0.06354921984672546,1.0856792674660682,-0.3553236598147079
1772732456853462800,11.785462890625,-0.11783026061058044,1.2285790874034166,-0.33841479325294493
1772732456863489800,11.79548974609375,-0.17681085736751556,1.3326526253402233,-0.3946561743043363
1772732456873517800,11.805517822265625,-0.20089783539772033,1.3459735869452356,-0.47042182858027515
1772732456883545900,11.8155458984375,-0.15356734442412853,1.2935118705630302,-0.5102099413502961
1772732456893572900,11.82557275390625,-0.053042438879609105,1.183911678159237,-0.4788722615394741
1772732456903600600,11.8356005859375,0.09897650705873966,1.043692475607991,-0.4334872055452317
1772732456913629000,11.84562890625,0.28360709826648234,0.8521966748058796,-0.36696561882421375
1772732456923655700,11.85565576171875,0.4217787206381559,0.698569709149003,-0.4001723804425448
1772732456933684000,11.86568408203125,0.6501403170228004,0.5343474074587226,-0.3560231133209541
1772732456943710700,11.875710693359375,0.7603753001987934,0.42150779474228617,-0.2718765476580709
1772732456953738800,11.88573876953125,0.7920154700875282,0.3247051245912909,-0.29223219367284325
1772732456963766800,11.895766845703125,1.0458458542495965,0.36344723543971774,-0.5045764289753512
1772732456973793800,11.905793701171875,1.1071019947230816,0.47935997199118136,-0.5785073786374181
1772732456983821800,11.91582177734375,1.014177042788267,0.6062962068602442,-0.6975774101760238
1772732456993849900,11.925849853515626,0.9546540097177028,0.664723553648591,-0.828595653661713
1772732457003876600,11.935876708984376,0.9166443047970533,0.729819710676372,-0.883338685914129
1772732457013905000,11.94590478515625,0.8898971676468849,0.7815405455633997,-0.8542802030816674
1772732457023932700,11.9559326171875,0.8565197987020016,0.7387932907268404,-0.7409162742301821
1772732457033960000,11.9659599609375,0.8142331471145152,0.65992316762954,-0.6315436069719493
1772732457043987700,11.97598779296875,0.7068547224134206,0.5825500050917267,-0.49364561390988526
1772732457054016000,11.98601611328125,0.3998942210882902,0.5407429537147284,-0.38062034242823717
1772732457064042800,11.996042724609374,-0.09310615372061729,0.4812506080433726,-0.36869879929237065
1772732457074070800,12.00607080078125,-0.4576438147455454,0.43138621467798943,-0.2662978890092112
