time,seconds_elapsed,z,y,x
1772732445141180000,0.073179931640625,-0.09841721504926682,0.04763536527752876,0.15444548428058624
1772732445151206700,0.08320654296875,-0.07645431160926819,0.03577006608247757,0.10803867131471634
1772732445161235000,0.09323486328125,-0.05532479286193848,0.031957753002643585,0.042894016951322556
1772732445171263200,0.10326318359375,-0.029851246625185013,0.04632522538304329,-0.019995691254734993
1772732445181290200,0.113290283203125,-0.00005899782991036773,0.05799812823534012,-0.05910181626677513
1772732445191318300,0.123318359375,0.031578898429870605,0.06634935736656189,-0.07710716873407364
1772732445201346000,0.133345947265625,0.05332494154572487,0.0810294970870018,-0.10292092710733414
1772732445211373300,0.143373291015625,0.07346697896718979,0.10816628485918045,-0.13898271322250366
1772732445221401000,0.153401123046875,0.1015998125076294,0.1667422503232956,-0.16604602336883545
1772732445231428000,0.163427978515625,0.12604427337646484,0.2203369289636612,-0.1700093001127243
1772732445241456400,0.173456298828125,0.15948478877544403,0.2508801817893982,-0.17026309669017792
1772732445251484200,0.183484130859375,0.19674038887023926,0.29412785172462463,-0.18318600952625275
1772732445261511400,0.193511474609375,0.27935829758644104,0.37784406542778015,-0.2050556093454361
1772732445271539200,0.203539306640625,0.35847145318984985,0.5554715991020203,-0.2462000697851181
1772732445281567200,0.213567138671875,0.5212161540985107,0.8137697577476501,-0.33876940608024597
1772732445291594200,0.22359423828125,0.7224016785621643,1.1363567113876343,-0.422262579202652
1772732445301622300,0.233622314453125,0.7976365089416504,1.3432939052581787,-0.41719913482666016
1772732445311649300,0.243649169921875,0.7699358463287354,1.49333655834198,-0.3279336988925934
1772732445321677300,0.25367724609375,0.7024497985839844,1.5621347427368164,-0.15873029828071594
1772732445331705300,0.263705322265625,0.6714508533477783,1.6261309385299683,0.051189716905355453
1772732445341732400,0.273732421875,0.6059783697128296,1.54417884349823,0.2653968334197998
1772732445351760100,0.283760009765625,0.44048357009887695,1.3293030261993408,0.4477819800376892
1772732445361788200,0.2937880859375,0.2978750169277191,1.071540117263794,0.5263854265213013
1772732445371815200,0.303815185546875,0.2034580558538437,0.8280507922172546,0.5399629473686218
1772732445381843500,0.313843505859375,0.14594921469688416,0.5757362842559814,0.53404700756073
1772732445391870200,0.3238701171875,0.10595683753490448,0.3269808888435364,0.4958970844745636
1772732445401898200,0.333898193359375,0.09782620519399643,0.1373784989118576,0.4317178428173065
1772732445411926300,0.34392626953125,0.1378447711467743,0.01963500678539276,0.3479509651660919
1772732445421953300,0.353953369140625,0.090606689453125,-0.1901557743549347,0.2799231708049774
1772732445431981300,0.363981201171875,0.08404716849327087,-0.27924099564552307,0.21707232296466827
1772732445442009000,0.374009033203125,0.15400147438049316,-0.3100753426551819,0.17261084914207458
1772732445452036400,0.384036376953125,0.20651322603225708,-0.36599797010421753,0.15964248776435852
1772732445462064400,0.394064453125,0.23077116906642914,-0.37368226051330566,0.13176637887954712
1772732445472091100,0.404091064453125,0.2513296604156494,-0.3542676866054535,0.08171158283948898
1772732445482119400,0.414119384765625,0.2721683382987976,-0.34089940786361694,0.025469085201621056
1772732445492147200,0.424147216796875,0.28243789076805115,-0.3352714478969574,-0.03194437921047211
1772732445502174500,0.434174560546875,0.2773536443710327,-0.33586186170578003,-0.09157415479421616
1772732445512202200,0.4442021484375,0.27206331491470337,-0.34720078110694885,-0.14216575026512146
1772732445522230300,0.454230224609375,0.26324212551116943,-0.3715988099575043,-0.17241500318050385
1772732445532257300,0.46425732421875,0.24640820920467377,-0.3977859616279602,-0.16645871102809906
1772732445542285300,0.474285400390625,0.23045746982097626,-0.40270987153053284,-0.14958146214485168
1772732445552313300,0.484313232421875,0.2192355841398239,-0.39075103402137756,-0.1201876625418663
1772732445562340400,0.49434033203125,0.21042025089263916,-0.40282049775123596,-0.0904686450958252
1772732445572368400,0.504368408203125,0.20360948145389557,-0.42769569158554077,-0.06843065470457077
1772732445582395400,0.5143955078125,0.2864218056201935,-0.4067981243133545,-0.04612988233566284
1772732445592423200,0.524423095703125,0.30020350217819214,-0.3915165960788727,0.022533301264047623
1772732445602451200,0.534451171875,0.1899190992116928,-0.39015358686447144,0.09540590643882751
1772732445612478200,0.544478271484375,0.07300174981355667,-0.35980334877967834,0.10315017402172089
1772732445622506500,0.554506591796875,0.0225838553160429,-0.29303231835365295,0.11427020281553268
1772732445632534300,0.5645341796875,0.05627899989485741,-0.14091193675994873,0.14220143854618073
1772732445642561300,0.574561279296875,0.11163919419050217,0.11017753928899765,0.1647413671016693
1772732445652589300,0.58458935546875,0.13305364549160004,0.36576321721076965,0.19491291046142578
1772732445662616300,0.5946162109375,0.11652446538209915,0.5408245325088501,0.19834865629673004
1772732445672644400,0.604644287109375,0.09153176099061966,0.6320582032203674,0.18007664382457733
1772732445682672400,0.61467236328125,0.0638284906744957,0.6528042554855347,0.15448473393917084
1772732445692699100,0.62469921875,0.029270973056554794,0.640796422958374,0.1288575679063797
1772732445702727400,0.6347275390625,-0.020665960386395454,0.6013172268867493,0.10433865338563919
1772732445712755200,0.644755126953125,-0.09030377864837646,0.5265398621559143,0.05227341875433922
1772732445722782500,0.654782470703125,-0.07905405759811401,0.6303783655166626,-0.012990807183086872
1772732445732810200,0.664810302734375,-0.03376620635390282,0.6693320870399475,-0.02684623748064041
1772732445742837200,0.674837158203125,-0.025646226480603218,0.5897480249404907,0.03256622329354286
1772732445752865300,0.684865234375,-0.041549842804670334,0.4813096225261688,0.13877049088478088
1772732445762893300,0.694893310546875,-0.0628492683172226,0.3722028434276581,0.28169089555740356
1772732445772920300,0.70492041015625,-0.09291039407253265,0.2866913974285126,0.41866666078567505
1772732445782948400,0.7149482421875,-0.12781670689582825,0.21389040350914001,0.50944584608078
1772732445792976400,0.724976318359375,-0.13274241983890533,0.15131054818630219,0.524368166923523
1772732445803003400,0.73500341796875,-0.13095968961715698,0.12444456666707993,0.4513586759567261
1772732445813031200,0.74503125,-0.13740819692611694,0.13162167370319366,0.34872639179229736
1772732445823058400,0.755058349609375,-0.1420080065727234,0.169720858335495,0.2583672106266022
1772732445833086200,0.765086181640625,-0.12266668677330017,0.23965570330619812,0.20863167941570282
1772732445843114500,0.775114501953125,-0.10248978435993195,0.3006599247455597,0.19264152646064758
1772732445853141200,0.785141357421875,-0.0824541300535202,0.30366694927215576,0.18932048976421356
1772732445863169300,0.795169189453125,-0.08783824741840363,0.28396621346473694,0.1823454052209854
1772732445873197300,0.805197265625,-0.10911726206541061,0.2314625233411789,0.17279286682605743
1772732445883224300,0.815224365234375,-0.14351704716682434,0.13590377569198608,0.17770160734653473
1772732445893252400,0.82525244140625,-0.1955270916223526,0.00697618443518877,0.23190458118915558
1772732445903280400,0.8352802734375,-0.2611335217952728,-0.13330689072608948,0.3252781927585602
1772732445913307100,0.84530712890625,-0.32866552472114563,-0.2428656369447708,0.42358624935150146
1772732445923335400,0.85533544921875,-0.3936556875705719,-0.3258979320526123,0.5031923651695251
1772732445933362200,0.865362060546875,-0.4355473816394806,-0.39408159255981445,0.543810248374939
1772732445943390500,0.875390380859375,-0.45136016607284546,-0.43603941798210144,0.5246142148971558
1772732445953418200,0.885418212890625,-0.46282005310058594,-0.46390098333358765,0.47156059741973877
1772732445963445200,0.8954453125,-0.4607590436935425,-0.4782849848270416,0.41358888149261475
1772732445973473300,0.905473388671875,-0.45441630482673645,-0.44551077485084534,0.3624812066555023
1772732445983501300,0.915501220703125,-0.44772830605506897,-0.37862521409988403,0.3086073100566864
1772732445993528300,0.9255283203125,-0.4386344850063324,-0.2890690267086029,0.26787737011909485
1772732446003556400,0.935556396484375,-0.4142710864543915,-0.19712205231189728,0.24801231920719147
1772732446013583000,0.9455830078125,-0.3882386386394501,-0.10720916837453842,0.25603416562080383
1772732446023611400,0.955611328125,-0.3573339879512787,-0.046792156994342804,0.2787211239337921
1772732446033639200,0.96563916015625,-0.3192605674266815,-0.02146785706281662,0.3077414631843567
1772732446043666400,0.97566650390625,-0.2663520872592926,-0.024463646113872528,0.2964179813861847
1772732446053694200,0.985694091796875,-0.18905149400234222,-0.03833076357841492,0.22260405123233795
1772732446063722500,0.995722412109375,-0.10536246001720428,-0.062454476952552795,0.09370119124650955
1772732446073749200,1.005749267578125,-0.018881279975175858,-0.11328421533107758,-0.041875459253787994
1772732446083777300,1.01577734375,0.07529368996620178,-0.20303328335285187,-0.16456462442874908
1772732446093804300,1.02580419921875,0.16231481730937958,-0.2884604334831238,-0.267173171043396
1772732446103832300,1.035832275390625,0.23256874084472656,-0.37313830852508545,-0.3103906810283661
1772732446113860400,1.0458603515625,0.2879549264907837,-0.46187499165534973,-0.33046668767929077
1772732446123887400,1.055887451171875,0.3260594606399536,-0.5297414064407349,-0.3378013074398041
1772732446133915100,1.0659150390625,0.3396400809288025,-0.5660590529441833,-0.32619839906692505
1772732446143943400,1.075943359375,0.3345678150653839,-0.5762373805046082,-0.29807010293006897
1772732446153970200,1.08597021484375,0.31377753615379333,-0.5549450516700745,-0.2666114568710327
1772732446163998000,1.095998046875,0.2993716895580292,-0.4991781711578369,-0.23886877298355103
1772732446174024700,1.106024658203125,0.29573068022727966,-0.4146267771720886,-0.24056585133075714
1772732446184052700,1.116052734375,0.2981560230255127,-0.33469733595848083,-0.2567887604236603
1772732446194080800,1.126080810546875,0.2979900538921356,-0.2607120871543884,-0.2764859199523926
1772732446204107800,1.136107666015625,0.34810301661491394,-0.1306946873664856,-0.2977176904678345
1772732446214135800,1.1461357421875,0.4040522575378418,0.025038516148924828,-0.32671043276786804
1772732446224163800,1.156163818359375,0.3992455303668976,0.12261594831943512,-0.36603066325187683
1772732446234190600,1.166190673828125,0.4318810701370239,0.37843194603919983,-0.4061998128890991
1772732446244219000,1.176218994140625,0.5505307912826538,0.7163743376731873,-0.4055231213569641
1772732446254246700,1.18624658203125,0.6970421671867371,1.1740580797195435,-0.34482595324516296
1772732446264274000,1.19627392578125,0.6994121074676514,1.380292296409607,-0.20271700620651245
1772732446274301700,1.2063017578125,0.5347177982330322,1.4097222089767456,0.01963631436228752
1772732446284328700,1.21632861328125,0.39731860160827637,1.5578423738479614,0.2563870847225189
1772732446294356700,1.226356689453125,0.37250959873199463,1.6682757139205933,0.4397885203361511
1772732446304384800,1.236384765625,0.4355545938014984,1.6712006330490112,0.5473762154579163
1772732446314411800,1.246411865234375,0.5193312764167786,1.5181365013122559,0.567389190196991
1772732446324439800,1.256439697265625,0.5887966156005859,1.0768680572509766,0.3643963932991028
1772732446334467800,1.2664677734375,0.45934808254241943,0.7422016263008118,0.05056031793355942
1772732446344494800,1.276494873046875,0.2256849855184555,0.35881245136260986,-0.2380235493183136
1772732446354522600,1.286522705078125,0.0154331736266613,-0.051633208990097046,-0.4260510504245758
1772732446364550000,1.2965498046875,-0.11260548233985901,-0.31918877363204956,-0.48844465613365173
1772732446374577700,1.30657763671875,-0.16453099250793457,-0.3959216773509979,-0.44853776693344116
1772732446384606000,1.31660595703125,-0.20824013650417328,-0.36685487627983093,-0.3404805660247803
1772732446394632700,1.3266328125,-0.26110324263572693,-0.31509146094322205,-0.20355063676834106
1772732446404660700,1.33666064453125,-0.30933016538619995,-0.30346331000328064,-0.0932808518409729
1772732446414688800,1.346688720703125,-0.34302374720573425,-0.30201274156570435,-0.023497067391872406
1772732446424715800,1.3567158203125,-0.3564074635505676,-0.3348233997821808,0.034576889127492905
1772732446434743800,1.366743896484375,-0.3557775616645813,-0.38557204604148865,0.06870544701814651
1772732446444770800,1.376770751953125,-0.35455945134162903,-0.4065968990325928,0.06379936635494232
1772732446454798600,1.386798583984375,-0.37079983949661255,-0.38129085302352905,0.030405547469854355
1772732446464827000,1.396826904296875,-0.38543975353240967,-0.32854536175727844,0.002898289356380701
1772732446474853600,1.406853515625,-0.38079068064689636,-0.26996636390686035,0.004941135179251432
1772732446484882000,1.4168818359375,-0.38436996936798096,-0.3006265163421631,0.05315793305635452
1772732446494909700,1.42690966796875,-0.39423316717147827,-0.41481921076774597,0.12398645281791687
1772732446504936700,1.436936767578125,-0.3913455009460449,-0.4846166670322418,0.18891432881355286
1772732446514964700,1.44696484375,-0.362933486700058,-0.5488317608833313,0.22786180675029755
1772732446524992800,1.45699267578125,-0.34500402212142944,-0.6583564281463623,0.24561764299869537
1772732446535019800,1.467019775390625,-0.34148749709129333,-0.7930017113685608,0.25019145011901855
1772732446545047800,1.4770478515625,-0.28989964723587036,-0.9430474042892456,0.20795877277851105
1772732446555074800,1.48707470703125,-0.2712188959121704,-1.1120508909225464,0.15360012650489807
1772732446565102800,1.497102783203125,-0.3112155795097351,-1.302013874053955,0.09338552504777908
1772732446575130600,1.507130615234375,-0.4108242094516754,-1.4197700023651123,-0.009891008958220482
1772732446585158000,1.517157958984375,-0.5134547352790833,-1.4281872510910034,-0.21435412764549255
1772732446595185700,1.527185546875,-0.5659316778182983,-1.2972546815872192,-0.5360226631164551
1772732446605212700,1.537212646484375,-0.5778223872184753,-0.9663611650466919,-0.938967227935791
1772732446615240700,1.54724072265625,-0.6331660747528076,-0.430071085691452,-1.280793309211731
1772732446625268700,1.557268798828125,-0.6353322863578796,0.07029107213020325,-1.4170297384262085
1772732446635295700,1.567295654296875,-0.5699888467788696,0.4117717444896698,-1.2386680841445923
1772732446645323800,1.57732373046875,-0.4962077736854553,0.49807336926460266,-0.8309415578842163
1772732446655351800,1.587351806640625,-0.4582391083240509,0.4569881856441498,-0.347037136554718
1772732446665378800,1.59737890625,-0.49385011196136475,0.3443732261657715,0.04172578454017639
1772732446675406600,1.607406494140625,-0.614674985408783,0.19386546313762665,0.2775653004646301
1772732446685435000,1.617434814453125,-0.7474921345710754,0.018257413059473038,0.38471946120262146
1772732446695461600,1.627461669921875,-0.8291076421737671,-0.16481949388980865,0.39746540784835815
1772732446705490000,1.637489990234375,-0.8599351048469543,-0.25416669249534607,0.3671383857727051
1772732446715517000,1.647516845703125,-0.8334608674049377,-0.23683425784111023,0.3333132565021515
1772732446725544700,1.657544677734375,-0.7612766623497009,-0.16178132593631744,0.323490709066391
1772732446735572700,1.66757275390625,-0.6737360954284668,-0.04323805868625641,0.3313989043235779
1772732446745599700,1.677599853515625,-0.5816882252693176,0.08179042488336563,0.36739739775657654
1772732446755627800,1.687627685546875,-0.5230228304862976,0.14767585694789886,0.4161601960659027
1772732446765655800,1.69765576171875,-0.4920084476470947,0.16222338378429413,0.4533970355987549
1772732446775682600,1.7076826171875,-0.47199225425720215,0.14631372690200806,0.4428672194480896
1772732446785710800,1.7177109375,-0.465732216835022,0.11755025386810303,0.36199793219566345
1772732446795737900,1.72773779296875,-0.48580029606819153,0.04753278195858002,0.25939735770225525
1772732446805766000,1.737765869140625,-0.50172358751297,-0.007411159574985504,0.16870607435703278
1772732446815793700,1.747793701171875,-0.4903084933757782,-0.017293261364102364,0.11202788352966309
1772732446825821000,1.757821044921875,-0.4477604925632477,-0.01040606014430523,0.0931902751326561
1772732446835848700,1.7678486328125,-0.3855869174003601,0.008574158884584904,0.0672227144241333
1772732446845876700,1.777876708984375,-0.3542923927307129,0.03091435320675373,0.03200747072696686
1772732446855903700,1.78790380859375,-0.35652846097946167,0.06286119669675827,0.006759077776223421
1772732446865931800,1.797931884765625,-0.3593338429927826,0.12604576349258423,0.030956827104091644
1772732446875959000,1.807958984375,-0.34005868434906006,0.19268444180488586,0.10356604307889938
1772732446885986800,1.81798681640625,-0.30849188566207886,0.22252441942691803,0.1949751377105713
1772732446896014600,1.8280146484375,-0.27884602546691895,0.20490191876888275,0.27678000926971436
1772732446906041900,1.838041748046875,-0.2585356831550598,0.12704786658287048,0.34135448932647705
1772732446916069600,1.848069580078125,-0.2385188639163971,0.018860815092921257,0.4092194139957428
1772732446926098000,1.858097900390625,-0.19767983257770538,-0.09625779092311859,0.4441552758216858
1772732446936125000,1.868125,-0.13996270298957825,-0.1649385392665863,0.44519802927970886
1772732446946152700,1.878152587890625,-0.07326357811689377,-0.17117299139499664,0.41074419021606445
1772732446956180700,1.8881806640625,-0.014502402395009995,-0.11980906128883362,0.3620707094669342
1772732446966207700,1.898207763671875,0.042291637510061264,-0.04148336499929428,0.2920306622982025
1772732446976235800,1.90823583984375,0.07634289562702179,0.022865213453769684,0.21003499627113342
1772732446986262800,1.9182626953125,0.09473414719104767,0.02905120514333248,0.13485954701900482
1772732446996290800,1.928290771484375,0.1110297366976738,0.01773727685213089,0.08151675760746002
1772732447006318800,1.93831884765625,0.12925773859024048,-0.0022734482772648335,0.04696197807788849
1772732447016345900,1.948345947265625,0.14763452112674713,-0.046039897948503494,0.012343989685177803
1772732447026374000,1.958373779296875,0.14751547574996948,-0.11382213979959488,-0.020752178505063057
1772732447036401700,1.968401611328125,0.14162170886993408,-0.18177904188632965,-0.03527158498764038
1772732447046429000,1.978428955078125,0.14364224672317505,-0.24636629223823547,-0.04331566393375397
1772732447056456700,1.988456787109375,0.1808856874704361,-0.29570192098617554,-0.08332634717226028
1772732447066483700,1.998483642578125,0.2394198328256607,-0.33512285351753235,-0.1663658320903778
1772732447076511700,2.00851171875,0.29642435908317566,-0.3888307511806488,-0.2706815004348755
1772732447086539800,2.018539794921875,0.3307349383831024,-0.4604061245918274,-0.34890225529670715
1772732447096567000,2.028567138671875,0.3538039028644562,-0.5426557064056396,-0.36821550130844116
1772732447106594800,2.0385947265625,0.3601294457912445,-0.6157752275466919,-0.3617432117462158
1772732447116622800,2.048622802734375,0.3391161859035492,-0.6746113300323486,-0.3692755103111267
1772732447126649900,2.05864990234375,0.2839629352092743,-0.7085801959037781,-0.4141428470611572
1772732447136677600,2.068677734375,0.21952471137046814,-0.6277933716773987,-0.4649354815483093
1772732447146705000,2.078704833984375,0.15240105986595154,-0.44408270716667175,-0.49018117785453796
1772732447156732700,2.088732666015625,0.1046518087387085,-0.20390674471855164,-0.5119104981422424
1772732447166760700,2.0987607421875,0.13939699530601501,0.005766317248344421,-0.5657178163528442
1772732447176787700,2.10878759765625,0.16140148043632507,0.20075781643390656,-0.6238489747047424
1772732447186815700,2.118815673828125,0.059246353805065155,0.40068238973617554,-0.6615018248558044
1772732447196843500,2.128843505859375,-0.09367017447948456,0.6323807239532471,-0.6781357526779175
1772732447206870800,2.138870849609375,-0.20228266716003418,0.8466682434082031,-0.6406933069229126
1772732447216898600,2.148898681640625,-0.21434804797172546,0.9384875893592834,-0.5402587056159973
1772732447226925600,2.158925537109375,-0.20560862123966217,0.8941693902015686,-0.38747474551200867
1772732447236953900,2.168953857421875,-0.22751305997371674,0.7766000628471375,-0.22232958674430847
1772732447246981600,2.178981689453125,-0.27504464983940125,0.6329196095466614,-0.10152008384466171
1772732447257009000,2.1890087890625,-0.32032743096351624,0.4978041648864746,-0.031642261892557144
1772732447267036700,2.19903662109375,-0.33389729261398315,0.3897150158882141,-0.00573795847594738
1772732447277064400,2.209064453125,-0.32144150137901306,0.29426437616348267,-0.005632521118968725
1772732447287091700,2.219091796875,-0.2757669687271118,0.2705710530281067,-0.036637578159570694
1772732447297119700,2.22911962890625,-0.21207991242408752,0.2934214770793915,-0.0647420585155487
1772732447307147800,2.239147705078125,-0.12763534486293793,0.348710298538208,-0.0689929947257042
1772732447317174800,2.2491748046875,-0.031520549207925797,0.4174303114414215,-0.04509246349334717
1772732447327202800,2.259202880859375,0.06955254077911377,0.485614150762558,0.0090517308562994
1772732447337229800,2.269229736328125,0.15447860956192017,0.5155256986618042,0.08545063436031342
1772732447347257600,2.279257568359375,0.20973201096057892,0.4732200801372528,0.1533210277557373
1772732447357285600,2.28928564453125,0.21348856389522552,0.387593150138855,0.21669676899909973
1772732447367312600,2.299312744140625,0.15274612605571747,0.25646868348121643,0.3064817786216736
1772732447377340700,2.309340576171875,0.06871979683637619,0.09843903034925461,0.43433213233947754
1772732447387368700,2.31936865234375,-0.012974264100193977,-0.03233123570680618,0.5650661587715149
1772732447397395700,2.329395751953125,-0.09864345192909241,-0.1268255114555359,0.6717007160186768
1772732447407423700,2.339423828125,-0.18413598835468292,-0.20381030440330505,0.7527881264686584
1772732447417450800,2.34945068359375,-0.25746726989746094,-0.23361563682556152,0.8289450407028198
1772732447427478800,2.359478759765625,-0.29734116792678833,-0.2119995653629303,0.9079506397247314
1772732447437506600,2.369506591796875,-0.30200180411338806,-0.15371225774288177,0.986230194568634
1772732447447533600,2.379533447265625,-0.2704952657222748,-0.074111707508564,1.0212490558624268
1772732447457561900,2.389561767578125,-0.23854413628578186,0.02293955534696579,1.010434627532959
1772732447467589600,2.399589599609375,-0.21098388731479645,0.09617488086223602,0.9578260183334351
1772732447477617000,2.409616943359375,-0.17119036614894867,0.14465323090553284,0.8543261885643005
1772732447487644700,2.419644775390625,-0.11576919257640839,0.18181177973747253,0.7114931344985962
1772732447497671700,2.429671630859375,-0.05687839910387993,0.1880648136138916,0.5415199995040894
1772732447507699700,2.43969970703125,0.015580353327095509,0.18697771430015564,0.36583954095840454
1772732447517727500,2.4497275390625,0.10040793567895889,0.16415932774543762,0.19617635011672974
1772732447527754800,2.459754638671875,0.20075958967208862,0.12374720722436905,0.033875059336423874
1772732447537782800,2.46978271484375,0.3119516968727112,0.06439188122749329,-0.1099075898528099
1772732447547810800,2.479810791015625,0.4090454876422882,-0.010604063048958778,-0.22893118858337402
1772732447557837800,2.489837890625,0.47482120990753174,-0.0934649184346199,-0.3262287974357605
1772732447567865600,2.499865478515625,0.5206182599067688,-0.14911726117134094,-0.4110685884952545
1772732447577893600,2.5098935546875,0.5378589630126953,-0.17653827369213104,-0.4687733054161072
1772732447587920600,2.519920654296875,0.533765435218811,-0.20990608632564545,-0.4854510724544525
1772732447597948700,2.52994873046875,0.51496821641922,-0.2426375448703766,-0.47291675209999084
1772732447607975700,2.5399755859375,0.47298774123191833,-0.26397719979286194,-0.4415209889411926
1772732447618003700,2.550003662109375,0.425033837556839,-0.28554344177246094,-0.4119168221950531
1772732447628031700,2.56003173828125,0.38047540187835693,-0.2886987626552582,-0.3757553696632385
1772732447638058800,2.570058837890625,0.3499586880207062,-0.27452123165130615,-0.3389287292957306
1772732447648086800,2.580086669921875,0.32528558373451233,-0.23961836099624634,-0.3168623149394989
1772732447658114600,2.590114501953125,0.2841389775276184,-0.18709370493888855,-0.3020956814289093
1772732447668141600,2.6001416015625,0.24744434654712677,-0.12507641315460205,-0.28851649165153503
1772732447678169600,2.610169677734375,0.23872454464435577,-0.05687849968671799,-0.2702925503253937
1772732447688196600,2.620196533203125,0.26463231444358826,0.010934369638562202,-0.2587466835975647
1772732447698225000,2.630224853515625,0.29783982038497925,0.05086912959814072,-0.2556210458278656
1772732447708252700,2.640252685546875,0.32695484161376953,0.0680457279086113,-0.2514694631099701
1772732447718279700,2.65027978515625,0.3603632152080536,0.07401212304830551,-0.2012828290462494
1772732447728307700,2.6603076171875,0.37745431065559387,0.07267628610134125,-0.05982610210776329
1772732447738335500,2.67033544921875,0.394107460975647,0.03829924017190933,0.15867264568805695
1772732447748362800,2.68036279296875,0.38515231013298035,-0.023952152580022812,0.3650292754173279
1772732447758390800,2.690390869140625,0.3240348994731903,-0.12693652510643005,0.5257753133773804
1772732447768417500,2.70041748046875,0.23651328682899475,-0.2447289377450943,0.6145464777946472
1772732447778445800,2.71044580078125,0.15659628808498383,-0.3861999809741974,0.6163815259933472
1772732447788473600,2.7204736328125,0.10377302020788193,-0.5326208472251892,0.5355146527290344
1772732447798500900,2.7305009765625,0.05797634273767471,-0.6641986966133118,0.42314207553863525
1772732447808528600,2.740528564453125,0.03033246472477913,-0.8017757534980774,0.33664870262145996
1772732447818556700,2.750556640625,0.01716170832514763,-0.8841829895973206,0.2815561294555664
1772732447828583700,2.760583740234375,0.017238406464457512,-0.8626763224601746,0.23742994666099548
1772732447838611700,2.77061181640625,0.027283677831292152,-0.7312668561935425,0.19044549763202667
1772732447848639700,2.7806396484375,0.047515712678432465,-0.5680542588233948,0.14310115575790405
1772732447858666800,2.790666748046875,0.06693283468484879,-0.4301671087741852,0.1179315596818924
1772732447868694800,2.80069482421875,0.06578900665044785,-0.3309670388698578,0.10967975109815598
1772732447878721800,2.8107216796875,0.0453825518488884,-0.2813061475753784,0.1111188605427742
1772732447888749600,2.82074951171875,0.01928224042057991,-0.2814007103443146,0.10356587171554565
1772732447898777600,2.830777587890625,-0.026137392967939377,-0.3134649991989136,0.0990050807595253
1772732447908804600,2.8408046875,-0.08919758349657059,-0.36476200819015503,0.09867671877145767
1772732447918833000,2.8508330078125,-0.15177924931049347,-0.41103851795196533,0.09991873055696487
1772732447928860700,2.860860595703125,-0.2057114541530609,-0.4089828133583069,0.09931498765945435
1772732447938887700,2.8708876953125,-0.23593255877494812,-0.3602501153945923,0.09922376275062561
1772732447948915700,2.880915771484375,-0.2477058619260788,-0.27590808272361755,0.10618286579847336
1772732447958942700,2.890942626953125,-0.24665530025959015,-0.17465107142925262,0.1383376568555832
1772732447968970800,2.900970703125,-0.2442701756954193,-0.09123419970273972,0.21894702315330505
1772732447978998800,2.910998779296875,-0.24161916971206665,-0.045073505491018295,0.32708483934402466
1772732447989025500,2.921025634765625,-0.25831905007362366,-0.0134221026673913,0.4292902946472168
1772732447999053800,2.9310537109375,-0.30665770173072815,0.023103073239326477,0.4675641357898712
1772732448009081600,2.94108154296875,-0.3572748005390167,0.02606717124581337,0.4385868310928345
1772732448019108900,2.95110888671875,-0.4043726921081543,-0.014415214769542217,0.32394981384277344
1772732448029136600,2.96113671875,-0.42561352252960205,-0.005800954066216946,0.1649244725704193
1772732448039163600,2.97116357421875,-0.384377121925354,0.013533947989344597,-0.0169084370136261
1772732448049191700,2.981191650390625,-0.28685587644577026,0.017660517245531082,-0.20085057616233826
1772732448059219700,2.9912197265625,-0.16470836102962494,0.04738491773605347,-0.3997686505317688
1772732448069246700,3.001246826171875,-0.07591884583234787,0.10885680466890335,-0.5700522065162659
1772732448079274800,3.011274658203125,-0.03715874254703522,0.1506030261516571,-0.6410119533538818
1772732448089302800,3.021302734375,-0.013418260030448437,0.10455537587404251,-0.586685061454773
1772732448099329800,3.031329833984375,-0.031066259369254112,-0.010795998387038708,-0.42311447858810425
1772732448109357600,3.041357666015625,-0.09645166248083115,-0.13637788593769073,-0.21856479346752167
1772732448119384800,3.051384765625,-0.21231436729431152,-0.26597413420677185,-0.008002236485481262
1772732448129412600,3.06141259765625,-0.34529611468315125,-0.42025718092918396,0.1774003803730011
1772732448139441000,3.07144091796875,-0.481062650680542,-0.6029399037361145,0.3223899304866791
1772732448149467600,3.081467529296875,-0.5905731916427612,-0.7507056593894958,0.4119722843170166
1772732448159495700,3.09149560546875,-0.6454571485519409,-0.8196146488189697,0.43096429109573364
1772732448169523500,3.1015234375,-0.666586697101593,-0.817943811416626,0.38695022463798523
1772732448179550500,3.111550537109375,-0.5788407921791077,-0.7216835021972656,0.28177011013031006
1772732448189578200,3.121578125,-0.521427571773529,-0.5864673852920532,0.23429739475250244
1772732448199606500,3.1316064453125,-0.5179333686828613,-0.42796605825424194,0.055027805268764496
1772732448209633300,3.14163330078125,-0.6050248742103577,-0.14787288010120392,-0.13240814208984375
1772732448219661600,3.15166162109375,-0.6488316059112549,0.026832304894924164,-0.2788139283657074
1772732448229688300,3.161688232421875,-0.6195323467254639,0.18819350004196167,-0.34839701652526855
1772732448239716400,3.17171630859375,-0.5463561415672302,0.35086193680763245,-0.37545257806777954
1772732448249744400,3.181744384765625,-0.4716097414493561,0.48893484473228455,-0.3855885863304138
1772732448259771400,3.191771484375,-0.40589168667793274,0.5779688358306885,-0.38227060437202454
1772732448269799400,3.20179931640625,-0.33240386843681335,0.6491604447364807,-0.37063685059547424
1772732448279827500,3.211827392578125,-0.2501889169216156,0.6738193035125732,-0.34518927335739136
1772732448289854200,3.221854248046875,-0.17794987559318542,0.6401204466819763,-0.3038197457790375
1772732448299882500,3.231882568359375,-0.12799496948719025,0.5601646900177002,-0.26063603162765503
1772732448309909200,3.2419091796875,-0.10451653599739075,0.43312522768974304,-0.22369664907455444
1772732448319937500,3.2519375,-0.10769112408161163,0.2597382068634033,-0.18498636782169342
1772732448329965300,3.26196533203125,-0.12559156119823456,0.07538674026727676,-0.1464051455259323
1772732448339992300,3.271992431640625,-0.14279665052890778,-0.06674882769584656,-0.10870090872049332
1772732448350020400,3.282020263671875,-0.14244085550308228,-0.15890245139598846,-0.08970538526773453
1772732448360048400,3.29204833984375,-0.1355147808790207,-0.2225734144449234,-0.08480936288833618
1772732448370075400,3.302075439453125,-0.13477841019630432,-0.25239843130111694,-0.08134592324495316
1772732448380103400,3.312103515625,-0.11940199881792068,-0.23845350742340088,-0.06955448538064957
1772732448390131500,3.32213134765625,-0.08966327458620071,-0.18408668041229248,-0.05511721968650818
1772732448400158500,3.332158447265625,-0.0525970384478569,-0.098946213722229,-0.04286985099315643
1772732448410186200,3.342186279296875,-0.008542231284081936,0.021469412371516228,-0.0483999028801918
1772732448420213500,3.352213623046875,0.030353643000125885,0.1296977996826172,-0.07219847291707993
1772732448430241300,3.3622412109375,0.06627675890922546,0.15048085153102875,-0.09325768798589706
1772732448440269600,3.37226953125,0.08013507723808289,0.12252359837293625,-0.1151222363114357
1772732448450296300,3.38229638671875,0.08885160833597183,0.09951362013816833,-0.12381665408611298
1772732448460324400,3.392324462890625,0.0981173887848854,0.08635298162698746,-0.1151893138885498
1772732448470352400,3.402352294921875,0.11779654771089554,0.09300076216459274,-0.10088227689266205
1772732448480379400,3.41237939453125,0.14358621835708618,0.10335782915353775,-0.09807220846414566
1772732448490407400,3.422407470703125,0.16080382466316223,0.11491887271404266,-0.11708265542984009
1772732448500434400,3.432434326171875,0.18262162804603577,0.1317456066608429,-0.14376217126846313
1772732448510462200,3.442462158203125,0.21204982697963715,0.16115835309028625,-0.16208870708942413
1772732448520490500,3.452490478515625,0.24124208092689514,0.20360153913497925,-0.16399267315864563
1772732448530517200,3.462517333984375,0.2564077079296112,0.2346622496843338,-0.14387941360473633
1772732448540545500,3.472545654296875,0.25618764758110046,0.24300920963287354,-0.10773954540491104
1772732448550573300,3.4825732421875,0.2502727508544922,0.2609434723854065,-0.0664064884185791
1772732448560600300,3.492600341796875,0.25301212072372437,0.30257660150527954,-0.03708886355161667
1772732448570628400,3.50262841796875,0.2718489468097687,0.37499886751174927,-0.02560105174779892
1772732448580656400,3.512656494140625,0.29745277762413025,0.4293361008167267,-0.026407338678836823
1772732448590683400,3.522683349609375,0.329861044883728,0.45519378781318665,-0.0344703234732151
1772732448600711400,3.53271142578125,0.3648169934749603,0.46334943175315857,-0.050340015441179276
1772732448610738200,3.54273828125,0.39238739013671875,0.4628186523914337,-0.07937192916870117
1772732448620766500,3.552766357421875,0.4159812033176422,0.4407224953174591,-0.132478266954422
1772732448630794200,3.562794189453125,0.42798566818237305,0.39465194940567017,-0.20520758628845215
1772732448640821500,3.572821533203125,0.4286364018917084,0.3197190761566162,-0.2765386700630188
1772732448650849300,3.582849365234375,0.4272717833518982,0.2228255569934845,-0.323703795671463
1772732448660877600,3.592877685546875,0.4178674817085266,0.13156507909297943,-0.3264543414115906
1772732448670904300,3.602904296875,0.40047386288642883,0.07047083973884583,-0.2920401692390442
1772732448680932400,3.612932373046875,0.3716511130332947,0.009721636772155762,-0.23201248049736023
1772732448690959400,3.62295947265625,0.326643168926239,-0.052544135600328445,-0.17815963923931122
1772732448700987400,3.6329873046875,0.2804889976978302,-0.07049217820167542,-0.16746485233306885
1772732448711015400,3.643015380859375,0.2376307249069214,-0.058867476880550385,-0.17944055795669556
1772732448721042400,3.65304248046875,0.21989309787750244,-0.05879051983356476,-0.20742236077785492
1772732448731070200,3.6630703125,0.2460687756538391,-0.005135547369718552,-0.2573038935661316
1772732448741098500,3.673098388671875,0.30783089995384216,0.14262858033180237,-0.3137769103050232
1772732448751125200,3.683125244140625,0.3882213532924652,0.32323136925697327,-0.35467347502708435
1772732448761153500,3.693153564453125,0.46778902411460876,0.4575378894805908,-0.37550315260887146
1772732448771181300,3.703181396484375,0.5205987095832825,0.5633623600006104,-0.40071237087249756
1772732448781208300,3.713208251953125,0.5392876863479614,0.6646654009819031,-0.43843281269073486
1772732448791236400,3.723236328125,0.5433860421180725,0.7174848914146423,-0.47567126154899597
1772732448801263400,3.733263427734375,0.5353515148162842,0.7115616798400879,-0.47871318459510803
1772732448811291400,3.74329150390625,0.5005722641944885,0.6473091840744019,-0.4434129595756531
1772732448821319400,3.7533193359375,0.43381384015083313,0.5095106959342957,-0.3575994372367859
1772732448831346200,3.76334619140625,0.3303649425506592,0.3058560788631439,-0.21897044777870178
1772732448841374500,3.77337451171875,0.20500612258911133,0.10224778205156326,-0.025980055332183838
1772732448851402200,3.78340234375,0.09154187142848969,-0.04935266077518463,0.1949227750301361
1772732448861429500,3.793429443359375,0.03374109044671059,-0.12724290788173676,0.39514631032943726
1772732448871457300,3.803457275390625,0.022058602422475815,-0.10640180855989456,0.516957700252533
1772732448881484500,3.813484619140625,0.012486307881772518,-0.01124179270118475,0.5541673302650452
1772732448891512300,3.82351220703125,-0.009866934269666672,0.11739607900381088,0.5314950346946716
1772732448901540400,3.833540283203125,-0.019406987354159355,0.24678346514701843,0.4792943000793457
1772732448911567400,3.8435673828125,-0.009369799867272377,0.37462398409843445,0.4204949140548706
1772732448921595400,3.853595458984375,0.010865508578717709,0.4620456099510193,0.36051687598228455
1772732448931623400,3.86362353515625,0.04255019873380661,0.5035709738731384,0.2906017005443573
1772732448941650400,3.873650390625,0.07678786665201187,0.4981974959373474,0.2186187505722046
1772732448951678200,3.88367822265625,0.12419532984495163,0.43964365124702454,0.14232078194618225
1772732448961706500,3.89370654296875,0.17204740643501282,0.35278165340423584,0.0609675757586956
1772732448971733200,3.903733154296875,0.2168700098991394,0.23439723253250122,-0.024646930396556854
1772732448981761500,3.913761474609375,0.2545199692249298,0.09135924279689789,-0.10099775344133377
1772732448991788300,3.923788330078125,0.2928242087364197,-0.03874709829688072,-0.17227964103221893
1772732449001816300,3.93381640625,0.3303673267364502,-0.11984951049089432,-0.23473498225212097
1772732449011844400,3.94384423828125,0.35390859842300415,-0.14500519633293152,-0.27726858854293823
1772732449021871400,3.953871337890625,0.37324514985084534,-0.136176198720932,-0.3161241412162781
1772732449031899400,3.9638994140625,0.3923594653606415,-0.11272865533828735,-0.35487818717956543
1772732449041927400,3.973927490234375,0.4046100676059723,-0.08641397207975388,-0.3827721178531647
1772732449051954400,3.983954345703125,0.4253121614456177,-0.057953301817178726,-0.40047335624694824
1772732449061982500,3.993982421875,0.44111064076423645,-0.044544994831085205,-0.4059211015701294
1772732449072009200,4.00400927734375,0.45024073123931885,-0.043952442705631256,-0.40168774127960205
1772732449082037500,4.01403759765625,0.43940067291259766,-0.043223123997449875,-0.3685299754142761
1772732449092065300,4.024065185546875,0.40867072343826294,-0.02591949701309204,-0.31139132380485535
1772732449102092500,4.034092529296875,0.3746020197868347,-0.005581607110798359,-0.237189382314682
1772732449112120300,4.044120361328125,0.33127984404563904,0.012758783996105194,-0.14951039850711823
1772732449122148400,4.0541484375,0.2807789444923401,0.01908411644399166,-0.0731596052646637
1772732449132175400,4.06417529296875,0.22921642661094666,0.004235396161675453,-0.021935300901532173
1772732449142203400,4.074203369140625,0.19355760514736176,-0.04580916091799736,0.017644956707954407
1772732449152231400,4.0842314453125,0.17738209664821625,-0.09503529220819473,0.02873489260673523
1772732449162258400,4.094258544921875,0.17792297899723053,-0.14123305678367615,0.01590644381940365
1772732449172287200,4.104287353515625,0.18278564512729645,-0.19491466879844666,-0.003995890729129314
1772732449182314200,4.114314208984375,0.18542729318141937,-0.2577663064002991,-0.02993679605424404
1772732449192342300,4.12434228515625,0.18208928406238556,-0.31802165508270264,-0.041566554456949234
1772732449202370000,4.1343701171875,0.17657245695590973,-0.39621832966804504,-0.04072907939553261
1772732449212397000,4.14439697265625,0.16669373214244843,-0.44965997338294983,-0.02576025016605854
1772732449222425300,4.15442529296875,0.14894704520702362,-0.45512545108795166,-0.004093214403837919
1772732449232453000,4.164453125,0.1246827095746994,-0.4391387403011322,0.022933077067136765
1772732449242480400,4.17448046875,0.09390897303819656,-0.4118538498878479,0.03843524307012558
1772732449252508200,4.184508056640625,0.04843444004654884,-0.38154706358909607,0.04820265248417854
1772732449262535200,4.19453515625,0.0014531295746564865,-0.3471566438674927,0.046045705676078796
1772732449272563200,4.204563232421875,-0.036658305674791336,-0.30796849727630615,0.04234177991747856
1772732449282591200,4.21459130859375,-0.06113424152135849,-0.27000874280929565,0.03348120301961899
1772732449292618200,4.2246181640625,-0.08768409490585327,-0.23212604224681854,0.029237190261483192
1772732449302646300,4.234646240234375,-0.09647780656814575,-0.2128959596157074,0.04059205576777458
1772732449312674300,4.24467431640625,-0.07954782247543335,-0.22803789377212524,0.057271700352430344
1772732449322701300,4.254701416015625,-0.051110461354255676,-0.28235387802124023,0.07409432530403137
1772732449332729000,4.26472900390625,-0.020291298627853394,-0.33393052220344543,0.07686827331781387
1772732449342757000,4.274757080078125,0.010289419442415237,-0.35034433007240295,0.050922129303216934
1772732449352784100,4.2847841796875,0.02372586727142334,-0.359116792678833,-0.01733202487230301
1772732449362812200,4.294812255859375,0.030935825780034065,-0.3646496832370758,-0.1028626412153244
1772732449372839200,4.304839111328125,0.030762987211346626,-0.3499191999435425,-0.17962773144245148
1772732449382867200,4.3148671875,0.028164807707071304,-0.27972549200057983,-0.24352441728115082
1772732449392895200,4.324895263671875,0.01948023959994316,-0.1543092280626297,-0.2855605483055115
1772732449402922200,4.334922119140625,-0.010393926873803139,-0.025142565369606018,-0.3006174862384796
1772732449412950300,4.3449501953125,-0.05379120260477066,0.05879894271492958,-0.2886151671409607
1772732449422978000,4.35497802734375,-0.10203273594379425,0.07531754672527313,-0.23465445637702942
1772732449433005000,4.365005126953125,-0.14627502858638763,0.009452516213059425,-0.12934401631355286
1772732449443033300,4.375033447265625,-0.1948729306459427,-0.09076916426420212,-0.0012611496495082974
1772732449453060000,4.38506005859375,-0.25321272015571594,-0.1658763587474823,0.11057809740304947
1772732449463088400,4.39508837890625,-0.31989529728889465,-0.2242257446050644,0.20845772325992584
1772732449473116200,4.4051162109375,-0.38396695256233215,-0.27719950675964355,0.3028753101825714
1772732449483143200,4.41514306640625,-0.42634662985801697,-0.28581762313842773,0.37092673778533936
1772732449493171200,4.425171142578125,-0.4508064091205597,-0.26836249232292175,0.4036484658718109
1772732449503199000,4.435198974609375,-0.45401889085769653,-0.22104868292808533,0.40214619040489197
1772732449513226200,4.445226318359375,-0.44919881224632263,-0.16569355130195618,0.37563949823379517
1772732449523254300,4.455254150390625,-0.43772652745246887,-0.08348102122545242,0.3337673246860504
1772732449533282300,4.4652822265625,-0.4385955333709717,0.026912327855825424,0.29659411311149597
1772732449543309300,4.475309326171875,-0.44548720121383667,0.11958249658346176,0.28378066420555115
1772732449553337000,4.485337158203125,-0.4546670913696289,0.17648440599441528,0.28544676303863525
1772732449563364400,4.4953642578125,-0.4704436659812927,0.21599586308002472,0.2821846306324005
1772732449573392100,4.50539208984375,-0.4814521074295044,0.24065299332141876,0.26858600974082947
1772732449583420200,4.515420166015625,-0.4692251682281494,0.26147913932800293,0.23364043235778809
1772732449593447200,4.525447265625,-0.4395783245563507,0.27450624108314514,0.17309319972991943
1772732449603475200,4.53547509765625,-0.4053892195224762,0.28009337186813354,0.10946627706289291
1772732449613503200,4.545503173828125,-0.3707526922225952,0.28289368748664856,0.06046917662024498
1772732449623530200,4.5555302734375,-0.33539512753486633,0.2778240144252777,0.04652303084731102
1772732449633558300,4.565558349609375,-0.32129713892936707,0.25781115889549255,0.06339069455862045
1772732449643586000,4.5755859375,-0.3143613040447235,0.20995095372200012,0.10863351076841354
1772732449653613000,4.585613037109375,-0.3097979724407196,0.15656283497810364,0.15741996467113495
1772732449663641000,4.59564111328125,-0.3060223162174225,0.11665409058332443,0.18568791449069977
1772732449673668000,4.605668212890625,-0.30818453431129456,0.0762355625629425,0.1903764009475708
1772732449683696400,4.6156962890625,-0.30934059619903564,0.06784751266241074,0.1581403613090515
1772732449693724200,4.62572412109375,-0.31619158387184143,0.09360694140195847,0.10398393124341965
1772732449703751200,4.635751220703125,-0.31145036220550537,0.12003934383392334,0.04635605216026306
1772732449713779200,4.645779296875,-0.2978021800518036,0.14520354568958282,0.0042671882547438145
1772732449723807000,4.655806884765625,-0.2776482403278351,0.1537143588066101,-0.006900392938405275
1772732449733834200,4.665834228515625,-0.25763458013534546,0.15681001543998718,0.011715368367731571
1772732449743862300,4.6758623046875,-0.24120445549488068,0.16313645243644714,0.04094110429286957
1772732449753889000,4.685888916015625,-0.22731155157089233,0.18818669021129608,0.061990730464458466
1772732449763917300,4.695917236328125,-0.21205157041549683,0.21441194415092468,0.0660141184926033
1772732449773945000,4.705945068359375,-0.19330531358718872,0.22742041945457458,0.04804869741201401
1772732449783972400,4.715972412109375,-0.16792985796928406,0.2348434180021286,0.018259992823004723
1772732449794000100,4.726000244140625,-0.13826197385787964,0.2339363396167755,-0.02003306709229946
1772732449804028200,4.736028076171875,-0.11231883615255356,0.22040396928787231,-0.05036069452762604
1772732449814055200,4.74605517578125,-0.08470504730939865,0.2121202051639557,-0.06856686621904373
1772732449824083200,4.756083251953125,-0.05445804074406624,0.221765398979187,-0.0830894336104393
1772732449834111200,4.766111328125,-0.028143614530563354,0.2332870364189148,-0.0900016650557518
1772732449844138200,4.77613818359375,-0.0009424150921404362,0.23881198465824127,-0.08214256912469864
1772732449854166300,4.786166259765625,0.028034109622240067,0.23573656380176544,-0.0662887692451477
1772732449864193300,4.796193359375,0.04025765508413315,0.23061524331569672,-0.06204671040177345
1772732449874221000,4.806220947265625,0.0388760082423687,0.2160211205482483,-0.052241481840610504
1772732449884249000,4.8162490234375,0.037815917283296585,0.19678156077861786,-0.043223459273576736
1772732449894276000,4.826276123046875,0.04465411230921745,0.18715450167655945,-0.03615888953208923
1772732449904304400,4.836304443359375,0.060899585485458374,0.17218665778636932,-0.03507154807448387
1772732449914332200,4.846332275390625,0.0670514926314354,0.13738872110843658,-0.02778780274093151
1772732449924359200,4.856359130859375,0.08181841671466827,0.09953579306602478,-0.02296108938753605
1772732449934387200,4.86638720703125,0.11522430926561356,0.09391413629055023,-0.039133936166763306
1772732449944415000,4.8764150390625,0.16484388709068298,0.1017417460680008,-0.07447106391191483
1772732449954442200,4.886442138671875,0.23443761467933655,0.09846073389053345,-0.1150006502866745
1772732449964470300,4.89647021484375,0.29344260692596436,0.09970272332429886,-0.16773782670497894
1772732449974497000,4.9064970703125,0.3270229399204254,0.08646654337644577,-0.21160274744033813
1772732449984525300,4.916525390625,0.3275977075099945,0.0031597136985510588,-0.2248707413673401
1772732449994553000,4.926552978515625,0.30017831921577454,-0.1363968551158905,-0.22008930146694183
1772732450004580400,4.936580322265625,0.2705540060997009,-0.3009083569049835,-0.2260889708995819
1772732450014608100,4.946608154296875,0.26070910692214966,-0.4424223303794861,-0.26256948709487915
1772732450024636200,4.95663623046875,0.26727619767189026,-0.5460379719734192,-0.34093034267425537
1772732450034663200,4.9666630859375,0.28692206740379333,-0.6298369765281677,-0.4279307425022125
1772732450044691200,4.976691162109375,0.3153698146343231,-0.5707985162734985,-0.45457032322883606
1772732450054718200,4.98671826171875,0.3503994345664978,-0.46610063314437866,-0.39574214816093445
1772732450064746200,4.996746337890625,0.43458935618400574,-0.2720094621181488,-0.3861405551433563
1772732450074774300,5.006774169921875,0.40443119406700134,0.06440875679254532,-0.33766382932662964
1772732450084801300,5.01680126953125,0.304499089717865,0.23895026743412018,-0.3156963884830475
1772732450094829000,5.0268291015625,0.1751576066017151,0.4852662980556488,-0.2869262397289276
1772732450104857000,5.036857177734375,0.027179736644029617,0.6417157053947449,-0.17347802221775055
1772732450114884000,5.046884033203125,-0.14610762894153595,0.6321163773536682,0.055105097591876984
1772732450124912400,5.056912353515625,-0.33258581161499023,0.49251991510391235,0.3618476092815399
1772732450134940200,5.066940185546875,-0.501973032951355,0.2585718631744385,0.6706981062889099
1772732450144967200,5.07696728515625,-0.6409294605255127,0.019889021292328835,0.9079230427742004
1772732450154995200,5.0869951171875,-0.729973554611206,-0.1862068921327591,1.0160757303237915
1772732450165022200,5.097022216796875,-0.7911052703857422,-0.3328898549079895,1.0111180543899536
1772732450175050000,5.107050048828125,-0.8187177181243896,-0.39350074529647827,0.9138165712356567
1772732450185078000,5.117078125,-0.809289813041687,-0.3318212628364563,0.7741245031356812
1772732450195105000,5.12710498046875,-0.7742098569869995,-0.2270365059375763,0.6362936496734619
1772732450205133000,5.137133056640625,-0.7080658674240112,-0.10520682483911514,0.5303102135658264
1772732450215161000,5.1471611328125,-0.6296533346176147,0.00020428583957254887,0.4598733186721802
1772732450225188000,5.15718798828125,-0.5458503365516663,0.07385178655385971,0.42481040954589844
1772732450235216000,5.1672158203125,-0.46577200293540955,0.12530271708965302,0.3972320258617401
1772732450245244000,5.177243896484375,-0.36848184466362,0.14479438960552216,0.35088083148002625
1772732450255271000,5.18727099609375,-0.26487261056900024,0.16311907768249512,0.25656071305274963
1772732450265299200,5.19729931640625,-0.17004476487636566,0.1724005490541458,0.129336416721344
1772732450275326000,5.207325927734375,-0.07465006411075592,0.18227873742580414,-0.02015399932861328
1772732450285354000,5.21735400390625,0.029106924310326576,0.19172656536102295,-0.18306483328342438
1772732450295382000,5.227382080078125,0.14414775371551514,0.2025110274553299,-0.3408621847629547
1772732450305409000,5.237408935546875,0.2783663868904114,0.18835151195526123,-0.46287617087364197
1772732450315437000,5.24743701171875,0.39666372537612915,0.1168307214975357,-0.5315369963645935
1772732450325465000,5.257465087890625,0.47344300150871277,0.0049141645431518555,-0.556649386882782
1772732450335491800,5.267491943359375,0.5170519948005676,-0.10878976434469223,-0.5523020029067993
1772732450345520000,5.27752001953125,0.5389953255653381,-0.22466275095939636,-0.5401145815849304
1772732450355548000,5.2875478515625,0.5448426008224487,-0.3314307630062103,-0.5228378772735596
1772732450365575200,5.2975751953125,0.5157312750816345,-0.41417196393013,-0.4942072331905365
1772732450375603000,5.30760302734375,0.46596211194992065,-0.47612589597702026,-0.45008450746536255
1772732450385630200,5.317630126953125,0.3904622793197632,-0.5115011930465698,-0.40112975239753723
1772732450395657000,5.327656982421875,0.3079463839530945,-0.49673208594322205,-0.33542585372924805
1772732450405685000,5.33768505859375,0.24187849462032318,-0.425773561000824,-0.2573857605457306
1772732450415712000,5.3477119140625,0.20858632028102875,-0.32233425974845886,-0.17419712245464325
1772732450425740000,5.357739990234375,0.19136299192905426,-0.2101300209760666,-0.08926601707935333
1772732450435768000,5.36776806640625,0.17915107309818268,-0.12347449362277985,-0.03763185068964958
1772732450445795000,5.377795166015625,0.17430678009986877,-0.056923963129520416,-0.014221600256860256
1772732450455822800,5.38782275390625,0.17622292041778564,-0.003442627377808094,-0.005478176288306713
1772732450465851100,5.39785107421875,0.19997330009937286,0.011417721398174763,0.00032804676447995007
1772732450475878000,5.4078779296875,0.24597033858299255,-0.003530601505190134,-0.014887657947838306
1772732450485906200,5.41790625,0.3023872375488281,-0.002108559478074312,-0.05508328229188919
1772732450495933000,5.427932861328125,0.35085543990135193,0.006956308148801327,-0.11314711719751358
1772732450505961000,5.4379609375,0.38032066822052,-0.00028261030092835426,-0.15606847405433655
1772732450515989000,5.447989013671875,0.3978826403617859,-0.021445153281092644,-0.17761318385601044
1772732450526016000,5.45801611328125,0.4164370596408844,-0.045163482427597046,-0.18406911194324493
1772732450536044000,5.4680439453125,0.42556771636009216,-0.06501415371894836,-0.18476393818855286
1772732450546072000,5.478072021484375,0.4170309603214264,-0.0713600218296051,-0.20825247466564178
1772732450556098800,5.488098876953125,0.39195144176483154,-0.06665820628404617,-0.24365466833114624
1772732450566127000,5.498127197265625,0.3582872748374939,-0.06347613781690598,-0.27059561014175415
1772732450576155000,5.50815478515625,0.32533252239227295,-0.051318805664777756,-0.2803235948085785
1772732450586182100,5.51818212890625,0.2997378706932068,-0.022440968081355095,-0.26332154870033264
1772732450596210000,5.5282099609375,0.27515876293182373,0.010987029410898685,-0.22878991067409515
1772732450606237000,5.53823681640625,0.24161966145038605,0.05563366413116455,-0.18382345139980316
1772732450616265000,5.548264892578125,0.20859752595424652,0.09395362436771393,-0.13161350786685944
1772732450626293000,5.55829296875,0.18045943975448608,0.13611434400081635,-0.06525138020515442
1772732450636320000,5.568320068359375,0.15845081210136414,0.17191122472286224,-0.0009821096900850534
1772732450646348000,5.57834814453125,0.14360423386096954,0.17572736740112305,0.041992198675870895
1772732450656376000,5.5883759765625,0.12433600425720215,0.161385178565979,0.06567063182592392
1772732450666403000,5.598403076171875,0.10100249201059341,0.1459650695323944,0.06976059079170227
1772732450676430800,5.608430908203125,0.08580969274044037,0.12075932323932648,0.07149937003850937
1772732450686459100,5.618459228515625,0.07874293625354767,0.07833759486675262,0.07008354365825653
1772732450696486000,5.62848583984375,0.0738602951169014,0.036584023386240005,0.0672222450375557
1772732450706514200,5.63851416015625,0.07002800703048706,0.0003407965414226055,0.08780288696289062
1772732450716541000,5.648541015625,0.06563938409090042,-0.029295925050973892,0.1467604786157608
1772732450726569000,5.65856884765625,0.056228164583444595,-0.04515770077705383,0.23330385982990265
1772732450736597000,5.668596923828125,0.04891485720872879,-0.048663221299648285,0.3081757128238678
1772732450746624000,5.6786240234375,0.04115719348192215,-0.08137128502130508,0.3576711118221283
1772732450756652000,5.688652099609375,0.02750982716679573,-0.17281438410282135,0.35811081528663635
1772732450766680800,5.698680908203125,-0.004601755179464817,-0.2069828361272812,0.35046884417533875
1772732450776709000,5.708709228515625,-0.028458617627620697,-0.22815948724746704,0.32371553778648376
1772732450786736000,5.718736083984375,-0.03564705699682236,-0.2437906563282013,0.2784852683544159
1772732450796764000,5.728763916015625,-0.01634446159005165,-0.21673427522182465,0.21061888337135315
1772732450806792000,5.7387919921875,0.01629561558365822,-0.10789497941732407,0.13117121160030365
1772732450816819000,5.74881884765625,0.055807072669267654,0.097452312707901,0.07733649015426636
1772732450826847000,5.758846923828125,0.09489292651414871,0.3507460653781891,0.09088005125522614
1772732450836874000,5.7688740234375,0.11666985601186752,0.5626740455627441,0.17168034613132477
1772732450846902000,5.778902099609375,0.10289685428142548,0.6693052053451538,0.3251475393772125
1772732450856930000,5.788929931640625,0.07188993692398071,0.6862125396728516,0.49764716625213623
1772732450866957000,5.79895703125,0.023963404819369316,0.6331209540367126,0.6270433068275452
1772732450876985000,5.808985107421875,-0.04960748553276062,0.5112118124961853,0.6733367443084717
1772732450887012900,5.819012939453125,-0.1314394772052765,0.3061440885066986,0.6564661264419556
1772732450897040100,5.8290400390625,-0.20051309466362,0.07486480474472046,0.5782355070114136
1772732450907068000,5.83906787109375,-0.24576061964035034,-0.1269632875919342,0.4493395686149597
1772732450917096000,5.849095947265625,-0.28796160221099854,-0.2719939947128296,0.3208518922328949
1772732450927123000,5.859123046875,-0.34250903129577637,-0.3355734944343567,0.2463553547859192
1772732450937151000,5.86915087890625,-0.39463454484939575,-0.3029750883579254,0.24236062169075012
1772732450947178200,5.87917822265625,-0.4468175172805786,-0.2274208962917328,0.29758402705192566
1772732450957206000,5.8892060546875,-0.5041401386260986,-0.10744228214025497,0.383674681186676
1772732450967233800,5.89923388671875,-0.5639448761940002,0.024831334128975868,0.4801200032234192
1772732450977261000,5.909260986328125,-0.6207203269004822,0.14837750792503357,0.5650098323822021
1772732450987288800,5.919288818359375,-0.6449734568595886,0.24895496666431427,0.6141406297683716
1772732450997317000,5.929317138671875,-0.6427481174468994,0.32663166522979736,0.6076489090919495
1772732451007344000,5.93934423828125,-0.615220844745636,0.364835262298584,0.5538410544395447
1772732451017372200,5.9493720703125,-0.5655435919761658,0.3517830967903137,0.4861685037612915
1772732451027400000,5.95939990234375,-0.5123535990715027,0.286758154630661,0.42225924134254456
1772732451037427000,5.969427001953125,-0.46559542417526245,0.1996735781431198,0.3714253604412079
1772732451047455000,5.979455078125,-0.43916356563568115,0.11088953912258148,0.3243449926376343
1772732451057483000,5.98948291015625,-0.41739752888679504,0.034676529467105865,0.28105318546295166
1772732451067510000,5.999510009765625,-0.3850334584712982,-0.022285645827651024,0.23427610099315643
1772732451077538000,6.0095380859375,-0.3393021821975708,-0.054433729499578476,0.187855064868927
1772732451087565000,6.01956494140625,-0.28222787380218506,-0.060253918170928955,0.13110293447971344
1772732451097593000,6.029593017578125,-0.22182634472846985,-0.015390041284263134,0.03885502368211746
1772732451107620900,6.039620849609375,-0.18828430771827698,0.09332378208637238,-0.050009191036224365
1772732451117648100,6.049648193359375,-0.20109863579273224,0.2341943383216858,-0.102443628013134
1772732451127676000,6.059676025390625,-0.24773329496383667,0.33989524841308594,-0.09459464997053146
1772732451137704000,6.069703857421875,-0.32757270336151123,0.38114094734191895,-0.0822218731045723
1772732451147731000,6.07973095703125,-0.4431571066379547,0.38614338636398315,-0.06683658063411713
1772732451157759000,6.089759033203125,-0.5897625684738159,0.37155404686927795,-0.0453970693051815
1772732451167787000,6.099787109375,-0.7764043807983398,0.4121198356151581,0.015248287469148636
1772732451177814300,6.109814208984375,-0.985071063041687,0.5094218850135803,0.15489859879016876
1772732451187842000,6.119842041015625,-1.1847832202911377,0.6320480704307556,0.39683011174201965
1772732451197869000,6.129869140625,-1.3527634143829346,0.7407529354095459,0.7155023813247681
1772732451207897000,6.13989697265625,-1.4691288471221924,0.864523708820343,1.0480564832687378
1772732451217925000,6.149925048828125,-1.5129404067993164,0.9583196640014648,1.3343353271484375
1772732451227952000,6.1599521484375,-1.4773248434066772,0.9971306920051575,1.527480959892273
1772732451237980200,6.169980224609375,-1.36907958984375,0.9420858025550842,1.6250604391098022
1772732451248008200,6.18000830078125,-1.2316951751708984,0.771689772605896,1.6298718452453613
1772732451258035200,6.19003515625,-1.0895545482635498,0.48770466446876526,1.5683187246322632
1772732451268063000,6.20006298828125,-0.9795315861701965,0.1339445859193802,1.4753299951553345
1772732451278091300,6.21009130859375,-0.8858757019042969,-0.24344131350517273,1.3548837900161743
1772732451288118000,6.220117919921875,-0.7792298793792725,-0.6053968071937561,1.1935434341430664
1772732451298146300,6.230146240234375,-0.670042097568512,-0.9156497716903687,0.9466060400009155
1772732451308173000,6.240173095703125,-0.5622258186340332,-1.1228455305099487,0.601043701171875
1772732451318201000,6.250201171875,-0.4772017300128937,-1.135757327079773,0.20918592810630798
1772732451328229000,6.26022900390625,-0.45650339126586914,-0.9200962781906128,-0.17193667590618134
1772732451338256100,6.270256103515625,-0.4673115611076355,-0.4769574701786041,-0.4742344915866852
1772732451348284200,6.2802841796875,-0.4149934649467468,0.07503240555524826,-0.6275452971458435
1772732451358312200,6.290312255859375,-0.2530956268310547,0.5423641204833984,-0.5768346786499023
1772732451368339200,6.300339111328125,-0.10241355001926422,0.7829510569572449,-0.3118395507335663
1772732451378367200,6.3103671875,-0.03364434093236923,0.7820215821266174,0.05423220247030258
1772732451388395000,6.32039501953125,-0.04535294696688652,0.5639042854309082,0.367765337228775
1772732451398422300,6.33042236328125,-0.10770153999328613,0.2481953352689743,0.49758192896842957
1772732451408450000,6.340449951171875,-0.14765271544456482,-0.09469840675592422,0.42187124490737915
1772732451418478300,6.350478271484375,-0.1391598880290985,-0.41567933559417725,0.18836690485477448
1772732451428505000,6.360505126953125,-0.09423471987247467,-0.6524634957313538,-0.1380901038646698
1772732451438533000,6.370533203125,-0.06101231649518013,-0.8522772789001465,-0.49367377161979675
1772732451448560000,6.38056005859375,-0.035165946930646896,-1.0553866624832153,-0.8067997694015503
1772732451458588200,6.390588134765625,0.02198868803679943,-1.2500296831130981,-1.0036976337432861
1772732451468616200,6.4006162109375,0.10201714932918549,-1.4250496625900269,-1.086769700050354
1772732451478643200,6.410643310546875,0.20196904242038727,-1.5475844144821167,-1.0980186462402344
1772732451488671000,6.4206708984375,0.3179675042629242,-1.5512425899505615,-1.11283540725708
1772732451498699300,6.43069921875,0.4278433918952942,-1.3946589231491089,-1.1453733444213867
1772732451508726000,6.44072607421875,0.49996063113212585,-1.160766363143921,-1.1993638277053833
1772732451518754300,6.45075439453125,0.5398574471473694,-0.8456652164459229,-1.217324137687683
1772732451528782000,6.460781982421875,0.5625134110450745,-0.5391958951950073,-1.1852247714996338
1772732451538809300,6.470809326171875,0.5565159916877747,-0.33834078907966614,-1.0785152912139893
1772732451548837000,6.480837158203125,0.5273248553276062,-0.27797454595565796,-0.9071149826049805
1772732451558864100,6.490864013671875,0.5098691582679749,-0.32980790734291077,-0.7254607677459717
1772732451568892200,6.50089208984375,0.5267631411552429,-0.5116231441497803,-0.6503946781158447
1772732451578920200,6.510920166015625,0.5170705914497375,-0.6904807686805725,-0.6763564944267273
1772732451588947200,6.520947265625,0.4747086465358734,-0.8352982997894287,-0.7158978581428528
1772732451598975200,6.530975341796875,0.44342368841171265,-0.8639249205589294,-0.7717603445053101
1772732451609003000,6.5410029296875,0.3282109797000885,-0.7670878767967224,-0.7661083340644836
1772732451619030300,6.5510302734375,0.1960124522447586,-0.6473678350448608,-0.6808762550354004
1772732451629058000,6.56105810546875,0.07288996130228043,-0.4563505947589874,-0.5117309093475342
1772732451639086300,6.57108642578125,-0.05608399584889412,-0.32353475689888,-0.26405876874923706
1772732451649113000,6.581113037109375,-0.18063153326511383,-0.3044112026691437,-0.00876543391495943
1772732451659141000,6.59114111328125,-0.29071223735809326,-0.2694489657878876,0.21487244963645935
1772732451669169200,6.601169189453125,-0.4063442349433899,-0.2199927121400833,0.3863818347454071
1772732451679196200,6.611196044921875,-0.5605266094207764,-0.2109811007976532,0.5178554058074951
1772732451689224200,6.62122412109375,-0.6187426447868347,-0.1943548172712326,0.6172022223472595
1772732451699251200,6.631251220703125,-0.5282678604125977,-0.023272277787327766,0.7146224975585938
1772732451709279200,6.641279296875,-0.5476853847503662,0.04137834161520004,0.8509241938591003
1772732451719307300,6.651307373046875,-0.650591254234314,-0.001809341716580093,0.9851267337799072
1772732451729334000,6.661333984375,-0.7228675484657288,-0.11633694916963577,1.1048749685287476
1772732451739362300,6.6713623046875,-0.6086267232894897,-0.06994308531284332,1.2132391929626465
1772732451749390000,6.68139013671875,-0.48774659633636475,-0.01592128351330757,1.2745717763900757
1772732451759417300,6.691417236328125,-0.42986705899238586,-0.06219770014286041,1.2546532154083252
1772732451769445000,6.701445068359375,-0.39973464608192444,-0.1728036254644394,1.183837890625
1772732451779473200,6.71147314453125,-0.32227182388305664,-0.318930983543396,1.0908610820770264
1772732451789500200,6.721500244140625,-0.128074511885643,-0.2590579092502594,0.9877927899360657
1772732451799528200,6.731528076171875,-0.017069688066840172,-0.2647634446620941,0.8766161799430847
1772732451809555200,6.74155517578125,-0.023222249001264572,-0.4583716094493866,0.7609582543373108
1772732451819583200,6.751583251953125,0.014527527615427971,-0.5628911256790161,0.6071628332138062
1772732451829611000,6.761611083984375,0.10337823629379272,-0.653435468673706,0.4467919170856476
1772732451839638300,6.77163818359375,0.1945909708738327,-0.7357513308525085,0.34733670949935913
1772732451849666000,6.781666015625,0.3548274338245392,-0.7545422315597534,0.2785743474960327
1772732451859694300,6.7916943359375,0.5599917769432068,-0.7443481683731079,0.1784868985414505
1772732451869721000,6.80172119140625,0.7098183035850525,-0.6877210736274719,0.03232051059603691
1772732451879749400,6.811749267578125,0.8092855215072632,-0.7279316186904907,-0.1209673136472702
1772732451889777200,6.821777099609375,0.8743267059326172,-0.8054050207138062,-0.2404235154390335
1772732451899804200,6.83180419921875,0.8952711224555969,-0.8198116421699524,-0.3201444447040558
1772732451909832200,6.841832275390625,0.8630541563034058,-0.7494957447052002,-0.3699207603931427
1772732451919860200,6.851860107421875,0.7929443120956421,-0.5512758493423462,-0.4147476255893707
1772732451929887200,6.86188720703125,0.7062768340110779,-0.3358188569545746,-0.4357646107673645
1772732451939915300,6.871915283203125,0.6059337258338928,-0.138058140873909,-0.4215574562549591
1772732451949942000,6.88194189453125,0.519591212272644,0.04264195263385773,-0.37241119146347046
1772732451959970300,6.89197021484375,0.48108431696891785,0.18317218124866486,-0.3112967014312744
1772732451969998000,6.901998046875,0.5007936954498291,0.23922699689865112,-0.26164576411247253
1772732451980025300,6.912025390625,0.539737343788147,0.2458241730928421,-0.2556357979774475
1772732451990053000,6.92205322265625,0.5876743197441101,0.22681277990341187,-0.2949022948741913
1772732452000081200,6.9320810546875,0.6204718947410583,0.14763273298740387,-0.34464961290359497
1772732452010108200,6.942108154296875,0.6455010771751404,0.03809239715337753,-0.3946976065635681
1772732452020136200,6.95213623046875,0.652316153049469,-0.08141881972551346,-0.44584575295448303
1772732452030164200,6.962164306640625,0.6383480429649353,-0.18341004848480225,-0.4987069070339203
1772732452040191200,6.972191162109375,0.6082825064659119,-0.25800517201423645,-0.5535464882850647
1772732452050219300,6.98221923828125,0.5770838260650635,-0.27555492520332336,-0.6040984988212585
1772732452060247300,6.992247314453125,0.5528053641319275,-0.21662315726280212,-0.6460887789726257
1772732452070274000,7.002274169921875,0.5285001993179321,-0.11183810979127884,-0.659005343914032
1772732452080302300,7.01230224609375,0.5171982645988464,0.026711514219641685,-0.6488490700721741
1772732452090329000,7.0223291015625,0.513755202293396,0.15519900619983673,-0.6086862683296204
1772732452100357400,7.032357421875,0.5007112622261047,0.27927038073539734,-0.5554901361465454
1772732452110385200,7.04238525390625,0.46825963258743286,0.3858749568462372,-0.47914859652519226
1772732452120412200,7.052412109375,0.4170134663581848,0.46231675148010254,-0.3912360668182373
1772732452130440200,7.062440185546875,0.3586045205593109,0.5222965478897095,-0.3065153658390045
1772732452140468200,7.07246826171875,0.29164090752601624,0.5738428831100464,-0.22750204801559448
1772732452150495200,7.0824951171875,0.19263166189193726,0.5555752515792847,-0.1511790007352829
1772732452160523300,7.092523193359375,0.06925885379314423,0.4697873592376709,-0.09133698046207428
1772732452170550800,7.10255078125,-0.014080462977290154,0.38728761672973633,-0.03631826490163803
1772732452180577800,7.112577880859375,-0.011914247646927834,0.323909193277359,0.04991302639245987
1772732452190605800,7.122605712890625,0.08326177299022675,0.29796862602233887,0.16648204624652863
1772732452200633900,7.1326337890625,0.3406674861907959,0.4145975112915039,0.23400649428367615
1772732452210660600,7.14266064453125,0.4300203025341034,0.4285474717617035,0.38834959268569946
1772732452220689000,7.15268896484375,0.3639582097530365,0.3441428542137146,0.4689118266105652
1772732452230715600,7.162715576171875,0.2943272292613983,0.3811369240283966,0.44519439339637756
1772732452240744000,7.172743896484375,0.25714126229286194,0.3992405831813812,0.4147352874279022
1772732452250771700,7.182771728515625,0.21904850006103516,0.38790661096572876,0.3897540271282196
1772732452260798700,7.192798828125,0.18622370064258575,0.33377012610435486,0.36545535922050476
1772732452270826800,7.20282666015625,0.20006893575191498,0.2421993911266327,0.3321159780025482
1772732452280854800,7.212854736328125,0.2535358667373657,0.11327897012233734,0.2720094919204712
1772732452290881800,7.2228818359375,0.31198370456695557,0.0038864118978381157,0.1548011749982834
1772732452300909800,7.232909912109375,0.3832317888736725,-0.013901906087994576,-0.018249157816171646
1772732452310937900,7.242937744140625,0.5051649212837219,0.10835667699575424,-0.1572737693786621
1772732452320964900,7.25296484375,0.5134707689285278,0.22111891210079193,-0.22069135308265686
1772732452330992600,7.26299267578125,0.5504242181777954,0.5758436322212219,-0.34203317761421204
1772732452341020000,7.27302001953125,0.6032238006591797,0.9073014855384827,-0.41255128383636475
1772732452351047700,7.283047607421875,0.6116955876350403,1.1293247938156128,-0.43620565533638
1772732452361076000,7.293075927734375,0.5410068035125732,1.172245979309082,-0.4015968143939972
1772732452371102700,7.303102783203125,0.4186236262321472,0.9830062389373779,-0.2885456383228302
1772732452381130800,7.313130859375,0.23806318640708923,0.6411831378936768,-0.11029013991355896
1772732452391158800,7.32315869140625,0.013722389936447144,0.21852326393127441,0.11700423061847687
1772732452401185800,7.333185791015625,-0.21131418645381927,-0.1668718308210373,0.34691891074180603
1772732452411213800,7.3432138671875,-0.38671690225601196,-0.4024665653705597,0.5243144035339355
1772732452421241900,7.353241943359375,-0.5266452431678772,-0.46461889147758484,0.6277039051055908
1772732452431268600,7.3632685546875,-0.6329309344291687,-0.39633193612098694,0.6694836616516113
1772732452441297000,7.373296875,-0.7001917362213135,-0.23160448670387268,0.6611426472663879
1772732452451324700,7.38332470703125,-0.7070750594139099,-0.020546719431877136,0.6039083003997803
1772732452461352000,7.39335205078125,-0.6670642495155334,0.20099952816963196,0.5002066493034363
1772732452471379700,7.403379638671875,-0.6065077781677246,0.3658928871154785,0.3656570613384247
1772732452481406700,7.41340673828125,-0.5400142669677734,0.4952772259712219,0.24025309085845947
1772732452491434800,7.423434814453125,-0.48589658737182617,0.6012962460517883,0.15142472088336945
1772732452501462800,7.433462890625,-0.45040836930274963,0.6429640650749207,0.11979061365127563
1772732452511489800,7.44348974609375,-0.4190800189971924,0.6644328832626343,0.1275804340839386
1772732452521517800,7.453517822265625,-0.4120412766933441,0.6766216158866882,0.15381282567977905
1772732452531545900,7.4635458984375,-0.42074546217918396,0.6640129089355469,0.1860980987548828
1772732452541572900,7.47357275390625,-0.4545249938964844,0.6143369674682617,0.23467575013637543
1772732452551600600,7.4836005859375,-0.5001268982887268,0.5173059701919556,0.30657508969306946
1772732452561629000,7.49362890625,-0.5597654581069946,0.3899320960044861,0.4015447199344635
1772732452571655700,7.50365576171875,-0.6242834329605103,0.2603411078453064,0.5173971652984619
1772732452581684000,7.51368408203125,-0.6859902143478394,0.14368772506713867,0.6367222666740417
1772732452591711700,7.523711669921875,-0.718278706073761,0.05824323371052742,0.7278941869735718
1772732452601738800,7.53373876953125,-0.7187972068786621,-0.0038923092652112246,0.7732486128807068
1772732452611766800,7.543766845703125,-0.695111870765686,-0.04648919403553009,0.7683065533638
1772732452621794800,7.553794921875,-0.6485971212387085,-0.0773371234536171,0.7106485962867737
1772732452631821800,7.56382177734375,-0.5921790599822998,-0.10138846933841705,0.6225058436393738
1772732452641849900,7.573849853515625,-0.5365732908248901,-0.15026812255382538,0.5365161299705505
1772732452651876600,7.583876708984375,-0.47695016860961914,-0.19654320180416107,0.45172426104545593
1772732452661905000,7.59390478515625,-0.41869381070137024,-0.23058585822582245,0.37236472964286804
1772732452671932700,7.6039326171875,-0.3576827645301819,-0.2754055857658386,0.2837652862071991
1772732452681960000,7.6139599609375,-0.28164738416671753,-0.2855919301509857,0.1705242246389389
1772732452691987700,7.62398779296875,-0.19295111298561096,-0.24837055802345276,0.021951904520392418
1772732452702016000,7.63401611328125,-0.12216828018426895,-0.17800664901733398,-0.12241752445697784
1772732452712042800,7.644042724609375,-0.047772474586963654,-0.12823277711868286,-0.20254993438720703
1772732452722070800,7.65407080078125,0.02746289223432541,-0.11741634458303452,-0.20848025381565094
1772732452732098800,7.664098876953125,0.09690937399864197,-0.10309750586748123,-0.17130042612552643
1772732452742125800,7.674125732421875,0.13073019683361053,-0.1079561784863472,-0.09486449509859085
1772732452752153900,7.68415380859375,0.1358104944229126,-0.15464647114276886,-0.00011365574027877301
1772732452762181600,7.694181640625,0.13496680557727814,-0.19644132256507874,0.07771456241607666
1772732452772208600,7.704208740234375,0.1180504560470581,-0.21072180569171906,0.13551655411720276
1772732452782237000,7.71423681640625,0.09236693382263184,-0.20529668033123016,0.17084790766239166
1772732452792263700,7.724263671875,0.07803516834974289,-0.1744554489850998,0.20149226486682892
1772732452802292000,7.7342919921875,0.09199252724647522,-0.13073274493217468,0.22171656787395477
1772732452812319700,7.74431982421875,0.14060550928115845,-0.08042668551206589,0.22713446617126465
1772732452822346800,7.7543466796875,0.2070915848016739,-0.03067404218018055,0.2038555145263672
1772732452832374800,7.764374755859375,0.2731228172779083,0.013554778881371021,0.14066876471042633
1772732452842402800,7.77440283203125,0.32416361570358276,0.04248176887631416,0.049038179218769073
1772732452852429800,7.784429931640625,0.3622547388076782,0.0459454171359539,-0.05471280589699745
1772732452862457900,7.794457763671875,0.3860631287097931,0.043063342571258545,-0.15180712938308716
1772732452872486000,7.80448583984375,0.41888830065727234,0.04787033796310425,-0.2264467179775238
1772732452882513000,7.814512939453125,0.44823476672172546,0.046600811183452606,-0.27175164222717285
1772732452892540700,7.824540771484375,0.46667400002479553,0.02858225628733635,-0.2800501585006714
1772732452902568700,7.834568603515625,0.46345874667167664,0.008798166178166866,-0.28378018736839294
1772732452912595700,7.844595703125,0.43624383211135864,-0.005546832922846079,-0.2990979850292206
1772732452922624000,7.8546240234375,0.395831435918808,-0.002164618344977498,-0.31347373127937317
1772732452932650800,7.864650634765625,0.3602304458618164,0.03244476765394211,-0.31002095341682434
1772732452942678800,7.8746787109375,0.32329294085502625,0.0762987732887268,-0.2747173011302948
1772732452952706800,7.884706787109375,0.27563273906707764,0.12189412862062454,-0.21646569669246674
1772732452962733800,7.89473388671875,0.21356962621212006,0.1453038454055786,-0.13013479113578796
1772732452972761900,7.904761962890625,0.13896077871322632,0.20137903094291687,-0.03735455870628357
1772732452982789600,7.91478955078125,0.05418411269783974,0.3165261447429657,0.043469447642564774
1772732452992816600,7.924816650390625,-0.017317378893494606,0.4274170398712158,0.10384520143270493
1772732453002845000,7.934844970703125,-0.07589413225650787,0.47970259189605713,0.16027013957500458
1772732453012872700,7.944872802734375,-0.08722612261772156,0.47653132677078247,0.18562816083431244
1772732453022900000,7.95489990234375,-0.041475679725408554,0.4379117786884308,0.14344927668571472
1772732453032927700,7.964927734375,0.042019542306661606,0.35800763964653015,0.005365852266550064
1772732453042955800,7.974955810546875,0.15138757228851318,0.26258713006973267,-0.22078125178813934
1772732453052982800,7.984982666015625,0.2655812203884125,0.15806744992733002,-0.49007365107536316
1772732453063010800,7.9950107421875,0.39223024249076843,0.03684088960289955,-0.7474889755249023
1772732453073037800,8.005037841796875,0.5180687308311462,-0.07742451131343842,-0.9516714215278625
1772732453083065900,8.01506591796875,0.6067365407943726,-0.14300857484340668,-1.0634183883666992
1772732453093094000,8.025093994140626,0.6455942392349243,-0.18318812549114227,-1.0649921894073486
1772732453103121000,8.035120849609376,0.6503282785415649,-0.23614640533924103,-0.9764463305473328
1772732453113148700,8.045148681640624,0.6120995283126831,-0.3013018071651459,-0.8364026546478271
1772732453123176700,8.0551767578125,0.5299854874610901,-0.36596521735191345,-0.6718291640281677
1772732453133203700,8.06520361328125,0.4045425057411194,-0.40291425585746765,-0.5008313059806824
1772732453143231700,8.075231689453124,0.26734575629234314,-0.39174601435661316,-0.3329850733280182
1772732453153259800,8.085259765625,0.13138601183891296,-0.3287099301815033,-0.17930671572685242
1772732453163286800,8.095286865234375,0.004402219317853451,-0.22849945724010468,-0.045324668288230896
1772732453173314600,8.105314453125,-0.11134210228919983,-0.0758073627948761,0.06367902457714081
1772732453183342300,8.11534228515625,-0.19778937101364136,0.10413789749145508,0.158481165766716
1772732453193369600,8.12536962890625,-0.24549642205238342,0.22617636620998383,0.24474547803401947
1772732453203397600,8.135397705078125,-0.27925118803977966,0.2967213988304138,0.3128233253955841
1772732453213425700,8.14542578125,-0.3126838803291321,0.35759758949279785,0.3493928015232086
1772732453223452700,8.15545263671875,-0.343887060880661,0.38137269020080566,0.38141173124313354
1772732453233480400,8.16548046875,-0.3359127938747406,0.37084025144577026,0.38094013929367065
1772732453243507700,8.1755078125,-0.3062361180782318,0.32154300808906555,0.35491812229156494
1772732453253535500,8.185535400390625,-0.24503983557224274,0.23747844994068146,0.30220240354537964
1772732453263563500,8.1955634765625,-0.17186284065246582,0.14302171766757965,0.23147843778133392
1772732453273590500,8.205590576171875,-0.08296448737382889,0.028669796884059906,0.14608889818191528
1772732453283618600,8.21561865234375,0.021161915734410286,-0.08450602740049362,0.04025327041745186
1772732453293646600,8.225646484375,0.11312448233366013,-0.15495026111602783,-0.08104203641414642
1772732453303673600,8.235673583984376,0.18304657936096191,-0.1869814395904541,-0.1743277609348297
1772732453313701600,8.24570166015625,0.24254938960075378,-0.18594948947429657,-0.2220429927110672
1772732453323729400,8.2557294921875,0.2937566637992859,-0.18127085268497467,-0.24322231113910675
1772732453333756400,8.26575634765625,0.32676205039024353,-0.182962566614151,-0.25340765714645386
1772732453343784400,8.275784423828124,0.32989391684532166,-0.18909795582294464,-0.24434836208820343
1772732453353812500,8.2858125,0.3227127194404602,-0.18192727863788605,-0.22029954195022583
1772732453363839700,8.29583984375,0.31976035237312317,-0.14375539124011993,-0.18938903510570526
1772732453373867500,8.305867431640625,0.3103960454463959,-0.10382900387048721,-0.1558004766702652
1772732453383895600,8.3158955078125,0.3072812259197235,-0.09117738902568817,-0.12307609617710114
1772732453393922600,8.325922607421875,0.2998942732810974,-0.10692767798900604,-0.09410945326089859
1772732453403950300,8.335950439453125,0.291671484708786,-0.13279202580451965,-0.09837929904460907
1772732453413977600,8.3459775390625,0.2857358455657959,-0.1398066133260727,-0.13562840223312378
1772732453424005600,8.356005615234375,0.2773495614528656,-0.1380569189786911,-0.1878868043422699
1772732453434033700,8.36603369140625,0.2867385447025299,-0.12688443064689636,-0.24405953288078308
1772732453444060700,8.376060791015625,0.29661139845848083,-0.11364585161209106,-0.29448971152305603
1772732453454088400,8.38608837890625,0.3008940815925598,-0.1107034683227539,-0.34305068850517273
1772732453464116500,8.396116455078126,0.3061993718147278,-0.12524858117103577,-0.37324801087379456
1772732453474143500,8.4061435546875,0.3116298317909241,-0.14323219656944275,-0.3834729492664337
1772732453484171500,8.416171630859376,0.320563405752182,-0.16374999284744263,-0.3748304545879364
1772732453494199600,8.426199462890626,0.33016371726989746,-0.18242523074150085,-0.358486145734787
1772732453504226600,8.4362265625,0.32293936610221863,-0.1883571594953537,-0.34131407737731934
1772732453514254600,8.446254638671874,0.3089678883552551,-0.17923784255981445,-0.3301416337490082
1772732453524282400,8.456282470703124,0.28505590558052063,-0.1669476181268692,-0.3106342554092407
1772732453534309600,8.4663095703125,0.24751974642276764,-0.1532737910747528,-0.2840958535671234
1772732453544337400,8.47633740234375,0.20830336213111877,-0.12981826066970825,-0.2517576217651367
1772732453554365700,8.48636572265625,0.16685612499713898,-0.11922052502632141,-0.20042641460895538
1772732453564392400,8.496392333984375,0.12753242254257202,-0.11133703589439392,-0.14116522669792175
1772732453574420500,8.50642041015625,0.10209104418754578,-0.10079087316989899,-0.08660969883203506
1772732453584448500,8.516448486328125,0.08177032321691513,-0.10471929609775543,-0.06477763503789902
1772732453594475500,8.5264755859375,0.053929559886455536,-0.10716795921325684,-0.05841730162501335
1772732453604503600,8.536503662109375,0.031724922358989716,-0.09442233294248581,-0.061143845319747925
1772732453614530600,8.546530517578125,0.020311161875724792,-0.06801272928714752,-0.06579271703958511
1772732453624558300,8.556558349609375,-0.0026298414450138807,-0.024737156927585602,-0.07865924388170242
1772732453634586600,8.566586669921875,-0.031461019068956375,0.010686574503779411,-0.08449438214302063
1772732453644613600,8.576613525390625,-0.05941701680421829,0.04533669352531433,-0.07581806927919388
1772732453654641700,8.5866416015625,-0.0774586871266365,0.08590315282344818,-0.06580014526844025
1772732453664669400,8.59666943359375,-0.08454056829214096,0.11006494611501694,-0.04826962202787399
1772732453674696400,8.606696533203126,-0.07688914239406586,0.11602625995874405,-0.017590569332242012
1772732453684724500,8.616724365234376,-0.0519489087164402,0.08301051706075668,0.02140822820365429
1772732453694752500,8.62675244140625,-0.019724391400814056,-0.00444289343431592,0.054362982511520386
1772732453704779500,8.636779541015626,0.009241746738553047,-0.13869230449199677,0.0663733035326004
1772732453714807600,8.6468076171875,0.03237687796354294,-0.23460836708545685,0.03453948348760605
1772732453724835600,8.656835693359374,0.047710027545690536,-0.2045103758573532,-0.06818076968193054
1772732453734862600,8.666862548828124,0.05735403671860695,-0.1326013058423996,-0.21313640475273132
1772732453744890400,8.676890380859374,0.08765415102243423,-0.07485198229551315,-0.37081363797187805
1772732453754917600,8.686917724609375,0.142128586769104,-0.012117492035031319,-0.5152906775474548
1772732453764945400,8.6969453125,0.23526571691036224,0.08320609480142593,-0.6230261921882629
1772732453774973700,8.7069736328125,0.3291676342487335,0.22236937284469604,-0.6806963086128235
1772732453785000400,8.71700048828125,0.39048612117767334,0.40135669708251953,-0.668256402015686
1772732453795028500,8.727028564453125,0.43906426429748535,0.5519290566444397,-0.5767351388931274
1772732453805056500,8.737056396484375,0.4839300215244293,0.6066247820854187,-0.41433852910995483
1772732453815083500,8.74708349609375,0.5112770199775696,0.5354160070419312,-0.20663101971149445
1772732453825111600,8.757111572265625,0.502051830291748,0.3658815622329712,-0.01430739089846611
1772732453835139600,8.7671396484375,0.4382830262184143,0.17809082567691803,0.11687473952770233
1772732453845166300,8.777166259765625,0.34258607029914856,-0.0027508693747222424,0.175741508603096
1772732453855194600,8.787194580078125,0.25499314069747925,-0.15743406116962433,0.17585138976573944
1772732453865222400,8.797222412109376,0.1869581937789917,-0.25578513741493225,0.1350506842136383
1772732453875249700,8.807249755859376,0.10671467334032059,-0.2950398921966553,0.04182926192879677
1772732453885277400,8.81727734375,0.023686639964580536,-0.27101045846939087,-0.0394781120121479
1772732453895305700,8.8273056640625,-0.010788559913635254,-0.27538809180259705,-0.017291784286499023
1772732453905332500,8.83733251953125,0.00389504455961287,-0.20655950903892517,0.05723198503255844
1772732453915360500,8.847360595703124,-0.021963106468319893,-0.09702373296022415,0.17749755084514618
1772732453925388500,8.857388427734374,-0.07437784224748611,-0.053539104759693146,0.3277807831764221
1772732453935415600,8.86741552734375,-0.10959257185459137,-0.0018606423400342464,0.4429992735385895
1772732453945443600,8.877443603515625,-0.1463543176651001,0.07015576213598251,0.4952845573425293
1772732453955470600,8.887470703125,-0.177036315202713,0.11986836791038513,0.5060365200042725
1772732453965498400,8.897498291015625,-0.1825714260339737,0.15084253251552582,0.4855078458786011
1772732453975526700,8.907526611328125,-0.1651754081249237,0.17931880056858063,0.4420781135559082
1772732453985553400,8.917553466796875,-0.12671802937984467,0.21804063022136688,0.3548649251461029
1772732453995581700,8.927581787109375,-0.0811159536242485,0.25190457701683044,0.24989941716194153
1772732454005609500,8.937609375,-0.048695698380470276,0.2270735204219818,0.1744781732559204
1772732454015636500,8.947636474609375,-0.03193434327840805,0.1476975381374359,0.15315485000610352
1772732454025664500,8.95766455078125,-0.02385777235031128,0.04678237810730934,0.1700456738471985
1772732454035692500,8.967692626953125,-0.027841173112392426,-0.014617500826716423,0.2010411024093628
1772732454045719600,8.977719482421875,-0.04554853215813637,-0.028122123330831528,0.22769002616405487
1772732454055747600,8.98774755859375,-0.07092300057411194,-0.020266786217689514,0.24029159545898438
1772732454065775600,8.997775634765626,-0.10758887231349945,0.014631809666752815,0.2384641319513321
1772732454075802600,9.007802734375,-0.14140823483467102,0.05928850546479225,0.2444959133863449
1772732454085830400,9.017830322265626,-0.1623084545135498,0.09432078897953033,0.2542681097984314
1772732454095858700,9.027858642578124,-0.15456536412239075,0.07407690584659576,0.27022454142570496
1772732454105885400,9.037885498046874,-0.1114056333899498,0.004457351751625538,0.26969778537750244
1772732454115913700,9.047913818359374,-0.05470886453986168,-0.021750057116150856,0.172244593501091
1772732454125940500,9.0579404296875,-0.06005196273326874,-0.10297726839780807,0.021485967561602592
1772732454135968500,9.067968505859374,-0.11197737604379654,-0.3073256313800812,-0.1476965844631195
1772732454145996500,9.07799658203125,-0.14429375529289246,-0.39301204681396484,-0.34570422768592834
1772732454156023600,9.0880234375,-0.17302080988883972,-0.24895040690898895,-0.5148167610168457
1772732454166051600,9.098051513671875,-0.19993071258068085,-0.06373768299818039,-0.6041311621665955
1772732454176080000,9.108079833984375,-0.1685672104358673,0.0733734592795372,-0.5951235294342041
1772732454186106600,9.118106689453125,-0.08601853996515274,0.13756737112998962,-0.543123185634613
1772732454196135000,9.128135009765625,-0.01254367921501398,0.19268164038658142,-0.4651915729045868
1772732454206162700,9.13816259765625,0.04777026176452637,0.19577543437480927,-0.3652071952819824
1772732454216190000,9.14818994140625,0.09890610724687576,0.189217209815979,-0.2628732919692993
1772732454226217700,9.1582177734375,0.1586242914199829,0.20087707042694092,-0.1677374541759491
1772732454236245800,9.168245849609375,0.22375334799289703,0.17409522831439972,-0.11159873753786087
1772732454246272800,9.178272705078125,0.2626538872718811,0.1250307410955429,-0.10301776230335236
1772732454256300800,9.18830078125,0.2640904188156128,0.08024049550294876,-0.1388682872056961
1772732454266328800,9.198328857421876,0.24515268206596375,0.061642568558454514,-0.19166624546051025
1772732454276355800,9.20835595703125,0.19550220668315887,0.0669051855802536,-0.25110703706741333
1772732454286383900,9.2183837890625,0.14168931543827057,0.10496015846729279,-0.30094650387763977
1772732454296411600,9.22841162109375,0.10157401114702225,0.15466895699501038,-0.3285137116909027
1772732454306438700,9.238438720703124,0.0778399184346199,0.21667321026325226,-0.33013424277305603
1772732454316466700,9.248466796875,0.061774712055921555,0.2570450007915497,-0.3013618290424347
1772732454326494700,9.25849462890625,0.039505891501903534,0.2755899131298065,-0.2516816258430481
1772732454336522000,9.26852197265625,0.017100971192121506,0.3002660572528839,-0.20149141550064087
1772732454346549800,9.2785498046875,0.009769821539521217,0.34234586358070374,-0.15873169898986816
1772732454356576800,9.28857666015625,0.014720245264470577,0.38151830434799194,-0.13900937139987946
1772732454366604800,9.298604736328125,0.015689102932810783,0.41021066904067993,-0.13869059085845947
1772732454376632600,9.308632568359375,0.007420097943395376,0.42009514570236206,-0.15014135837554932
1772732454386659800,9.318659912109375,-0.0037486667279154062,0.42709285020828247,-0.14952856302261353
1772732454396686800,9.328686767578125,-0.02205605059862137,0.42613959312438965,-0.12965546548366547
1772732454406713600,9.338713623046875,-0.052167344838380814,0.4096064269542694,-0.08218169212341309
1772732454416742000,9.348741943359375,-0.08799204975366592,0.35293591022491455,-0.033921513706445694
1772732454426769700,9.358769775390625,-0.1168426051735878,0.2829402983188629,-0.014071375131607056
1772732454436796700,9.368796630859375,-0.13588611781597137,0.21091444790363312,-0.025824056938290596
1772732454446824700,9.37882470703125,-0.13627786934375763,0.14565688371658325,-0.05556837096810341
1772732454456852700,9.388852783203125,-0.08947564661502838,0.054727498441934586,-0.08761175721883774
1772732454466879700,9.398879638671875,0.00034132233122363687,-0.0745450034737587,-0.1193060353398323
1772732454476907800,9.40890771484375,0.11363506317138672,-0.1273762285709381,-0.1625548154115677
1772732454486935800,9.418935791015626,0.21594278514385223,-0.09838958829641342,-0.18912436068058014
1772732454496962800,9.428962890625,0.3070398271083832,-0.09850434213876724,-0.21454671025276184
1772732454506990600,9.438990478515626,0.37450888752937317,-0.10717399418354034,-0.2695934474468231
1772732454517017900,9.449017822265626,0.38539227843284607,-0.10249671339988708,-0.3454846739768982
1772732454527045600,9.459045654296874,0.3042580187320709,-0.0906648188829422,-0.3994531035423279
1772732454537074000,9.469073974609374,0.1606743484735489,-0.09928901493549347,-0.37996599078178406
1772732454547100700,9.4791005859375,-0.026247067376971245,-0.11354811489582062,-0.27684491872787476
1772732454557128700,9.489128662109374,-0.23314736783504486,-0.12923181056976318,-0.08418095856904984
1772732454567156700,9.49915673828125,-0.44141775369644165,-0.1427960842847824,0.164162278175354
1772732454577183700,9.509183837890625,-0.6111151576042175,-0.1309330314397812,0.40668195486068726
1772732454587211800,9.519211669921875,-0.7242799401283264,-0.1094851940870285,0.6074694395065308
1772732454597239800,9.52923974609375,-0.769628643989563,-0.07521995902061462,0.7362896203994751
1772732454607266600,9.5392666015625,-0.7650338411331177,-0.03109004907310009,0.7808579206466675
1772732454617294800,9.549294921875,-0.7256535887718201,0.026159340515732765,0.7382922172546387
1772732454627322600,9.559322509765625,-0.6684965491294861,0.11733585596084595,0.6189697980880737
1772732454637350000,9.569349853515625,-0.6169129610061646,0.21708285808563232,0.4809153079986572
1772732454647377700,9.579377685546875,-0.5854599475860596,0.30281051993370056,0.3643234372138977
1772732454657406000,9.589406005859376,-0.5852433443069458,0.36047497391700745,0.31953683495521545
1772732454667432700,9.5994326171875,-0.5777510404586792,0.36077430844306946,0.37169644236564636
1772732454677460700,9.609460693359376,-0.5237520933151245,0.2865021228790283,0.47549790143966675
1772732454687488800,9.61948876953125,-0.42604389786720276,0.1598464697599411,0.5615379810333252
1772732454697515800,9.629515869140626,-0.3034246861934662,-0.005500622559338808,0.5693208575248718
1772732454707543800,9.639543701171876,-0.18394835293293,-0.18133476376533508,0.48655861616134644
1772732454717571800,9.64957177734375,-0.07039358466863632,-0.3251083493232727,0.330130934715271
1772732454727598600,9.6595986328125,0.03204730525612831,-0.41582733392715454,0.1428295075893402
1772732454737627000,9.669626953125,0.11096368730068207,-0.4664403796195984,-0.023931745439767838
1772732454747654700,9.679654541015625,0.1616971790790558,-0.47515130043029785,-0.12857186794281006
1772732454757682700,9.6896826171875,0.1953401118516922,-0.4385162591934204,-0.17119981348514557
1772732454767709700,9.699709716796875,0.19798755645751953,-0.37055131793022156,-0.16084757447242737
1772732454777737700,9.70973779296875,0.18338975310325623,-0.28112301230430603,-0.11781392991542816
1772732454787765800,9.719765869140625,0.15162089467048645,-0.17530816793441772,-0.04789050668478012
1772732454797792800,9.729792724609375,0.12407750636339188,-0.08115063607692719,0.03432296961545944
1772732454807820800,9.73982080078125,0.09733138233423233,0.0006574154831469059,0.11552194505929947
1772732454817848600,9.7498486328125,0.07437402009963989,0.09716088324785233,0.17023257911205292
1772732454827875800,9.759875732421875,0.05517822131514549,0.1736745685338974,0.19395014643669128
1772732454837903600,9.769903564453125,0.04189581423997879,0.21287094056606293,0.16280321776866913
1772732454847932000,9.779931884765626,0.03188605606555939,0.2479996383190155,0.08225378394126892
1772732454857959000,9.789958984375,0.02211109735071659,0.28351494669914246,-0.010310586541891098
1772732454867986700,9.799986572265626,0.030626287683844566,0.278764933347702,-0.07398969680070877
1772732454878014000,9.810013916015626,0.05460130050778389,0.23636309802532196,-0.10686890035867691
1772732454888041700,9.820041748046876,0.08862638473510742,0.19260336458683014,-0.13314418494701385
1772732454898069800,9.83006982421875,0.12005840241909027,0.1725146472454071,-0.16209660470485687
1772732454908096800,9.8400966796875,0.1513601392507553,0.1444031298160553,-0.17853762209415436
1772732454918124800,9.850124755859374,0.1843593716621399,0.10795148462057114,-0.19099406898021698
1772732454928152800,9.86015283203125,0.22966161370277405,0.07811502367258072,-0.21677479147911072
1772732454938179800,9.870179931640624,0.27722349762916565,0.04748481139540672,-0.26326629519462585
1772732454948207900,9.880207763671875,0.3155282735824585,0.013994496315717697,-0.3163343071937561
1772732454958235600,9.890235595703125,0.34306663274765015,-0.006191416177898645,-0.36235013604164124
1772732454968262700,9.9002626953125,0.3542305827140808,-0.022487565875053406,-0.3848205804824829
1772732454978290700,9.910290771484375,0.3500273823738098,-0.04563865065574646,-0.37101006507873535
1772732454988318700,9.920318603515625,0.32958149909973145,-0.048933245241642,-0.3319771885871887
1772732454998345700,9.930345703125,0.28955018520355225,-0.057345375418663025,-0.27427154779434204
1772732455008373800,9.940373779296875,0.23973043262958527,-0.07688232511281967,-0.21572245657444
1772732455018401800,9.95040185546875,0.18585892021656036,-0.10145435482263565,-0.16280168294906616
1772732455028428800,9.9604287109375,0.12954211235046387,-0.14339914917945862,-0.10516900569200516
1772732455038456600,9.97045654296875,0.07645855098962784,-0.19344010949134827,-0.04773983731865883
1772732455048484900,9.98048486328125,0.021455753594636917,-0.21439944207668304,0.004142534453421831
1772732455058511600,9.99051171875,-0.03077002428472042,-0.22079484164714813,0.061554402112960815
1772732455068540000,10.000539794921876,-0.07320962846279144,-0.22057992219924927,0.11943262070417404
1772732455078567700,10.010567626953126,-0.10002659261226654,-0.19806769490242004,0.16500090062618256
1772732455088594700,10.0205947265625,-0.10942116379737854,-0.1562403440475464,0.1899605691432953
1772732455098622700,10.030622802734374,-0.1078018918633461,-0.10937374085187912,0.20225466787815094
1772732455108650800,10.040650634765624,-0.09773541241884232,-0.05406733974814415,0.20464539527893066
1772732455118677800,10.050677734375,-0.07887429744005203,-0.0025826951023191214,0.1925768405199051
1772732455128705800,10.060705810546875,-0.05103839933872223,0.0193585567176342,0.17623114585876465
1772732455138732500,10.070732666015624,-0.01028617937117815,-0.006254661828279495,0.158419668674469
1772732455148760800,10.0807607421875,0.03501871973276138,-0.06811349838972092,0.13757669925689697
1772732455158788600,10.09078857421875,0.06353136897087097,-0.1402418166399002,0.11320311576128006
1772732455168815900,10.10081591796875,0.07633557915687561,-0.21645696461200714,0.08825089782476425
1772732455178844200,10.11084423828125,0.08028292655944824,-0.2805253267288208,0.055480919778347015
1772732455188872200,10.1208720703125,0.08673443645238876,-0.2964627742767334,-0.0015275072073563933
1772732455198899200,10.130899169921875,0.07747261971235275,-0.2702832520008087,-0.08376429229974747
1772732455208927200,10.14092724609375,0.050601858645677567,-0.21710926294326782,-0.1558946818113327
1772732455218955300,10.150955322265625,0.019494086503982544,-0.14976468682289124,-0.18971994519233704
1772732455228982300,10.160982177734375,-0.007010756991803646,-0.06366655230522156,-0.15733589231967926
1772732455239010000,10.171010009765626,-0.02419375628232956,0.011967110447585583,-0.07320845127105713
1772732455249038300,10.181038330078126,-0.029943520203232765,0.04617461562156677,0.02192472666501999
1772732455259065000,10.191065185546876,-0.03319791704416275,0.07214212417602539,0.08961030840873718
1772732455269093400,10.20109326171875,-0.0383753664791584,0.09131049364805222,0.13483558595180511
1772732455279121200,10.21112109375,-0.03188538923859596,0.04394491761922836,0.19239076972007751
1772732455289148200,10.221148193359374,-0.003906483296304941,-0.04683239012956619,0.24435409903526306
1772732455299176200,10.23117626953125,0.018121853470802307,-0.1287538856267929,0.26820138096809387
1772732455309204200,10.241204345703125,0.023175999522209167,-0.20466595888137817,0.24934379756450653
1772732455319231200,10.251231201171874,0.02094286121428013,-0.25145384669303894,0.1948666125535965
1772732455329259300,10.26125927734375,0.00909578986465931,-0.2687132656574249,0.12261505424976349
1772732455339287300,10.271287353515625,0.004124591127038002,-0.26041290163993835,0.06840324401855469
1772732455349314300,10.281314208984375,0.0069504715502262115,-0.21612907946109772,0.051244232803583145
1772732455359342000,10.291342041015625,0.008465152233839035,-0.14452607929706573,0.07459666579961777
1772732455369370000,10.3013701171875,-0.0005911929183639586,-0.07939954102039337,0.11088143289089203
1772732455379397000,10.311397216796875,0.001857693656347692,-0.01330876350402832,0.14669059216976166
1772732455389425200,10.321425048828125,0.008456474170088768,0.0034052347764372826,0.16967207193374634
1772732455399452200,10.3314521484375,0.0124652199447155,-0.009884905070066452,0.1693897545337677
1772732455409480200,10.341480224609375,0.0006338611710816622,-0.02510380558669567,0.1496402770280838
1772732455419508200,10.35150830078125,-0.017281362786889076,-0.046218935400247574,0.1292969137430191
1772732455429535200,10.36153515625,-0.0349719412624836,-0.07240340113639832,0.11285295337438583
1772732455439563300,10.371563232421876,-0.061378300189971924,-0.08751562982797623,0.10253625363111496
1772732455449591000,10.381591064453126,-0.08487696200609207,-0.10738015174865723,0.1009167805314064
1772732455459618000,10.3916181640625,-0.094141386449337,-0.11230049282312393,0.09761250019073486
1772732455469646300,10.401646240234374,-0.08776897192001343,-0.09478754550218582,0.077830009162426
1772732455479674000,10.411674072265624,-0.08926097303628922,-0.05870303511619568,0.055758215487003326
1772732455489701400,10.421701416015624,-0.08387632668018341,-0.02555466815829277,0.0508236438035965
1772732455499729200,10.431729248046874,-0.07130731642246246,-0.01482152845710516,0.063932865858078
1772732455509757200,10.441757080078125,-0.06657221913337708,-0.013290743343532085,0.08465864509344101
1772732455519784200,10.4517841796875,-0.07534430176019669,-0.02728140354156494,0.11198431998491287
1772732455529812200,10.461812255859375,-0.0940713882446289,-0.0540432408452034,0.129464790225029
1772732455539840300,10.47184033203125,-0.10715705156326294,-0.07761575281620026,0.12627264857292175
1772732455549867300,10.4818671875,-0.11805657297372818,-0.09378380328416824,0.09902583807706833
1772732455559895300,10.491895263671875,-0.14058125019073486,-0.09376686811447144,0.06629276275634766
1772732455569923000,10.501923095703125,-0.15843001008033752,-0.07705313712358475,0.04241831973195076
1772732455579950000,10.5119501953125,-0.16378165781497955,-0.04228728264570236,0.036316800862550735
1772732455589978000,10.52197802734375,-0.14565405249595642,-0.0048086149618029594,0.0225053820759058
1772732455600006100,10.532006103515625,-0.11360719054937363,0.02916531264781952,0.008595751598477364
1772732455610033200,10.542033203125,-0.08025562763214111,0.0494343638420105,-0.01724889501929283
1772732455620061200,10.552061279296876,-0.045942522585392,0.06680262088775635,-0.044593725353479385
1772732455630089200,10.562089111328126,-0.014665293507277966,0.08207371830940247,-0.0694308951497078
1772732455640116200,10.5721162109375,0.013711659237742424,0.08758480846881866,-0.07899785786867142
1772732455650144000,10.58214404296875,0.05245239660143852,0.08049467951059341,-0.07316207140684128
1772732455660171300,10.592171142578126,0.0858394131064415,0.0601034015417099,-0.06328260153532028
1772732455670199000,10.602198974609376,0.1178617924451828,0.027160631492733955,-0.05956163629889488
1772732455680227300,10.612227294921874,0.14285628497600555,0.003883588593453169,-0.07107196003198624
1772732455690254300,10.62225439453125,0.1603601723909378,-0.010723317041993141,-0.09217964112758636
1772732455700282000,10.6322822265625,0.17999309301376343,-0.017292676493525505,-0.12485862523317337
1772732455710310100,10.64231005859375,0.20478393137454987,-0.007696241140365601,-0.16478313505649567
1772732455720337200,10.652337158203125,0.22621099650859833,-0.002992684254422784,-0.19571486115455627
1772732455730365200,10.662365234375,0.24930593371391296,0.0038867935072630644,-0.20120257139205933
1772732455740393200,10.672393310546875,0.2701517343521118,0.009203893132507801,-0.18374398350715637
1772732455750420000,10.682419921875,0.2863413393497467,-0.002484987024217844,-0.15645484626293182
1772732455760448300,10.6924482421875,0.2959102690219879,-0.009391135536134243,-0.13949012756347656
1772732455770476000,10.70247607421875,0.2988852858543396,-0.007078979164361954,-0.14177563786506653
1772732455780503300,10.71250341796875,0.29858851432800293,0.005438883788883686,-0.15500950813293457
1772732455790531000,10.722531005859375,0.3054432272911072,0.007239446975290775,-0.16361765563488007
1772732455800559400,10.732559326171875,0.31866905093193054,0.021255526691675186,-0.17902308702468872
1772732455810586000,10.742586181640625,0.32824498414993286,0.0529860220849514,-0.1844889521598816
1772732455820614100,10.7526142578125,0.34860333800315857,0.06703504174947739,-0.16554175317287445
1772732455830642200,10.76264208984375,0.3540191650390625,0.07068116962909698,-0.13746032118797302
1772732455840669200,10.772669189453126,0.35939306020736694,0.0804244801402092,-0.10637152194976807
1772732455850697200,10.782697265625,0.3475859463214874,0.1024477556347847,-0.08999361097812653
1772732455860725200,10.792725341796874,0.3305708169937134,0.12273824214935303,-0.07094546407461166
1772732455870752000,10.802751953125,0.31615006923675537,0.14606647193431854,-0.0441007986664772
1772732455880780300,10.8127802734375,0.3043385148048401,0.1765083372592926,-0.0013703550212085247
1772732455890808000,10.82280810546875,0.2945639193058014,0.20608220994472504,0.057216256856918335
1772732455900835300,10.83283544921875,0.2919269800186157,0.24183471500873566,0.1325472593307495
1772732455910863000,10.842863037109375,0.30000168085098267,0.25509247183799744,0.2145473212003708
1772732455920891400,10.852891357421875,0.315853089094162,0.20994937419891357,0.2654472589492798
1772732455930918100,10.862918212890625,0.32790282368659973,0.14397196471691132,0.26498040556907654
1772732455940946200,10.8729462890625,0.3412301540374756,0.06570950895547867,0.2071785032749176
1772732455950973200,10.88297314453125,0.34793785214424133,-0.0047113895416259766,0.12134028971195221
1772732455961001200,10.893001220703125,0.3593137264251709,-0.04051363468170166,0.04846593365073204
1772732455971029200,10.903029296875,0.3879365921020508,-0.06026124209165573,0.019272098317742348
1772732455981056300,10.91305615234375,0.4321655035018921,-0.10441127419471741,0.013947278261184692
1772732455991084000,10.923083984375,0.4791737496852875,-0.13334758579730988,-0.0140233701094985
1772732456001112300,10.9331123046875,0.5124270915985107,-0.11698135733604431,-0.06437668204307556
1772732456011139000,10.94313916015625,0.546026349067688,-0.07859321683645248,-0.14399400353431702
1772732456021167400,10.95316748046875,0.6049500703811646,0.04978770390152931,-0.23820719122886658
1772732456031195100,10.963195068359376,0.7167050838470459,0.23043711483478546,-0.35618868470191956
1772732456041222100,10.97322216796875,0.8480886220932007,0.4277937114238739,-0.5091490149497986
1772732456051250200,10.983250244140624,0.9640873670578003,0.5444686412811279,-0.6652020215988159
1772732456061278200,10.9932783203125,1.0620156526565552,0.6040938496589661,-0.7853796482086182
1772732456071305200,11.00330517578125,1.135845422744751,0.5696336030960083,-0.859805703163147
1772732456081333200,11.013333251953124,1.028153896331787,0.2749903202056885,-0.8683501482009888
1772732456091361300,11.023361328125,0.9794743657112122,0.3333423137664795,-0.9019507169723511
1772732456101388300,11.03338818359375,0.9354354739189148,0.5082641839981079,-0.9216024875640869
1772732456111416000,11.043416015625,0.8790121674537659,0.6141999363899231,-0.896791398525238
1772732456121444400,11.0534443359375,0.8065934777259827,0.6834429502487183,-0.8018712401390076
1772732456131471000,11.06347119140625,0.7036210298538208,0.7235107421875,-0.617816686630249
1772732456141499400,11.07349951171875,0.5804217457771301,0.7131879329681396,-0.3457671105861664
1772732456151527200,11.083527099609375,0.4574931859970093,0.6605297923088074,-0.0204894058406353
1772732456161554200,11.09355419921875,0.3648218512535095,0.5630818605422974,0.29674601554870605
1772732456171582200,11.103582275390625,0.299784779548645,0.438664048910141,0.5594825744628906
1772732456181610000,11.11360986328125,0.28403422236442566,0.32782313227653503,0.7278254628181458
1772732456191636700,11.12363671875,0.33089548349380493,0.2938917875289917,0.7851660251617432
1772732456201664800,11.133664794921875,0.38253897428512573,0.3110489547252655,0.7626731395721436
1772732456211692800,11.14369287109375,0.3878072500228882,0.2941482663154602,0.6922594308853149
1772732456221719800,11.1537197265625,0.3877585530281067,0.3140823245048523,0.5827411413192749
1772732456231747800,11.163747802734376,0.39542099833488464,0.37190061807632446,0.4570479393005371
1772732456241774800,11.17377490234375,0.42678818106651306,0.4183620810508728,0.32296934723854065
1772732456251802600,11.183802734375,0.4918294847011566,0.4861224889755249,0.17380648851394653
1772732456261831000,11.193830810546874,0.5781038403511047,0.550781786441803,0.025775380432605743
1772732456271857700,11.203857666015624,0.6769507527351379,0.5720950365066528,-0.09769169986248016
1772732456281886000,11.213885986328124,0.7492267489433289,0.526383101940155,-0.19406433403491974
1772732456291913700,11.223913818359375,0.7816664576530457,0.43942001461982727,-0.26112857460975647
1772732456301940700,11.233940673828124,0.7462416291236877,0.24641063809394836,-0.28394001722335815
1772732456311968800,11.24396875,0.6462503671646118,-0.052046358585357666,-0.2720250189304352
1772732456321996800,11.253996826171875,0.4854029417037964,-0.3355323374271393,-0.24064011871814728
1772732456332023800,11.26402392578125,0.3003651797771454,-0.5359477400779724,-0.1905527114868164
1772732456342051800,11.2740517578125,0.1364198625087738,-0.6604912281036377,-0.13682492077350616
1772732456352080000,11.284079833984375,-0.008254234679043293,-0.6929234862327576,-0.09705565869808197
1772732456362107000,11.29410693359375,-0.1353606879711151,-0.644126296043396,-0.058605924248695374
1772732456372134700,11.304134765625,-0.2361011505126953,-0.529885470867157,-0.014270415529608727
1772732456382162700,11.31416259765625,-0.31060174107551575,-0.37353456020355225,0.04315904155373573
1772732456392189700,11.324189697265625,-0.34230268001556396,-0.175885409116745,0.11271362006664276
1772732456402218000,11.334218017578126,-0.3565506637096405,0.016313565894961357,0.19469089806079865
1772732456412245800,11.344245849609376,-0.3438476324081421,0.15386663377285004,0.27356866002082825
1772732456422272800,11.354272705078126,-0.3235783874988556,0.23732616007328033,0.32787013053894043
1772732456432300800,11.36430078125,-0.310585618019104,0.2917076349258423,0.3537760078907013
1772732456442328600,11.37432861328125,-0.29712390899658203,0.2930161952972412,0.3596177101135254
1772732456452355800,11.38435595703125,-0.2730015218257904,0.26721203327178955,0.3406405746936798
1772732456462383900,11.3943837890625,-0.22992123663425446,0.24021580815315247,0.3032187521457672
1772732456472412000,11.404411865234374,-0.18572580814361572,0.17788131535053253,0.24376393854618073
1772732456482439000,11.41443896484375,-0.14181829988956451,0.07664629817008972,0.1620723307132721
1772732456492466700,11.424466796875,-0.09850943833589554,-0.0444503016769886,0.058882564306259155
1772732456502494700,11.43449462890625,-0.06439658999443054,-0.1743280440568924,-0.050961680710315704
1772732456512521700,11.444521728515625,-0.04916676506400108,-0.2871248722076416,-0.13688057661056519
1772732456522549800,11.4545498046875,-0.04506034776568413,-0.31874987483024597,-0.18148843944072723
1772732456532577800,11.464577880859375,-0.04677435755729675,-0.2792762219905853,-0.16487830877304077
1772732456542604800,11.474604736328125,-0.06158887594938278,-0.2488688826560974,-0.09427041560411453
1772732456552632800,11.4846328125,-0.08426808565855026,-0.2449343353509903,0.017507778480648994
1772732456562659800,11.494659912109375,-0.13004720211029053,-0.2684342861175537,0.13491518795490265
1772732456572688000,11.50468798828125,-0.20259730517864227,-0.3209156095981598,0.24309411644935608
1772732456582715600,11.514715576171875,-0.28276950120925903,-0.3617865741252899,0.3039955198764801
1772732456592742700,11.52474267578125,-0.34440144896507263,-0.378741592168808,0.3234158456325531
1772732456602770700,11.534770751953126,-0.3773316442966461,-0.40023747086524963,0.33336907625198364
1772732456612798700,11.544798828125,-0.4030703008174896,-0.441785991191864,0.3415183424949646
1772732456622826000,11.554825927734376,-0.4317780137062073,-0.4885193407535553,0.3529772162437439
1772732456632853800,11.564853759765626,-0.4610360264778137,-0.512202799320221,0.3660357594490051
1772732456642881800,11.5748818359375,-0.5030979514122009,-0.45051109790802,0.3691693842411041
1772732456652908800,11.58490869140625,-0.5342191457748413,-0.2882731854915619,0.3352183401584625
1772732456662936600,11.5949365234375,-0.5217388272285461,-0.05815562605857849,0.28338515758514404
1772732456672964900,11.60496484375,-0.4518079459667206,0.21166066825389862,0.24439087510108948
1772732456682991600,11.61499169921875,-0.32980719208717346,0.44002434611320496,0.2532050907611847
1772732456693020000,11.62502001953125,-0.17624080181121826,0.5092186331748962,0.2925495505332947
1772732456703047700,11.635047607421875,-0.0326375886797905,0.425418496131897,0.32690945267677307
1772732456713074700,11.64507470703125,0.078311026096344,0.2299235612154007,0.3138282597064972
1772732456723102700,11.655102783203125,0.14540377259254456,-0.030559951439499855,0.24203184247016907
1772732456733130800,11.665130859375,0.17302155494689941,-0.29314228892326355,0.12068437784910202
1772732456743157800,11.67515771484375,0.15846754610538483,-0.49500006437301636,-0.0035545355640351772
1772732456753185800,11.685185791015625,0.11793770641088486,-0.5711126923561096,-0.10277033597230911
1772732456763213800,11.6952138671875,0.08088842034339905,-0.5724955797195435,-0.1717032790184021
1772732456773240800,11.70524072265625,0.048271093517541885,-0.5368790030479431,-0.18602415919303894
1772732456783268600,11.7152685546875,0.027409328147768974,-0.4670594334602356,-0.1470540314912796
1772732456793297000,11.725296875,0.021746115759015083,-0.3717057704925537,-0.07000932097434998
1772732456803323600,11.73532373046875,0.03931182250380516,-0.2665354013442993,0.012858069501817226
1772732456813352000,11.74535205078125,0.06902924180030823,-0.16229365766048431,0.0654778704047203
1772732456823379700,11.755379638671876,0.09858570992946625,-0.0858524814248085,0.06616407632827759
1772732456833406700,11.76540673828125,0.12719257175922394,-0.04776102304458618,0.021326836198568344
1772732456843434800,11.775434814453124,0.132714182138443,-0.034853510558605194,-0.03523087501525879
1772732456853462800,11.785462890625,0.13125529885292053,-0.05732446163892746,-0.08225670456886292
1772732456863489800,11.79548974609375,0.11215435713529587,-0.0864906758069992,-0.11826111376285553
1772732456873517800,11.805517822265625,0.08570411056280136,-0.13432824611663818,-0.13953684270381927
1772732456883545900,11.8155458984375,0.04534953832626343,-0.16623938083648682,-0.14901778101921082
1772732456893572900,11.82557275390625,0.0094437375664711,-0.17607229948043823,-0.1398245394229889
1772732456903600600,11.8356005859375,-0.004804911091923714,-0.18101774156093597,-0.1285989135503769
1772732456913629000,11.84562890625,-0.027697710320353508,-0.16660818457603455,-0.11792655289173126
1772732456923655700,11.85565576171875,-0.04502246528863907,-0.17070578038692474,-0.10364756733179092
1772732456933684000,11.86568408203125,-0.033819880336523056,-0.19772301614284515,-0.08118007332086563
1772732456943710700,11.875710693359375,0.04400654137134552,-0.20591066777706146,0.004693130496889353
1772732456953738800,11.88573876953125,0.10132895410060883,-0.08229312300682068,0.02777155116200447
1772732456963766800,11.895766845703125,0.10658802837133408,-0.014918545261025429,0.009361430071294308
1772732456973793800,11.905793701171875,0.10682505369186401,0.04627716913819313,-0.008303317241370678
1772732456983821800,11.91582177734375,0.09161420911550522,0.07271566987037659,-0.021390508860349655
1772732456993849900,11.925849853515626,0.06178254261612892,0.06401139497756958,-0.04060814529657364
1772732457003876600,11.935876708984376,0.021414080634713173,0.07041522860527039,-0.06963500380516052
1772732457013905000,11.94590478515625,-0.012909269891679287,0.0873665139079094,-0.1072327122092247
1772732457023932700,11.9559326171875,-0.030894506722688675,0.11768616735935211,-0.1590520143508911
1772732457033960000,11.9659599609375,-0.04607612267136574,0.15847568213939667,-0.2499329149723053
1772732457043987700,11.97598779296875,-0.052890852093696594,0.18931664526462555,-0.3667227327823639
1772732457054016000,11.98601611328125,-0.027788961306214333,0.17431798577308655,-0.45308852195739746
1772732457064042800,11.996042724609374,-0.0006797369569540024,0.10736607760190964,-0.46082359552383423
1772732457074070800,12.00607080078125,0.007371264975517988,0.008682643994688988,-0.39473405480384827
