time,seconds_elapsed,z,y,x
1772641340113484500,0.062484619140625,-0.5649509277760982,0.6991760044790803,-0.3328404271867126
1772641340123529700,0.07252978515625,-0.5952005200892686,0.7202225919000804,-0.3754468853130936
1772641340133575700,0.08257568359375,-0.5385784691572189,0.7373475488979369,-0.41318712564259763
1772641340143620600,0.09262060546875,-0.36040509126484394,0.7738172578349709,-0.34472499931305645
1772641340153665500,0.10266552734375,-0.03721066349744796,0.7365773682430387,-0.2511641240948811
1772641340163711500,0.11271142578125,0.32036183468997476,0.7532286433145403,-0.16892430536877362
1772641340173756700,0.122756591796875,0.6863152077317237,0.7512633345909416,-0.08819437974896281
1772641340183801600,0.132801513671875,1.0309043057054281,0.7172199029527604,0.03271262142583728
1772641340193846800,0.1428466796875,1.3775222791582344,0.6785422356426716,0.09311616365797817
1772641340203892700,0.152892822265625,1.6070564264535903,0.6178212249591947,0.13102321192175148
1772641340213937700,0.162937744140625,1.7339748334050178,0.5357116815492511,0.2243482690900564
1772641340223982600,0.172982666015625,1.8370424091696738,0.47273865415528415,0.3466296638906002
1772641340234027500,0.183027587890625,1.831103666770458,0.4108559062160551,0.46940709857977925
1772641340244073700,0.19307373046875,1.6776818682968615,0.34327538502663374,0.5791570016525686
1772641340254118700,0.20311865234375,1.5126497115284203,0.3804018773719668,0.5636373609595
1772641340264163800,0.213163818359375,1.3340560623973607,0.4239243543647229,0.4945039112396538
1772641340274209800,0.223209716796875,1.2082768886089323,0.4100193092614412,0.4599865784794092
1772641340284254500,0.23325439453125,1.132774780640006,0.4314215782523155,0.48400392533950504
1772641340294299600,0.243299560546875,1.0311644179463386,0.5141805254817009,0.466144735782966
1772641340304344600,0.253344482421875,0.8482605044007301,0.6404249786943197,0.4387942259121686
1772641340314390800,0.263390869140625,0.6551426553547381,0.7587056134209036,0.4579406057350337
1772641340324435700,0.273435791015625,0.4682148931205272,0.8525812902092933,0.46628195229656993
1772641340334480600,0.283480712890625,0.22619068208634852,0.906208250978589,0.52326246127747
1772641340344526800,0.29352685546875,-0.016574118182063103,0.9084780225414782,0.5197733770526946
1772641340354571500,0.303571533203125,-0.3568061899900436,0.8539495098225772,0.44123825806342065
1772641340364616700,0.31361669921875,-0.5623427911043167,0.8112455826710909,0.3365068407397717
1772641340374661600,0.32366162109375,-0.6069307053714991,0.627683716673404,0.22403270033486186
1772641340384707600,0.33370751953125,-0.4211170418590307,0.31087614039890465,0.02512991121187806
1772641340394752800,0.343752685546875,-0.17052257087826728,0.10596117831431329,-0.18229111540950835
1772641340404797400,0.35379736328125,0.08904255754351616,-0.07717712850905954,-0.3525356730639934
1772641340414843600,0.36384375,0.24173662626445291,-0.26090185691826046,-0.44744507681429385
1772641340424888600,0.373888671875,0.37326866449117657,-0.39041985190883277,-0.5119865956339985
1772641340434933800,0.383933837890625,0.4971235922187566,-0.48102797826863825,-0.611664163634181
1772641340444978700,0.393978759765625,0.6195446877509355,-0.5673825388371944,-0.6836128899704664
1772641340455024600,0.404024658203125,0.7378934192776679,-0.652561698950827,-0.8154747446734458
1772641340465069800,0.41406982421875,0.8053104204684496,-0.7440320681631565,-0.8366438624955713
1772641340475114500,0.424114501953125,0.9033359104126691,-0.7824123599618673,-0.8081725319012999
1772641340485160700,0.43416064453125,0.9448954167693853,-0.8020596750441938,-0.7936865451049059
1772641340495205600,0.44420556640625,0.8890835131764412,-0.8308761658143252,-0.7110366842731833
1772641340505250800,0.454250732421875,0.8717997854202986,-0.806904484726861,-0.6174140323977917
1772641340515295700,0.464295654296875,0.7961644064605236,-0.7911601684324443,-0.5869509434644132
1772641340525341700,0.474341796875,0.6867582753241062,-0.7936548347923904,-0.5276761130012572
1772641340535386600,0.48438671875,0.4207148907989263,-0.7577222284067422,-0.554428583913669
1772641340545431600,0.494431640625,0.2865887444257736,-0.7399129424065352,-0.5393208850223571
1772641340555476700,0.504476806640625,0.09086743488311767,-0.7079210364706814,-0.4433038853563368
1772641340565522700,0.514522705078125,0.03445347374379635,-0.6816774649284779,-0.32675423914082347
1772641340575567600,0.524567626953125,-0.07043254961967468,-0.6501824025988578,-0.22929142458066343
1772641340585612800,0.53461279296875,-0.1509492708802223,-0.6017044220905751,-0.17724610697962342
1772641340595658500,0.544658447265625,-0.2142319487452507,-0.5778416812703013,-0.1258965165577829
1772641340605703700,0.55470361328125,-0.2543435943812132,-0.576190845323354,-0.06869337780214846
1772641340615748600,0.56474853515625,-0.20326164191961288,-0.6201713682819158,-0.0021366467025130988
1772641340625793800,0.574793701171875,-0.1469189924508333,-0.6704435387305915,0.060458487289771434
1772641340635839700,0.58483984375,-0.089811203828454,-0.70622862640433,0.08386581249274314
1772641340645884700,0.594884765625,-0.02607201436758041,-0.7423726105183363,0.07870850279480218
1772641340655929600,0.6049296875,0.06342413216233253,-0.7937295074637979,0.07554075947888195
1772641340665975600,0.6149755859375,0.10759177519083023,-0.8550584209125488,0.037074981353804465
1772641340676020700,0.625020751953125,0.1310895551562309,-0.9184895673375576,0.035418007927015424
1772641340686065700,0.635065673828125,0.161367789041996,-0.9463048451758921,0.07551555197238921
1772641340696110800,0.64511083984375,0.2221703405290842,-0.9615273295532911,0.1530412016581744
1772641340706156800,0.65515673828125,0.2663070038974285,-0.9614009266946464,0.2378298280842602
1772641340716201500,0.665201416015625,0.24518588993549345,-0.9435979973699897,0.28755357086993755
1772641340726246700,0.67524658203125,0.16332126119732857,-0.8986096856083721,0.3174740042939782
1772641340736292600,0.685292724609375,0.042405309531092644,-0.8156142262093722,0.3413281234163791
1772641340746337500,0.695337646484375,-0.07668518027365208,-0.7199125030376017,0.37739451224952936
1772641340756382700,0.7053828125,-0.18084288936257362,-0.6529873770169914,0.46594409864433106
1772641340766427600,0.715427734375,-0.2776017203718424,-0.5908361873999237,0.5873653329515829
1772641340776473900,0.725473876953125,-0.3785182555824518,-0.598560644172132,0.7330921564757823
1772641340786518300,0.735518310546875,-0.4502805925011635,-0.7313576608333736,0.8930561431344598
1772641340796563500,0.7455634765625,-0.3966553852975368,-0.8324263909310102,0.9798334591597319
1772641340806609400,0.755609375,-0.3023310879588127,-0.9025441755130886,0.9968068057924508
1772641340816654000,0.765654052734375,-0.1703957296282053,-0.8805317387346178,0.8702091552279889
1772641340826699300,0.77569921875,-0.15250409910678864,-0.8010772398781031,0.5345203894054517
1772641340836744200,0.785744140625,-0.36879941012263295,-0.5266602870222181,0.17598562205713242
1772641340846790400,0.795790283203125,-0.5945423484414816,-0.16915310915596782,-0.012586181057058273
1772641340856835300,0.80583544921875,-1.0107283636391162,0.12430639782212674,0.029441417735442517
1772641340866880300,0.81588037109375,-1.4822715243995188,0.42780360695086417,0.18864961759075521
1772641340876925200,0.82592529296875,-1.6760685878813266,0.5710107392717152,0.37927663620170204
1772641340886971100,0.83597119140625,-1.8616075261056422,0.6219938344687224,0.44350295159239317
1772641340897016300,0.846016357421875,-1.7562743434965609,0.7600756596650928,0.447013663127087
1772641340907061200,0.856061279296875,-1.6880623925358056,0.8518621090892702,0.4446613278472796
1772641340917107500,0.866107421875,-1.5856810454696415,0.8568173203438519,0.40363326148614287
1772641340927152400,0.87615234375,-1.4903069468170405,0.7816954438641667,0.26022903569061306
1772641340937197300,0.886197265625,-1.3522732716113328,0.7482332461800426,0.051252852049097415
1772641340947242200,0.8962421875,-1.1376473551124333,0.7411022983215749,-0.10541928998995571
1772641340957288200,0.9062880859375,-0.7520441097050905,0.7519709714036434,-0.16227883947230876
1772641340967333400,0.91633349609375,-0.2557628135293722,0.8009899999860673,-0.09158376645892859
1772641340977378300,0.92637841796875,0.2645031693458557,0.8377573766954243,0.04928772598858922
1772641340987424300,0.93642431640625,0.7238835986256599,0.8619193927232176,0.20784681428540497
1772641340997469200,0.94646923828125,1.1122212374329565,0.8754249901801348,0.3186338053209707
1772641341007514000,0.95651416015625,1.418825764927268,0.9146350838664918,0.3504804940998554
1772641341017559300,0.966559326171875,1.6067659190744161,0.9014100569166242,0.32941589609812943
1772641341027605200,0.976605224609375,1.775880961242318,0.8720105055615306,0.23400921035017816
1772641341037650400,0.986650390625,1.7421973028272388,0.8345895603142678,0.08756068495530635
1772641341047695400,0.9966953125,1.6639771680712698,0.8142901379987597,-0.060908021155558524
1772641341057740300,1.006740234375,1.5743091721057891,0.8610251472972333,-0.21393117570038883
1772641341067786200,1.0167861328125,1.5182459241002797,0.904074746081233,-0.283167172479257
1772641341077831200,1.0268310546875,1.467894039478898,0.9159795572780072,-0.23162746631279588
1772641341087876400,1.03687646484375,1.5008569824039935,0.9130639620922505,-0.135721160479635
1772641341097922300,1.04692236328125,1.553369259929657,0.9383670379139483,-0.12983089686464516
1772641341107967500,1.056967529296875,1.5131757812291382,0.9502928918987512,-0.1699846646092832
1772641341118012200,1.06701220703125,1.3822744421213864,0.961687415485829,-0.11336842236351222
1772641341128057300,1.077057373046875,1.1995873861968516,1.0305006202753633,-0.014237053536623715
1772641341138103300,1.087103271484375,0.9518635022163391,1.1074877791702746,0.0904774857174605
1772641341148148200,1.097148193359375,0.616772300428152,1.1865098779588936,0.13771226123161612
1772641341158193400,1.107193359375,0.3003127338737249,1.249809506958723,0.12363138463739305
1772641341168239400,1.1172392578125,-0.06755319479107856,1.2697665455773472,0.07384206580221653
1772641341178284300,1.1272841796875,-0.2982043634176254,1.2749302119508386,-0.0038927696548402306
1772641341188329200,1.1373291015625,-0.5716881270766258,1.210007219532877,-0.05235376249570399
1772641341198374100,1.1473740234375,-0.7788982143610715,1.0906076637789606,-0.1217617548406124
1772641341208420400,1.15742041015625,-0.920294643998146,0.8896631396953016,-0.24012363810986279
1772641341218465300,1.16746533203125,-0.7894576022982597,0.6524350038312375,-0.4063245463967323
1772641341228510500,1.177510498046875,-0.589526566106081,0.3805577985860407,-0.5489505178287625
1772641341238556400,1.187556396484375,-0.3254834154874086,0.14590930395163595,-0.6584713613860309
1772641341248601000,1.19760107421875,-0.1502303089559078,-0.08302958086431025,-0.7436732447881251
1772641341258646300,1.207646240234375,-0.01087561427950859,-0.27180998522788286,-0.7773192746065557
1772641341268691200,1.217691162109375,0.08580489079654216,-0.41418402772545815,-0.7930622757267206
1772641341278737400,1.2277373046875,0.20188918452262877,-0.5196344069734216,-0.7903564508341252
1772641341288782300,1.2377822265625,0.35955285834968087,-0.5790444811888039,-0.7935239018891006
1772641341298827300,1.2478271484375,0.47637131156921386,-0.6067446812801063,-0.7757267447181045
1772641341308873200,1.257873291015625,0.5568699126511812,-0.6266346460118889,-0.7610300377804785
1772641341318918100,1.267918212890625,0.602850158059597,-0.5917255374550819,-0.6947461322728544
1772641341328963300,1.27796337890625,0.5728326209366321,-0.5248558679487556,-0.6024917730759829
1772641341339008300,1.28800830078125,0.5225888728648423,-0.4399718183241784,-0.5065074335705488
1772641341349054500,1.298054443359375,0.4035270246326923,-0.37531324899606405,-0.41827085864767427
1772641341359099400,1.308099365234375,0.2734486923456192,-0.3098815033383667,-0.3193273770757019
1772641341369144300,1.318144287109375,0.1253957274287939,-0.2505718938227743,-0.24341917252391576
1772641341379189200,1.328189208984375,0.04004617918431758,-0.2213008642181754,-0.1972197314068675
1772641341389235200,1.338235107421875,-0.025238486152887343,-0.2060586522269994,-0.12525960689373314
1772641341399280400,1.3482802734375,-0.09336042074263096,-0.2197527579933405,-0.07981332223154604
1772641341409325300,1.3583251953125,-0.13036591705679892,-0.22630645395312457,-0.04331877111420035
1772641341419371300,1.368371337890625,-0.12088672557175159,-0.2258011713121086,-0.030475071632117032
1772641341429416200,1.378416259765625,-0.07861351798772812,-0.22141195990983395,-0.036859292776510115
1772641341439461000,1.388461181640625,-0.15454057337045668,-0.2302201567981392,-0.0366336673270911
1772641341449506300,1.39850634765625,-0.24073943192064762,-0.25468955827467143,-0.03790127611011267
1772641341459552300,1.40855224609375,-0.21131752260327338,-0.28733642098791895,-0.021153920252993702
1772641341469597400,1.418597412109375,-0.12913666752278805,-0.302987944432348,-0.004558540087193251
1772641341479642400,1.428642333984375,-0.06593290011286736,-0.35342487698867914,0.03807517137229442
1772641341489688300,1.438688232421875,-0.0060965633094310755,-0.4119088858677074,0.0717997463196516
1772641341499733200,1.448733154296875,0.05232639956474304,-0.4406791263433173,0.06909406755752862
1772641341509778200,1.458778076171875,0.10668576626181601,-0.4621274264330044,0.024653598937019704
1772641341519823400,1.4688232421875,0.14234686222970486,-0.4957244660105556,-0.04791800853796303
1772641341529869300,1.478869384765625,0.14477613520324228,-0.535542170201242,-0.06584967880882323
1772641341539914500,1.48891455078125,0.11906418631970882,-0.5421523090559989,-0.059064840974286194
1772641341549959200,1.498959228515625,0.07936988931298256,-0.5601655201304704,-0.027640067401900885
1772641341560005000,1.509005126953125,0.05558627814352512,-0.558118524472788,-0.03130129332318902
1772641341570050300,1.51905029296875,0.07247428458034992,-0.5306180847372859,-0.0380925608985126
1772641341580095200,1.52909521484375,0.05359890371859073,-0.5070251738343388,-0.02523380997776985
1772641341590140400,1.539140380859375,0.009979542222619056,-0.49498424210250375,0.009556129178777337
1772641341600186400,1.549186279296875,-0.06013210487961769,-0.4896796328883618,0.03970021529085934
1772641341610231300,1.559231201171875,-0.06670563805103302,-0.47029564491733905,0.06671966657638549
1772641341620276200,1.569276123046875,-0.03830371943116188,-0.4358256584301591,0.08959661122970282
1772641341630321200,1.579321044921875,-0.0030097032099962234,-0.44019247533753514,0.13761055442281067
1772641341640367400,1.589367431640625,0.08012216898500919,-0.4862278849992901,0.1817596388813108
1772641341650412300,1.599412353515625,0.17436989395618438,-0.4857184741724282,0.24094511056058107
1772641341660457500,1.60945751953125,0.33816052623093124,-0.4351042122878134,0.30861440601199863
1772641341670503400,1.61950341796875,0.42782969124019143,-0.4129208028566092,0.3856754338607192
1772641341680548000,1.629548095703125,0.3816559690862894,-0.37687954846471544,0.3753757928382605
1772641341690593300,1.63959326171875,0.1646264985769987,-0.29356610915772613,0.2969341242861003
1772641341700638200,1.64963818359375,-0.2764145564138889,-0.20399068684652447,0.22376308961324393
1772641341710684400,1.659684326171875,-0.548155275797844,-0.0315340791657567,0.18001644847579298
1772641341720729300,1.669729248046875,-0.607790537071228,0.1643003353625536,0.02630326584018767
1772641341730774300,1.679774169921875,-0.6714876409560442,0.30079379538893697,-0.11490772422738373
1772641341740820200,1.6898203125,-0.6934609878331423,0.3836793646726757,-0.2185904362156987
1772641341750865200,1.699865234375,-0.6572574555516243,0.4610520888190716,-0.2396134235654026
1772641341760910300,1.709910400390625,-0.6344909124702215,0.38759098515845836,-0.28178236705735327
1772641341770955300,1.719955322265625,-0.4813812486857176,0.47027336002029474,-0.29143194667324424
1772641341781001200,1.730001220703125,-0.41910219490528106,0.4688785446610301,-0.3301156783979386
1772641341791047700,1.740047607421875,-0.3324672830253839,0.3776238640259951,-0.3932138665415346
1772641341801092600,1.750092529296875,-0.2515022334754467,0.3149858407400548,-0.4325381611920893
1772641341811138600,1.760138671875,-0.19756430706083775,0.2433919191908091,-0.4899504857189953
1772641341821183500,1.77018359375,-0.2233113272577524,0.1744800763323903,-0.5800299850948154
1772641341831228400,1.780228515625,-0.317511705955863,0.12281477102488278,-0.6599750439472496
1772641341841273600,1.790273681640625,-0.3053068888992071,0.08124079775139689,-0.7073615759570151
1772641341851319600,1.800319580078125,-0.3272609465539455,0.040609877481684084,-0.8144679057184606
1772641341861364500,1.810364501953125,-0.3763736447691917,0.06492474598363042,-0.8303593023333699
1772641341871409400,1.820409423828125,-0.33605157125294205,0.1191997953981161,-0.7636690810471772
1772641341881454600,1.83045458984375,-0.2699421455293894,0.15890256797224284,-0.6561996901270002
1772641341891500500,1.84050048828125,-0.17444821988940237,0.25078970129191874,-0.5237381890304387
1772641341901545500,1.85054541015625,-0.041507483908534044,0.31724625995270905,-0.369755614868924
1772641341911590700,1.860590576171875,0.08856909481287002,0.34934681389480826,-0.21043182580992578
1772641341921636600,1.87063671875,0.2572977680116892,0.35868031329885125,-0.05118292861804366
1772641341931681500,1.880681640625,0.4274883304566145,0.35756913718655703,0.07142199904844164
1772641341941726500,1.8907265625,0.6207347743183375,0.3271628930069506,0.17464023533016443
1772641341951771400,1.900771484375,0.774831695574522,0.28931911923773584,0.23328736234903333
1772641341961817600,1.910817626953125,0.8599491886287927,0.2761173270329833,0.25870441993921994
1772641341971862500,1.920862548828125,0.8637199393391609,0.28044351966902614,0.24351561863571403
1772641341981907700,1.93090771484375,0.8510551035553217,0.3152577895492315,0.25603848866559564
1772641341991953700,1.94095361328125,0.7797346651852131,0.3516233074594289,0.2529105659034103
1772641342001998300,1.950998291015625,0.6572223842382431,0.40272374542579054,0.2274785299398005
1772641342012043500,1.96104345703125,0.6308125162184238,0.45437312251180406,0.20318243920356033
1772641342022088400,1.97108837890625,0.7165928570955992,0.515563723468408,0.25022739123404025
1772641342032134700,1.981134765625,0.827421129989624,0.6378497944440692,0.30302571915946896
1772641342042179600,1.9911796875,0.8942436724185943,0.7363572957515716,0.39253523662760853
1772641342052224500,2.001224609375,0.8793155678778887,0.8194001014236361,0.4743578528549522
1772641342062270700,2.011270751953125,0.7929284932792187,0.8709761210124939,0.5040677853334695
1772641342072315400,2.0213154296875,0.7069634434849024,0.9401037255134433,0.5471736443493515
1772641342082360600,2.031360595703125,0.6236158827126026,0.9732811149068176,0.579073634218052
1772641342092405500,2.041405517578125,0.48465515578985213,0.9586737667530775,0.5732878904234617
1772641342102451500,2.051451416015625,0.3356131798356771,0.914311770196259,0.5856652145028114
1772641342112496600,2.06149658203125,0.10685878474116325,0.7976388629272579,0.5443950464814901
1772641342122541300,2.071541259765625,0.13066051608920096,0.5586923057727515,0.4159688653156161
1772641342132587500,2.08158740234375,0.1672925029158592,0.3102041959540918,0.20160985612459478
1772641342142632400,2.091632568359375,0.26415362525582314,0.13281144704539327,-0.10384798555262387
1772641342152677600,2.101677734375,0.29574235721826553,-0.07297078112671151,-0.298894245377928
1772641342162722600,2.11172265625,0.32716800757348535,-0.2064121601060964,-0.37789771253131327
1772641342172768500,2.1217685546875,0.3574298748463392,-0.27462496958337723,-0.3799816791985184
1772641342182813700,2.131813720703125,0.4047229564189911,-0.3079884561333805,-0.3216846077263355
1772641342192858400,2.1418583984375,0.42903439085483547,-0.2987282959601842,-0.23478688019178806
1772641342202903600,2.151903564453125,0.46005789014995097,-0.3008578736010939,-0.15027181001007556
1772641342212949500,2.161949462890625,0.48964229655265806,-0.30795221577621995,-0.0912726546831429
1772641342222994700,2.17199462890625,0.4748749355316162,-0.3247742443047464,-0.1107644869428128
1772641342233039600,2.18203955078125,0.4651929149508476,-0.3368126918185502,-0.1585351959645748
1772641342243085600,2.19208544921875,0.3930447935849428,-0.3487683564197272,-0.1819586685847491
1772641342253130500,2.202130615234375,0.31288521519899365,-0.3694842140490189,-0.2006288091979921
1772641342263175400,2.212175537109375,0.20184359181523323,-0.37222565824426707,-0.20690540524944662
1772641342273220600,2.222220703125,0.09541384614109992,-0.36398265749067066,-0.18963271034397183
1772641342283266600,2.2322666015625,-0.015740589967370034,-0.36963235381543635,-0.16396613497212528
1772641342293311500,2.2423115234375,-0.11196692153513431,-0.36968905243873595,-0.14421733227670192
1772641342303356700,2.252356689453125,-0.20957564737200735,-0.37897308667786417,-0.11897373155727982
1772641342313402400,2.26240234375,-0.30167525439858434,-0.4092732766671106,-0.10397205032370983
1772641342323447600,2.272447509765625,-0.3373386884540319,-0.467101634649001,-0.09570720306448638
1772641342333492500,2.282492431640625,-0.3290817322403192,-0.533444394204393,-0.1204567366566509
1772641342343537700,2.29253759765625,-0.34533319433927534,-0.6108099944902584,-0.16820333415046335
1772641342353583600,2.30258349609375,-0.35466508630812166,-0.6997281584691256,-0.1939076842494309
1772641342363628500,2.312628662109375,-0.3290180193543434,-0.7823902211952954,-0.19396343302465974
1772641342373673500,2.322673583984375,-0.2930921349704265,-0.8284738539129495,-0.17878968315981328
1772641342383719400,2.332719482421875,-0.27661797003149985,-0.8598942435711622,-0.1641599770437926
1772641342393764600,2.3427646484375,-0.25156477731764315,-0.8891467146057636,-0.1405764915563166
1772641342403809500,2.3528095703125,-0.21142799724042413,-0.9229213392399251,-0.13177921792082486
1772641342413854700,2.362854736328125,-0.1547790583014488,-0.9919481137149035,-0.11742058383114636
1772641342423900700,2.372900634765625,-0.10416647691726684,-1.0476439166475087,-0.13595314260460437
1772641342433945300,2.3829453125,-0.04222293870151043,-1.075137488250807,-0.15326032430157063
1772641342443990500,2.392990478515625,0.021286533656716344,-1.0280195440493523,-0.14434424659200012
1772641342454035500,2.403035400390625,-0.005621347013115882,-0.9441963285893201,-0.1059801022104919
1772641342464081400,2.413081298828125,-0.12340133874118327,-0.8076461699396371,-0.03069317136220634
1772641342474126600,2.423126708984375,-0.3488262971520424,-0.6519126604575664,0.09810089326798915
1772641342484171500,2.433171630859375,-0.6166840376228093,-0.5761051763338968,0.3220890968739986
1772641342494217700,2.4432177734375,-0.7862187665075063,-0.6376463808264583,0.5982769318599254
1772641342504262400,2.453262451171875,-0.7234498833835125,-0.6686430651798844,0.6924496188335121
1772641342514307600,2.4633076171875,-0.598652121847868,-0.6150207805857062,0.5918677224047482
1772641342524352500,2.4733525390625,-0.592355652052164,-0.7160510053038597,0.51027716136761
1772641342534398500,2.4833984375,-0.6272019245058298,-0.8512450731694697,0.45939226584807036
1772641342544443600,2.493443603515625,-0.6005740298211574,-0.7396018306307495,0.2121858298704028
1772641342554488300,2.50348828125,-0.7305734516531228,-0.5087129077255725,-0.06652611676566303
1772641342564534500,2.513534423828125,-1.0368103148788212,-0.23319818622823804,-0.2728644627168774
1772641342574579500,2.523579345703125,-1.3802449821203946,0.07057195809036493,-0.3200955849692225
1772641342584624600,2.533624755859375,-1.582302508947253,0.3473534115878865,-0.19986198954395948
1772641342594669600,2.543669677734375,-1.635151471081376,0.5788881946485489,-0.019737477583810687
1772641342604715500,2.553715576171875,-1.5260218187987804,0.7350750008560717,0.1499717310849577
1772641342614760700,2.5637607421875,-1.4824883820205925,0.8264470242604612,0.2040678437359631
1772641342624805400,2.573805419921875,-1.3270090664952994,0.8422425592854619,0.1436084065981209
1772641342634850600,2.5838505859375,-1.1584832223922013,0.8248279716912656,0.0460620054077357
1772641342644896500,2.593896484375,-0.7922796739816665,0.7559313264019787,-0.04873575466163456
1772641342654941400,2.60394140625,-0.48171676425039767,0.6906577669806778,-0.08469912151172757
1772641342664986600,2.613986572265625,-0.11136369494497775,0.7092483395516872,-0.08101729119382799
1772641342675032600,2.624032470703125,0.27039514999389647,0.7417297825701534,-0.027864743003249166
1772641342685077500,2.634077392578125,0.648994069597125,0.774377668196708,0.08237192067317664
1772641342695122400,2.644122314453125,1.0403139390856027,0.7954951288968324,0.19965653009973466
1772641342705167600,2.654167724609375,1.3776269085764885,0.8862706477127968,0.28164003597721454
1772641342715213600,2.664213623046875,1.620285325860977,0.9357621891777962,0.28295104551054534
1772641342725258500,2.674258544921875,1.7768617889732121,0.9765923583466559,0.1949756788071245
1772641342735303700,2.6843037109375,1.7619541426986456,1.016501467147842,0.062382221893966194
1772641342745349600,2.694349609375,1.612100265839696,1.0157960222922264,-0.07841288084909319
1772641342755394600,2.70439453125,1.4804717815011739,1.0017843019440769,-0.2051891759160906
1772641342765439500,2.714439453125,1.3992173936158419,0.9591456220485269,-0.2700580269940197
1772641342775484700,2.724484619140625,1.4144324984043837,0.9291914324853568,-0.3716965198036283
1772641342785528800,2.73452880859375,1.4582897603094578,0.8900873564567416,-0.4797760054461658
1772641342795573800,2.74457373046875,1.4763082320809364,0.8469915073782205,-0.6254265853963792
1772641342805618700,2.75461865234375,1.5307704746305941,0.8818831533435731,-0.7618953493729234
1772641342815665000,2.764664794921875,1.5110048669308422,0.9390796431627124,-0.8020973036408424
1772641342825709800,2.774709716796875,1.376264388051629,1.0326019764687866,-0.7508123759530484
1772641342835754800,2.784754638671875,1.1288058770090341,1.1343729365516453,-0.6194857971705496
1772641342845800000,2.794800048828125,0.8808733187139034,1.2013861061818898,-0.4735699904128909
1772641342855846000,2.804845947265625,0.6241495511978864,1.2452294856920838,-0.34745478960312903
1772641342865890800,2.814890869140625,0.38844168370366094,1.2077102677021174,-0.29702983974553643
1772641342875935700,2.824935791015625,0.18703706782758234,1.0974388249732554,-0.34823147306405006
1772641342885981700,2.834981689453125,0.04546352805793285,0.9444831827066839,-0.4378150786817074
1772641342896027000,2.84502685546875,-0.05663198780417442,0.7787628244783729,-0.5189771851737052
1772641342906071800,2.85507177734375,-0.11029285084307193,0.6054484309244901,-0.5748619348071515
1772641342916116700,2.86511669921875,-0.07011223162412643,0.4386620143672451,-0.6153223938807845
1772641342926162700,2.87516259765625,0.03254150264263153,0.22916505825463682,-0.6252796512063592
1772641342936208000,2.885207763671875,0.18369535618424415,0.024979652553610503,-0.5905779748551547
1772641342946252800,2.895252685546875,0.3266641497045755,-0.14330149607341736,-0.5385714548945426
1772641342956298000,2.905298095703125,0.42517479281723497,-0.28585597317181527,-0.5419458997637033
1772641342966344000,2.915343994140625,0.48483928018510336,-0.3784702517222613,-0.5064216549832373
1772641342976388900,2.925388916015625,0.5106938524097204,-0.42420718989409506,-0.42020401866734025
1772641342986433800,2.935433837890625,0.44085634607374663,-0.43799189655333753,-0.46282932762466367
1772641342996479700,2.945479736328125,0.2696738499820232,-0.5072556581219658,-0.5100219444975257
1772641343006525000,2.95552490234375,0.22584406060576437,-0.5524889941532164,-0.5327040972311049
1772641343016569900,2.96556982421875,0.2197042426764965,-0.5330578060396015,-0.533947959812358
1772641343026614800,2.97561474609375,0.19284312375783919,-0.47868276684936134,-0.4546481400609016
1772641343036661000,2.985660888671875,0.10897709206938742,-0.4244871393466368,-0.34540750168450174
1772641343046705700,2.99570556640625,0.04706804064512252,-0.3580919920168817,-0.24317820337489246
1772641343056750800,3.005750732421875,0.023960136780142784,-0.2612512183452025,-0.13536591730117797
1772641343066796800,3.015796875,0.007530395504832268,-0.20425317370761184,-0.04455540023706853
1772641343076841700,3.025841796875,-0.02767068173587322,-0.160877393442858,0.01035633964575827
1772641343086887000,3.035886962890625,-0.06568798544108867,-0.16145424348274245,0.03914820743128657
1772641343096931800,3.045931884765625,-0.1477566123187542,-0.1740411734584719,0.0596272240974009
1772641343106978000,3.05597802734375,-0.18336685488224028,-0.19744342062752693,0.0858611510284245
1772641343117022700,3.066022705078125,-0.1597030707001686,-0.2524579084987752,0.09750285430960356
1772641343127068000,3.07606787109375,-0.1196703355193138,-0.311279314372316,0.08718735813088714
1772641343137113900,3.08611376953125,-0.0819862092912197,-0.37281350460220125,0.0335310251366347
1772641343147158800,3.09615869140625,-0.03032674920260906,-0.4711343972964212,-0.007940364545211196
1772641343157204000,3.106203857421875,0.013927987587451934,-0.5854850721629337,-0.0284401317384094
1772641343167248600,3.11624853515625,0.03325637291371822,-0.702283249779418,-0.036082170924171805
1772641343177294800,3.126294921875,0.08493395318090916,-0.7891596422649919,-0.020001608412712812
1772641343187339800,3.13633984375,0.08817629610300064,-0.8798914680697023,-0.03258709535002708
1772641343197385000,3.146385009765625,0.02657879484593868,-0.964456514872983,-0.08246032960899173
1772641343207430000,3.156429931640625,-0.04875730890631676,-1.0243401248842476,-0.14342581657283007
1772641343217475800,3.166475830078125,-0.05240472549796104,-1.0761812251500784,-0.2268750110886991
1772641343227520800,3.176520751953125,-0.10253040014803409,-1.1403306759122758,-0.23146993766352533
1772641343237565700,3.186565673828125,-0.1526262641817331,-1.1150033424321562,-0.19977124252058565
1772641343247611600,3.196611572265625,-0.20908757159411906,-1.0680033985871822,-0.102182755754143
1772641343257656800,3.20665673828125,-0.2822977692335844,-0.9840643747277558,0.010400397983193397
1772641343267701800,3.21670166015625,-0.3394903135299682,-0.8578901372071355,0.10239084554687142
1772641343277747000,3.226746826171875,-0.43237201084494586,-0.7205397680904716,0.18034947982244193
1772641343287793000,3.23679296875,-0.5092214417695999,-0.6316371304742991,0.2169939608044922
1772641343297837800,3.246837890625,-0.585300472843647,-0.5270518436230719,0.28097791880667206
1772641343307882800,3.2568828125,-0.6599392419815063,-0.44186369648538526,0.2767415964111686
1772641343317928700,3.2669287109375,-0.730067840218544,-0.37218810271285474,0.2894491022929549
1772641343327974000,3.276973876953125,-0.7342442491203546,-0.32909725860301403,0.2778429087165743
1772641343338018800,3.287018798828125,-0.7230261050134896,-0.41443654118180273,0.3195498607199639
1772641343348063700,3.297063720703125,-0.5928712003588676,-0.5669999692603945,0.338693464063853
1772641343358109700,3.307109619140625,-0.35816403433978555,-0.7129701365537942,0.27416889637894926
1772641343368155000,3.31715478515625,-0.2517582540631294,-0.7929130765143781,0.1538385625809431
1772641343378199800,3.32719970703125,-0.2955862898737192,-0.8457124273531138,0.11602847188562154
1772641343388245800,3.337245849609375,-0.4343085318654775,-0.9007529812473803,0.0743744921784848
1772641343398291000,3.347291015625,-0.5901975972354412,-0.8105071123287081,-0.011610942816734313
1772641343408336000,3.3573359375,-0.798466838183999,-0.5382272445667535,-0.14305311080291866
1772641343418380800,3.367380859375,-1.071281908801198,-0.256554658026807,-0.25232034492529926
1772641343428426800,3.3774267578125,-1.3927175102025269,-0.032335056817717846,-0.3535179620996117
1772641343438471700,3.3874716796875,-1.5912638140380382,0.2180623937536031,-0.3602894289959222
1772641343448516900,3.397516845703125,-1.4529635968506336,0.5189749566840007,-0.3337223976530134
1772641343458561800,3.407561767578125,-1.6967080558061598,0.7416060100600123,-0.22841800274699925
1772641343468608000,3.41760791015625,-1.613049529388547,0.9171325997706502,-0.1701546874139458
1772641343478652700,3.427652587890625,-1.4737036025404928,1.0640132329724727,-0.17343728928118943
1772641343488697900,3.43769775390625,-1.5187982972860334,1.2778504833117126,-0.15022840925976633
1772641343498743800,3.447743896484375,-1.1360656388789414,1.2700501848243175,-0.22580445924773812
1772641343508788700,3.457788818359375,-0.8773954134702682,1.2190472889482975,-0.3277414966125041
1772641343518834000,3.467833984375,-0.5439835430711507,1.2030936407521367,-0.45907677015811205
1772641343528878800,3.47787890625,-0.26918811229169365,1.1458884561698883,-0.5597281516265123
1772641343538925000,3.487925048828125,0.05224807363152504,1.0578719537384806,-0.6741339176811277
1772641343548969700,3.4979697265625,0.3506552661448717,0.9671369130633771,-0.684215093647316
1772641343559015000,3.508014892578125,0.6866700125187635,0.8640148306325077,-0.60851417517066
1772641343569060900,3.518060791015625,1.0696417403787375,0.8309062686916441,-0.5915478428006172
1772641343579105800,3.528105712890625,1.337030109772086,0.8131473246391863,-0.5764131097719073
1772641343589151000,3.53815087890625,1.774174741846323,0.737536130272597,-0.535403200121969
1772641343599195600,3.548195556640625,1.9197335518598555,0.722838400421664,-0.4476821004405617
1772641343609241600,3.55824169921875,2.04852242885828,0.7910630647335201,-0.38241497076004743
1772641343619286800,3.568286865234375,2.1530214987307787,0.8256118886105716,-0.42720001503452654
1772641343629331700,3.578331787109375,1.977794111162424,0.8480861707471311,-0.4693881746836006
1772641343639378000,3.5883779296875,1.8808377117544413,0.904482669294998,-0.4835393035024404
1772641343649422800,3.5984228515625,1.77501937597692,0.9506315492685884,-0.43344972307905555
1772641343659468000,3.608468017578125,1.7356927432388065,0.990280253567919,-0.3774007958598435
1772641343669512700,3.6185126953125,1.675230383491516,1.0152606002412736,-0.3291477832138538
1772641343679558700,3.62855859375,1.6016607048898934,1.0315938954047859,-0.33806977920755743
1772641343689603800,3.638603759765625,1.4843044915318488,1.0736453499969094,-0.2976085894815624
1772641343699648800,3.648648681640625,1.2415467055261133,1.100995567606762,-0.24011589319482443
1772641343709694000,3.65869384765625,0.998816976571083,1.1223960830319673,-0.15194310422316193
1772641343719740000,3.668739990234375,0.7904179717630148,1.1431485098119825,-0.10259002138078212
1772641343729784800,3.678784912109375,0.542487167033553,1.1594267137873917,-0.06976546401306986
1772641343739829800,3.688829833984375,0.281375393691659,1.1860918717425315,-0.0026961072161793705
1772641343749875700,3.698875732421875,0.029600773015618323,1.175293925809115,0.03567015605717897
1772641343759921000,3.7089208984375,-0.18010346917212008,1.1370479279145598,-0.0014284253679215906
1772641343769965800,3.7189658203125,-0.40895723298788067,1.0058325544215738,-0.1487010535620153
1772641343780011000,3.729010986328125,-0.6635480801284313,0.8123795551370829,-0.31091639934405685
1772641343790057200,3.73905712890625,-0.7908727297931909,0.5938855650331825,-0.4897128775708377
1772641343800102100,3.74910205078125,-0.7952794403195381,0.3799017823627218,-0.6625345191717148
1772641343810147300,3.759147216796875,-0.7637702033340931,0.1796901208645664,-0.7950675511345267
1772641343820193300,3.769193359375,-0.7206991233706473,0.014444522274844348,-0.8760217870295047
1772641343830238500,3.779238525390625,-0.6684189010351896,-0.14851889279498717,-0.9407993796274066
1772641343840283400,3.789283447265625,-0.6370435195624828,-0.30140608206838365,-0.9511489242061972
1772641343850328300,3.799328369140625,-0.5020978734999895,-0.4095272879607975,-0.9767124045297503
1772641343860374300,3.809374267578125,-0.31901568077802656,-0.5081537760054692,-0.9996731550090014
1772641343870419200,3.819419189453125,-0.1302092651903629,-0.5679784589037299,-0.9919970674231647
1772641343880464400,3.82946435546875,-0.004252981269359589,-0.5766697879467159,-0.914144012413919
1772641343890509300,3.83950927734375,0.1486748962074518,-0.5818750284396111,-0.7974854259312152
1772641343900555300,3.84955517578125,0.3092284462571144,-0.559915490892157,-0.6407797834813594
1772641343910600200,3.85960009765625,0.4378267691195011,-0.5353992545992136,-0.5066683962859213
1772641343920645000,3.86964501953125,0.5171335300683975,-0.4956605339288711,-0.408305783341825
1772641343930691300,3.87969140625,0.5389782821297645,-0.4535970966380089,-0.3146772131823003
1772641343940736300,3.889736328125,0.5466711747199297,-0.4474101881640032,-0.17889570081755518
1772641343950781400,3.899781494140625,0.533639843711257,-0.43535826011411843,-0.06950958955585956
1772641343960826400,3.909826416015625,0.46043666033446784,-0.39820758317559957,-0.011182049880176782
1772641343970872000,3.9198720703125,0.39703298643827434,-0.3644116234924644,0.06360372651293873
1772641343980917200,3.929917236328125,0.3059171297520399,-0.3339368075886741,0.15458499703407286
1772641343990962200,3.939962158203125,0.21129881790280342,-0.2594534482082352,0.2172241162985563
1772641344001008400,3.95000830078125,0.09387889165878295,-0.21430742513425646,0.25387889947891235
1772641344011053300,3.96005322265625,0.0047989247143268585,-0.21397165384124964,0.3304970058657229
1772641344021098500,3.970098388671875,-0.0028138883769512177,-0.21992007738426325,0.41498599175810813
1772641344031143200,3.98014306640625,0.09035948536098003,-0.2632713625285774,0.46027810877189035
1772641344041189000,3.990189208984375,0.22089491376578807,-0.33684652102291585,0.46133024817332624
1772641344051234300,4.000234375,0.3159370039850473,-0.45937122306004163,0.4253459116004407
1772641344061279200,4.010279296875,0.39979017619192597,-0.5690463073309511,0.33588498251438137
1772641344071325200,4.0203251953125,0.4457353502869606,-0.6753012078948318,0.2458672963283956
1772641344081370400,4.030370361328125,0.4227583793252706,-0.7442711376160382,0.17193901354745028
1772641344091415000,4.0404150390625,0.362980494710803,-0.7899839642599225,0.08775193321108818
1772641344101460200,4.050460205078125,0.28344693926870823,-0.8513308517567812,0.0022255670949816704
1772641344111506200,4.060506103515625,0.2190501626819372,-0.9001760581422596,-0.04069645978659391
1772641344121551400,4.07055126953125,0.1653974829494953,-0.9308044937051833,-0.041941199150681494
1772641344131596300,4.08059619140625,0.12774492090344428,-0.936019305744022,-0.0905510624103248
1772641344141642200,4.090642333984375,0.12946692239046095,-0.9609840895220637,-0.14093728769272565
1772641344151687400,4.1006875,-0.07394085000157356,-0.9445140162363648,-0.20629253404811024
1772641344161732000,4.110732177734375,-0.18950725733339785,-0.8977682663481682,-0.22024624059870837
1772641344171777300,4.12077734375,-0.30571371613442894,-0.8427689212471247,-0.19387378197982907
1772641344181823200,4.1308232421875,-0.38294659341871734,-0.7525119464125484,-0.17629384775608778
1772641344191868400,4.140868408203125,-0.4753577506124973,-0.6956868471890687,-0.16471709946990012
1772641344201913300,4.150913330078125,-0.5582137284755706,-0.6165723939418792,-0.16650968197509644
1772641344211958300,4.160958251953125,-0.6417220327675343,-0.5602352243658155,-0.1500668620225042
1772641344222004200,4.171004150390625,-0.6666507223188877,-0.5606469835044816,-0.07949906865060329
1772641344232049200,4.181049072265625,-0.697495357915759,-0.6232020412147045,0.046812458448857064
1772641344242094300,4.19109423828125,-0.6816162362605332,-0.775539040126279,0.21486805469170212
1772641344252140300,4.201140380859375,-0.5974778173714875,-0.940033948212862,0.26177681312188505
1772641344262185200,4.211185302734375,-0.6057786127269268,-0.9352590619612484,0.1782004850950092
1772641344272230400,4.22123046875,-0.8353647824704646,-0.8582340552739799,0.22055472202599047
1772641344282275000,4.231275146484375,-1.054293364599347,-0.8497872755765914,0.39473311199806627
1772641344292321300,4.2413212890625,-1.2205968564778567,-0.7093271769415587,0.47122203904725607
1772641344302366200,4.2513662109375,-1.2097908003032207,-0.4003622404588386,0.37531850969307123
1772641344312411400,4.261411376953125,-1.2235019302695989,-0.09876743088532239,0.19966471340619027
1772641344322457300,4.271457275390625,-1.2674410252392292,0.20584658037889747,0.14807305785678326
1772641344332502300,4.281502197265625,-1.4209937566161155,0.43256450120974327,0.25710999035462734
1772641344342547200,4.291547119140625,-1.6649650100648403,0.6549965979475527,0.2856043364983052
1772641344352592100,4.301592041015625,-1.6696172197848558,0.8858467232123017,0.3786917855184525
1772641344362638300,4.311638427734375,-1.6487404359728097,0.918154928555712,0.4100200399138033
1772641344372683300,4.321683349609375,-1.7857465216964483,1.0117609215572476,0.37841742555648084
1772641344382728400,4.331728515625,-1.5738503224223852,1.043552774876356,0.28385983091853556
1772641344392774400,4.3417744140625,-1.4404472296267747,1.0342524470895529,0.22910437757596372
1772641344402819300,4.3518193359375,-1.0024918656915425,0.8366692891977727,0.24680961867980658
1772641344412864300,4.3618642578125,-0.5746358709663152,0.7504211846783757,0.20515147425420582
1772641344422909200,4.3719091796875,-0.17967326106131076,0.850712792923674,0.15820260300934313
1772641344432955400,4.381955322265625,0.2584498606562614,0.8411762452282011,0.1456234727475792
1772641344443000300,4.392000244140625,0.569084082058072,0.8034251912437379,0.25137502689920366
1772641344453045200,4.402045166015625,0.9529214868366718,0.7754984158549457,0.4500162424765527
1772641344463091500,4.412091552734375,1.3581430404275654,0.9600001930512487,0.41047859733626246
1772641344473136000,4.42213623046875,1.6784388241440056,1.049560271662846,0.2964050589106977
1772641344483181300,4.432181396484375,1.805536679315567,1.059867949861288,0.17462189595587552
1772641344493226200,4.442226318359375,1.8560048837929963,1.096216297440976,-0.014648630012199283
1772641344503272200,4.452272216796875,1.7766952002346514,1.129784220521897,-0.2618528375001624
1772641344513317400,4.4623173828125,1.6572160033732652,1.1238548304729163,-0.4351071714298799
1772641344523362300,4.4723623046875,1.579501480051875,1.109418016580492,-0.49524099334254856
1772641344533407200,4.4824072265625,1.5509972701013088,1.1146125164836644,-0.4486489727113396
1772641344543453200,4.492453125,1.577750252470374,1.1124404331415891,-0.34493838633541013
1772641344553498400,4.502498291015625,1.5818962662339209,1.121186488046497,-0.21392909334115684
1772641344563543300,4.512543212890625,1.5534388180345295,1.1479209118455649,-0.09404474974498152
1772641344573589200,4.52258935546875,1.4344132101595402,1.1284371898271144,-0.024636793932691217
1772641344583634400,4.532634521484375,1.183590775641799,1.1050700505040585,-0.015981997507810593
1772641344593679000,4.54267919921875,0.9276397460639476,1.082620318286866,-0.09556845218092203
1772641344603724300,4.552724365234375,0.6430149951875209,1.0618301167797297,-0.19479206586852668
1772641344613770200,4.562770263671875,0.41752807745635506,1.0638737514365464,-0.2527710113022476
1772641344623815400,4.5728154296875,0.11004267547428608,1.0713161763969807,-0.31523250897750255
1772641344633860400,4.5828603515625,-0.00008884732723236084,1.04898634423241,-0.3299761968620121
1772641344643906300,4.59290625,0.04582768519520759,0.9853798412404954,-0.2834677628610283
1772641344653951200,4.602951171875,0.2001052237153053,0.8456665423847735,-0.23999255907610056
1772641344663996200,4.61299609375,0.38547055893838406,0.642196737607196,-0.22904066468998788
1772641344674041300,4.623041259765625,0.5542652831107377,0.4124080310288816,-0.25830869861990213
1772641344684087300,4.63308740234375,0.7457780350476503,0.16030498211607336,-0.350661622820422
1772641344694132200,4.64313232421875,0.9004968875944613,-0.05385543576292693,-0.46174233610555526
1772641344704177400,4.653177490234375,0.9606886137068271,-0.23330270604863762,-0.598605360096693
1772641344714223400,4.663223388671875,0.9120037855148315,-0.39571912736073134,-0.6893633432559668
1772641344724268300,4.673268310546875,0.819243084231019,-0.5024599848106504,-0.7478466580152511
1772641344734313200,4.683313232421875,0.7562830624490976,-0.5337048717714846,-0.7787994301617145
1772641344744358400,4.6933583984375,0.6925526408165693,-0.5257840887095779,-0.784146855604276
1772641344754404400,4.703404296875,0.5873766945958138,-0.5130511561255902,-0.7485420929335057
1772641344764449300,4.71344921875,0.4795762450903654,-0.5015819598671049,-0.6440525946069509
1772641344774494200,4.723494140625,0.3436673069536686,-0.48812692355364556,-0.5172779069751501
1772641344784539100,4.7335390625,0.23011457753181455,-0.45164757000543176,-0.40846930334046483
1772641344794585600,4.743585693359375,0.14071429259181023,-0.4153878505572676,-0.328459216427803
1772641344804630800,4.753630859375,0.01303366909623146,-0.3820302092261612,-0.27681363873407244
1772641344814675700,4.76367578125,-0.08476444183290004,-0.3703965431209653,-0.22866445178873834
1772641344824722000,4.773721923828125,-0.2076993321061134,-0.3367685604158789,-0.1407781516082585
1772641344834766800,4.783766845703125,-0.27166063988506794,-0.2908491783492267,-0.03652728434316814
1772641344844811800,4.793811767578125,-0.2820230439454317,-0.276013939723745,0.04006532227620482
1772641344854856700,4.803856689453125,-0.29597675049602984,-0.2715416166152805,0.06775500097349285
1772641344864902700,4.813902587890625,-0.3259627234369516,-0.27009660543873903,0.09798625391237437
1772641344874947800,4.82394775390625,-0.29731004492640495,-0.2808316056711599,0.09954342022649944
1772641344884992800,4.83399267578125,-0.253868378084898,-0.3139027582110837,0.0718820908408612
1772641344895038700,4.844038818359375,-0.18765023128986358,-0.3531391553824767,0.05699461057148873
1772641344905084000,4.854083984375,-0.1288631112784147,-0.4006387193126604,0.03742927468419075
1772641344915128800,4.86412890625,-0.07058569435477256,-0.4401659891894087,0.04934029642604291
1772641344925173800,4.874173828125,0.04315174398422241,-0.4916328493153676,0.06308131007403135
1772641344935219700,4.8842197265625,0.10818214229941367,-0.537050821198523,0.07085099422745406
1772641344945265000,4.894264892578125,0.1152390750735998,-0.5576642778992652,0.013528466875851153
1772641344955309800,4.904309814453125,0.0790495713174343,-0.5828877491461113,-0.0617105331774801
1772641344965355800,4.914355712890625,0.005583937612175941,-0.6001338483056053,-0.12992679498717188
1772641344975400700,4.924400634765625,-0.03472819903194904,-0.5902328512119129,-0.19712518499121068
1772641344985445600,4.934445556640625,-0.07248480597436428,-0.5976392550108954,-0.21264730990231037
1772641344995490800,4.94449072265625,-0.1045382328391075,-0.5710801147134974,-0.21360446449667214
1772641345005536800,4.954536865234375,-0.0799082339733839,-0.5305086695460602,-0.19237156072333453
1772641345015582000,4.96458203125,-0.1126642561495304,-0.47157063328921794,-0.10170724719688296
1772641345025627000,4.974626953125,-0.16585808619856834,-0.3794013220272958,-0.001277618720382452
1772641345035671800,4.984671875,-0.2429705519735813,-0.28709552490413187,0.08157828607745468
1772641345045717800,4.9947177734375,-0.3027496056318283,-0.21684775726683436,0.11707228185012936
1772641345055762700,5.0047626953125,-0.35595454159677026,-0.13965046275258064,0.10819156771488488
1772641345065808000,5.014807861328125,-0.4320107763171196,-0.14851115701310336,0.18635259269475934
1772641345075853800,5.024853759765625,-0.3578518996506929,-0.15685571844503282,0.2988442687563598
1772641345085898800,5.034898681640625,-0.13216390638947487,-0.14887852902077137,0.3444847608163953
1772641345095943700,5.044943603515625,0.12697159844338893,-0.11839110936373472,0.4974279819928109
1772641345105988900,5.05498876953125,0.18467033869624136,-0.16519195044003426,0.5692760974988341
1772641345116034800,5.065034912109375,0.1247550914376974,-0.20137056747600435,0.5750810574505478
1772641345126079700,5.075079833984375,-0.06148702661991119,-0.10392390033304691,0.33121158387586475
1772641345136125000,5.085125,-0.49418929233253,0.0192738055948168,-0.05716068785339594
1772641345146171000,5.0951708984375,-1.0005787255465983,0.10238595017604529,-0.44611185544915494
1772641345156215600,5.105215576171875,-1.2153151166826486,0.21250600173547862,-0.6947000281088054
1772641345166260700,5.1152607421875,-1.524742884904146,0.40655254646632816,-0.8624887901090085
1772641345176305700,5.1253056640625,-1.7036954304754732,0.6058468191249295,-0.9788691441722214
1772641345186351900,5.135351806640625,-1.9982471166044473,0.8019006850901991,-0.8723545697588473
1772641345196396800,5.145396728515625,-1.909154290178418,0.9485988013319671,-0.7311590695213526
1772641345206442000,5.15544189453125,-1.676655447858572,1.0071782699421048,-0.6249586025584489
1772641345216488000,5.165488037109375,-1.3909347184389829,1.0241788699079304,-0.5435901598393916
1772641345226532600,5.17553271484375,-1.0810276422679423,0.9708158938370645,-0.5092955299191176
1772641345236577800,5.185577880859375,-0.8192085974395275,0.8421139644697309,-0.6350063146464526
1772641345246622700,5.195622802734375,-0.6126800626784563,0.6897593568362296,-0.8415077422048896
1772641345256669000,5.2056689453125,-0.3966185604184866,0.5452186743566766,-1.0045200835835189
1772641345266713900,5.2157138671875,-0.1304454120337963,0.4435543164534494,-1.1060023629181086
1772641345276758800,5.2257587890625,0.12938041315078735,0.3693228860074654,-1.1497708505611866
1772641345286803700,5.2358037109375,0.37794483960866926,0.32541488029584287,-1.2119862645208834
1772641345296849700,5.245849609375,0.6140069273680449,0.307114230582118,-1.1662107479043304
1772641345306894800,5.255894775390625,0.8819014927178621,0.32992782767564055,-0.9977836149353534
1772641345316939800,5.265939697265625,1.116304707354307,0.3380344156332314,-0.7604721116367728
1772641345326985700,5.27598583984375,1.3230039225071668,0.3668433076187968,-0.49098092474527655
1772641345337031000,5.286031005859375,1.598716468131542,0.37070823941864073,-0.2556641754604876
1772641345347075600,5.29607568359375,1.715475300118327,0.3712566670816391,-0.08928053101785481
1772641345357120800,5.306120849609375,1.8626146573215723,0.3615142215505242,0.029027283976599573
1772641345367166700,5.316166748046875,1.7781594275683164,0.35848742107525466,0.14847988509200513
1772641345377212000,5.3262119140625,1.6442109758496284,0.34919754161722955,0.2320758676674217
1772641345387256800,5.3362568359375,1.4545903212696314,0.3112440969284624,0.2454717942047864
1772641345397302800,5.346302734375,1.2157254510492086,0.3461348661109805,0.1992855048302561
1772641345407347700,5.35634765625,0.9717319857686757,0.4049474128246307,0.1558253524839878
1772641345417392600,5.366392578125,0.7434726807147264,0.4325638070899993,0.08663461961895227
1772641345427437800,5.376437744140625,0.5432002837389708,0.5081969210274517,0.0008333090189844369
1772641345437483800,5.38648388671875,0.42081776665151116,0.5653905613023787,-0.04170322567634284
1772641345447529000,5.396529052734375,0.3501823879361152,0.5915564644984901,-0.004250423986092209
1772641345457574000,5.406573974609375,0.3604787410229444,0.6793295135628432,0.10043167430311441
1772641345467618800,5.416618896484375,0.3353571592479944,0.8051975346785039,0.23105901877507565
1772641345477664800,5.426664794921875,0.285808407703042,0.889704202358052,0.3672366177853197
1772641345487709700,5.436709716796875,0.23731647173464296,0.9545201542049646,0.45643451202102003
1772641345497755000,5.4467548828125,0.03351297802329063,0.978603186712414,0.627259499911964
1772641345507800800,5.45680078125,-0.03097907563149929,0.8828654423791915,0.5537600370023399
1772641345517845800,5.466845703125,-0.254739315700531,0.8381589432336389,0.5994977058265358
1772641345527890700,5.476890625,-0.24840602102577686,0.6585371200986206,0.5625318839356303
1772641345537935600,5.486935546875,-0.232495335188508,0.4185370718358084,0.36129400292858477
1772641345547981800,5.49698193359375,-0.16435411137640477,0.21112017340026795,0.14215996135547757
1772641345558026800,5.50702685546875,-0.02587035431563854,0.03405643725022674,-0.034002515105903144
1772641345568072000,5.517072021484375,0.09468436282277107,-0.1384079153455794,-0.16186214843019842
1772641345578118000,5.527117919921875,0.21858663682341575,-0.28699268558416513,-0.20496523096710442
1772641345588162800,5.537162841796875,0.32704993415176864,-0.3917051790116355,-0.2189212756052613
1772641345598207700,5.547207763671875,0.3715162678658962,-0.4434432938270271,-0.2309060201704502
1772641345608252700,5.557252685546875,0.36826106546223164,-0.45702056828066706,-0.210656136085093
1772641345618299000,5.567298828125,0.3206079184055328,-0.4511036723870784,-0.18797391028627752
1772641345628343800,5.57734375,0.26743454662263394,-0.4177775221727788,-0.14723784914165736
1772641345638389000,5.587388916015625,0.1639870316296816,-0.3700641693614423,-0.08437573477625847
1772641345648433700,5.59743359375,0.08842062625288963,-0.34984431508816777,0.011402268502116203
1772641345658479600,5.607479736328125,-0.03112988227903843,-0.31716113895252346,0.09476254262551664
1772641345668524800,5.61752490234375,-0.11241758791208266,-0.3059558360609226,0.1952140906728804
1772641345678569700,5.62756982421875,-0.12696516870260238,-0.30727855429835615,0.2619419405557215
1772641345688615700,5.63761572265625,-0.154735803681612,-0.2748866161942482,0.2559227533314377
1772641345698660900,5.647660888671875,-0.20548048701286314,-0.23029700316032392,0.22227328944690525
1772641345708705500,5.65770556640625,-0.2697796484440565,-0.11668269801065326,0.21620953242853283
1772641345718750700,5.667750732421875,-0.45688452081084246,-0.008582845433522016,0.26557700912244614
1772641345728796700,5.677796630859375,-0.725332628390193,0.057774618500657376,0.32642449572980403
1772641345738841900,5.687841796875,-0.8890162931591272,0.08855369631433858,0.4080713900640607
1772641345748886800,5.69788671875,-0.9046113371759652,0.07649020569082349,0.44475722596980627
1772641345758932700,5.7079326171875,-0.8276444173514842,0.0056234841712750495,0.4047213489837944
1772641345768978000,5.71797802734375,-0.5755167454540729,-0.12458576275277881,0.3168921858180314
1772641345779022600,5.728022705078125,-0.2555973938345909,-0.24081680800579486,0.24228045081757008
1772641345789068000,5.738068115234375,0.02136076793670654,-0.34332653069198127,0.1609999786429107
1772641345799114000,5.748114013671875,0.19974983440637586,-0.4615847709236666,0.09450184586271643
1772641345809159200,5.7581591796875,0.3349211059182882,-0.6171547238744794,0.03837773451544344
1772641345819203800,5.768203857421875,0.4326677789211273,-0.7139885198161006,-0.03506086505241692
1772641345829249800,5.778249755859375,0.5392079992324114,-0.7242584232874214,-0.11168328228816389
1772641345839295000,5.788294921875,0.6226333014160395,-0.7241239832527935,-0.0683149729438126
1772641345849340000,5.79833984375,0.6870698254913091,-0.7499952143512666,0.00265256033539772
1772641345859385000,5.808385009765625,0.6687509094685316,-0.7503755919709801,0.05721161432303488
1772641345869431000,5.81843115234375,0.646295332032442,-0.758822883125022,0.07445946704819797
1772641345879475700,5.828475830078125,0.6906909385979175,-0.7361516171116381,0.06675035397559403
1772641345889521000,5.83852099609375,0.6774789903253317,-0.6881833396911621,0.10242262892462313
1772641345899565800,5.84856591796875,0.6251385622352361,-0.6369468542549759,0.15144545689933
1772641345909612000,5.858612060546875,0.5304471851497888,-0.5758334101878106,0.19130429681800304
1772641345919657000,5.868656982421875,0.4255214142978191,-0.504560464221239,0.24984336035251617
1772641345929702100,5.8787021484375,0.28164076662957666,-0.4263469784017652,0.28980346868857737
1772641345939748000,5.888748046875,0.13312369133234023,-0.343248789280653,0.3326497999854386
1772641345949792800,5.898792724609375,-0.0011824877828359604,-0.29100188469290733,0.39412016773149366
1772641345959838000,5.908837890625,-0.12957096728682518,-0.32733408485539256,0.47708062888234853
1772641345969883000,5.9188828125,-0.2110463044464588,-0.4399563284941017,0.6124497610539198
1772641345979929000,5.92892919921875,-0.20285715277194977,-0.5968754675641655,0.6577022767096757
1772641345989974000,5.93897412109375,-0.21980653400719163,-0.649859819580987,0.5562176592875272
1772641346000019000,5.94901904296875,-0.23790625432133672,-0.6335550929248333,0.4099504818089306
1772641346010065000,5.95906494140625,-0.1955003602683544,-0.6542093930926174,0.25176168812923133
1772641346020109800,5.96910986328125,-0.1872749682366848,-0.6197157334689051,0.05865129173733294
1772641346030155000,5.979155029296875,-0.18592063101828096,-0.43221177878193556,-0.21476437512151897
1772641346040200000,5.989199951171875,-0.2949427312731743,-0.08332447215765715,-0.4175597877688706
1772641346050246000,5.999245849609375,-0.542659016469121,0.28400954158753156,-0.3822206172317266
1772641346060291000,6.009291015625,-0.7973615072906017,0.5795050113726407,-0.12129201843701302
1772641346070335700,6.019335693359375,-0.9476689731359481,0.7867831223919988,0.2002346222486347
1772641346080381000,6.029380859375,-1.019898927566409,0.9539879470244049,0.3952457376953214
1772641346090427000,6.039427001953125,-0.977059902793169,1.0510703839648514,0.3670983783584088
1772641346100472000,6.04947216796875,-0.9937807359695434,1.115115278374031,0.22190277563408015
1772641346110517000,6.05951708984375,-1.0140513705819845,1.0484648045763372,0.043555283283814784
1772641346120563000,6.06956298828125,-1.013595443508029,0.9399066685713827,-0.1258912558607757
1772641346130607900,6.07960791015625,-0.8944745585650206,0.8320221940442919,-0.25572452734559775
1772641346140652800,6.08965283203125,-0.7072077736347914,0.7633607457503676,-0.3294507116831839
1772641346150698000,6.099697998046875,-0.3674503336012363,0.7356884565792977,-0.3087402974139899
1772641346160744000,6.109743896484375,-0.046805005794763564,0.7360066556829958,-0.23779972520694134
1772641346170789000,6.1197890625,0.3512397880345583,0.7358397016182542,-0.12238507437072693
1772641346180834000,6.129833984375,0.5862742863118648,0.7426491624373942,0.011239479155838488
1772641346190880000,6.1398798828125,0.9503513440877198,0.7582266707975417,0.02997698591686785
1772641346200925000,6.149925048828125,1.3010790909469128,0.6896182678651064,0.004331964789703488
1772641346210969900,6.159969970703125,1.4308259993225336,0.6141760003246367,-0.057675505507737396
1772641346221015000,6.17001513671875,1.4009475784093142,0.577002892358601,-0.14894180351532996
1772641346231061000,6.18006103515625,1.3776380144923925,0.5953365675590933,-0.2321273786589503
1772641346241106000,6.19010595703125,1.2914432475954294,0.6095262017574161,-0.34457989175394177
1772641346251150800,6.20015087890625,1.2240221547514198,0.6225576788965612,-0.4937929134260863
1772641346261195800,6.21019580078125,1.1319967820048331,0.6007196488369256,-0.6301684461612254
1772641346271242000,6.220241943359375,1.0434662656366824,0.5677537833023816,-0.7276474812038243
1772641346281287000,6.230286865234375,1.0057914917588233,0.5497272012896836,-0.760226831638813
1772641346291332000,6.24033203125,0.9636544777750968,0.5605035199131816,-0.7326226392678916
1772641346301378000,6.2503779296875,0.7740455136328935,0.647036651919037,-0.6469272732604294
1772641346311423000,6.260423095703125,0.42463177198171614,0.7559110873315483,-0.5208743970971554
1772641346321468000,6.270468017578125,0.022103110736608506,0.8646585353635251,-0.44131051958203316
1772641346331512800,6.280512939453125,-0.38660394688248634,0.9497970712058246,-0.3977219185505062
1772641346341559000,6.29055908203125,-0.7607996630907058,0.9722613434050231,-0.34804851771257816
1772641346351604000,6.30060400390625,-1.0001496864795685,0.9207495481587946,-0.2850696450997144
1772641346361649200,6.310649169921875,-1.2138590726554392,0.8679157105285674,-0.2324210278432816
1772641346371695000,6.320695068359375,-1.1069950272172688,0.7950520613044499,-0.26572533155195416
1772641346381739800,6.33073974609375,-0.9068401191413402,0.6577772416420281,-0.36164296249672767
1772641346391785000,6.340784912109375,-0.6725877111524343,0.48029202867690474,-0.4514982246626168
1772641346401830000,6.350829833984375,-0.42908758234679695,0.24670951930619775,-0.49268568283654746
1772641346411875800,6.360875732421875,-0.1329161860615015,0.010047091033495962,-0.46079226883910596
1772641346421921000,6.370921142578125,0.20753625049889085,-0.20977328883595764,-0.45615737558007236
1772641346431966000,6.380966064453125,0.5359983895361423,-0.3953295435212552,-0.4608317240666598
1772641346442011000,6.391010986328125,0.7619862425267696,-0.5312609126854687,-0.4755658404052257
1772641346452056800,6.401056884765625,0.9093149848222732,-0.6324821299310773,-0.496399734923616
1772641346462102000,6.41110205078125,0.989682068479061,-0.700134108921513,-0.48837585681341583
1772641346472147000,6.42114697265625,0.9862240369796752,-0.7233166854579002,-0.4671199374906718
1772641346482193000,6.43119287109375,0.9248772956132888,-0.7020828318364918,-0.3919283567756414
1772641346492238000,6.441238037109375,0.9104588941603898,-0.6126724638938903,-0.3082435999382287
1772641346502282800,6.45128271484375,0.944858591890335,-0.526743069934845,-0.23453027508221566
1772641346512328000,6.461327880859375,0.9532873975396156,-0.4082870055761188,-0.14559205469600855
1772641346522374000,6.471373779296875,0.913545169737935,-0.26319840689022095,-0.027858459392935037
1772641346532419000,6.481419189453125,0.815203453451395,-0.11195124904196709,0.07107223576270043
1772641346542464000,6.491464111328125,0.7132184122264384,0.026540618260018526,0.1617100996736437
1772641346552509000,6.501509033203125,0.6370686540037394,0.11485157359335571,0.25381423674486575
1772641346562555000,6.511554931640625,0.5638666396707296,0.16660773552209138,0.32696605526059863
1772641346572599800,6.521599853515625,0.47925475805103773,0.17200086326990274,0.31856530666202304
1772641346582645000,6.53164501953125,0.3586298982858658,0.14696582726724444,0.2756138344902545
1772641346592691000,6.54169091796875,0.227085000577569,0.12455701158232986,0.18191570622585712
1772641346602735900,6.55173583984375,0.07153904955685138,0.0688718396415934,0.08172821594215929
1772641346612781000,6.561781005859375,-0.09188041131794453,-0.007952895233221352,0.0029819384202361106
1772641346622826000,6.571825927734375,-0.23070319107472895,-0.08523757576998323,-0.048181335649266833
1772641346632872000,6.581871826171875,-0.3920698110729456,-0.14699403044842183,-0.10650076508373021
1772641346642916900,6.591916748046875,-0.5133154330849647,-0.23474249306078998,-0.18894070949181913
1772641346652962000,6.601962158203125,-0.5769236896425485,-0.3192791174871847,-0.2624470405336469
1772641346663007000,6.612007080078125,-0.5482774408727884,-0.4113050747556612,-0.32087657927908003
1772641346673053000,6.622052978515625,-0.4902151280045509,-0.5210751073010266,-0.3926199923016131
1772641346683097900,6.632097900390625,-0.40411739174127576,-0.6157980485685169,-0.466100019858405
1772641346693142800,6.642142822265625,-0.28383272371590135,-0.7210778204899281,-0.5133781961228698
1772641346703189000,6.65218896484375,-0.17266776621341703,-0.8188586149580777,-0.5301591619886458
1772641346713234000,6.66223388671875,-0.06547697303891181,-0.9086847240947187,-0.5411437896005808
1772641346723279000,6.672279052734375,0.06460837351083755,-0.960964434973523,-0.5245280972991139
1772641346733324000,6.682323974609375,0.1346200673699379,-0.9808917360410093,-0.5010170194607227
1772641346743370000,6.692369873046875,0.14079554113447665,-0.9753888277757913,-0.46103513768427073
1772641346753415000,6.702414794921875,0.14042436973452568,-0.9525248887345195,-0.41391134826391934
1772641346763459800,6.7124599609375,0.13951368463039399,-0.8833385397836565,-0.39711467337235806
1772641346773506000,6.722506103515625,0.10888590665459633,-0.8059931420356035,-0.4319583154775202
1772641346783551000,6.732551025390625,0.0378846172362566,-0.7118320724345744,-0.4716372687846422
1772641346793595600,6.742595703125,-0.05666939720511436,-0.6105845882365479,-0.5151851724795997
1772641346803640600,6.752640625,-0.148514152687788,-0.5302765778232366,-0.5592421947404742
1772641346813686500,6.7626865234375,-0.224727623796463,-0.462356376350671,-0.5821235963732004
1772641346823731700,6.772731689453125,-0.34374271027743813,-0.4140617895852774,-0.579230286084488
1772641346833776600,6.782776611328125,-0.5001636905670166,-0.3917267697889358,-0.5359834842279553
1772641346843821800,6.79282177734375,-0.6479957062095403,-0.40119953153319654,-0.43031537057608366
1772641346853867800,6.80286767578125,-0.7094622745633125,-0.4648376717723906,-0.40704328912533816
1772641346863912700,6.81291259765625,-0.8042629572421311,-0.4730572185851633,-0.4943256320632994
1772641346873957600,6.82295751953125,-0.895215732321143,-0.4581346670024097,-0.599451674727723
1772641346884003600,6.833003662109375,-0.9876531929999589,-0.522656677404046,-0.65681307278499
1772641346894048800,6.843048828125,-1.055515015348792,-0.5953779224827885,-0.6198315418682993
1772641346904093700,6.85309375,-1.09334118039608,-0.5925136190928518,-0.6834231395520269
1772641346914138600,6.863138671875,-1.0500906522125004,-0.42446598696075377,-0.7723891247279941
1772641346924184600,6.8731845703125,-0.9919435836702585,-0.18121501061059533,-0.7416728647511452
1772641346934229500,6.8832294921875,-1.0634329488664864,0.028028043806180358,-0.7108896770179272
1772641346944274700,6.893274658203125,-1.0640578027665615,0.2047658359374851,-0.6376308179311454
1772641346954319600,6.903319580078125,-0.9943284329801797,0.3643394350390881,-0.6286518310531973
1772641346964365800,6.91336572265625,-0.8855582616597414,0.5199771559964865,-0.6494215012289584
1772641346974410800,6.92341064453125,-0.768386172696948,0.682623951998353,-0.7180814151529222
1772641346984455700,6.93345556640625,-0.70568100245893,0.7859110887978226,-0.7584434553533792
1772641346994501600,6.943501708984375,-0.655204614675045,0.8248322094749658,-0.748364398279041
1772641347004546600,6.953546630859375,-0.584019200861454,0.8376140227019786,-0.7163738075174391
1772641347014591700,6.963591796875,-0.38771804560422896,0.8785659185543656,-0.6553240032710135
1772641347024636700,6.97363671875,-0.20579203718006608,0.8812203055206685,-0.6319597865574061
1772641347034682600,6.9836826171875,-0.0765624306768179,0.8338720596946776,-0.5854047369357198
1772641347044727600,6.9937275390625,0.1110346091210842,0.7805007541868835,-0.5196075189664959
1772641347054772700,7.003772705078125,0.33666122758388517,0.7473680076528341,-0.4942045629668981
1772641347064817700,7.013817626953125,0.5374982727050781,0.7419746972419321,-0.46773785019330677
1772641347074863600,7.023863525390625,0.6664706895768642,0.7895458651036024,-0.38523302385546265
1772641347084908800,7.03390869140625,0.7606172922611236,0.8556472536511719,-0.26059965910129246
1772641347094953500,7.043953369140625,0.8139356254726647,0.8760216408990323,-0.11191489908695221
1772641347104999400,7.05399951171875,0.9258598769098519,0.8828864121019839,0.05989442366622388
1772641347115044600,7.064044677734375,1.1311048016011713,0.9459756132215261,0.2040362064886838
1772641347125089500,7.074089599609375,1.2952695278853177,0.9875248904451728,0.27387897352166474
1772641347135134700,7.084134765625,1.6589005954593419,0.9764952546477317,0.3555698531281203
1772641347145180700,7.0941806640625,1.7343167787104845,0.9304073110811412,0.42998665007837117
1772641347155225900,7.104225830078125,1.7099994990557432,0.8920568298988044,0.4907753922358155
1772641347165270500,7.1142705078125,1.5707874277204275,0.8683036138676107,0.4993031282149255
1772641347175316500,7.12431640625,1.4063736951112746,0.8096515184126793,0.4491101604823023
1772641347185361700,7.134361572265625,1.338132518056035,0.7382049694448709,0.38094950131736693
1772641347195406600,7.144406494140625,1.2007751346766948,0.6965227134913206,0.3166394531659782
1772641347205451800,7.15445166015625,1.237539223450422,0.7036134024046361,0.2931173424769193
1772641347215497700,7.164497802734375,1.2901409328252076,0.7538913450069725,0.24093678112365305
1772641347225542700,7.174542724609375,1.1558604726731776,0.7905427671864629,0.13945961635559798
1772641347235587600,7.184587646484375,0.7909300129383802,0.8529384330838918,0.0759475136488676
1772641347245632800,7.1946328125,0.3310252675235271,0.9450326332829893,0.06395904275663197
1772641347255678700,7.2046787109375,-0.13445698576271534,1.0913548288844526,0.1283694825425744
1772641347265723600,7.2147236328125,-0.5343769258141517,1.2379141942426561,0.22253647042773664
1772641347275768800,7.224768798828125,-0.8051374019891023,1.3303325118295848,0.31690365706011653
1772641347285814800,7.234814697265625,-0.9138432759016751,1.3189777357310055,0.4038509958900511
1772641347295859500,7.244859375,-1.0211889673769474,1.1927912963159382,0.45202385597191747
1772641347305904600,7.254904541015625,-0.9358592928767204,1.0470478504505007,0.3859819425266236
1772641347315949600,7.264949462890625,-0.6767056678652763,0.825574260013923,0.23949710370935498
1772641347325995800,7.274995849609375,-0.5127133755385875,0.5857769312489778,0.0685194094747305
1772641347336040700,7.285040771484375,-0.3730857091397047,0.34523543305322524,-0.08210581708289683
1772641347346085600,7.295085693359375,-0.1971867059201002,0.12005626609697938,-0.24029629126302895
1772641347356130600,7.305130615234375,-0.012191957575082778,-0.05252016857117414,-0.31901326962523163
1772641347366176500,7.315176513671875,0.2363257071316242,-0.20279862751774488,-0.3372249989464879
1772641347376221700,7.3252216796875,0.47025838164687156,-0.3294468392256647,-0.37441001654602585
1772641347386266600,7.3352666015625,0.6892284648299217,-0.4179024637266993,-0.3968892671186477
1772641347396312800,7.345312744140625,0.8138415174484253,-0.48505518795810637,-0.4096423657078296
1772641347406357800,7.355357666015625,0.8926473431378602,-0.5586283736910671,-0.4178044832449406
1772641347416402700,7.365402587890625,0.8927420356839895,-0.5643422212932259,-0.4481416077110916
1772641347426447600,7.375447509765625,0.8193968134880065,-0.5771715999890118,-0.4573454893860966
1772641347436493600,7.38549365234375,0.7000555637925863,-0.5284291233256458,-0.42762203983888025
1772641347446538800,7.395538818359375,0.5852648170083761,-0.44904776277057823,-0.3794936034206301
1772641347456583700,7.405583740234375,0.4114373593658209,-0.3648793871346861,-0.29942338381856676
1772641347466628600,7.415628662109375,0.24124328978955745,-0.27926512353941796,-0.22086956012882292
1772641347476674600,7.425674560546875,0.11511924808621406,-0.19925942054092882,-0.1502390767842531
1772641347486719500,7.435719482421875,0.008622282394766806,-0.17583068722374737,-0.058491644196212285
1772641347496764700,7.4457646484375,-0.04310147510170936,-0.14868388323150575,0.03587638268638402
1772641347506810600,7.455810546875,-0.054366380959749216,-0.12552096124365925,0.08491280079502612
1772641347516855800,7.465855712890625,-0.0578051232367754,-0.10888079208806156,0.12687043962385505
1772641347526900700,7.475900634765625,-0.09922492886185645,-0.12443725766018032,0.18280553120505064
1772641347536945700,7.485945556640625,-0.11222528021037578,-0.1689734417401254,0.2586393918789923
1772641347546991600,7.49599169921875,-0.05079787482321262,-0.25425357801020143,0.3406234822783619
1772641347557036500,7.50603662109375,0.06480126573443412,-0.3589204787302762,0.3410784229716286
1772641347567081700,7.516081787109375,0.16013561689853667,-0.488243170344457,0.2976693066928536
1772641347577126700,7.526126708984375,0.24800386996567247,-0.620939795371145,0.23087186217252165
1772641347587172900,7.5361728515625,0.2986842558890581,-0.7443710177939384,0.1664452749693766
1772641347597217500,7.546217529296875,0.2945359040379524,-0.8168280589785426,0.14736545757669955
1772641347607262700,7.5562626953125,0.27728958568274975,-0.8758182272814213,0.1315012412296608
1772641347617308700,7.56630859375,0.2468131988763809,-0.8822472374156117,0.1614750853413716
1772641347627353600,7.576353515625,0.2564016959547996,-0.8675893281184136,0.21803294846341012
1772641347637398800,7.586398681640625,0.2234685636460781,-0.821935611250624,0.2796905824098736
1772641347647443700,7.596443603515625,0.19243162034749983,-0.7869406510412692,0.321614757360518
1772641347657489700,7.60648974609375,0.07162497427463531,-0.7019578172173351,0.33753581846132874
1772641347667534600,7.61653466796875,-0.06240764859616756,-0.5690243877600878,0.4040988331712782
1772641347677579500,7.62657958984375,-0.17859423365294932,-0.4344371266812086,0.4315012558924034
1772641347687624700,7.636624755859375,-0.291177825781703,-0.35972543843761084,0.45098194570355116
1772641347697670700,7.646670654296875,-0.39808629488348957,-0.2934147910535335,0.4573279902620241
1772641347707715800,7.6567158203125,-0.5254501075148582,-0.24013364804722367,0.4697795486213639
1772641347717760500,7.666760498046875,-0.641931291604042,-0.1804182342097163,0.48171891967486585
1772641347727806500,7.676806396484375,-0.7772779196828603,-0.1304454120337963,0.49002504879254843
1772641347737851600,7.6868515625,-0.9190256469756364,-0.209276079903543,0.5433300475984811
1772641347747896600,7.696896484375,-0.9531038576662539,-0.4373705497846007,0.6160384331956505
1772641347757941800,7.706941650390625,-0.8120084568023681,-0.594472498075664,0.5652538197128102
1772641347767987700,7.71698779296875,-0.6404471905261278,-0.599443710616976,0.3806771871820092
1772641347778032600,7.72703271484375,-0.7334037066429853,-0.68321694945544,0.2681431698160246
1772641347788077600,7.73707763671875,-0.8386182313084601,-0.8767756010714918,0.28826168260667473
1772641347798122800,7.747122802734375,-0.8030068197011947,-0.9105503718361257,0.17218911585099994
1772641347808168700,7.757168701171875,-0.672802815207839,-0.7001004258476198,-0.11207177014909683
1772641347818213600,7.767213623046875,-0.6549187834709882,-0.47934594346582887,-0.4118266509443521
1772641347828258800,7.7772587890625,-0.7452385213434696,-0.2862847930431366,-0.6178546888373792
1772641347838304800,7.7873046875,-0.9138426913797855,-0.04100793688856065,-0.6118920906385407
1772641347848349700,7.797349609375,-1.0739408988773822,0.24123591020070015,-0.4906324035685509
1772641347858394600,7.80739453125,-1.1876333290308714,0.5092134045936167,-0.35030254371706393
1772641347868439600,7.817439453125,-1.284554657125473,0.7370267925109714,-0.23780118651166557
1772641347878485800,7.82748583984375,-1.3108926289528608,0.8936525015924125,-0.16993136351946742
1772641347888530700,7.83753076171875,-1.3571791638314723,1.0274585491657255,-0.09567845189403743
1772641347898575600,7.84757568359375,-1.2438064671516418,1.0826689797341822,0.009787271053530276
1772641347908620500,7.85762060546875,-0.9715285721510648,1.0760130289763212,0.1206559855557978
1772641347918666500,7.86766650390625,-0.6790630446463823,1.0922978818882256,0.20056776319313793
1772641347928711700,7.877711669921875,-0.15459493390619755,1.1080576149474828,0.2340309472579509
1772641347938756600,7.887756591796875,0.12187749017477034,1.1048704362787305,0.2526255384169519
1772641347948802800,7.897802734375,0.6611158845454455,1.087381906665489,0.33018373866546896
1772641347958847700,7.90784765625,1.128524721980095,1.015058647928387,0.4505920330705121
1772641347968892700,7.917892578125,1.3554197529435157,0.9838858032904565,0.4562256915759295
1772641347978937600,7.9279375,1.7392857992947102,1.0720948326192796,0.4935755808809772
1772641347988983600,7.937983642578125,1.8677134417653083,1.032695719166845,0.4462622237052768
1772641347999028700,7.94802880859375,1.6776602409869432,0.9919223947517574,0.36538006666582074
1772641348009073700,7.95807373046875,1.5402262852400541,0.995806981100142,0.24556915363203732
1772641348019118600,7.96811865234375,1.531966406416893,0.9490471296213566,0.17925350127927958
1772641348029164500,7.97816455078125,1.6904402275830506,0.9852842719115317,0.05889101877734065
1772641348039209700,7.988209716796875,1.609718339139223,0.9907429757088422,0.009282244140841066
1772641348049254700,7.998254638671875,1.4451339261382818,0.9397298506997526,-0.0737572187966667
1772641348059300600,8.008300537109376,1.412156370165944,0.8985349398717284,-0.15626308631412683
1772641348069345800,8.018345703125,1.383914610543847,0.880562645329535,-0.209125675114803
1772641348079390700,8.028390625,1.3353472712516783,0.8302953702516853,-0.19662545530814676
1772641348089435600,8.038435546875,1.339644676184654,0.8942813740804791,-0.27199085822012276
1772641348099481600,8.048481689453125,1.1362743131935595,0.9584579320453107,-0.3357022463586181
1772641348109526500,8.058526611328125,0.7731272297441959,0.955956470618397,-0.4137685787923634
1772641348119571700,8.06857177734375,0.31773031714260574,0.9740162973135709,-0.48872280708756294
1772641348129616600,8.07861669921875,-0.09869535202980041,1.034453522619605,-0.5068966520838439
1772641348139662800,8.088662841796875,-0.4014548945337534,1.053277830881253,-0.48504682198856025
1772641348149707500,8.09870751953125,-0.6442167721927166,0.9848808787424117,-0.45121889626458284
1772641348159752700,8.108752685546875,-0.811380095770955,0.900767082837969,-0.40785380179062486
1772641348169797600,8.118797607421875,-0.8326964400440454,0.7232319297838956,-0.4432438257321715
1772641348179843600,8.128843505859376,-0.7061334224015474,0.4831286038096994,-0.5697578166011721
1772641348189888800,8.138888671875,-0.5242003997147083,0.2568618608124554,-0.6899428236443549
1772641348199933700,8.14893359375,-0.2809796723723411,0.022679083993658422,-0.7439644097544252
1772641348209979600,8.158979736328124,-0.05518821873664856,-0.16774126959666608,-0.7309025374770164
1772641348220024600,8.169024658203124,0.11708382615745067,-0.3051374506164342,-0.6952624842971563
1772641348230069800,8.17906982421875,0.23882570725381372,-0.4212142916884273,-0.6547537291023879
1772641348240114700,8.18911474609375,0.322530410900712,-0.5227002973500638,-0.6122716280080378
1772641348250160600,8.19916064453125,0.38491117148995396,-0.5604719557311385,-0.5833942738961428
1772641348260205800,8.209205810546875,0.4694073177754879,-0.5539407273314892,-0.5606382522087544
1772641348270250500,8.21925048828125,0.5121820451408624,-0.5460076693098992,-0.4893326460815966
1772641348280295700,8.229295654296875,0.49045653554499147,-0.4938985657576471,-0.4181728781659156
1772641348290341600,8.239341552734375,0.42976036704182624,-0.4413562584199011,-0.338549635146372
1772641348300386600,8.249386474609375,0.3909960443615913,-0.3895343743111938,-0.24975769136305898
1772641348310431700,8.259431640625,0.3582055353939533,-0.32136969655826686,-0.18461287288796155
1772641348320477700,8.269477783203126,0.25124621288776394,-0.25777356882989405,-0.12654369188752024
1772641348330522600,8.279522705078126,0.11501929484307766,-0.21907756214551627,-0.09290244784206152
1772641348340567600,8.289567626953126,-0.010034487280249594,-0.19471257089152932,-0.046864115570858116
1772641348350612700,8.29961279296875,-0.08020107944011688,-0.20026004895083604,-0.03928308585733175
1772641348360658700,8.30965869140625,-0.1559305664241314,-0.22299597769826648,-0.07986103383079171
1772641348370703600,8.31970361328125,-0.25735212854743,-0.18575966830290852,-0.0853319395225495
1772641348380748800,8.329748779296875,-0.24303484938144682,-0.21170805629082023,-0.09070807960294186
1772641348390793500,8.33979345703125,-0.20230068793296813,-0.22998759015128015,-0.09059395170398056
1772641348400839700,8.349839599609375,-0.1688257038325071,-0.23679741629660128,-0.06868570595234633
1772641348410884600,8.359884521484375,-0.06651216130554675,-0.2695500774718821,-0.028235476011782883
1772641348420929800,8.3699296875,0.07276479195952415,-0.3149228585064411,-0.01906125882267952
1772641348430975700,8.379975830078125,0.166317520403862,-0.3828652718108147,-0.01996156866326928
1772641348441020700,8.390020751953125,0.2694388721823692,-0.4599116135470569,-0.012387334016710518
1772641348451065600,8.400065673828125,0.3576327039420604,-0.5552292327720671,-0.015796484873071313
1772641348461110500,8.410110595703125,0.38278234276771544,-0.6300086524896323,-0.057235287459567186
1772641348471156500,8.420156494140626,0.39894963371455666,-0.681959569805488,-0.11282426901683211
1772641348481201700,8.43020166015625,0.3165484138816595,-0.6908934023674577,-0.14933029137626289
1772641348491246600,8.44024658203125,0.21433891625106333,-0.6844802473895252,-0.18076091016754506
1772641348501291800,8.450291748046874,0.10786240882575511,-0.6832621768366545,-0.18122304778657852
1772641348511337700,8.460337646484374,0.030248423269391058,-0.674845865342766,-0.16561638639718293
1772641348521382700,8.470382568359375,-0.01936754829287529,-0.6496599130947143,-0.1890600250225514
1772641348531427600,8.480427490234375,-0.22567864091098308,-0.5658976340416818,-0.1715927573930472
1772641348541472800,8.49047265625,-0.36575931177437304,-0.5000738203264773,-0.16796389937140047
1772641348551518700,8.500518798828125,-0.41832711887955665,-0.5146660439763218,-0.16983780348449945
1772641348561563600,8.510563720703125,-0.397139953944087,-0.49812487821578977,-0.21338168859146533
1772641348571608600,8.520608642578125,-0.40378596782982346,-0.4540801309145987,-0.2821776499852538
1772641348581654500,8.530654541015625,-0.44147067857980726,-0.423248208668828,-0.33111732972115276
1772641348591699700,8.54069970703125,-0.4902443540990352,-0.4189268383383751,-0.3766352913800627
1772641348601744600,8.55074462890625,-0.5324842439353465,-0.45043921712897717,-0.3722279232665896
1772641348611789800,8.560789794921876,-0.5596732796341181,-0.5108768077611923,-0.3567507334757596
1772641348621835800,8.570835693359374,-0.4374585203289985,-0.6099853437017649,-0.3147549545936286
1772641348631880700,8.580880615234374,-0.3238894242942333,-0.6287107946988195,-0.32544578689076004
1772641348641925600,8.590925537109374,-0.34897476571202274,-0.5920150219209492,-0.36663894415311515
1772641348651970600,8.600970458984374,-0.4389332690566778,-0.5554419987399131,-0.3914668036784977
1772641348662016500,8.6110166015625,-0.48391807368695733,-0.5127093569505959,-0.4651676343791187
1772641348672061700,8.621061767578125,-0.45925241898596286,-0.45757009192220865,-0.4932238083012402
1772641348682106600,8.631106689453125,-0.4169944089710712,-0.3783507169958204,-0.4552594768922776
1772641348692152800,8.64115283203125,-0.4228460576087236,-0.16189605069980023,-0.4141345625605434
1772641348702197500,8.651197509765625,-0.48426820229887957,0.026113369291275737,-0.3787441732928157
1772641348712242700,8.66124267578125,-0.5683370630830527,0.23085940454974768,-0.3069912617895752
1772641348722287600,8.67128759765625,-0.6943991454660892,0.42382074785977597,-0.13929616942219436
1772641348732333600,8.68133349609375,-0.41671851463913917,0.5142626508072018,-0.004640446216985583
1772641348742378800,8.691378662109376,-0.3499859885811806,0.6952380805082619,0.020126184640452266
1772641348752423700,8.701423583984376,-0.44547406900227066,0.8685828692004084,0.03337356955260038
1772641348762468600,8.711468505859376,-0.4657622392714023,0.9403170029379427,0.057959802341833705
1772641348772514600,8.7215146484375,-0.4257300886124372,1.0580139925576746,0.08198876657448709
1772641348782559700,8.731559814453124,-0.42244624463617797,1.1708604734063148,0.07550283862128854
1772641348792604700,8.741604736328124,-0.3481190256655216,1.3507806949660182,0.17895539511553943
1772641348802649900,8.75164990234375,-0.2735965763837099,1.3758879559546708,0.21886947235278784
1772641348812695800,8.76169580078125,-0.1688917548060417,1.3393056534886358,0.23006584301926195
1772641348822740500,8.771740478515625,-0.057304772499203675,1.309495329375565,0.1904066903911531
1772641348832785700,8.78178564453125,-0.06970774247646332,1.2640722794584929,0.13133731937222182
