time,seconds_elapsed,z,y,x
1772732293262177500,0.070177490234375,-0.27014205201566216,-0.5553121618151664,0.7821838119029998
1772732293272205600,0.08020556640625,-0.3747048347741365,-0.5903790912821889,1.1459564799048005
1772732293282233600,0.090233642578125,-0.06651800652444362,-0.023652093744277954,0.1010751141726505
1772732293292260600,0.100260498046875,0.13908756817281245,-0.14004501502811909,0.10360612135445699
1772732293302288600,0.11028857421875,0.4157926319658756,-0.022771803778409958,-0.24642354197166857
1772732293312316700,0.120316650390625,0.7183838321655989,0.4423059603601694,0.2056072186650708
1772732293322343700,0.13034375,0.6846832226157188,0.340339331574738,0.41124665909931063
1772732293332371500,0.140371337890625,0.4885778821915388,-0.1064662782922387,-0.1199079071348533
1772732293342399500,0.1503994140625,0.12725450703799723,-0.37766865301579233,-0.3015791005477309
1772732293352426500,0.160426513671875,-0.13891513421535492,-0.38380700964033604,-0.1490253170803189
1772732293362454500,0.17045458984375,-0.18907529565691947,-0.0574932808086276,0.29742123194960873
1772732293372482600,0.180482666015625,-0.03925298298001289,0.18527064267694948,0.6147643216066062
1772732293382509600,0.190509521484375,0.11082885741591453,0.21072131027579305,0.6301528102006763
1772732293392537600,0.20053759765625,0.18852116890549658,-0.026794775684177874,0.5276399822419509
1772732293402565400,0.2105654296875,0.027682956695556638,-0.33320933356434107,0.4192601254133507
1772732293412592600,0.220592529296875,-0.18906360521912574,-0.48539194563180205,0.4389986624430865
1772732293422620400,0.230620361328125,-0.2874076595932245,-0.4159893235817551,0.4277274729747325
1772732293432648700,0.240648681640625,-0.15278525413572788,-0.1285179511025548,0.36580925186332314
1772732293442675700,0.25067578125,0.08921557602286338,0.02088584390133619,0.2681372149992734
1772732293452703500,0.260703369140625,0.18928630805909633,-0.12249357624650001,0.13305482734721152
1772732293462731500,0.2707314453125,0.2787877152860164,-0.33475247135311365,0.08168255016952752
1772732293472758500,0.280758544921875,0.37176761227846145,-0.4718392210975289,-0.0176431173867546
1772732293482786600,0.29078662109375,0.24103812260627744,-0.5011123695939779,-0.23550175046287475
1772732293492814600,0.300814697265625,-0.22238193745315074,-0.6085638595312833,0.04369439036040566
1772732293502842600,0.310842529296875,-0.47640579836070535,-0.7020961297094821,0.5022479494951665
1772732293512869600,0.32086962890625,-0.2611222947359085,-0.5679132847130298,0.6853139217346906
1772732293522897400,0.3308974609375,-0.16300386581122875,-0.46513270919620986,0.7039186689615249
1772732293532925700,0.34092578125,-0.17301672578155994,-0.41901451662182804,0.45482554245442147
1772732293542952400,0.350952392578125,-0.06702595604658126,-0.21633184363394975,0.07601060548033566
1772732293552980700,0.360980712890625,0.00019406126737594602,-0.13341156836301088,-0.07032801153296604
1772732293563008500,0.371008544921875,-0.129507838922739,0.022703414717316628,0.06668395594218746
1772732293573035500,0.381035400390625,-0.4429460118293762,0.4950011932373047,0.8350029634207486
1772732293583063600,0.3910634765625,-0.8837176022291183,-0.09302665874361991,0.5472402798447757
1772732293593091600,0.401091552734375,-0.9975807127743959,-0.5390864186793566,0.14996221433794124
1772732293603118600,0.41111865234375,-0.8927759379535913,-0.6483414509072899,-0.07477525499910116
1772732293613146600,0.421146728515625,-0.6268991421669722,-0.5098430807992815,-0.14320641993479802
1772732293623174700,0.431174560546875,-0.24468553919792174,-0.3474398112297058,-0.05024131865268573
1772732293633201700,0.44120166015625,-0.010357143363356589,-0.18575287323594092,-0.007960895876586436
1772732293643229400,0.4512294921875,0.1294441260367632,-0.06172141989767551,0.15083192811086774
1772732293653257700,0.4612578125,0.034193361502885815,-0.08101970234662294,0.1042698824928142
1772732293663284500,0.471284423828125,-0.21096739399135112,-0.06929331645667552,-0.05133875850057229
1772732293673312800,0.481312744140625,-0.43109015434086323,0.17840251047313213,-0.04393595316447317
1772732293683340500,0.491340576171875,-0.5066863703340292,0.711673228611052,0.5381281315738335
1772732293693367600,0.501367431640625,-0.3673305066138506,0.4169909018397331,0.33940066248513756
1772732293703395600,0.5113955078125,-0.19270693015754223,0.11881693356037139,0.0736272540077567
1772732293713423600,0.521423583984375,-0.2651876444786787,-0.09301058439165354,-0.05336712252302095
1772732293723451600,0.53145166015625,-0.05780220062732696,-0.12377455596774815,-0.04080540918693878
1772732293733478700,0.541478759765625,0.241171393597126,-0.01313040746897459,-0.015041848847176879
1772732293743506700,0.551506591796875,0.35862171497941014,0.13065847026258706,-0.01262062218277715
1772732293753534500,0.561534423828125,0.4594242684215307,0.16271628104150293,-0.07680708962026983
1772732293763561500,0.5715615234375,0.4842717094302177,0.462113069114089,-0.6571820522278546
1772732293773589500,0.581589599609375,0.5708230346798896,0.5216168129622936,-0.8493743108615278
1772732293783617500,0.591617431640625,0.5264852957814932,-0.09388912079185247,-0.33459728079140183
1772732293793644500,0.60164453125,0.4599211120277643,-0.5743465326309204,-0.1667272337159142
1772732293803672600,0.611672607421875,0.350068990689516,-0.7506383345603942,-0.1400647152424324
1772732293813700600,0.62170068359375,0.5589543177098035,-0.6215016670376062,0.06574851998928934
1772732293823727600,0.6317275390625,0.9042132777690887,-0.4909159697502851,0.2723477088337764
1772732293833755400,0.64175537109375,1.028108537507057,-0.5544380093291401,0.22862980060046537
1772732293843783700,0.65178369140625,1.02280633944571,-0.7329580087020993,-0.019264409862097816
1772732293853810400,0.661810546875,0.9394944345086812,-0.8871911235585809,-0.2891312867817469
1772732293863838700,0.671838623046875,0.7089321132093668,-0.9044654989644885,-0.39733912977799773
1772732293873866500,0.681866455078125,0.48141398191154,-0.5080304784193634,-0.08685301160998642
1772732293883893500,0.6918935546875,0.2471276716530323,-0.282652866281569,-0.0054583339045522735
1772732293893921500,0.701921630859375,0.09817045137286186,-0.28390345086455343,-0.26270653172004965
1772732293903949600,0.711949462890625,-0.014373977789282798,-0.29899288344681263,-0.4762028231345117
1772732293913976600,0.7219765625,-0.014665654212236404,-0.23015549406409264,-0.570230512146838
1772732293924004600,0.732004638671875,0.07663315782546996,-0.1290574648067355,-0.5331058464324101
1772732293934032600,0.74203271484375,0.08509235861301422,-0.08497866910547018,-0.44226745498068626
1772732293944060700,0.752060791015625,0.11746259634196758,-0.1260822483882308,-0.35039822264388204
1772732293954087400,0.76208740234375,0.2729430809110403,-0.28483664006143805,-0.371408423577249
1772732293964115700,0.77211572265625,0.517421699360013,-0.3306444515123963,-0.3520704667050391
1772732293974143500,0.7821435546875,0.6669844843178987,-0.3455214103877544,-0.3254347540400922
1772732293984170800,0.792170654296875,0.8091150734484195,-0.3849509189784527,-0.26288815363096074
1772732293994198500,0.802198486328125,0.823098006093502,-0.46057022358626126,-0.33251667512506244
1772732294004226600,0.8122265625,0.7619470795601606,-0.5587783766210079,-0.29987978581655766
1772732294014253600,0.822253662109375,0.7539654331564902,-0.641006285713613,-0.11504484940944239
1772732294024281300,0.83228125,0.6994622740745544,-0.6816016232132911,-0.14176802116213366
1772732294034309400,0.842309326171875,0.5834662431538105,-0.5801017351567744,-0.38434805771447716
1772732294044336400,0.85233642578125,0.3702519470185041,-0.5141425315588712,-0.45756943433508274
1772732294054364200,0.8623642578125,0.11648235313296318,-0.46637803308218717,-0.5120617066968232
1772732294064392400,0.872392333984375,-0.0993663831591606,-0.39899551868289707,-0.5626095522817224
1772732294074419200,0.882419189453125,-0.19446867913305757,-0.28097382715344427,-0.6129898592799902
1772732294084447500,0.892447509765625,-0.12047989833652972,-0.17341303162276744,-0.6700274322103709
1772732294094475300,0.902475341796875,0.01617547425329685,-0.15171031838059423,-0.794530156322196
1772732294104502300,0.912502197265625,0.05577274062633514,-0.24764585030823943,-0.8355976413782685
1772732294114530300,0.9225302734375,0.04136544508934021,-0.42114042273461816,-0.7564926135465502
1772732294124558300,0.932558349609375,0.10303601158261298,-0.5532692578107118,-0.6140154029354453
1772732294134585300,0.94258544921875,0.21505729365348814,-0.6716027917683124,-0.5467079995989799
1772732294144613400,0.95261328125,0.34602000755965706,-0.7570122535064816,-0.6195585701458156
1772732294154641200,0.96264111328125,0.465596819576621,-0.8203039914608001,-0.730747493045777
1772732294164669200,0.972669189453125,0.5952694936722517,-0.9004498335823417,-0.8081358531527221
1772732294174696200,0.9826962890625,0.6647901891440152,-1.0097934208765624,-0.7537083165902644
1772732294184724200,0.99272412109375,0.8604548000633716,-1.0447326323106885,-0.669180459992215
1772732294194752300,1.002752197265625,1.1244833376348018,-1.0663611112728715,-0.8114866979505866
1772732294204779300,1.012779296875,1.2634125003755092,-1.156743977509439,-0.9942802099242806
1772732294214807300,1.022807373046875,1.2302765389710664,-1.2025099956452845,-1.013095385031402
1772732294224835000,1.0328349609375,0.9933926134347915,-1.2131982706591486,-1.0199614714086056
1772732294234862300,1.0428623046875,0.4076584253489971,-1.1303899313300847,-1.0818328942362219
1772732294244890000,1.05289013671875,-0.21229542772471904,-1.0385989518612622,-0.9869351078584789
1772732294254918400,1.06291845703125,-0.3865402339965105,-0.9078642014920711,-0.9875846578083932
1772732294264945200,1.072945068359375,-0.4034668188780546,-0.8333475974291562,-0.9693982821241021
1772732294274973200,1.08297314453125,-0.2730892113834619,-0.8513701608538627,-0.9681221247084438
1772732294285001200,1.093001220703125,-0.12341010656952857,-0.8759256331786512,-1.0835891633190213
1772732294295028200,1.1030283203125,0.026598084068298337,-0.8528241590544581,-1.1586949654467402
1772732294305056300,1.11305615234375,0.18155659058988094,-0.7635454546675086,-1.1843204781558363
1772732294315084300,1.123084228515625,0.3305646642744541,-0.7227399815484881,-1.1877489182345569
1772732294325111000,1.133111083984375,0.5124895036548376,-0.7182134440347552,-1.1975269465357063
1772732294335139300,1.143139404296875,0.6749883425533771,-0.7108873389303684,-1.1971664426602422
1772732294345167000,1.1531669921875,0.8832996690779924,-0.7373276020884514,-1.223037235367298
1772732294355195400,1.1631953125,1.0197744244039058,-0.759443572306633,-1.1630018688604236
1772732294365222100,1.17322216796875,1.1365022767305373,-0.7593611547201872,-1.0452472307693212
1772732294375250400,1.18325048828125,1.2859914119303226,-0.7757657615542412,-0.9414828318469226
1772732294385278200,1.1932783203125,1.363233641564846,-0.8878960569575428,-0.9075365769729018
1772732294395305200,1.20330517578125,1.411059807100892,-1.047803125797212,-0.7581601083673536
1772732294405333200,1.213333251953125,1.4075018223583697,-1.158599834509194,-0.543270024506934
1772732294415361300,1.223361328125,1.313460433614254,-1.24170218834877,-0.437884271460399
1772732294425388300,1.23338818359375,1.201955284371972,-1.2980635425180196,-0.4342403254674747
1772732294435416300,1.243416259765625,1.130592760425806,-1.3117273262113331,-0.4385728747790679
1772732294445444400,1.2534443359375,1.069726496052742,-1.2642086191892623,-0.4172522196570411
1772732294455471400,1.263471435546875,0.9735299751013516,-1.2361901469290255,-0.4657953378234058
1772732294465499100,1.2734990234375,0.8515700673401355,-1.2006184828102588,-0.46183140262849626
1772732294475527200,1.283527099609375,0.7769453267276286,-1.1771215796276926,-0.47566981223635374
1772732294485554200,1.29355419921875,0.6579466068595647,-1.1415566375106572,-0.543201087456569
1772732294495582500,1.30358251953125,0.6236386790663003,-1.1238052922427653,-0.6022394057501107
1772732294505610200,1.3136103515625,0.6826116770386695,-1.0954323074564336,-0.6322969095572829
1772732294515637200,1.32363720703125,0.8303039919495582,-1.1283613481119275,-0.6204204476721584
1772732294525665300,1.333665283203125,0.9447820195227861,-1.2829194571390747,-0.6382512879170477
1772732294535693000,1.343693115234375,1.0112217001140118,-1.3703139552146195,-0.6093833957532421
1772732294545721300,1.353721435546875,0.9969920992314815,-1.3695146215304732,-0.5516114806663245
1772732294555748400,1.363748291015625,0.9416144954025745,-1.4488684364914892,-0.5925213274752721
1772732294565776400,1.3737763671875,0.7849994538456201,-1.6215198360919951,-0.6874119169272482
1772732294575804200,1.38380419921875,0.46951370075941085,-1.7248802573233841,-0.7047661526363342
1772732294585831200,1.3938310546875,0.013756138151884078,-1.7363649434119461,-0.6439461385577917
1772732294595859200,1.403859130859375,-0.4153168311476707,-1.640608275182545,-0.5989724398434162
1772732294605887200,1.41388720703125,-0.6953858184158802,-1.4924197011873126,-0.5282203759457915
1772732294615914200,1.423914306640625,-1.034118007054925,-1.3543874872863293,-0.39114159031212326
1772732294625942300,1.4339423828125,-1.4544611419320106,-1.1862683242879808,-0.20560362020218745
1772732294635970300,1.44397021484375,-1.9028081360220908,-0.9526509993322193,-0.1517679303193465
1772732294645997300,1.453997314453125,-2.3854256485044956,-0.678849109634757,-0.18861986177330836
1772732294656025000,1.464025146484375,-2.8126538667201992,-0.38460049810558555,-0.19950965070864185
1772732294666053400,1.474053466796875,-2.99409939815104,-0.1676299181766808,-0.21503307252768425
1772732294676080000,1.484080078125,-2.9041619375944134,-0.05700505890026688,-0.32643772053755815
1772732294686108400,1.4941083984375,-2.561855982121825,0.05118146731331944,-0.32270697304401547
1772732294696136200,1.50413623046875,-2.172351637622714,0.11057575943768023,-0.42161724646612997
1772732294706163200,1.5141630859375,-1.7594909674555061,0.014975304683297871,-0.4782864610081538
1772732294716191200,1.524191162109375,-1.5591782384693622,0.10080708348676562,-0.3420799646969884
1772732294726219300,1.53421923828125,-1.4384516718953848,0.2421713644199073,-0.13833384546237065
1772732294736246300,1.544246337890625,-1.2901859410107135,0.23428455669283865,0.1298351346483454
1772732294746274300,1.5542744140625,-1.1846411614775656,0.13726941283494234,0.48227998762372876
1772732294756302300,1.56430224609375,-1.1038947231143712,0.05848886771723628,0.8692878025993704
1772732294766330400,1.574330322265625,-1.0166215133309364,0.10479030790403485,1.1926000115275381
1772732294776357000,1.584357177734375,-0.9108902713149786,0.21994754991307852,1.3931307671785353
1772732294786385400,1.594385498046875,-0.8172744145065546,0.1979427849844098,1.5544969487853348
1772732294796413200,1.6044130859375,-0.7103647763609886,0.12440160182490945,1.845377106794715
1772732294806440400,1.6144404296875,-0.5731166985750198,0.1407525787755847,2.1518539162561297
1772732294816468200,1.62446826171875,-0.37859775055944916,0.15012041884064672,2.4384895685635506
1772732294826496300,1.634496337890625,-0.19810791241824627,0.16221885291337965,2.559916538491845
1772732294836523300,1.644523193359375,-0.0766799195766449,0.21926263638883828,2.520084294319153
1772732294846551300,1.65455126953125,-0.03157002726197242,0.3224494546189904,2.403006751772016
1772732294856579300,1.664579345703125,-0.0767237587183714,0.4767550501897931,2.241132912904024
1772732294866606300,1.6746064453125,-0.07041150683164596,0.7290367436051368,2.0228741928607223
1772732294876634400,1.68463427734375,-0.02420212884247303,0.9488070372551679,1.6742819967254996
1772732294886662100,1.694662109375,0.06675298432409763,1.1066662336543203,1.2991245958782731
1772732294896689200,1.704689208984375,0.1097322943508625,1.2333315426275133,1.0138654195558279
1772732294906717200,1.71471728515625,0.11266834780275821,1.3247913904458284,0.8201279773067682
1772732294916745200,1.7247451171875,0.15517653318643568,1.364206870511174,0.6263498377211392
1772732294926772500,1.7347724609375,0.25521979269385336,1.3597317709237335,0.45294473367650057
1772732294936800300,1.74480029296875,0.38733752185404297,1.2645146163985133,0.34836923756692556
1772732294946828300,1.754828369140625,0.6467518436282873,1.153062658648193,0.3276773088024929
1772732294956855300,1.764855224609375,1.0094950224518775,1.0491773367598651,0.2770788655415177
1772732294966883000,1.774883056640625,1.339824124404788,0.9024433454871177,0.09998455159012228
1772732294976911400,1.784911376953125,1.556787543940544,0.7424281400978565,-0.04820495398687198
1772732294986939100,1.794939208984375,1.6946207281380892,0.5996203823581338,-0.14230517851244656
1772732294996966400,1.80496630859375,1.803832213485241,0.45363428684324025,-0.22073707458926364
1772732295006994200,1.814994140625,1.875237407529354,0.24628888274133204,-0.31699465981181707
1772732295017022500,1.8250224609375,1.8337813615471124,-0.03896393690556287,-0.3347791766969487
1772732295027048700,1.835048583984375,1.687573147714138,-0.27294454221576453,-0.25808212332241237
1772732295037077000,1.845076904296875,1.4577771346122026,-0.44129181488156316,-0.12875420754384248
1772732295047104800,1.855104736328125,1.176872865563631,-0.5462979574933647,-0.03842161018978804
1772732295057132000,1.865132080078125,0.9396066627115011,-0.5962865617603064,-0.039492710020020604
1772732295067159800,1.875159912109375,0.8121341290086508,-0.5727729997038841,-0.05566000096686184
1772732295077187800,1.885187744140625,0.8056359991610049,-0.57051469938308,-0.05909414013400673
1772732295087214800,1.89521484375,0.9300865546941757,-0.5681468012079596,-0.09201134422123432
1772732295097243000,1.905242919921875,1.1144003350377083,-0.5251113770797848,-0.14564373008431866
1772732295107271000,1.91527099609375,1.3149252454698086,-0.5893599773675203,-0.17947342764027416
1772732295117298000,1.9252978515625,1.5515928979068994,-0.7435767256110906,-0.10276936000306158
1772732295127326000,1.935325927734375,1.7860650861263274,-0.9379436979353427,0.03104538233336061
1772732295137354000,1.94535400390625,1.9218933602422474,-1.1317688184678554,0.10330839878320694
1772732295147380700,1.955380615234375,2.047071645528078,-1.2758978879392147,0.21737505081025882
1772732295157409000,1.965408935546875,2.341454989352822,-1.3104443006634712,0.41848610883355136
1772732295167436800,1.975436767578125,2.5749188773125407,-1.355943484556675,0.42572621615491807
1772732295177465000,1.985465087890625,2.63469442383945,-1.462000597526133,0.38995033470094204
1772732295187491800,1.995491943359375,2.5268057115286586,-1.5934394045114517,0.4334051532849669
1772732295197520000,2.005519775390625,2.2454835093289613,-1.6517250047415495,0.5365520778961479
1772732295207548000,2.0155478515625,1.929169488725066,-1.6753014029011128,0.5856625841543078
1772732295217575000,2.025574951171875,1.7146446945130824,-1.6709326862975955,0.611492277665995
1772732295227603000,2.03560302734375,1.5829636032044887,-1.645105002079904,0.4616966703329235
1772732295237630700,2.045630615234375,1.4478577981442213,-1.5361691188037394,0.2399737813103944
1772732295247657700,2.05565771484375,1.2466419828385114,-1.5271566680476067,0.03393847342636436
1772732295257686000,2.06568603515625,1.0035679704904557,-1.5814216344594954,-0.04588182653523981
1772732295267713800,2.0757138671875,0.7764303629428148,-1.5948177071273326,-0.02063773262547329
1772732295277741000,2.085740966796875,0.5791670846551656,-1.5728163031995295,0.05551829094123095
1772732295287768800,2.095768798828125,0.38828795444667336,-1.5888000542730092,0.07588897012835367
1772732295297796900,2.105796875,0.12962006712555885,-1.6369281253650783,0.15167181300111113
1772732295307823900,2.115823974609375,-0.19335399588942526,-1.5841469677701592,0.2745026583779603
1772732295317852000,2.125851806640625,-0.5752028571993112,-1.6055699872881173,0.3197350810937583
1772732295327880000,2.1358798828125,-0.9689771341025829,-1.628360788027942,0.3248513281289488
1772732295337907000,2.145906982421875,-1.4567051214665174,-1.5097069360747932,0.32969778177943077
1772732295347935000,2.15593505859375,-1.938210873314738,-1.3531751888871193,0.3429666478710249
1772732295357962800,2.165962646484375,-2.1566338440090416,-1.2365835301607846,0.3642928924836218
1772732295367989800,2.17598974609375,-2.1471102288603783,-1.1540838183894753,0.30426788297398016
1772732295378017800,2.186017822265625,-1.8765929137915371,-1.306640232205391,0.14632928292937575
1772732295388045800,2.1960458984375,-1.3113386191546916,-1.5848878492653369,-0.09733597331009805
1772732295398073900,2.206073974609375,-0.6777694977045059,-1.7524334501594303,-0.3000823591839522
1772732295408100900,2.216100830078125,-0.26436931383311746,-1.9001307335063815,-0.39605683488249777
1772732295418129000,2.22612890625,-0.2461854223668575,-2.134474911431968,-0.41618513841480015
1772732295428157000,2.236156982421875,-0.6478180115550756,-2.333395893798768,-0.16220942749790845
1772732295438183700,2.24618359375,-1.2468243536680936,-2.1865710093721744,0.158374452444911
1772732295448212000,2.2562119140625,-2.1965274629801512,-1.822858693255484,0.2677612943589687
1772732295458239700,2.26623974609375,-3.328577436476946,-1.378325119973719,0.14134429759103803
1772732295468267000,2.27626708984375,-4.3117835869401695,-0.7544824427679181,-0.13533121131397782
1772732295478294800,2.286294677734375,-4.801971826937795,-0.0011368950754404067,-0.4127922811061144
1772732295488323000,2.296322998046875,-4.916914549413323,0.6283090089648962,-0.748315517636016
1772732295498349800,2.306349853515625,-4.771502454394102,1.0712339780062436,-1.110296845241636
1772732295508377900,2.3163779296875,-4.351214849096537,1.4165434992089867,-1.4671183789312838
1772732295518406000,2.326406005859375,-3.6844378700494764,1.589647026491165,-1.747415621997416
1772732295528433000,2.336432861328125,-2.634965057474375,1.4962921587064861,-1.7889932485327122
1772732295538461000,2.3464609375,-1.3304600837320089,1.2173445766836404,-1.5287809082485735
1772732295548489000,2.356489013671875,-0.13440847044587134,0.9272574687480926,-1.2520526097103952
1772732295558515700,2.366515625,0.7304220604836941,0.7408882171794772,-0.9740340521659702
1772732295568544000,2.3765439453125,1.2424714191555977,0.6504243946611881,-0.7431560890462249
1772732295578571800,2.38657177734375,1.4413281041145325,0.6246712369844317,-0.6311484701745211
1772732295588599000,2.39659912109375,1.360760529449582,0.6465405389651656,-0.5480505733143538
1772732295598626800,2.406626708984375,1.13972416138649,0.6350856634929776,-0.47285336657613514
1772732295608654800,2.41665478515625,0.9771814833462238,0.6556129032149911,-0.3637433323094621
1772732295618683000,2.426682861328125,0.9709031337291002,0.7133584052190184,-0.24282584627326576
1772732295628710000,2.4367099609375,0.9888853651434183,0.7651333083808421,-0.17892375786826015
1772732295638738000,2.446738037109375,0.9626502691686153,0.8054299551948905,-0.10540544412769376
1772732295648765700,2.456765625,0.7762363016754389,0.8353463700309395,-0.0015804375918582081
1772732295658793000,2.46679296875,0.442196654766798,0.8266971996292471,0.11900909513160586
1772732295668820700,2.47682080078125,0.07714344543516635,0.8272396359428763,0.19659345273468642
1772732295678849000,2.48684912109375,-0.21531915946006774,0.8778010716617107,0.23601828515026718
1772732295688876000,2.4968759765625,-0.3562485561072826,0.8898238101497292,0.24367391446996478
1772732295698903800,2.50690380859375,-0.3095207072019577,0.9182552471250295,0.249857516742032
1772732295708931800,2.516931884765625,-0.17294132245779037,0.9270464563459158,0.2035959884405136
1772732295718958800,2.526958740234375,0.06293254925310611,0.9039400137856602,0.1805262246288359
1772732295728987000,2.53698681640625,0.38394437228441236,0.9602586978569626,0.14070528730144724
1772732295739015000,2.547014892578125,0.8305097436547278,0.9568892214238643,0.10036005210531874
1772732295749042000,2.5570419921875,1.3624246632695198,0.8955044861346483,0.08417212022924796
1772732295759070000,2.567070068359375,1.8973235671311617,0.7859943101018667,0.011599215846322477
1772732295769097700,2.57709765625,2.3438357470095155,0.683560063804686,-0.014664882460678926
1772732295779125000,2.587125,2.6600124049693346,0.5973880932614207,-0.02963631011988036
1772732295789152800,2.59715283203125,2.8697715922147036,0.5327522472217678,-0.054891930070659144
1772732295799181000,2.60718115234375,2.9843355445057154,0.4820186698064208,-0.051891739041102114
1772732295809207800,2.617207763671875,3.0173341432660816,0.41300007863789795,-0.09175145117603242
1772732295819235800,2.62723583984375,2.793407898980379,0.3504512680053711,-0.1652007365346886
1772732295829264000,2.637263916015625,2.4663667326569554,0.3044759910330176,-0.20951134996414184
1772732295839292000,2.6472919921875,2.3089771995961663,0.3121887573674321,-0.22931728967428205
1772732295849319000,2.65731884765625,2.271494733420014,0.28234277741909025,-0.32992373602241276
1772732295859347000,2.667346923828125,2.288559265467524,0.21777298235297202,-0.4230902050955221
1772732295869375000,2.677375,2.245232164916396,0.11108692383021115,-0.42231969564706084
1772732295879402000,2.687402099609375,2.157772492650151,0.03571574876457453,-0.3711058239014819
1772732295889429800,2.6974296875,2.0463035837650296,-0.029698388171195984,-0.3406671387569979
1772732295899458000,2.7074580078125,1.9304758951485157,-0.08975158259570598,-0.3178034189114347
1772732295909484800,2.71748486328125,1.829542993324995,-0.11976298223882913,-0.39233631652202455
1772732295919513000,2.72751318359375,1.7523218064785002,-0.06914747824519872,-0.5378171659285202
1772732295929540900,2.737540771484375,1.5840134045183658,-0.08360153553336858,-0.6367956822812557
1772732295939567900,2.74756787109375,1.3781634996712206,-0.1493681391686201,-0.6906400121282785
1772732295949596000,2.757595947265625,1.087318851366639,-0.21712328627258537,-0.6622911388698965
1772732295959624000,2.7676240234375,0.8115788332134485,-0.2939750552847981,-0.5996394523847848
1772732295969651000,2.77765087890625,0.5267904162079096,-0.3226344557970762,-0.5991709580902009
1772732295979679000,2.787678955078125,0.24198037189245222,-0.27771014918237924,-0.6056461454536766
1772732295989707000,2.79770703125,-0.022397125247120855,-0.21241145531982183,-0.6392962669253349
1772732295999734000,2.807734130859375,-0.28152444677352906,-0.2051324042275548,-0.667664210210368
1772732296009761800,2.81776171875,-0.5458049132794142,-0.2536506436809897,-0.6356454893328249
1772732296019789600,2.82778955078125,-0.8153034066945314,-0.29574235721826553,-0.5264270627882331
1772732296029816600,2.837816650390625,-1.0686100592434407,-0.29374563044309615,-0.4403685625568032
1772732296039844900,2.847844970703125,-1.2540554739654064,-0.3129229168608785,-0.36322793013323096
1772732296049872600,2.85787255859375,-1.450933552327752,-0.35066169588565826,-0.3172795411678031
1772732296059899600,2.867899658203125,-1.6532336557388305,-0.4199950520917773,-0.1423283036597073
1772732296069927700,2.877927734375,-1.7105805138140915,-0.39887101552039383,0.12738368637561798
1772732296079955500,2.88795556640625,-1.6120763004422187,-0.36791882789582014,0.33369737280961126
1772732296089983700,2.897983642578125,-1.428081669050455,-0.30676059483885765,0.4686723180318251
1772732296100010800,2.9080107421875,-1.2255600318431854,-0.21947890948802232,0.463941928509064
1772732296110038800,2.918038818359375,-1.0928700557529927,-0.11481558896452188,0.37605453235004094
1772732296120066600,2.928066650390625,-1.0401286456465721,-0.12660451869666575,0.16779292671866713
1772732296130093600,2.938093505859375,-0.9828718039423227,-0.3844473533704877,-0.06047507309839129
1772732296140121600,2.94812158203125,-0.7652075426608324,-0.5942471648871899,-0.07058434264790266
1772732296150149600,2.958149658203125,-0.3583230242937803,-0.7211962592378258,0.05231894691064953
1772732296160176600,2.9681767578125,0.15589374154508112,-1.0848045304581522,0.23471538585815577
1772732296170204700,2.97820458984375,0.8107540728271007,-1.623450219632685,0.5287782290242612
1772732296180232400,2.988232421875,1.2046657123744486,-2.2013620435297487,0.9924671691529452
1772732296190259700,2.998259765625,1.2372013697981834,-2.6443811205953356,1.7797095796197653
1772732296200287500,3.00828759765625,0.9240420138329267,-2.9325574264734984,2.5733602496936916
1772732296210315800,3.018315673828125,0.19791502019464968,-2.9693723686516282,3.0841572702169415
1772732296220342500,3.028342529296875,-0.8815934496819973,-2.46445651512146,3.283531257048249
1772732296230370800,3.038370849609375,-2.28498608315587,-1.461575357851386,3.2405285661458967
1772732296240398600,3.048398681640625,-3.695001934161782,-0.07568594010323286,2.738039647501707
1772732296250426600,3.058426513671875,-4.887940383863449,1.2864248349115253,2.0272885021716354
1772732296260453600,3.06845361328125,-5.575832631653547,2.411219430452585,1.149478808812052
1772732296270481700,3.078481689453125,-5.404530308574437,2.9756083404317497,-0.28385095349233597
1772732296280509700,3.088509765625,-4.848030398279429,2.899044156189263,-1.5352110874265432
1772732296290536700,3.09853662109375,-3.8220793310672043,2.7016677729159593,-2.3580108412258327
1772732296300564500,3.108564453125,-2.5220780984848736,2.4346689873620866,-2.7633240186229346
1772732296310592800,3.1185927734375,-1.105443121600151,1.8792419669955969,-2.679677767165005
1772732296320619500,3.12861962890625,0.36353462146222587,1.1821294709175825,-2.169063117471337
1772732296330647800,3.138647705078125,1.6602555171996354,0.5414511019840836,-1.3585780708439648
1772732296340675600,3.148675537109375,2.631571907904744,0.006275134746730328,-0.5389325798245147
1772732296350702800,3.158702880859375,3.0745979992330073,-0.31485154683589933,0.016961656194925307
1772732296360730600,3.168730712890625,2.8679624969661233,-0.4031260426163673,0.2505632721249014
1772732296370758700,3.178758544921875,2.3503730398237703,-0.3501341648802161,0.3453707133380696
1772732296380785700,3.18878564453125,1.7517413762420415,-0.25888766755163667,0.1375765060227364
1772732296390813700,3.198813720703125,1.1855424942314625,-0.20371230829656123,-0.1156055702984333
1772732296400841700,3.208841796875,0.9649866031616926,-0.10767214695066213,-0.22718056990653276
1772732296410868700,3.21886865234375,1.0579904655516148,0.015442776064574717,-0.23321378565616904
1772732296420896500,3.228896484375,1.2508943795859813,0.12655629564076662,-0.2905325866807252
1772732296430924500,3.238924560546875,1.3744248976647853,0.14734744699597357,-0.3563070082962513
1772732296440951600,3.24895166015625,1.5358002854913473,0.16472820538580416,-0.33346067797690626
1772732296450979600,3.2589794921875,1.8230933787941932,0.09140782537013292,-0.16944178990423678
1772732296461007600,3.269007568359375,2.04632170394361,-0.0433636331692338,-0.09787329505719244
1772732296471035600,3.27903564453125,2.1795722365260124,-0.14864362428635358,-0.1407302208133042
1772732296481062700,3.289062744140625,2.1459470302999017,-0.19346885444074868,-0.14352723112069068
1772732296491090400,3.29909033203125,2.062690654942393,-0.19198796823322772,-0.11439414868205786
1772732296501118700,3.30911865234375,1.974229696679115,-0.12308102074563503,-0.14804485467560588
1772732296511145500,3.3191455078125,1.8191057704627513,-0.03263794875442982,-0.23646847660318016
1772732296521173800,3.329173828125,1.6107546964496373,0.031499592374265195,-0.2989347235187888
1772732296531201500,3.339201416015625,1.4228835158854722,0.09213117120862006,-0.3273236365266144
1772732296541228500,3.349228515625,1.2352075656324624,0.14137567910999058,-0.2872401210065931
1772732296551256600,3.359256591796875,1.0839029054433107,0.1641910297691822,-0.16637538807094096
1772732296561284600,3.36928466796875,1.0677964047729969,0.14992343496382235,0.001212006138265133
1772732296571311600,3.3793115234375,1.0492115312904118,0.16412117940336465,0.15000446431078016
1772732296581339600,3.389339599609375,0.9736223295599221,0.1333697750478983,0.31357641233354805
1772732296591367700,3.39936767578125,0.8933464313179253,0.037328736919164655,0.5510861416179687
1772732296601394700,3.409394775390625,0.8571224407702683,-0.009901508550345897,0.7716346530988812
1772732296611422500,3.41942236328125,0.9894827465146779,-0.009215279851853848,0.8505810563027858
1772732296621450800,3.42945068359375,1.1759750399410724,-0.10009089804142712,0.6715740771304816
1772732296631477500,3.4394775390625,1.2689730571120976,-0.2612815769508481,0.3710642132494598
1772732296641505800,3.449505859375,1.2853425926327704,-0.3218219703704119,0.264613132526353
1772732296651533600,3.459533447265625,1.296233404481411,-0.3400692824617028,0.28033136453144253
1772732296661561600,3.4695615234375,1.2195827109992503,-0.43955315452069044,0.3582828384138644
1772732296671588600,3.479588623046875,0.9981114586502313,-0.6027697862997651,0.4450420707931742
1772732296681616600,3.48961669921875,0.7496843948364257,-0.701044574829936,0.5040061913393438
1772732296691644700,3.499644775390625,0.5459937138497829,-0.7443535552024841,0.514245699672401
1772732296701671700,3.509671630859375,0.3311363266825676,-0.8419941374823451,0.3635341100055724
1772732296711699700,3.51969970703125,0.22289164054095745,-1.1016557120159267,-0.09201693371180444
1772732296721727500,3.5297275390625,0.29995851360857484,-1.6013064846247433,-1.121691076567769
1772732296731754500,3.53975439453125,0.6487181752651929,-2.200045115712285,-2.339453732533008
1772732296741782800,3.54978271484375,1.3353203832447529,-2.3280136162385343,-2.850538483956456
1772732296751810600,3.559810546875,1.2765525524556636,-1.9971742266759276,-2.370258912902325
1772732296761837800,3.569837890625,-0.28813071317076683,-1.500270414687693,-1.2176317961271852
1772732296771865600,3.579865478515625,-2.972775455093384,-0.9509393731087445,0.48519024904724206
1772732296781893600,3.5898935546875,-5.722545287877321,-0.15785247439742087,1.6258812461718917
1772732296791920600,3.599920654296875,-7.986264711120724,0.6935062882795929,1.838140725800395
1772732296801948700,3.60994873046875,-9.058956486719847,1.3186667700856922,1.2980270098999143
1772732296811976700,3.619976806640625,-8.780730496969818,1.7755594742029903,0.4089307833723724
1772732296822003700,3.630003662109375,-7.338478848269581,2.0453861766591666,-0.42134843946211037
1772732296832031700,3.64003173828125,-5.27895396388173,2.020928319489956,-0.844706757441908
1772732296842059500,3.6500595703125,-3.190637284773588,1.6336004422470927,-0.8598214705958962
1772732296852087800,3.660087890625,-1.6919366036206482,0.9434194989979267,-0.5562172939613461
1772732296862114600,3.670114501953125,-0.8035720523685217,0.2867728688210249,-0.2694558233171701
1772732296872142600,3.680142578125,-0.37438451677858825,0.02296118887066841,0.036586832510679956
1772732296882170600,3.690170654296875,-0.20289280860722064,0.11791589306741952,0.4040936090068891
1772732296892197600,3.70019775390625,-0.1685042167931795,0.4571551544457674,0.6540411238536238
1772732296902225700,3.7102255859375,-0.32978608111739155,0.8158677625790238,0.8131479822263121
1772732296912253700,3.720253662109375,-0.562812162181735,1.2350754636853933,0.8651201615259051
1772732296922280400,3.730280517578125,-0.7612807246059179,1.6481296105980872,0.9171367644891142
1772732296932308700,3.740308837890625,-0.8683195420891046,1.8610498922228813,0.8733113590270281
1772732296942336500,3.75033642578125,-0.780693281084299,1.9015423538699745,0.7121186342909932
1772732296952363800,3.76036376953125,-0.4357406104952097,1.873568305273354,0.5878054048692807
1772732296962391600,3.7703916015625,0.05083996039927006,1.6908140293315053,0.4170367137428373
1772732296972419800,3.780419921875,0.5819301196277141,1.4332561490789055,0.3663709043340757
1772732296982446600,3.790446533203125,1.2023019058525561,1.2162526897937058,0.47144653198551384
1772732296992474600,3.800474609375,1.984761612087488,1.0184276859700678,0.6205045457590371
1772732297002502700,3.810502685546875,2.715290640076995,0.7614248092517256,0.6906742066588253
1772732297012529700,3.82052978515625,3.2091853333771225,0.48120969151109455,0.7266470719896256
1772732297022558500,3.830558349609375,3.4620541790306567,0.331642814899981,0.76005527446419
1772732297032586200,3.840586181640625,3.5890573416560887,0.3075011840730905,0.7080996079079807
1772732297042614500,3.850614501953125,3.518529514968395,0.3726552087679505,0.5291781881272792
1772732297052641300,3.860641357421875,3.2921453561365603,0.4578951591581106,0.3753858393082395
1772732297062669300,3.87066943359375,2.9839409922301767,0.5949576512441038,0.20903353985194115
1772732297072697300,3.880697265625,2.560705058521032,0.761722623154521,0.057101669408846645
1772732297082724400,3.890724365234375,1.9973890384703874,0.8314955398216843,-0.11239199681309983
1772732297092752400,3.90075244140625,1.3850117581307888,0.9490560435801744,-0.3434573174647987
1772732297102780400,3.910780517578125,0.7834048781305551,1.1424345893889665,-0.5377018689857795
1772732297112807400,3.920807373046875,0.26630875746309757,1.2276786314323545,-0.7229136576149612
1772732297122835500,3.93083544921875,-0.14250234505236148,1.230812545543909,-0.8262292898565531
1772732297132863200,3.94086328125,-0.4430810363858938,1.1876306986823677,-0.7088013264365494
1772732297142890500,3.950890380859375,-0.6090063426017761,1.0987599905744194,-0.5701757132196799
1772732297152918300,3.960918212890625,-0.5897685581684112,0.9940519541263579,-0.5268099246259779
1772732297162946600,3.970946533203125,-0.41991760294139385,0.9382456034913659,-0.4722301201112568
1772732297172973300,3.980973388671875,-0.1358446407288313,0.8759083897829055,-0.40288383135832845
1772732297183001300,3.99100146484375,0.18843115253448486,0.7380170456573367,-0.33787571794018145
1772732297193029400,4.001029296875,0.431896210026741,0.6623544864296913,-0.25571948584429915
1772732297203056400,4.011056396484375,0.5625444511562585,0.594228167925775,-0.2328186123261228
1772732297213084400,4.02108447265625,0.6651011547893285,0.5501178080424666,-0.1863711147321388
1772732297223112400,4.031112548828125,0.7101297985613345,0.5242763875603675,-0.20280027148555962
1772732297233140500,4.041140380859375,0.56683133469522,0.4837605450376868,-0.2539819214619696
1772732297243167500,4.05116748046875,0.28497838661968705,0.4194064385488629,-0.2100943009512499
1772732297253195300,4.0611953125,-0.21273089653253555,0.40474867538213727,-0.029694077322259545
1772732297263223300,4.071223388671875,-0.7589122419089078,0.43827568193078037,0.05939136951491236
1772732297273250300,4.081250244140625,-1.066324578654766,0.550667258618772,-0.15162212864048777
1772732297283278600,4.091278564453125,-1.203324234637618,0.6719783470824361,-0.49121297993548213
1772732297293306400,4.101306396484375,-1.3118348782390354,0.7645414799675345,-0.6175911425303667
1772732297303333400,4.11133349609375,-1.4271101936697959,0.8565347040101885,-0.4161841155014932
1772732297313361400,4.121361328125,-1.5061428138524293,0.9005649843946099,-0.11426591919250785
1772732297323389200,4.13138916015625,-1.4499094699770212,0.8394824469223618,0.12350677187703549
1772732297333416400,4.14141650390625,-1.2244207986801863,0.7039280213117599,0.3955659095603972
1772732297343444200,4.1514443359375,-0.9954904624968767,0.6114750708028673,0.6871897255439311
1772732297353472500,4.161472412109375,-0.7407330266177654,0.4635428096562624,0.7506287630144506
1772732297363499500,4.17149951171875,-0.4964858788371086,0.24423954899609088,0.4391505285365507
1772732297373527300,4.18152734375,-0.23070319107472895,-0.05535159260481596,0.28996476019751277
1772732297383555300,4.191555419921875,0.10509528219997882,-0.2248039039030671,0.5041233879782259
1772732297393583400,4.201583251953125,0.28809914898872374,-0.32964462682008744,0.6632308308728039
1772732297403610400,4.2116103515625,0.010742927810549736,-0.625791473186016,0.8734367389723658
1772732297413638400,4.221638427734375,-0.5191998149484396,-0.894574511808157,1.380161980012059
1772732297423666400,4.23166650390625,-0.8658324014484882,-0.9102227473169565,2.091955035610497
1772732297433693400,4.241693359375,-0.8757920699268579,-0.7345061149269342,2.735126682664454
1772732297443721200,4.25172119140625,-0.7677087118268012,-0.4503849296584725,2.99298003873229
1772732297453749500,4.26174951171875,-0.8076806567311287,-0.17848171318918465,2.8939924257576464
1772732297463776300,4.2717763671875,-1.003848540997505,0.27681758425682784,2.541963240911066
1772732297473804500,4.281804443359375,-1.3338935653120279,0.9274813406318425,1.8484497922383247
1772732297483832300,4.291832275390625,-1.773555148643255,1.4207453348129986,0.9642761168047785
1772732297493859300,4.301859375,-2.1151152541846034,1.6649591648459434,0.19870872785560786
1772732297503887400,4.311887451171875,-2.2619529980927706,1.683194201977551,-0.36344584720022977
1772732297513915400,4.321915283203125,-2.1038240448415277,1.493151814854145,-0.633663156409189
1772732297523942400,4.3319423828125,-1.6315484781533478,1.194056932337582,-0.7379264447644353
1772732297533970400,4.341970458984375,-0.9481704929172993,0.9191431358754635,-0.6284462254785
1772732297543998500,4.35199853515625,-0.16017945604026318,0.6494985119879245,-0.3437096117254346
1772732297554025500,4.362025390625,0.5895914480358362,0.3472387356996536,0.08317351024649106
1772732297564053200,4.37205322265625,1.1586556563496588,0.03415419853627682,0.5690062310488895
1772732297574081500,4.38208154296875,1.3385598035573958,-0.2316007244363427,1.0440863702964036
1772732297584109300,4.392109375,1.1773749698668718,-0.4313686790212989,1.5393325512707232
1772732297594136600,4.402136474609375,0.7338298231005668,-0.5080199570253491,1.8597174745753406
1772732297604164400,4.412164306640625,-0.0472825601786375,-0.47201720801293845,1.8704829064786432
1772732297614192400,4.4221923828125,-0.8813052803903818,-0.32117315107285976,1.6283774469017982
1772732297624219400,4.432219482421875,-1.412215991398692,-0.13776625644117593,1.2948019103735684
1772732297634247400,4.442247314453125,-1.5187445212721824,0.05116115517765283,0.9789829798102379
1772732297644275500,4.452275390625,-1.1615846955388784,0.15389906059652567,0.7089172809664159
1772732297654302500,4.462302490234375,-0.3340969300538301,0.0772086196258664,0.5412895547468215
1772732297664330500,4.47233056640625,0.6159346805602312,-0.1219885493338108,0.3978133962262422
1772732297674358300,4.482358154296875,1.4169722460150718,-0.26352058804929257,0.29347959991805256
1772732297684385300,4.49238525390625,1.9710843843907118,-0.3599795593291521,0.19995807032957671
1772732297694413300,4.502413330078125,2.358549916538596,-0.4031967697650194,0.1406547444242984
1772732297704441300,4.51244140625,2.6035160262435673,-0.4271738576799631,0.07309066291302442
1772732297714468400,4.52246826171875,2.759154916244745,-0.4631529335558414,-0.01754778551980853
1772732297724496400,4.532496337890625,2.794178298830986,-0.466173158159852,-0.11452551997676491
1772732297734524400,4.5425244140625,2.677001533693075,-0.4630491809204221,-0.19856508160121739
1772732297744551400,4.552551513671875,2.455356678342819,-0.45609103234559295,-0.2937549097280949
1772732297754579200,4.5625791015625,2.277990525180101,-0.43839901604950426,-0.4433969704672694
1772732297764607500,4.572607421875,2.0396715984046456,-0.4315189011469483,-0.52618339022547
1772732297774635300,4.58263525390625,1.832060529103875,-0.43760684275850653,-0.6262872938789427
1772732297784662500,4.59266259765625,1.6392998229324818,-0.3941182680353522,-0.7787311141658574
1772732297794690300,4.602690185546875,1.3826421063899994,-0.4221566140398383,-0.9190090611670165
1772732297804718600,4.612718505859375,1.0758674830257893,-0.5178247272029519,-0.8756688088733703
1772732297814745300,4.622745361328125,0.8441852177858352,-0.5909641976937652,-0.7008129580311476
1772732297824773400,4.6327734375,0.7025146473824977,-0.6540218346312642,-0.5274737953621894
1772732297834801400,4.642801513671875,0.5883756425052881,-0.7543830740466714,-0.3561144813988358
1772732297844828400,4.652828369140625,0.4708481642335653,-0.8007007347159087,-0.1926690092999488
1772732297854856400,4.6628564453125,0.28946166951358315,-0.7949161599650979,0.005995806348696351
1772732297864884500,4.672884521484375,0.04709609769582748,-0.7748074379161,0.11157784915231167
1772732297874911200,4.6829111328125,-0.20777239734232425,-0.7008453989960253,0.13590192387402056
1772732297884939500,4.692939453125,-0.5104425079971552,-0.6418124875299632,0.1673254553373903
1772732297894967300,4.70296728515625,-0.8311147238105535,-0.5496405459195375,0.2026386146504432
1772732297904994600,4.71299462890625,-1.1086164909392595,-0.4394187144860625,0.1968829006679356
1772732297915022300,4.723022216796875,-1.303717622756958,-0.37248686646372076,0.16473909210599957
1772732297925050600,4.733050537109375,-1.4121037631958722,-0.38202830953001976,0.12493475885353982
1772732297935077400,4.743077392578125,-1.3782967706620692,-0.4504252616688609,0.1586951357666403
1772732297945105400,4.75310546875,-1.1002613350480794,-0.6409094012103974,0.17232056021094322
1772732297955133400,4.763133544921875,-0.686820234644413,-0.8746297481492161,0.11847769166864454
1772732297965161200,4.7731611328125,-0.3658914137214422,-1.1355711333602667,0.1375871370146051
1772732297975188500,4.7831884765625,-0.22960078279078006,-1.3486121187552809,0.25157909810394047
1772732297985216300,4.79321630859375,-0.3349304582685232,-1.4479557055607437,0.3550277821406722
1772732297995244500,4.80324462890625,-0.6102589730113744,-1.3920657682955264,0.42945144722312684
1772732298005271600,4.813271484375,-1.0510516061991453,-1.171717967018485,0.4861464903261512
1772732298015299300,4.82329931640625,-1.7524089002400636,-0.754040544219315,0.4438405860489234
1772732298025326800,4.833326904296875,-2.4643045394301413,-0.23338673107028007,0.29711291491910813
1772732298035353900,4.843353759765625,-2.9840514668673275,0.2966916207671165,-0.04116773056015372
1772732298045382000,4.8533818359375,-3.1961119167923924,0.7838076137125491,-0.38580976429749275
1772732298055410000,4.863409912109375,-3.1664801641166207,1.2187667184412478,-0.6841236159715801
1772732298065437000,4.87343701171875,-2.8867338329315184,1.502883227534592,-1.016264078195393
1772732298075465000,4.88346484375,-2.4850953985244035,1.6525827906146644,-1.3150666997671125
1772732298085492700,4.89349267578125,-1.9693331568092107,1.7087343014255165,-1.434732359111309
1772732298095519700,4.903519775390625,-1.3052864795088768,1.6710560204163192,-1.4536812436006963
1772732298105548000,4.913548095703125,-0.5616062935233116,1.4752280356287955,-1.4448250063195824
1772732298115575800,4.923575927734375,0.20214812771975993,1.2484502013042569,-1.3755682224810122
1772732298125603800,4.933603759765625,0.8886147266209125,1.072947211664915,-1.183315246636048
1772732298135630800,4.943630859375,1.5235966374784706,0.9039841451883316,-0.9272910056915133
1772732298145659000,4.953658935546875,2.0358277824580666,0.7660843254953622,-0.7784273089136928
1772732298155687000,4.96368701171875,2.3394699530154464,0.638473552365601,-0.718720443708822
1772732298165713700,4.973713623046875,2.3956571196615695,0.5226791814967989,-0.6181505299787968
1772732298175742000,4.983741943359375,2.177694752216339,0.46160307376533743,-0.43630982521791006
1772732298185769700,4.993769775390625,1.7585323515564202,0.468256394174695,-0.2882845154929906
1772732298195797000,5.003796875,1.2394652230769394,0.5022209153577685,-0.2853991693150252
1772732298205824800,5.01382470703125,0.7347393391609192,0.560747630867362,-0.30188845875784753
1772732298215853000,5.02385302734375,0.37119068917334075,0.64206573163867,-0.31415750015713273
1772732298225879800,5.0338798828125,0.10080255344212055,0.74345660636276,-0.28064379148148
1772732298235907800,5.043907958984375,-0.15261106661260126,0.8012742968201637,-0.18216582679571583
1772732298245935900,5.053935791015625,-0.4263800769537687,0.8458709789156913,-0.06629632659777998
1772732298255963000,5.063962890625,-0.6947405062496662,0.8841431341648102,-0.036571890669874846
1772732298265991000,5.073990966796875,-1.0693255140364168,0.8757716116607188,-0.07849182783681899
1772732298276019000,5.08401904296875,-1.4169266533076763,0.876679666416347,-0.12146419666614383
1772732298286045700,5.094045654296875,-1.6160808599084615,0.9050611267700791,-0.178114121985808
1772732298296074000,5.104073974609375,-1.4766665439993143,0.9132584617510437,-0.22404961493704467
1772732298306101800,5.114101806640625,-0.9400111518591642,0.8387444880366325,-0.31095479512568563
1772732298316130000,5.124130126953125,-0.18180325882732867,0.6541454610109328,-0.39463173398282375
1772732298326156800,5.13415673828125,0.5023164846867323,0.4459954625278711,-0.346681576740928
1772732298336185000,5.14418505859375,1.0224982964098452,0.3152642192900181,-0.30267179115526377
1772732298346212900,5.154212890625,1.401077926790714,0.10700140808224677,-0.34341994459647684
1772732298356240000,5.164239990234375,1.690633119806647,-0.06432020421922206,-0.32027317002583294
1772732298366268000,5.174267822265625,1.8836083455115555,-0.21872984468638895,-0.25368041776474565
1772732298376295700,5.184295654296875,1.8849574220329521,-0.36031419811099763,-0.16971812262758612
1772732298386323000,5.194322998046875,1.7773790908455849,-0.3997381537437439,-0.18759254628587513
1772732298396351000,5.20435107421875,1.6535101345926522,-0.3741045307934284,-0.25805549104381353
1772732298406379000,5.21437890625,1.5229109933018683,-0.36322511712163685,-0.34436708925347775
1772732298416406000,5.224406005859375,1.3840215780496596,-0.393809055955708,-0.34846977533195167
1772732298426433800,5.234433837890625,1.2155483409166334,-0.4299667032688856,-0.31966577871721236
1772732298436461800,5.2444619140625,1.0903811615467072,-0.4422831640064716,-0.2569328802220523
1772732298446488800,5.25448876953125,0.9430033194124698,-0.36753026696965096,-0.25591917313486334
1772732298456516900,5.264516845703125,0.8543950616329908,-0.27942294444963334,-0.307061185220629
1772732298466545000,5.274544921875,0.715550654566288,-0.23167671228200196,-0.3745735365446657
1772732298476573000,5.284572998046875,0.5619762958794832,-0.19835516517758367,-0.382625544770807
1772732298486600000,5.294599853515625,0.47765082998573777,-0.17259265515059233,-0.36781514832563694
1772732298496627700,5.304627685546875,0.44241760404109953,-0.10299494891986251,-0.3961738123256713
1772732298506656000,5.314656005859375,0.4874474168568849,-0.0764760675676167,-0.45355449960529803
1772732298516682800,5.324682861328125,0.610343728685379,-0.08594006148353218,-0.41751499877907333
1772732298526711000,5.3347109375,0.8383587035894393,-0.09943404156789183,-0.3788976102888584
1772732298536738800,5.34473876953125,1.069922310885787,-0.13301643156558274,-0.39078028271906073
1772732298546765800,5.354765869140625,1.269071256789565,-0.18260171572864053,-0.4471762698102742
1772732298556793900,5.3647939453125,1.4339578676074742,-0.18710107297450304,-0.4589432069063186
1772732298566822000,5.37482177734375,1.503457520291209,-0.21261223858892916,-0.46807044314853846
1772732298576849000,5.384848876953125,1.4808943908274173,-0.21840631182044742,-0.4993918294116854
1772732298586877000,5.394876953125,1.4322411268174648,-0.224155084605515,-0.47520204859413206
1772732298596905000,5.404905029296875,1.3810866936415434,-0.23821400509625673,-0.487481757517904
1772732298606932000,5.414931884765625,1.424798994117975,-0.31511633525192734,-0.5143592430494726
1772732298616959700,5.424959716796875,1.4977514176040887,-0.3639014089480042,-0.5210512149687856
1772732298626988000,5.434988037109375,1.515059695279598,-0.3584446048468351,-0.49196847447790204
1772732298637014800,5.445014892578125,1.4971107816129923,-0.3685790453702211,-0.46607232813388105
1772732298647043000,5.45504296875,1.4529215112745761,-0.4247612435802817,-0.4560380600493401
1772732298657070800,5.46507080078125,1.4491034142911434,-0.42707974965572354,-0.48925534306168555
1772732298667099000,5.475098876953125,1.5435376017451286,-0.4092915795087814,-0.603214096001163
1772732298677126000,5.4851259765625,1.8043997842401265,-0.3869540754944086,-0.7542219652008265
1772732298687154000,5.49515380859375,2.110073168364167,-0.4183686199337244,-0.8274499907579272
1772732298697182000,5.505181884765625,2.4514222615033385,-0.5247703085571527,-0.809870056534186
1772732298707209000,5.515208984375,2.6995985654264687,-0.6346858505204319,-0.7006211617860942
1772732298717237000,5.525237060546875,2.8125381313860416,-0.754117116586864,-0.6280418824613094
1772732298727264800,5.5352646484375,2.731351548039913,-0.8061223213732243,-0.6366281436946243
1772732298737291800,5.545291748046875,2.486715108680725,-0.8484308925315738,-0.6818513601906597
1772732298747320000,5.555320068359375,2.204824751204252,-0.8344590658023953,-0.6875389773730188
1772732298757347800,5.565347900390625,1.9620307248413562,-0.8022031021028757,-0.7796252865266055
1772732298767375000,5.575375,1.7047195128262043,-0.9866928235352038,-1.0009860642384738
1772732298777403000,5.58540283203125,1.475340848353505,-1.1670976137414575,-1.1040144770365208
1772732298787431000,5.595430908203125,1.1893652673900126,-1.19430301605314,-0.8739283218815922
1772732298797458000,5.6054580078125,0.7503513343125582,-1.321670043554902,-0.6016619711883365
1772732298807485700,5.615485595703125,0.025997780087590214,-1.7671189781159162,-0.5016715378466994
1772732298817514000,5.625513916015625,-0.9570195698052644,-2.3252599336162207,-0.369527212940529
1772732298827541000,5.635541015625,-2.025107651001215,-2.668401755391061,-0.16622750403285025
1772732298837569000,5.645569091796875,-2.639290519458055,-2.5438497853100297,0.3049070759266615
1772732298847596800,5.6555966796875,-2.6348119127392766,-2.055969529993832,0.6224254308190197
1772732298857623800,5.665623779296875,-2.973766804218292,-1.6938938751682637,0.7613947063744068
1772732298867651800,5.67565185546875,-4.105906794086098,-1.244457040014863,0.7817072804324329
1772732298877679900,5.685679931640625,-5.917397997891903,-0.28352146580964327,0.741902216527611
1772732298887708000,5.6957080078125,-7.994336958417296,0.949411140628159,0.5177426384100691
1772732298897736000,5.70573583984375,-9.420602517956494,1.8971014488130806,0.10616218991228378
1772732298907763000,5.715762939453125,-9.782525028046965,2.4665108173027632,-0.2769707289919257
1772732298917791000,5.725791015625,-9.148482443866133,2.5444021584957834,-0.28728655396420505
1772732298927818800,5.73581884765625,-7.5244263672947875,2.209459425267577,0.21950990741448476
1772732298937846000,5.745845947265625,-5.632884890696406,1.5608903030842542,0.9644735390730201
1772732298947873800,5.755873779296875,-4.01395799370706,0.8377870411813259,1.8053113461270927
1772732298957902000,5.765902099609375,-2.629458861273527,0.2736681803151965,2.4989649339228865
1772732298967929900,5.775929931640625,-1.585253175446391,-0.17003098796904087,3.1770024349138137
1772732298977957000,5.78595703125,-0.9527315172225236,-0.5516702981814742,3.715390349934995
1772732298987985000,5.79598486328125,-0.6177654031187295,-0.8378641980707645,3.9954947007775306
1772732298998012700,5.8060126953125,-0.5190168595969676,-0.9500438855737448,4.048025975264609
1772732299008040000,5.8160400390625,-0.5608095901876687,-0.8750921049639582,3.911556772896647
1772732299018067700,5.826067626953125,-0.6378589275985955,-0.7209922610983253,3.590104804882407
1772732299028096800,5.8360966796875,-0.6440437537133693,-0.5245972900778055,3.2492575237855315
1772732299038123500,5.84612353515625,-0.5156389075964689,-0.26760785736292597,2.9560733266174792
1772732299048151800,5.85615185546875,-0.20727438469231127,-0.02176379577964544,2.643751005998254
1772732299058179600,5.8661796875,0.3215571819543838,0.16715104861855506,2.267675175131857
1772732299068206600,5.87620654296875,0.9886334362089634,0.2631894563987851,1.8423448994919656
1772732299078234600,5.886234619140625,1.7195348046422003,0.34263445677459237,1.4356203939922154
1772732299088262700,5.8962626953125,2.3576088362962007,0.4449611510440707,1.0809801498644054
1772732299098289700,5.90628955078125,2.93137961486578,0.5174897961601614,0.7179639262530952
1772732299108317700,5.916317626953125,3.327130160278082,0.529516041779518,0.35856023058313874
1772732299118345700,5.926345703125,3.5247745468378064,0.4779217558816075,0.05243219802677631
1772732299128372700,5.936372802734375,3.571738542586565,0.4564347312167287,-0.10221760787181555
1772732299138400500,5.946400390625,3.5110867977470157,0.4153384584575891,-0.1691350803089328
1772732299148428800,5.9564287109375,3.3623008423805234,0.38334465282559393,-0.31182978786192833
1772732299158456600,5.96645654296875,3.168837540897727,0.3538897180214524,-0.48297914886903015
1772732299168483800,5.97648388671875,2.913521302092075,0.33530630584359167,-0.5637964970439672
1772732299178511600,5.98651171875,2.666574247702956,0.3204389915794134,-0.6139646225962787
1772732299188539600,5.99653955078125,2.5971768863499163,0.25678601909726856,-0.6026140842813998
1772732299198566700,6.006566650390625,2.679718975958228,0.17182926956266165,-0.5819692095290869
1772732299208594700,6.0165947265625,2.6893168253868818,0.04582476258575916,-0.5530163790281861
1772732299218622700,6.026622802734375,2.569875622448325,-0.07473989142477512,-0.44256895867791024
1772732299228649700,6.036649658203125,2.349249004229903,-0.15081658441126344,-0.29053021206054835
1772732299238677800,6.046677734375,2.1261557036370036,-0.23072861777693032,-0.1991369266724214
1772732299248705500,6.05670556640625,1.8256220204889773,-0.41308951048702,-0.13832136957328767
1772732299258732500,6.066732666015625,1.4975421587675808,-0.5705956556648015,0.06782383755915798
1772732299268760600,6.076760498046875,1.2684084089666605,-0.6106985334724188,0.26669258741522206
1772732299278788600,6.08678857421875,1.1361416267246007,-0.6202028593987227,0.28318416014667597
1772732299288815600,6.096815673828125,1.107630987033248,-0.7283207042902707,0.18793898510336876
1772732299298843600,6.10684375,1.2082412327736616,-0.8006380447432399,0.15944180768178776
1772732299308871700,6.11687158203125,1.3492559696167707,-0.8255585509881377,0.07640564637964126
1772732299318898700,6.126898681640625,1.3619646445423363,-0.8545134273156523,-0.00900531776244752
1772732299328926500,6.136926513671875,1.169603166821599,-0.8375190378949046,-0.005020010985946282
1772732299338954800,6.146954833984375,0.7634153985470533,-0.7707014639019966,0.13768051438648252
1772732299348982500,6.156982421875,0.19839023649096488,-0.7162827682331204,0.31040256807040423
1772732299359009800,6.167009765625,-0.4824111762553453,-0.6608934739664196,0.35517668909206984
1772732299369037600,6.17703759765625,-1.2001380058169364,-0.5251546316996216,0.35134708433393386
1772732299379065900,6.18706591796875,-1.9189035307765006,-0.2832639839172363,0.3580775981653482
1772732299389092600,6.197092529296875,-2.4833687208622695,-0.07325082191079854,0.34649646596498784
1772732299399120600,6.20712060546875,-2.7225626769065854,0.04503595029562711,0.2068465877342969
1772732299409148700,6.217148681640625,-2.662628140425682,-0.03912643399089574,-0.05467190324496478
1772732299419175700,6.22717578125,-2.1316244904369115,-0.32157705569863315,-0.21325601638518274
1772732299429203700,6.23720361328125,-1.2927443933218716,-0.5542936324223876,-0.26005570668401196
1772732299439231700,6.247231689453125,-0.5926531736940145,-0.7238751230582594,-0.38716622040774673
1772732299449258500,6.257258544921875,-0.2022574333131313,-1.143842118099332,-0.6004991379540413
1772732299459286800,6.267286865234375,-0.008002689191699027,-1.6017840390086173,-0.5928706889022142
1772732299469314600,6.277314453125,-0.11088263342976569,-1.7206550408437846,-0.24458991507003083
1772732299479341800,6.287341796875,-0.6596008038073777,-1.5202584329664706,0.28886947577409444
1772732299489369600,6.29736962890625,-1.7518758162766694,-1.2086182493925093,0.7005880632340907
1772732299499397600,6.307397705078125,-3.296134718033671,-0.6320458574056625,0.7452449510842561
1772732299509424600,6.317424560546875,-4.655509346082806,0.12445435492545366,0.5197917894922196
1772732299519452700,6.32745263671875,-5.304480034804344,0.8196154246747493,-0.02212124918149784
1772732299529480700,6.337480712890625,-5.191493122571706,1.3660139199331403,-0.5949985677763819
1772732299539508500,6.347508544921875,-4.45520129327178,1.6678332589775322,-1.0261727471388875
1772732299549535700,6.35753564453125,-3.191497700995207,1.6701228312194347,-1.0911544840067624
1772732299559563500,6.3675634765625,-1.982853732639551,1.3656962322860955,-0.9105967682611197
1772732299569591800,6.377591796875,-1.0604898811519146,0.9778744340464472,-0.44521001123860476
1772732299579618800,6.387618896484375,-0.4748234976053238,0.657213324148953,0.05966311739468947
1772732299589646600,6.397646484375,-0.16340309426188468,0.47929655136615035,0.5087789586991072
1772732299599674600,6.407674560546875,-0.04797346505224705,0.39493747546374797,0.8488211339581757
1772732299609701600,6.41770166015625,-0.03922083427608013,0.4154582854449749,1.0962063605688512
1772732299619729700,6.427729736328125,-0.10667582938969135,0.5566434104189276,1.2332235522083936
1772732299629757700,6.4377578125,-0.25868074680268766,0.7836319648846983,1.256649435981363
1772732299639784400,6.447784423828125,-0.3972539357125759,0.9685139005050063,1.1677248787943273
1772732299649812700,6.457812744140625,-0.45786651758551594,1.0704860822483897,1.0546047686360775
1772732299659840500,6.467840576171875,-0.5141928004413843,1.1065294555321334,1.019110115276277
1772732299669867800,6.47786767578125,-0.5465928487867117,1.1379422464057802,1.0449460558656603
1772732299679895600,6.4878955078125,-0.4895499420940876,1.152265663051605,1.0676949902251363
1772732299689923600,6.497923583984375,-0.4614361927658319,1.1655103445500135,1.16315041048564
1772732299699951600,6.50795166015625,-0.328938524377346,1.1308002656966447,1.1789799939107148
1772732299709978600,6.517978515625,-0.0805225664794445,1.0545578607544301,1.09655115541853
1772732299720006700,6.528006591796875,0.39163083513379093,0.968452817967534,1.0637824198912829
1772732299730034700,6.53803466796875,0.9494663779467344,0.8507128659889102,1.0437171716578304
1772732299740061700,6.548061767578125,1.3599188179284334,0.7038900273889303,1.05810875816904
1772732299750089700,6.55808984375,1.5183429547339677,0.5958440786898136,1.0730421234067529
1772732299760117500,6.568117431640625,1.6170920827776192,0.6106950263410806,1.0054809645049274
1772732299770144800,6.578144775390625,1.720982665362954,0.653942047393322,0.7661402204010636
1772732299780172500,6.588172607421875,1.7595657862573861,0.6798270147562027,0.47369997346810994
1772732299790200800,6.598200927734375,1.846488282907009,0.7652835305064917,0.20743326504845172
1772732299800227600,6.6082275390625,1.9727643003016708,0.8347288226544857,-0.08258379159187898
1772732299810255600,6.618255615234375,2.148223743060231,0.8242340243861078,-0.29901993585051967
1772732299820283600,6.62828369140625,2.3489929836422205,0.7270823946669698,-0.3766747466076165
1772732299830310700,6.638310546875,2.512977677184343,0.5468576372027397,-0.33833131622057405
1772732299840338700,6.648338623046875,2.574912447571754,0.360348977163434,-0.31169637074060735
1772732299850366700,6.65836669921875,2.492563250187039,0.1722495408013463,-0.3285338890992105
1772732299860393700,6.668393798828125,2.3278233543634412,0.031209377256035804,-0.28132412016214803
1772732299870421800,6.678421875,2.2394307851612565,-0.08398293606638908,-0.21521703252615407
1772732299880449500,6.688449462890625,2.168856196722388,-0.2491664840042591,-0.23409299790980292
1772732299890477600,6.6984775390625,2.0983967590957877,-0.37657968873530623,-0.24204792070332914
1772732299900504600,6.708504638671875,2.0846710160821673,-0.4605868824601173,-0.24193477918505668
1772732299910532600,6.71853271484375,2.0478636726886035,-0.516218753311038,-0.24890626216549425
1772732299920560600,6.728560546875,1.922069301331043,-0.5631187439128756,-0.24207911955919115
1772732299930587600,6.738587646484375,1.7108043856978414,-0.58216159029603,-0.2535437127077952
1772732299940615700,6.74861572265625,1.4327297871172426,-0.5776388521745801,-0.35404940209519115
1772732299950643500,6.7586435546875,1.1100094066023827,-0.5716679610714316,-0.5457306424668058
1772732299960670700,6.768670654296875,0.8221551722854376,-0.5199629082754254,-0.678524699985981
1772732299970698500,6.778698486328125,0.5619646054416895,-0.49921150440871714,-0.7836304305147379
1772732299980726800,6.788726806640625,0.29546354027688504,-0.5339274284809827,-0.8942151039112359
1772732299990753500,6.79875341796875,0.05705927330553531,-0.5378779196724295,-0.990306922379136
1772732300000781600,6.808781494140625,-0.2058791309416294,-0.5304843022897839,-1.021094201765582
1772732300010809600,6.8188095703125,-0.5163391648203134,-0.5305950691878796,-1.057377448219806
1772732300020836600,6.828836669921875,-0.7608435022324324,-0.5923343170031905,-1.0649367775581777
1772732300030864100,6.838864013671875,-0.8992366584002971,-0.6715469699278473,-1.066181443857029
1772732300040892400,6.848892333984375,-1.0090233132869004,-0.8185159390002489,-0.9909698432672768
1772732300050919200,6.858919189453125,-1.1374866115927695,-0.9141554105907678,-0.8554317112043499
1772732300060947200,6.868947265625,-1.2831553117215633,-0.969362918549776,-0.7460730724714696
1772732300070975200,6.878975341796875,-1.5334791490674018,-1.0325763305708766,-0.6409253294318914
1772732300081003300,6.889003173828125,-1.8432091151058674,-1.0147861145973205,-0.5315498126294463
1772732300091030300,6.8990302734375,-2.0834388439387084,-0.917222981467843,-0.5079768485359847
1772732300101058300,6.909058349609375,-2.095160845914483,-0.8002601513415575,-0.6424131568368524
1772732300111086300,6.91908642578125,-1.9266040221512317,-0.7734747280076145,-0.7778430062197148
1772732300121113300,6.92911328125,-1.5785381879776714,-0.8268012445256113,-0.7158787174768746
1772732300131141000,6.93914111328125,-1.265240884846449,-0.8320444058761001,-0.5009764317220077
1772732300141169400,6.94916943359375,-1.07030809533298,-0.8672250248506664,-0.3080261577952653
1772732300151196200,6.959196044921875,-0.9794014974832534,-0.9907315775319934,-0.06485766296363435
1772732300161224400,6.969224365234375,-0.9741711956143378,-1.138769052618742,0.2653798791151494
1772732300171252200,6.979252197265625,-1.0228636225908994,-1.242916824835539,0.6344244961705059
1772732300181279200,6.989279296875,-1.1320470508873461,-1.2300637730032205,1.0448490252319722
1772732300191307300,6.999307373046875,-1.3729063097953795,-1.0777394143775105,1.3622048830389977
1772732300201335300,7.009335205078125,-1.8001637541055677,-0.7703326305896043,1.5841668415144086
1772732300211362300,7.0193623046875,-2.4841490575850007,-0.33440701891630886,1.6325211225777863
1772732300221390300,7.029390380859375,-3.2102018169432878,0.2055868699967861,1.5366716614983975
1772732300231418400,7.03941845703125,-3.6700229757279157,0.754040544219315,1.2944916753806173
1772732300241445400,7.0494453125,-3.8169367074817417,1.194462006007135,0.8709496713969856
1772732300251473200,7.05947314453125,-3.545596385592222,1.5805723241537808,0.4362362850576639
1772732300261501400,7.06950146484375,-2.886486580172181,1.837360681338608,0.11485743707856162
1772732300271528200,7.079528076171875,-1.868851505884528,1.8788640735939144,-0.04021592799434438
1772732300281556500,7.089556396484375,-0.748380326500535,1.6989239782899617,-0.01361019034255296
1772732300291584300,7.099584228515625,0.3821878840059042,1.4474898416146635,0.1989857912313193
1772732300301612300,7.1096123046875,1.5254150850772856,1.1902978720650077,0.4475115296466276
1772732300311639300,7.119639404296875,2.524180623722076,0.9236167741581797,0.6423151032898574
1772732300321667000,7.1296669921875,3.2911341332674025,0.7565250545114278,0.8163166753903031
1772732300331695400,7.1396953125,3.6595115185856817,0.6257809517920017,0.8724620487213134
1772732300341722400,7.149722412109375,3.542922197946906,0.4964686354413628,0.8362433919358998
1772732300351750400,7.15975048828125,2.996960048279166,0.43316842191964383,0.8613798790190368
1772732300361778200,7.169778076171875,2.3171365406543014,0.45829731021821496,0.9185414436552674
1772732300371805200,7.17980517578125,1.7283523173481226,0.45298780563324686,0.846919245859608
1772732300381833200,7.189833251953125,1.227636253595352,0.4164908433631062,0.7291584702886641
1772732300391861200,7.199861328125,0.8595265793025493,0.4521186215832829,0.6143474113687872
1772732300401888300,7.20988818359375,0.5849339776188135,0.435001482565701,0.6032516880651936
1772732300411916300,7.219916259765625,0.5417588527590036,0.3558326687827706,0.5822813076855614
1772732300421944300,7.2299443359375,0.62522448695302,0.20400866089463232,0.48467904812209306
1772732300431971300,7.239971435546875,0.6516805322021245,0.08842033399194478,0.3383007018866017
1772732300441999000,7.2499990234375,0.6400444549441338,-0.049800680479407305,0.19967896112725136
1772732300452027400,7.26002734375,0.6269266146957874,-0.1594829982087016,0.10190072394236922
1772732300462054100,7.27005419921875,0.6359042863994836,-0.24183453368097543,0.02831599390208721
1772732300472082400,7.28008251953125,0.6449310579419135,-0.33412557162642476,-0.06950184464082121
1772732300482110200,7.290110107421875,0.6416407842248678,-0.3537684297293424,-0.13864241822119802
1772732300492138500,7.300138427734375,0.6811831055402755,-0.34484511856138705,-0.1648883643835783
1772732300502165200,7.310165283203125,0.7412614344060421,-0.35706834805756804,-0.14450583036188036
1772732300512193300,7.320193359375,0.8039549142062663,-0.42846769688278435,-0.04169471357632428
1772732300522221300,7.33022119140625,0.8818880487143993,-0.4933244921967387,0.089054978633672
1772732300532248300,7.340248291015625,1.000038627320528,-0.5637006354540586,0.26426066582687197
1772732300542276400,7.3502763671875,1.1094225466251373,-0.6490700574427842,0.49868963595908133
1772732300552304400,7.360304443359375,1.2663789489656685,-0.7110209021821617,0.7322645465452223
1772732300562331100,7.3703310546875,1.3909616064459085,-0.7565136563345789,0.9449373562149703
1772732300572359400,7.380359375,1.4100439080566167,-0.7907780372470616,1.1619022370554506
1772732300582387200,7.39038720703125,1.3952251091092824,-0.8029130039379,1.3739162174902855
1772732300592414500,7.40041455078125,1.3036656003087759,-0.7827265404775738,1.4403417234256863
1772732300602442200,7.410442138671875,1.179511981895566,-0.758781309005618,1.451942729370296
1772732300612470300,7.42047021484375,1.1571195328235626,-0.722749626159668,1.4204710479162632
1772732300622497300,7.430497314453125,1.2372247506737708,-0.6911866131603718,1.3690974190317093
1772732300632525300,7.440525390625,1.310797351884842,-0.6753358408167958,1.2863532309800385
1772732300642553300,7.45055322265625,1.366969320961833,-0.6157087628498673,1.1961124766279012
1772732300652580400,7.460580322265625,1.3626917897731066,-0.5752540028646588,1.1674455503962933
1772732300662608400,7.4706083984375,1.2478390836685895,-0.6007619536086917,1.090891303025931
1772732300672636200,7.48063623046875,1.073661497414112,-0.7057023375079036,0.9466169798649847
1772732300682663200,7.4906630859375,0.9007166678249835,-0.7568944723457097,0.80717446077466
1772732300692691200,7.500691162109375,0.8213789272159338,-0.8071443578973412,0.6564038343969733
1772732300702719200,7.51071923828125,0.7667682161062955,-0.8338166762456297,0.5433402767315506
1772732300712747300,7.520747314453125,0.6681441757470369,-0.8536810681447387,0.3891534852348268
1772732300722774300,7.530774169921875,0.4367892427653074,-0.8162672832906246,0.3557071061743423
1772732300732802000,7.540802001953125,0.13445347863137722,-0.7488312851384281,0.3739569755489006
1772732300742830300,7.550830322265625,-0.17238076596558094,-0.6629463148429989,0.4083348267732188
1772732300752857000,7.560857177734375,-0.4538111047148704,-0.5376709989234805,0.4284768665699288
1772732300762885400,7.570885498046875,-0.7641425437778234,-0.4006847869440913,0.5364033901404589
1772732300772913200,7.5809130859375,-1.1020201614141463,-0.34665772094130515,0.6433494147736579
1772732300782940400,7.5909404296875,-1.3385118727624417,-0.4506000337138772,0.6523910916242748
1772732300792968200,7.60096826171875,-1.3424936358749866,-0.6800146462827921,0.5564067521188408
1772732300802996200,7.610996337890625,-0.9487345565408468,-0.7430933260083198,0.46041905161254104
1772732300813023200,7.621023193359375,-0.3516331712663173,-0.6239633809760212,0.32386070965640246
1772732300823051300,7.63105126953125,0.1269949793189764,-0.6790107299372553,0.17421572630777954
1772732300833079300,7.641079345703125,0.3265601048082113,-0.9328475438401103,0.1992167139103636
1772732300843106300,7.651106201171875,0.2740677010267973,-1.0149150016739963,0.41294407413434236
1772732300853134000,7.661134033203125,-0.12364742245674133,-0.8211538862884045,0.6877588306687772
1772732300863162400,7.671162353515625,-0.8925655100733041,-0.5026569686874747,0.7937020349349826
1772732300873189000,7.681189208984375,-1.8896061246216296,-0.005820084455609322,0.6907530440486968
1772732300883217400,7.691217529296875,-2.631145206925273,0.6121560388043522,0.4338146108686924
1772732300893245200,7.7012451171875,-2.8908886145234107,1.0406351338639854,-0.025306875213980673
1772732300903273500,7.7112734375,-2.708967282274365,1.280865447218716,-0.49370289705507453
1772732300913300200,7.72130029296875,-2.3704700714349745,1.3931263832643628,-0.9035924424570053
1772732300923328300,7.731328369140625,-2.0378058045327663,1.3337491884052752,-1.1940600010775029
1772732300933356300,7.741356201171875,-1.8488479977756738,1.2122735570296646,-1.304629476904869
1772732300943383300,7.75138330078125,-1.7434107702702284,1.0533274421766399,-1.165409660654515
1772732300953411300,7.761411376953125,-1.6408400381118058,0.8458060969859361,-0.834695651037246
1772732300963439000,7.771439208984375,-1.534536549165845,0.6631190410614013,-0.5094815905431285
1772732300973466000,7.781466064453125,-1.4554051447838543,0.5832698437988758,-0.2619059011279605
1772732300983494400,7.791494384765625,-1.3946598764419555,0.7287599724903703,-0.07633578231409191
1772732300993522200,7.801522216796875,-1.4183663307219743,1.0001388728246092,0.018344497988605872
1772732301003549400,7.811549560546875,-1.5198989520043134,1.236103637689352,0.0411885176198557
1772732301013577200,7.8215771484375,-1.5551228255987166,1.370810798820853,0.08411501061399466
1772732301023605200,7.831605224609375,-1.4713929875105618,1.4961109569206832,0.06413575103040785
1772732301033632300,7.84163232421875,-1.1998749709665775,1.5360262032017111,-0.014634692818392067
1772732301043660300,7.851660400390625,-0.6525345186829566,1.4904498624190687,-0.06134301960591692
1772732301053688300,7.861688232421875,0.03831248725950718,1.2828154122427105,0.01149065003846772
1772732301063715600,7.871715576171875,0.585915974393487,1.0272907913833855,0.10751944974013604
1772732301073743400,7.881743408203125,1.007134723061323,0.8242910152703523,0.2617855992165394
1772732301083771400,7.891771484375,1.3427274446308612,0.6975842052429914,0.27721348823923614
1772732301093798400,7.90179833984375,1.541858270356059,0.5964952360749244,0.17683202801970763
1772732301103826200,7.911826171875,1.644679762405157,0.5812655182391405,0.009040302310860716
1772732301113854500,7.9218544921875,1.701559002968669,0.6114315239220858,-0.13375086505366487
1772732301123882200,7.93188232421875,1.7820120113432407,0.6171279819980263,-0.23100498703289776
1772732301133909500,7.941909423828125,1.9164900398939846,0.5879331594347953,-0.25753680093195286
1772732301143937300,7.951937255859375,1.9721312630951404,0.509079402950406,-0.19515750164743512
1772732301153965600,7.961965576171875,1.9602625461250542,0.42787119229435916,-0.07421164803327993
1772732301163992300,7.971992431640625,1.8177590320289134,0.3863149008080363,-0.04255705232697073
1772732301174020400,7.982020263671875,1.6818623688519,0.35740211005657907,-0.07002260341218207
1772732301184048400,7.99204833984375,1.538697175976634,0.3417456912413239,-0.14725132967773824
1772732301194075400,8.002075439453124,1.37702718911767,0.3321247531980276,-0.25569941117065026
1772732301204103400,8.012103515625,1.275171911752224,0.25268062960505483,-0.31231209148615596
1772732301214131500,8.02213134765625,1.1696434988319873,0.1557943728238344,-0.2016706098685041
1772732301224158200,8.032158203125,1.0893231769263745,0.06221446411162614,-0.05505874713808298
1772732301234186500,8.0421865234375,0.9688380178928375,-0.04510813874900341,-0.01675754389099311
1772732301244214300,8.05221435546875,0.8588876968771219,-0.11212357340157031,-0.01657029139031656
1772732301254241500,8.062241455078125,0.7614052277684211,-0.11437953563481569,0.007565295571566094
1772732301264269300,8.072269287109375,0.6737246062278747,-0.16432576206475497,0.0057613548470719245
1772732301274297600,8.082297607421875,0.5700976430147886,-0.2062517636463046,-0.030867765310709363
1772732301284324400,8.092324462890625,0.5156809931725264,-0.24032851303219793,-0.08050377044742926
1772732301294352400,8.102352294921875,0.5082604877829552,-0.2820478861257434,-0.0761781395003898
1772732301304380400,8.11238037109375,0.4451344617843628,-0.34717005437761544,-0.021415062257077077
1772732301314407400,8.122407470703125,0.4097457530170679,-0.38140345562994477,0.04735523268920369
1772732301324435500,8.132435546875,0.3779822490096092,-0.35755350122600793,-0.009268715655698907
1772732301334463200,8.142463134765626,0.23451193570792675,-0.3287798266842961,-0.13852249076911247
1772732301344491500,8.152491455078126,-0.02121229937672615,-0.330053792142868,-0.20011718814773483
1772732301354518500,8.1625185546875,-0.32710663277506824,-0.3227005067706108,-0.19953787215612828
1772732301364546300,8.17254638671875,-0.597049947348237,-0.35035803676396604,-0.1343177964877337
1772732301374574300,8.18257421875,-0.8640952023923396,-0.3713713064372539,0.002403654475091025
1772732301384601300,8.192601318359374,-1.1180144338816405,-0.3356654945448041,0.15137131395088507
1772732301394629400,8.20262939453125,-1.3615508030444383,-0.2306432775810361,0.24200678497534245
1772732301404657400,8.212657470703125,-1.5761252816170452,-0.13254326109588146,0.31271500973124056
1772732301414684400,8.222684326171875,-1.6513889046549797,-0.06993687505722046,0.3670608228269964
1772732301424712400,8.23271240234375,-1.570947002196312,-0.13461159180253743,0.4367947226580232
1772732301434740200,8.242740234375,-1.3630161994218826,-0.350727454598248,0.39008649176862087
1772732301444767500,8.252767578125,-1.0917682319909334,-0.5218541288495063,0.4337495097432285
1772732301454795300,8.262795166015625,-0.9025772009998559,-0.4914107675299048,0.5703742314664647
1772732301464823600,8.272823486328125,-0.8922194731146097,-0.48848465095013377,0.7337881759159266
1772732301474850300,8.282850341796875,-1.0741180090099574,-0.5934332181558013,0.9823670692905783
1772732301484878300,8.29287841796875,-1.346681735214591,-0.552379323233664,1.3293281570926307
1772732301494906400,8.30290625,-1.6870248661816118,-0.33142040432095526,1.569126508770883
1772732301504933400,8.312933349609375,-2.0573054547727105,0.019201544076204297,1.5826929695695637
1772732301514961400,8.32296142578125,-2.406867080461979,0.5475441581621766,1.4380103578686714
1772732301524989400,8.332989501953126,-2.8549048624724147,1.1704714740887283,1.2730796156480908
1772732301535017500,8.343017578125,-3.523921144878864,1.7077704248294234,1.0254813308086246
1772732301545044500,8.35304443359375,-4.238222676166892,2.0179726845547554,0.638946284443885
1772732301555072300,8.363072265625,-4.8254719449907535,2.277389198286086,0.13085470522074027
1772732301565100500,8.3731005859375,-5.063830034732819,2.4837153423428533,-0.387938483421877
1772732301575127300,8.383127197265624,-4.741086273342371,2.5532503586009145,-0.8138189402904361
1772732301585155600,8.393155517578125,-3.6842490694791077,2.3955673955515024,-1.0567754637386648
1772732301595183400,8.403183349609375,-2.1364999875187873,2.1760510766625405,-0.8998314094230532
1772732301605210400,8.41321044921875,-0.5387970803439617,1.8715309542268515,-0.5198500590180978
1772732301615238400,8.42323828125,0.8301637066960335,1.6041037141278385,-0.06686218945276923
1772732301625266400,8.433266357421875,1.8755197316020726,1.3164967325702308,0.4157337413854897
1772732301635293400,8.44329345703125,2.6714813089668747,1.0341726598516106,0.8820786028504372
1772732301645321500,8.453321533203125,3.223758048608899,0.7709408256158232,1.27317913049981
1772732301655349500,8.463349609375,3.518442421206832,0.5232876687839627,1.513204422801733
1772732301665376500,8.47337646484375,3.519780976334214,0.3137339409828186,1.7047810337550937
1772732301675404300,8.483404296875,3.313727073347568,0.21794541631042957,1.8161800922743976
1772732301685432300,8.493432373046875,3.023969635757804,0.1613368093818426,1.7555447140477596
1772732301695459300,8.503459228515625,2.7234809607952832,0.17131605934351682,1.5970200394771992
1772732301705487600,8.513487548828126,2.460996730056405,0.2647229495763779,1.416213682732731
1772732301715515400,8.523515380859376,2.238413132551312,0.3926189693883061,1.2024788698546587
1772732301725542400,8.53354248046875,2.0215274544268844,0.47129590800106524,0.9677107674285769
1772732301735570400,8.5435703125,1.7763742977172134,0.5261445195198059,0.7140458029612898
1772732301745598200,8.55359814453125,1.4151269104093311,0.5417535920619965,0.46841669930294155
1772732301755626500,8.56362646484375,1.1130857453078031,0.5332990674495697,0.26653248321637507
1772732301765653200,8.5736533203125,0.9296107538759708,0.5607455850407481,0.09311210853736847
1772732301775681500,8.583681640625,0.8455062372565268,0.5521665572658181,-0.03878331964164972
1772732301785709300,8.593709228515625,0.8240396708577871,0.5060156314656138,-0.1962882592430338
1772732301795736300,8.603736328125,0.8185854971051215,0.4383078306347131,-0.38919710518084466
1772732301805764400,8.613764404296875,0.7370674898475408,0.37743893591314553,-0.4980232444722205
1772732301815792400,8.62379248046875,0.6647884355783462,0.31424452085345983,-0.45128242648746814
1772732301825819400,8.6338193359375,0.637175621509552,0.25110300502479077,-0.3617833573481068
1772732301835847400,8.643847412109375,0.6812006411969661,0.1733013879418373,-0.25352069715838876
1772732301845875500,8.65387548828125,0.7165905190080404,0.05081014978289604,-0.1387243426172994
1772732301855902500,8.66390234375,0.6766273419320583,-0.10366115774363278,0.10176758081568404
1772732301865930200,8.67393017578125,0.5833002389371394,-0.24497400075048206,0.41104050553534177
1772732301875958500,8.68395849609375,0.5393178893476724,-0.3472171083897352,0.5960067219056189
1772732301885985300,8.6939853515625,0.5222925202667713,-0.4497077610492706,0.6965426603008061
1772732301896013600,8.704013671875,0.6002560499131679,-0.5357227874651551,0.8069994695339351
1772732301906041300,8.714041259765626,0.6681891839325428,-0.6473574083060025,1.0446137551713734
1772732301916068400,8.724068359375,0.6259153918266296,-0.7907444272384047,1.2516437366485595
1772732301926096400,8.734096435546874,0.5073457110255957,-0.8699515272051096,1.3456523921668528
1772732301936124400,8.74412451171875,0.3675082012683153,-0.8410688393309712,1.3390290285043418
1772732301946151400,8.7541513671875,0.19358312847018241,-0.7989552062228321,1.2554280774928628
1772732301956179500,8.764179443359374,-0.0027308862686157226,-0.7752221561968327,1.1234088402710853
1772732301966207500,8.77420751953125,-0.11521920132935047,-0.7221230186939239,0.9924947878122329
1772732301976235300,8.7842353515625,-0.12216098329126834,-0.6747571641460061,0.9070221246447414
1772732301986262300,8.79426220703125,0.011126958692073821,-0.7157979073256254,0.8816293977782129
1772732301996290600,8.80429052734375,0.2559282332241535,-0.8204337553203106,0.9125113697107881
1772732302006318300,8.814318359375,0.4650748415291309,-0.9467585802927613,1.058113215148449
1772732302016345600,8.824345703125,0.4469499867737293,-1.064430873862654,1.1400762627597898
1772732302026373600,8.83437353515625,0.3398188148319721,-1.0998207516737282,1.1913598752733319
1772732302036401700,8.844401611328125,0.2796440398544073,-1.0898337567970156,1.2207085001587867
1772732302046428700,8.8544287109375,0.3595388298243284,-1.138377422952652,1.2453045967549086
1772732302056456400,8.86445654296875,0.510778608083725,-1.1846937684476375,1.2589467531383036
1772732302066484700,8.874484619140626,0.6508230385899544,-1.2098466221436857,1.3400444891571999
1772732302076511700,8.88451171875,0.672549132707715,-1.219508038327843,1.4046096080482005
1772732302086539800,8.894539794921876,0.5928022267758846,-1.2376852077923715,1.4449915950581431
1772732302096567600,8.904567626953124,0.3820329857051372,-1.2374990375705062,1.4778104533374308
1772732302106594600,8.914594482421874,0.15233224967122078,-1.1450322046667336,1.456411106956005
1772732302116622600,8.92462255859375,0.019082301610708237,-1.0109111728601157,1.291070907151699
1772732302126650600,8.934650634765624,-0.1413034906566143,-0.9380629404008388,1.0340500563852488
1772732302136677600,8.944677734375,-0.31145313656926155,-0.8528555771060288,0.8208110642001032
1772732302146705700,8.95470556640625,-0.534639376142621,-0.7684624528035521,0.6258278596736491
1772732302156733700,8.964733642578125,-0.8130950829952954,-0.8004955675326287,0.32005528949145223
1772732302166761700,8.97476171875,-1.09701490047276,-0.8737114642605185,0.025505028134584426
1772732302176788500,8.98478857421875,-1.2856471285372972,-0.8537161394581199,-0.18297365431357174
1772732302186816800,8.994816650390625,-1.3948048378705977,-0.8018471282720565,-0.37301238817516713
1772732302196844500,9.004844482421875,-1.5297960766404866,-0.8521168875679374,-0.5145636430477724
1772732302206871800,9.014871826171875,-1.7570032422930002,-0.8830959631994366,-0.5213807391840964
1772732302216899600,9.024899658203125,-2.2012626748085022,-0.8124144072547554,-0.34758345748409625
1772732302226927900,9.034927978515626,-2.9650860696345567,-0.5931016481138766,-0.11886544887721538
1772732302236954600,9.04495458984375,-3.9778386325776576,-0.2519827104687691,0.17019945813743398
1772732302246982700,9.054982666015626,-4.818694998201727,0.17265739094987512,0.45538215342387556
1772732302257010700,9.0650107421875,-5.3132636452406645,0.6625112844265997,0.7041878412917256
1772732302267037700,9.07503759765625,-5.359628506052494,1.1062089914061128,0.7531909416526555
1772732302277065700,9.085065673828124,-4.858727148860693,1.453747294574231,0.5140235082890838
1772732302287093800,9.09509375,-3.849795020988583,1.6846610596597194,0.21532591799441725
1772732302297120500,9.10512060546875,-2.446063949340582,1.7730998060911893,-0.0666457428236492
1772732302307148800,9.115148681640624,-0.9493418747842312,1.7298989622682333,-0.29367897668136284
1772732302317176600,9.125176513671875,0.38083997652828694,1.56954268835634,-0.390452512069419
1772732302327203800,9.135203857421875,1.3386182557463646,1.325855220285058,-0.4029760031538084
1772732302337231600,9.145231689453125,1.96189277767539,1.1009084007799625,-0.36993908167704936
1772732302347259600,9.155259765625,2.3559897106617687,0.9397717901453375,-0.33777437645755704
1772732302357286700,9.16528662109375,2.6729461208224294,0.8334592411100864,-0.30052111592739816
1772732302367314700,9.175314697265625,2.767933265984058,0.7910919255018234,-0.32580713101644065
1772732302377342700,9.1853427734375,2.7520564824163913,0.8828153926923871,-0.3934620326163247
1772732302387370500,9.19537060546875,2.5666870555400845,1.010372682069242,-0.46597606468517333
1772732302397397800,9.205397705078125,2.3353812223970887,1.083926286318898,-0.5166191873380914
1772732302407425500,9.215425537109375,2.1898218278616666,1.1252286030441523,-0.5939398525036871
1772732302417453600,9.22545361328125,2.0652619667351244,1.1972364391565322,-0.6661079206790774
1772732302427480600,9.23548046875,1.8974001394987106,1.2198024912297725,-0.5935504147946834
1772732302437508600,9.245508544921876,1.5594015258312224,1.2392980498164892,-0.5450307140365243
1772732302447536600,9.25553662109375,1.077934352427721,1.2078674310252069,-0.5182644337944686
1772732302457563600,9.265563720703126,0.5603413881540298,1.2293515330806375,-0.5890795529909432
1772732302467591700,9.275591796875,0.06172434250712394,1.2505857520282269,-0.6650029551118611
1772732302477619700,9.28561962890625,-0.31322014624178407,1.2645455960586667,-0.7534778688352555
1772732302487646500,9.295646484375,-0.5443389323800802,1.3031322240844367,-0.8429317105934023
1772732302497674800,9.3056748046875,-0.6285206058889627,1.3748559825584292,-1.0356295806616544
1772732302507702500,9.31570263671875,-0.5305050528168678,1.4013216724187134,-1.2565547434352338
1772732302517729800,9.325729736328125,-0.38014673356711864,1.3366940096855162,-1.405451904091239
1772732302527757600,9.335757568359375,-0.17935294306576252,1.2039561028003691,-1.3969357124194501
1772732302537784600,9.34578466796875,-0.02525952894091606,0.979379870173335,-1.336881056690216
1772732302547812600,9.3558125,0.1419260064691305,0.7534297188445925,-1.1915641656737774
1772732302557840600,9.365840576171875,0.3022755583792925,0.5289066777095198,-1.041512501220405
1772732302567867600,9.37586767578125,0.5205255105942488,0.3436038863286376,-0.9263622004088014
1772732302577895700,9.385895751953125,0.7009276704519987,0.160683313909173,-0.8615595464348792
1772732302587923500,9.39592333984375,0.8672194718927144,-0.04465776463299989,-0.7168399637244641
1772732302597950700,9.40595068359375,1.0062292986541985,-0.18673954618573188,-0.6227761439528315
1772732302607978500,9.415978515625,1.0928203713923692,-0.32412206400632854,-0.6307815365582704
1772732302618006800,9.4260068359375,1.1274579695314169,-0.3699304599791765,-0.7469032396852969
1772732302628033500,9.436033447265626,1.1192220561057329,-0.3945639659762382,-0.8377236936215311
1772732302638061800,9.446061767578126,1.0691834752172231,-0.41562224383503193,-0.890627089356631
1772732302648089600,9.456089599609374,0.9026239627510309,-0.48859980176240203,-0.8337362314205616
1772732302658117600,9.46611767578125,0.6989362043738365,-0.5243509141013026,-0.7226330140426754
1772732302668144600,9.47614453125,0.5534475369870663,-0.5288888497918844,-0.6792907159224152
1772732302678172700,9.486172607421874,0.4465834915488958,-0.5245370843231678,-0.6981387703858316
1772732302688200700,9.49620068359375,0.3881248728394508,-0.5106687179684639,-0.7324052701901644
1772732302698227700,9.506227783203125,0.3208049022823572,-0.45346419097334145,-0.7273981826178729
1772732302708255500,9.51625537109375,0.2641074480265379,-0.44008872270211574,-0.6218712310023605
1772732302718283800,9.52628369140625,0.19433014744520186,-0.42341611258164047,-0.5844426869705319
1772732302728310500,9.536310546875,0.11925181784629821,-0.3918441856235266,-0.5831128631388768
1772732302738338800,9.5463388671875,0.054661564514040945,-0.3749523797944188,-0.6207916190721094
1772732302748366600,9.55636669921875,0.026119360640645024,-0.3622629940912127,-0.571445952351205
1772732302758393600,9.5663935546875,0.038079847547411914,-0.33533830841705203,-0.5413668212341144
1772732302768421600,9.576421630859375,0.03407002738416195,-0.37118820495530963,-0.5099808818347752
1772732302778449400,9.586449462890625,0.06356967811286449,-0.40819618548750874,-0.4909926882483065
1772732302788476700,9.5964765625,0.0638262832224369,-0.4163698473319411,-0.4068541962940246
1772732302798504700,9.606504638671876,0.0741834265857935,-0.4453270617470145,-0.3815265340203419
1772732302808532700,9.61653271484375,0.07216390345692635,-0.4552576502613723,-0.38658809172622854
1772732302818559700,9.626559814453126,0.04906769002974033,-0.43508974537104367,-0.41019634632878005
1772732302828587500,9.63658740234375,0.01517301921248436,-0.43817426738291976,-0.4536658510252833
1772732302838615600,9.646615478515624,0.032231121519207956,-0.45800212666392326,-0.4613923536241054
1772732302848643600,9.6566435546875,-0.025498013871908188,-0.5215794035613537,-0.41388047820162027
1772732302858670600,9.666670654296874,-0.056795069411396976,-0.5769502853885292,-0.4107791877180338
1772732302868698600,9.67669873046875,-0.10833411799073218,-0.6160770116403699,-0.5143126639613882
1772732302878726700,9.6867265625,-0.15066402419805525,-0.6332699923731386,-0.62517107626535
1772732302888754700,9.696754638671875,-0.2017658504039049,-0.6285207520194351,-0.6591821400038897
1772732302898781400,9.706781494140625,-0.25277123049795625,-0.6330331148773432,-0.7532127150930464
1772732302908809700,9.716809814453125,-0.4354845899075269,-0.6173664669290184,-0.8430333443369716
1772732302918837500,9.72683740234375,-0.7455278596788645,-0.5978656476452946,-0.8878411118999123
1772732302928864800,9.73686474609375,-1.0044909305542706,-0.6095861883163451,-0.9711157535664736
1772732302938892500,9.746892578125,-1.0387649560779333,-0.686993545384705,-1.0358748606596142
1772732302948920800,9.7569208984375,-0.8458329849928617,-0.6551046614319086,-0.9823471224810928
1772732302958947600,9.766947509765625,-0.5858411555916071,-0.6305123642280698,-0.8581143744170665
1772732302968975600,9.7769755859375,-0.29893969195485115,-0.7496975465789437,-0.7178211567815392
1772732302979003600,9.787003662109376,-0.09544774841070175,-0.9234761966437101,-0.5421037206739187
1772732302989031700,9.79703173828125,-0.0032218846559524533,-1.0143068066477774,-0.23751265189386903
1772732302999058700,9.80705859375,-0.02153027928471565,-1.0010603715837,0.19104557281658052
1772732303009086700,9.817086669921874,-0.30812837606072424,-0.9011772710740565,0.656391997828707
1772732303019114800,9.82711474609375,-1.0330372260808944,-0.7504758374750614,0.8670178849060088
1772732303029140700,9.837140625,-2.0442016430497167,-0.3762655082195997,0.877182209111005
1772732303039168500,9.84716845703125,-2.786238738003373,0.15319894950315355,0.7017885250650346
1772732303049196800,9.85719677734375,-3.2099305987864732,0.5888077503122389,0.16966924198456107
1772732303059223600,9.8672236328125,-3.2801006980776783,0.9101438368618487,-0.47900414429083465
1772732303069251600,9.87725146484375,-2.964382889801264,1.2472931402236223,-1.027183531616628
1772732303079279600,9.887279541015625,-2.2106617867946623,1.468923674787581,-1.3301213532969354
1772732303089306600,9.897306640625,-1.2265385214865208,1.3903263772822916,-1.5098574504613875
1772732303099334700,9.907334716796875,-0.36932138817012305,1.1625349820010364,-1.4920353780448437
1772732303109362700,9.91736279296875,0.423923331451416,1.009367304418981,-1.2320017553284763
1772732303119389400,9.927389404296875,1.0440390970885753,0.8790639312043785,-1.0240590429205447
1772732303129417700,9.937417724609375,1.4209557626932858,0.7394853646442293,-0.9422018668364733
1772732303139445500,9.947445556640625,1.5995470737367867,0.6065794077157974,-0.7997552705593407
1772732303149472800,9.95747265625,1.622850207912922,0.604189297708869,-0.5855232487488538
1772732303159500500,9.96750048828125,1.4130577029198408,0.6024395314320922,-0.5073286137603223
1772732303169528800,9.97752880859375,1.142873565328121,0.6085112525612115,-0.5189455479264259
1772732303179556600,9.987556640625,0.8451987787425518,0.6186962542280554,-0.5990040770906955
1772732303189583600,9.99758349609375,0.63501581312716,0.6347337813153863,-0.6313666429698467
1772732303199611600,10.007611572265626,0.5393278262197971,0.620634821075201,-0.6264671804904938
1772732303209639400,10.017639404296874,0.47773149400651455,0.5379927782237529,-0.6065111647851765
1772732303219666700,10.027666748046874,0.4205839578956365,0.43268034614175555,-0.5302190024171024
1772732303229694700,10.03769482421875,0.41453064920604227,0.33793840791285035,-0.47530726253427563
1772732303239722800,10.04772265625,0.4780325227797031,0.22890929339528082,-0.41071364820115264
1772732303249749800,10.057749755859374,0.5522083505809307,0.10154723432958125,-0.37257834413945673
1772732303259777500,10.067777587890625,0.6944020680755376,0.02182312475144863,-0.36367724480330943
1772732303269805600,10.0778056640625,0.807348063775897,-0.04734978019595146,-0.38178010692261155
1772732303279832600,10.08783251953125,0.8353262040257453,-0.13394786719679833,-0.37414793154373766
1772732303289860600,10.097860595703125,0.8069476662814616,-0.15523381633162497,-0.3448214454248547
1772732303299888600,10.107888671875,0.7256202131599188,-0.10574556280225515,-0.38023178150206804
1772732303309915600,10.11791552734375,0.7426964356452226,-0.07991992441117764,-0.4630217083916068
1772732303319943700,10.127943603515625,0.8023802122354508,-0.08664835588335991,-0.48770274332482366
1772732303329971500,10.137971435546875,0.8348030569344759,-0.07329203070402145,-0.4973304764350876
1772732303339999700,10.147999755859376,0.8368722644239663,-0.06898527342081069,-0.48374063476081935
1772732303350026500,10.158026611328125,0.8424784138679504,-0.07987827722653747,-0.4467709404123947
1772732303360054800,10.1680546875,0.8131775005817413,-0.09201090582981705,-0.3963809157377109
1772732303370082600,10.17808251953125,0.7783148615151644,-0.12937281436622142,-0.26368480216767637
1772732303380109600,10.188109619140626,0.7648521533519029,-0.1745548951342702,-0.09396507210489362
1772732303390137600,10.1981376953125,0.7309960609793663,-0.24026173140630125,0.03675429803207517
1772732303400165600,10.20816552734375,0.703198537993431,-0.30148557704538104,0.08750011387448757
1772732303410192600,10.218192626953124,0.6935247007191181,-0.30933950541615485,0.13058675673324613
1772732303420220700,10.228220703125,0.675152593204379,-0.28740473698377605,0.16498400677777825
1772732303430248700,10.238248779296875,0.6481301462441682,-0.3214103208296001,0.14280801346804947
1772732303440275700,10.248275634765625,0.65957800745368,-0.3171500330366194,0.11094868440330027
1772732303450303500,10.258303466796875,0.5879676462262868,-0.3089192341774702,0.0633821196515113
1772732303460331800,10.268331787109375,0.43416298591494557,-0.353977250174433,0.00242572930958122
1772732303470358500,10.278358642578125,0.2614613174319267,-0.367935779030621,0.001650105294585228
1772732303480386800,10.28838671875,0.09138824388682841,-0.38101255661621686,0.04762585719097406
1772732303490414600,10.29841455078125,-0.02446165656149387,-0.3857615047089755,0.051989240032248196
1772732303500441600,10.308441650390625,-0.05977671557068824,-0.39546632164344186,0.06008132454045117
1772732303510469600,10.3184697265625,-0.05678396349549293,-0.4110179649099707,0.052896746798604725
1772732303520497700,10.32849755859375,0.04849544309973716,-0.4177148322001099,0.04046871544532478
1772732303530525700,10.338525634765626,0.21330840415954588,-0.4784172843135893,0.02926551317926496
1772732303540552700,10.348552734375,0.3117512427330017,-0.5727849824026227,0.05932104422505945
1772732303550580700,10.358580810546876,0.4378133251160383,-0.6432353599399327,0.14011227157805115
1772732303560608500,10.3686083984375,0.5310124178171157,-0.6726182524211705,0.18545038315802811
1772732303570635500,10.378635498046876,0.5701420666784047,-0.6970287633173168,0.19289485394507647
1772732303580663800,10.388663818359374,0.584558130043745,-0.71045537725389,0.2520238461967558
1772732303590691600,10.398691650390624,0.5045709856152534,-0.744551415862143,0.3114409346748143
1772732303600718800,10.40871875,0.3519014668136835,-0.7697904865369201,0.40843967538718134
1772732303610746600,10.41874658203125,0.13039806576073168,-0.7484899243548512,0.5154886124055832
1772732303620774700,10.428774658203125,-0.05929623857736587,-0.6826302356086671,0.5819335902264341
1772732303630801700,10.4388017578125,-0.22736557108461855,-0.629409663683176,0.5635724059645086
1772732303640829400,10.448829345703125,-0.4461287335187196,-0.5758148516178131,0.5017286748614161
1772732303650857700,10.458857666015625,-0.6524404106587172,-0.49297246388867494,0.43231892895083873
1772732303660884700,10.468884765625,-0.8106962051600217,-0.4078803975366056,0.2878213184280321
1772732303670912800,10.478912841796875,-0.7724310641735792,-0.45446606149226426,-0.014504253105446695
1772732303680940500,10.4889404296875,-0.46387072643637656,-0.5384491436891258,-0.3282364405225962
1772732303690967600,10.498967529296875,0.007899228817224503,-0.5969178454011679,-0.5695205737791955
1772732303700995600,10.50899560546875,0.36185938172638415,-0.6866396173804998,-0.734168845796585
1772732303711023600,10.519023681640626,0.45299218954741954,-0.9049255176916718,-0.7998455061260611
1772732303721051600,10.5290517578125,0.3377928619623184,-1.1130882295258342,-0.6425043422516435
1772732303731078700,10.53907861328125,0.10018822093605995,-1.0473016060158609,-0.21662116370303555
1772732303741106700,10.549106689453126,-0.5448246700704097,-0.8716698754303157,0.17712995152035726
1772732303751134700,10.559134765625,-1.5416583638697863,-0.6492882302381098,0.4358035927288234
1772732303761161500,10.569161376953126,-2.5429911226540804,-0.25163638124912974,0.595759323015809
1772732303771189800,10.579189697265624,-3.366141151195764,0.1699947476118803,0.3804288019115105
1772732303781217500,10.589217529296874,-3.7714737639456986,0.5226954019792378,-0.05583011510306969
1772732303791244800,10.599244873046874,-3.7208693658679723,0.8846756336063146,-0.4798369418531656
1772732303801272600,10.6092724609375,-3.320301775562763,1.1904451715812085,-0.9161195502705871
1772732303811300900,10.61930078125,-2.629842307633161,1.2684135235331953,-1.4399490708462892
1772732303821327600,10.62932763671875,-1.6092361085802316,1.1243677484311163,-1.7877961477026343
1772732303831355600,10.639355712890625,-0.5675497120976448,0.7854583035290241,-1.8199907366037367
1772732303841383700,10.6493837890625,0.07273381229937076,0.40242534700110555,-1.618146998658031
1772732303851410700,10.65941064453125,0.4818424364566803,0.16619827793836592,-1.3381516611479223
1772732303861438700,10.669438720703125,0.6360311276495456,0.03471314759328961,-1.1653665521651506
1772732303871466800,10.679466796875,0.432366165626049,-0.02996697597950697,-1.0024426197223364
1772732303881493500,10.689493408203125,0.08213935402631758,0.07045549210384487,-0.858266350108385
1772732303891521800,10.699521728515625,-0.32391105160415173,0.23480229695662855,-0.7694268408562988
1772732303901549600,10.709549560546876,-0.577875875800848,0.3868094063267112,-0.7269429131310433
1772732303911577600,10.71957763671875,-0.6677770960003138,0.6105944885760546,-0.6100817898135632
1772732303921604600,10.7296044921875,-0.7385562671005725,0.7236541737839579,-0.5687002338396385
1772732303931632600,10.739632568359376,-0.959405588158965,0.7931368753328919,-0.45200474941264834
1772732303941660700,10.74966064453125,-1.1446645403981208,0.9277467135697602,-0.30525190730895846
1772732303951687700,10.759687744140624,-1.182889349374175,1.0163342208221555,-0.18442589894849806
1772732303961715700,10.7697158203125,-1.2097358552455901,0.9340563351079821,-0.19670779982935635
1772732303971743500,10.779743408203124,-1.2024912909448147,0.8311036178946495,-0.21977763670627026
1772732303981770800,10.789770751953125,-0.9907815541535615,0.8186307975515723,-0.37526385689638553
1772732303991798500,10.799798583984375,-0.623402532222867,0.5660375539690256,-0.7683161031354219
1772732304001826800,10.809826904296875,0.07542085942625999,0.22656916000992058,-1.2880267171502113
1772732304011853600,10.819853515625,0.8983446779966354,0.6155877668187022,-1.006125472953543
1772732304021881600,10.829881591796875,1.469936358961463,0.7761474543482064,-0.7795604045968503
1772732304031910000,10.839909912109375,1.743243597009778,0.7122185875341296,-0.7284582861300557
1772732304041937200,10.849937255859375,1.7262655742019415,0.5201078697040676,-0.7235843234181404
1772732304051965000,10.85996484375,1.566091963380575,0.2634957458689809,-0.6825548322848976
1772732304061993200,10.8699931640625,1.5164099408447742,0.11826397585272788,-0.6707170219097286
1772732304072021000,10.88002099609375,1.636930755713582,0.058849371592700477,-0.5703527868196367
1772732304082048000,10.890048095703126,1.8098644793868064,0.03070142773389816,-0.5007460204996168
1772732304092076000,10.900075927734376,1.877188541597128,0.036971886305510994,-0.45601266987975686
1772732304102104000,10.91010400390625,1.855018795365095,-0.012074760936200617,-0.5934013617128133
1772732304112131000,10.920131103515626,1.7372294512867927,-0.08516220897883177,-0.8490528238222003
1772732304122159000,10.9301591796875,1.6100526856601238,-0.051157648046314716,-1.016224622967839
1772732304132187100,10.940187255859374,1.5717968970239162,-0.013048574404418468,-1.0277027331851423
1772732304142214100,10.950214111328124,1.590035149025917,-0.08325228370428085,-0.894085559247434
1772732304152242000,10.960241943359375,1.616044619551301,-0.1687871253877878,-0.8824746164306998
1772732304162270000,10.97027001953125,1.5135972215116023,-0.11119681394547223,-0.9855616275481879
1772732304172297000,10.980296875,1.3797230040729045,-0.054064183142781254,-0.9350017992645502
1772732304182325200,10.9903251953125,1.3333441147357226,0.044969899322092534,-0.6926596083223819
1772732304192353000,11.00035302734375,1.3814800768733024,0.12804419611096382,-0.5235606039738282
1772732304202380000,11.010380126953125,1.3984382259368895,-0.01433072316944599,-0.48771965792700644
1772732304212408000,11.020407958984375,1.3853092797726392,-0.23565759861171245,-0.6315765593934803
1772732304222435800,11.030435791015625,1.33008482067883,-0.2661334008961916,-0.6683453974075615
1772732304232463000,11.040463134765625,1.3298118489563464,-0.22103198414891956,-0.561885768051818
1772732304242491000,11.050490966796875,1.18670335470438,-0.2145101811647415,-0.5646759832922369
1772732304252519200,11.060519287109376,0.9673422263771295,-0.21283815629929304,-0.7076544214237481
1772732304262547000,11.070546875,0.7455167537629603,-0.19449439809620378,-0.9183109228350221
1772732304272574000,11.080573974609376,0.5899632039576769,-0.18072919985502958,-1.0767437544036655
1772732304282602000,11.09060205078125,0.4513151962459087,-0.1826169132977724,-1.1492821171961725
1772732304292630000,11.100630126953124,0.2779045027107,-0.2021931359052658,-1.1609795692525804
1772732304302657000,11.110656982421874,0.03967266969680786,-0.2179720120564103,-0.9858797535866498
1772732304312685000,11.12068505859375,-0.45537060911655425,-0.18245587751716374,-0.7915216952212154
1772732304322713000,11.130713134765625,-0.9988871191978455,-0.1011465445742011,-0.5781329193018376
1772732304332740000,11.140739990234374,-1.2430348982572554,-0.12576046908795832,-0.3818418470472097
1772732304342767900,11.150767822265625,-1.3519845177978276,-0.3374760510981083,-0.5267237441798672
1772732304352796200,11.160796142578125,-1.282128306761384,-0.5060846050485969,-0.8228109327804297
1772732304362823000,11.170822998046875,-1.06654085175395,-0.4357172296196222,-0.9340263783611357
1772732304372851200,11.180851318359375,-0.8331681492090225,-0.36392186721414327,-0.9750827575013041
1772732304382879000,11.19087890625,-0.688787735325098,-0.46888797007650135,-0.942775355875492
1772732304392906000,11.200906005859375,-0.676111209103465,-0.5479217593029141,-0.6048307739501819
1772732304402934000,11.21093408203125,-1.0417881032913923,-0.5038949860498309,-0.26044224004987626
1772732304412962000,11.220962158203125,-1.711894519022107,-0.3478887240409851,-0.004421250508353114
1772732304422989000,11.230989013671875,-2.440669396820664,-0.12690277099087835,0.19371669172197578
1772732304433017000,11.24101708984375,-3.313652839067578,0.2542654145784676,0.22739870616924016
1772732304443044900,11.251044921875,-3.4030151300847526,0.6429955598346888,0.27759273334778845
1772732304453073200,11.2610732421875,-2.892846178331971,0.9771908356964587,0.4332076944841072
1772732304463100000,11.271099853515626,-2.992670826652646,1.2126374219059943,0.4725539452381432
1772732304473128200,11.281128173828124,-3.407632853013277,1.4419250470943747,0.2941499734602868
1772732304483156000,11.291156005859374,-3.5368168668091293,1.7449832802839575,-0.11217976056821644
1772732304493183200,11.301183349609374,-3.084542470142245,1.876525255382806,-0.6801021053705364
1772732304503211000,11.3112109375,-2.4272131183981895,1.8605023413427173,-1.1531242526423184
1772732304513238800,11.32123876953125,-1.6349258456319569,1.7439453155383466,-1.3065642443597316
1772732304523266000,11.33126611328125,-0.6630962447077036,1.5710777889691292,-1.1536533910829574
1772732304533294000,11.341294189453125,0.18179507552087307,1.4281661324635146,-1.0037267412487416
