time,seconds_elapsed,z,y,x
1772642710356647000,0.05464697265625,-0.9700927734375,-0.12518310546875,0.122772216796875
1772642710366693000,0.064693115234375,-0.9736328125,-0.1236572265625,0.1228179931640625
1772642710376738000,0.074738037109375,-0.9713592529296875,-0.128509521484375,0.1220855712890625
1772642710386783200,0.084783203125,-0.9666748046875,-0.13128662109375,0.119415283203125
1772642710396828200,0.094828125,-0.9608612060546875,-0.1302642822265625,0.11181640625
1772642710406873000,0.104873046875,-0.945068359375,-0.129852294921875,0.106536865234375
1772642710416919000,0.1149189453125,-0.934295654296875,-0.134490966796875,0.1068878173828125
1772642710426964000,0.1249638671875,-0.9251708984375,-0.1371002197265625,0.1072845458984375
1772642710437009200,0.135009033203125,-0.91619873046875,-0.1372528076171875,0.1037750244140625
1772642710447054000,0.14505419921875,-0.9096832275390625,-0.139862060546875,0.0977783203125
1772642710457099300,0.155099365234375,-0.9057159423828125,-0.141815185546875,0.0948944091796875
1772642710467145200,0.165145263671875,-0.898040771484375,-0.141998291015625,0.0908203125
1772642710477190100,0.175190185546875,-0.8847808837890625,-0.138763427734375,0.089385986328125
1772642710487235000,0.185235107421875,-0.8693389892578125,-0.1318206787109375,0.08880615234375
1772642710497280000,0.195280029296875,-0.858062744140625,-0.1257476806640625,0.0875396728515625
1772642710507325200,0.2053251953125,-0.84942626953125,-0.12030029296875,0.0878143310546875
1772642710517370000,0.2153701171875,-0.8414154052734375,-0.1128997802734375,0.082855224609375
1772642710527416000,0.225416015625,-0.839813232421875,-0.1078033447265625,0.07684326171875
1772642710537461000,0.2354609375,-0.842437744140625,-0.1018829345703125,0.07330322265625
1772642710547506200,0.245506103515625,-0.8448638916015625,-0.0865020751953125,0.0743408203125
1772642710557551000,0.255551025390625,-0.8380279541015625,-0.0760345458984375,0.08282470703125
1772642710567596300,0.26559619140625,-0.8319549560546875,-0.0649261474609375,0.088714599609375
1772642710577642200,0.275642333984375,-0.8324432373046875,-0.0543670654296875,0.0891265869140625
1772642710587687000,0.28568701171875,-0.8324127197265625,-0.041839599609375,0.08563232421875
1772642710597732000,0.295732177734375,-0.833953857421875,-0.0294189453125,0.0807647705078125
1772642710607777000,0.305777099609375,-0.839691162109375,-0.017974853515625,0.0697021484375
1772642710617822200,0.315822265625,-0.8386993408203125,-0.00714111328125,0.059661865234375
1772642710627868200,0.3258681640625,-0.8290557861328125,-0.0039825439453125,0.0536041259765625
1772642710637913000,0.3359130859375,-0.84539794921875,-0.01605224609375,0.053070068359375
1772642710647958000,0.3459580078125,-0.86260986328125,-0.0245819091796875,0.066314697265625
1772642710658003200,0.356003173828125,-0.8492889404296875,-0.0198211669921875,0.0859832763671875
1772642710668048100,0.366048095703125,-0.829345703125,-0.0160064697265625,0.10589599609375
1772642710678093300,0.37609326171875,-0.82965087890625,-0.0170440673828125,0.1158905029296875
1772642710688139300,0.38613916015625,-0.8602752685546875,-0.01287841796875,0.115997314453125
1772642710698184000,0.396183837890625,-0.8999481201171875,-0.01971435546875,0.121124267578125
1772642710708229000,0.40622900390625,-0.9426422119140625,-0.0446319580078125,0.1289215087890625
1772642710718274000,0.416274169921875,-0.9920654296875,-0.0790252685546875,0.1439056396484375
1772642710728319200,0.4263193359375,-1.0578460693359375,-0.1126556396484375,0.1550445556640625
1772642710738365200,0.436365234375,-1.116241455078125,-0.1477813720703125,0.151885986328125
1772642710748410000,0.44641015625,-1.183380126953125,-0.1629791259765625,0.154296875
1772642710758455000,0.456455078125,-1.24029541015625,-0.152984619140625,0.144866943359375
1772642710768500000,0.4665,-1.2983856201171875,-0.143402099609375,0.131866455078125
1772642710778545200,0.476545166015625,-1.368072509765625,-0.145294189453125,0.1345062255859375
1772642710788591000,0.486591064453125,-1.4149322509765625,-0.16229248046875,0.14349365234375
1772642710798636300,0.49663623046875,-1.44573974609375,-0.2157440185546875,0.1781463623046875
1772642710808681000,0.506680908203125,-1.464752197265625,-0.2834625244140625,0.2187652587890625
1772642710818726100,0.51672607421875,-1.4783935546875,-0.3342132568359375,0.2409515380859375
1772642710828771000,0.52677099609375,-1.4831390380859375,-0.369140625,0.236785888671875
1772642710838816300,0.536816162109375,-1.4859771728515625,-0.3741607666015625,0.186004638671875
1772642710848862200,0.5468623046875,-1.511566162109375,-0.3526153564453125,0.1073455810546875
1772642710858907000,0.556906982421875,-1.5933837890625,-0.3190460205078125,0.04827880859375
1772642710868952000,0.5669521484375,-1.695831298828125,-0.25250244140625,0.0001678466796875
1772642710878997000,0.5769970703125,-1.7501068115234375,-0.1985931396484375,0.01263427734375
1772642710889042200,0.587042236328125,-1.72332763671875,-0.188140869140625,0.09088134765625
1772642710899088100,0.597088134765625,-1.68414306640625,-0.1802978515625,0.173583984375
1772642710909133300,0.60713330078125,-1.562835693359375,-0.1608734130859375,0.1680755615234375
1772642710919178000,0.617177978515625,-1.3971710205078125,-0.177276611328125,0.1649627685546875
1772642710929223200,0.62722314453125,-1.2889862060546875,-0.1810455322265625,0.156890869140625
1772642710939268000,0.63726806640625,-1.1917877197265625,-0.163116455078125,0.109893798828125
1772642710949314000,0.64731396484375,-1.1292266845703125,-0.158447265625,0.0503997802734375
1772642710959359200,0.657359130859375,-1.116546630859375,-0.153411865234375,-0.032470703125
1772642710969404000,0.66740380859375,-1.1303253173828125,-0.1682281494140625,-0.122711181640625
1772642710979449000,0.677448974609375,-1.1388397216796875,-0.1699676513671875,-0.22845458984375
1772642710989494000,0.687493896484375,-1.115447998046875,-0.14447021484375,-0.3245849609375
1772642710999539200,0.697539306640625,-1.0796356201171875,-0.0906524658203125,-0.3732757568359375
1772642711009585200,0.707585205078125,-1.03424072265625,-0.025726318359375,-0.3586578369140625
1772642711019630000,0.717630126953125,-0.9336090087890625,0.015106201171875,-0.29022216796875
1772642711029675000,0.727675048828125,-0.8077545166015625,0.0206298828125,-0.2091217041015625
1772642711039720000,0.737719970703125,-0.6495361328125,0.0365753173828125,-0.150238037109375
1772642711049765000,0.74776513671875,-0.508575439453125,0.050628662109375,-0.117950439453125
1772642711059811000,0.75781103515625,-0.4075775146484375,0.0582427978515625,-0.10137939453125
1772642711069856300,0.767856201171875,-0.3463592529296875,0.0578155517578125,-0.0911712646484375
1772642711079901000,0.77790087890625,-0.3224334716796875,0.0483856201171875,-0.084869384765625
1772642711089946000,0.787946044921875,-0.3162689208984375,0.043914794921875,-0.082611083984375
1772642711099991000,0.797990966796875,-0.27703857421875,0.062225341796875,-0.081207275390625
1772642711110036200,0.8080361328125,-0.22674560546875,0.05633544921875,-0.0880279541015625
1772642711120082200,0.818082275390625,-0.17376708984375,0.0572357177734375,-0.0948486328125
1772642711130127000,0.828127197265625,-0.1394805908203125,0.0753631591796875,-0.107666015625
1772642711140171800,0.838171875,-0.1567230224609375,0.100433349609375,-0.1210784912109375
1772642711150216700,0.848216796875,-0.22271728515625,0.1322784423828125,-0.1272430419921875
1772642711160261600,0.85826171875,-0.3158721923828125,0.144012451171875,-0.103668212890625
1772642711170307600,0.8683076171875,-0.3760528564453125,0.13531494140625,-0.0550384521484375
1772642711180352800,0.878352783203125,-0.376190185546875,0.111297607421875,-0.011077880859375
1772642711190397700,0.888397705078125,-0.354217529296875,0.071746826171875,0.0015106201171875
1772642711200443000,0.89844287109375,-0.342742919921875,0.042327880859375,-0.02947998046875
1772642711210487600,0.908487548828125,-0.3593292236328125,0.025665283203125,-0.0924224853515625
1772642711220532700,0.91853271484375,-0.4104461669921875,-0.018585205078125,-0.115447998046875
1772642711230578700,0.92857861328125,-0.441253662109375,-0.1013946533203125,-0.093780517578125
1772642711240623600,0.93862353515625,-0.4110565185546875,-0.18609619140625,-0.0594940185546875
1772642711250668800,0.948668701171875,-0.3463897705078125,-0.2410125732421875,-0.0339202880859375
1772642711260713500,0.95871337890625,-0.306182861328125,-0.2702484130859375,-0.0264129638671875
1772642711270758700,0.968758544921875,-0.334075927734375,-0.300750732421875,-0.01507568359375
1772642711280804600,0.9788046875,-0.4255218505859375,-0.36083984375,0.0353851318359375
1772642711290849800,0.988849853515625,-0.5509796142578125,-0.45745849609375,0.1078033447265625
1772642711300894700,0.998894775390625,-0.6493377685546875,-0.5938568115234375,0.1840362548828125
1772642711310940000,1.00893994140625,-0.641357421875,-0.74822998046875,0.2384033203125
1772642711320984600,1.018984619140625,-0.543365478515625,-0.83636474609375,0.241119384765625
1772642711331029800,1.02902978515625,-0.5093536376953125,-0.775054931640625,0.1717376708984375
1772642711341075700,1.03907568359375,-0.6560211181640625,-0.6727752685546875,0.082855224609375
1772642711351120600,1.04912060546875,-0.880462646484375,-0.6510772705078125,0.0557403564453125
1772642711361165800,1.059165771484375,-1.0609283447265625,-0.6195220947265625,0.04150390625
1772642711371210500,1.06921044921875,-1.2153167724609375,-0.5577239990234375,0.0373382568359375
1772642711381255700,1.079255615234375,-1.34442138671875,-0.54205322265625,0.0787506103515625
1772642711391301600,1.089301513671875,-1.4241790771484375,-0.5573272705078125,0.1212158203125
1772642711401346600,1.0993466796875,-1.5268707275390625,-0.5640716552734375,0.1513824462890625
1772642711411391700,1.109391845703125,-1.6197357177734375,-0.543914794921875,0.16912841796875
1772642711421436700,1.119436767578125,-1.6963043212890625,-0.518341064453125,0.209197998046875
1772642711431481600,1.129481689453125,-1.7816009521484375,-0.5146026611328125,0.27752685546875
1772642711441527600,1.139527587890625,-1.830474853515625,-0.509124755859375,0.3476715087890625
1772642711451572700,1.14957275390625,-1.841705322265625,-0.4676055908203125,0.382598876953125
1772642711461617700,1.15961767578125,-1.8615875244140625,-0.395263671875,0.39654541015625
1772642711471662800,1.169662841796875,-1.9141845703125,-0.2965850830078125,0.4085540771484375
1772642711481707500,1.17970751953125,-2.019378662109375,-0.1818084716796875,0.4239654541015625
1772642711491752700,1.189752685546875,-2.162872314453125,-0.1001434326171875,0.427734375
1772642711501798700,1.199798583984375,-2.2604217529296875,-0.0798797607421875,0.39715576171875
1772642711511843600,1.209843505859375,-2.253753662109375,-0.0982818603515625,0.3268890380859375
1772642711521888800,1.219888671875,-2.1102142333984375,-0.1657257080078125,0.247589111328125
1772642711531933700,1.22993359375,-1.89788818359375,-0.272064208984375,0.185028076171875
1772642711541978600,1.239978515625,-1.6778411865234375,-0.3721466064453125,0.1289520263671875
1772642711552024600,1.250024658203125,-1.4871826171875,-0.4561004638671875,0.07415771484375
1772642711562069800,1.26006982421875,-1.355072021484375,-0.5348968505859375,0.0364837646484375
1772642711572114700,1.27011474609375,-1.271575927734375,-0.581146240234375,0.0165863037109375
1772642711582160000,1.280159912109375,-1.215911865234375,-0.585418701171875,0.0111846923828125
1772642711592204500,1.29020458984375,-1.1598358154296875,-0.57598876953125,0.0194091796875
1772642711602249700,1.300249755859375,-1.0781097412109375,-0.55877685546875,0.033477783203125
1772642711612295700,1.310295654296875,-0.995513916015625,-0.530670166015625,0.035736083984375
1772642711622340600,1.320340576171875,-0.9202423095703125,-0.480621337890625,-0.001251220703125
1772642711632385800,1.3303857421875,-0.8721160888671875,-0.4117431640625,-0.05108642578125
1772642711642430700,1.3404306640625,-0.8506927490234375,-0.3403778076171875,-0.089263916015625
1772642711652475600,1.3504755859375,-0.8447113037109375,-0.282257080078125,-0.12579345703125
1772642711662521600,1.360521484375,-0.8267059326171875,-0.2446441650390625,-0.1596527099609375
1772642711672566500,1.37056640625,-0.7701263427734375,-0.2088165283203125,-0.1829071044921875
1772642711682611700,1.38061181640625,-0.6914520263671875,-0.1697540283203125,-0.1872711181640625
1772642711692656600,1.39065673828125,-0.63201904296875,-0.11505126953125,-0.1793365478515625
1772642711702701600,1.40070166015625,-0.61370849609375,-0.036041259765625,-0.15435791015625
1772642711712746500,1.41074658203125,-0.6032562255859375,0.0513916015625,-0.1215667724609375
1772642711722792700,1.420792724609375,-0.5862579345703125,0.1165008544921875,-0.07733154296875
1772642711732837600,1.430837646484375,-0.57012939453125,0.143951416015625,-0.0231781005859375
1772642711742882800,1.4408828125,-0.5452728271484375,0.139739990234375,0.0239715576171875
1772642711752927700,1.450927734375,-0.499725341796875,0.13006591796875,0.055419921875
1772642711762972700,1.46097265625,-0.4328460693359375,0.12335205078125,0.0615997314453125
1772642711773017600,1.471017578125,-0.3517608642578125,0.1065826416015625,0.046966552734375
1772642711783063600,1.4810634765625,-0.283294677734375,0.080963134765625,0.0305633544921875
1772642711793108700,1.491108642578125,-0.22882080078125,0.0466156005859375,0.0153961181640625
1772642711803153700,1.501153564453125,-0.1921234130859375,0.01031494140625,0.003173828125
1772642711813198600,1.511198486328125,-0.1788482666015625,-0.0244293212890625,-0.0071258544921875
1772642711823243500,1.521243408203125,-0.18865966796875,-0.045745849609375,-0.013885498046875
1772642711833289700,1.531289794921875,-0.2168121337890625,-0.051910400390625,-0.015045166015625
1772642711843334700,1.541334716796875,-0.2506256103515625,-0.041961669921875,-0.0111541748046875
1772642711853379800,1.5513798828125,-0.2950439453125,-0.020233154296875,-0.0023651123046875
1772642711863424800,1.5614248046875,-0.3629150390625,-0.0028533935546875,0.0164794921875
1772642711873469700,1.5714697265625,-0.4197845458984375,-0.0004425048828125,0.038177490234375
1772642711883514600,1.5815146484375,-0.44635009765625,-0.011932373046875,0.06298828125
1772642711893560600,1.591560546875,-0.4485931396484375,-0.033233642578125,0.0833740234375
1772642711903605800,1.601605712890625,-0.43280029296875,-0.062652587890625,0.095184326171875
1772642711913650700,1.611650634765625,-0.41534423828125,-0.1151580810546875,0.109893798828125
1772642711923695600,1.621695556640625,-0.39727783203125,-0.19366455078125,0.1262664794921875
1772642711933740500,1.631740478515625,-0.375701904296875,-0.277801513671875,0.11773681640625
1772642711943786500,1.641786376953125,-0.384674072265625,-0.3593902587890625,0.0840301513671875
1772642711953831700,1.651831787109375,-0.43408203125,-0.43853759765625,0.037200927734375
1772642711963876600,1.661876708984375,-0.5391845703125,-0.531463623046875,0.0220489501953125
1772642711973921800,1.671921875,-0.6976470947265625,-0.7047119140625,0.10504150390625
1772642711983966500,1.681966552734375,-0.7641143798828125,-0.8755950927734375,0.180877685546875
1772642711994011600,1.69201171875,-0.6788330078125,-0.856475830078125,0.1181640625
1772642712004057600,1.7020576171875,-0.6049041748046875,-0.739532470703125,0.0221405029296875
1772642712014102800,1.712102783203125,-0.6237030029296875,-0.7274169921875,0.031494140625
1772642712024147700,1.722147705078125,-0.6908416748046875,-0.7165679931640625,0.0633087158203125
1772642712034192600,1.732192626953125,-0.8621063232421875,-0.6103363037109375,0.0866851806640625
1772642712044237600,1.742237548828125,-1.091156005859375,-0.4809722900390625,0.130035400390625
1772642712054283500,1.752283447265625,-1.3121337890625,-0.4154510498046875,0.17913818359375
1772642712064328700,1.76232861328125,-1.4944915771484375,-0.440765380859375,0.217376708984375
1772642712074373600,1.77237353515625,-1.555206298828125,-0.4930267333984375,0.1617584228515625
1772642712084418800,1.782418701171875,-1.5536346435546875,-0.524200439453125,0.055755615234375
1772642712094463500,1.79246337890625,-1.584381103515625,-0.570892333984375,0.00091552734375
1772642712104508700,1.8025087890625,-1.5594482421875,-0.616180419921875,0.032928466796875
1772642712114554600,1.8125546875,-1.5094451904296875,-0.6128692626953125,0.1135711669921875
1772642712124599800,1.822599853515625,-1.492462158203125,-0.5611724853515625,0.208892822265625
1772642712134644700,1.832644775390625,-1.522247314453125,-0.49871826171875,0.300872802734375
1772642712144690000,1.84268994140625,-1.6123809814453125,-0.4333953857421875,0.33551025390625
1772642712154734600,1.852734619140625,-1.7050628662109375,-0.3494110107421875,0.2896881103515625
1772642712164779800,1.86277978515625,-1.787994384765625,-0.284088134765625,0.22344970703125
1772642712174825700,1.87282568359375,-1.8643341064453125,-0.2328033447265625,0.1561279296875
1772642712184870700,1.88287060546875,-1.942169189453125,-0.20098876953125,0.1031341552734375
1772642712194915800,1.892915771484375,-1.9664459228515625,-0.1813812255859375,0.0597381591796875
1772642712204960800,1.902960693359375,-1.92889404296875,-0.1910552978515625,0.030975341796875
1772642712215005700,1.913005615234375,-1.84326171875,-0.2097930908203125,0.0096282958984375
1772642712225051600,1.9230517578125,-1.7417449951171875,-0.2276153564453125,0.0139617919921875
1772642712235096600,1.9330966796875,-1.6429901123046875,-0.2438812255859375,0.0279083251953125
1772642712245141800,1.943141845703125,-1.5624542236328125,-0.2385406494140625,0.031219482421875
1772642712255186700,1.953186767578125,-1.4979400634765625,-0.22039794921875,0.0367889404296875
1772642712265231600,1.963231689453125,-1.4376678466796875,-0.201934814453125,0.04595947265625
1772642712275276500,1.973276611328125,-1.36334228515625,-0.1934661865234375,0.05487060546875
1772642712285322800,1.98332275390625,-1.266815185546875,-0.1978302001953125,0.0585174560546875
1772642712295367700,1.99336767578125,-1.1646728515625,-0.2086334228515625,0.0619354248046875
1772642712305412900,2.003412841796875,-1.055084228515625,-0.2121734619140625,0.039337158203125
1772642712315457800,2.013457763671875,-0.950469970703125,-0.20660400390625,-0.0020599365234375
1772642712325502700,2.023502685546875,-0.863800048828125,-0.2075347900390625,-0.0425262451171875
1772642712335548700,2.033548583984375,-0.7920074462890625,-0.2159271240234375,-0.0741729736328125
1772642712345593600,2.043593505859375,-0.7550201416015625,-0.22454833984375,-0.088409423828125
1772642712355638800,2.053638671875,-0.7290496826171875,-0.2095794677734375,-0.0991058349609375
1772642712365683700,2.06368359375,-0.70440673828125,-0.15985107421875,-0.113555908203125
1772642712375728600,2.073728759765625,-0.6740570068359375,-0.0867462158203125,-0.1190643310546875
1772642712385773600,2.083773681640625,-0.6436309814453125,-0.0145263671875,-0.11541748046875
1772642712395819800,2.09381982421875,-0.6160888671875,0.048736572265625,-0.109161376953125
1772642712405864700,2.10386474609375,-0.5880584716796875,0.1031951904296875,-0.08660888671875
1772642712415910000,2.113909912109375,-0.555908203125,0.13909912109375,-0.04876708984375
1772642712425954800,2.123954833984375,-0.5211334228515625,0.162750244140625,-0.01483154296875
1772642712435999700,2.133999755859375,-0.491851806640625,0.1689300537109375,0.0115509033203125
1772642712446044700,2.144044677734375,-0.473602294921875,0.1598358154296875,0.042572021484375
1772642712456090600,2.154090576171875,-0.44598388671875,0.144439697265625,0.0641021728515625
1772642712466135800,2.1641357421875,-0.4048614501953125,0.126678466796875,0.06719970703125
1772642712476180700,2.1741806640625,-0.3479461669921875,0.1070098876953125,0.061431884765625
1772642712486225700,2.1842255859375,-0.2931060791015625,0.074188232421875,0.0507965087890625
1772642712496270600,2.1942705078125,-0.2603759765625,0.034912109375,0.0383758544921875
1772642712506316500,2.204316650390625,-0.247467041015625,-0.000701904296875,0.016326904296875
1772642712516361700,2.21436181640625,-0.2457122802734375,-0.0313873291015625,-0.0102691650390625
1772642712526406700,2.22440673828125,-0.252105712890625,-0.0590667724609375,-0.0338897705078125
1772642712536451800,2.234451904296875,-0.282257080078125,-0.088897705078125,-0.0466461181640625
1772642712546496500,2.24449658203125,-0.34088134765625,-0.1224365234375,-0.040802001953125
1772642712556541700,2.254541748046875,-0.391632080078125,-0.14410400390625,-0.0200042724609375
1772642712566587600,2.264587646484375,-0.417022705078125,-0.1479949951171875,-0.015106201171875
1772642712576632800,2.2746328125,-0.4418792724609375,-0.1601104736328125,-0.031524658203125
1772642712586677800,2.284677734375,-0.4665679931640625,-0.2049102783203125,-0.04949951171875
1772642712596722700,2.29472265625,-0.4815521240234375,-0.28680419921875,-0.05401611328125
1772642712606767600,2.304767578125,-0.4818878173828125,-0.3695831298828125,-0.0471954345703125
1772642712616812800,2.314812744140625,-0.4662628173828125,-0.42742919921875,-0.054443359375
1772642712626858800,2.324858642578125,-0.4591217041015625,-0.4317779541015625,-0.085540771484375
1772642712636903700,2.334903564453125,-0.50433349609375,-0.3638916015625,-0.13787841796875
1772642712646948900,2.344948974609375,-0.6333160400390625,-0.31536865234375,-0.11700439453125
1772642712656993500,2.35499365234375,-0.80474853515625,-0.3648834228515625,0.0211181640625
1772642712667038700,2.365038818359375,-0.964752197265625,-0.5298919677734375,0.2439727783203125
1772642712677084700,2.375084716796875,-0.9237213134765625,-0.6187591552734375,0.36431884765625
1772642712687129900,2.3851298828125,-0.7331390380859375,-0.5263824462890625,0.3133087158203125
1772642712697174800,2.3951748046875,-0.6642913818359375,-0.406768798828125,0.1593780517578125
1772642712707219700,2.4052197265625,-0.7334747314453125,-0.4388427734375,0.0563507080078125
1772642712717264600,2.4152646484375,-0.8504180908203125,-0.528106689453125,-0.0097198486328125
1772642712727309800,2.425309814453125,-1.0015411376953125,-0.5721588134765625,-0.0760345458984375
1772642712737355800,2.435355712890625,-1.1904754638671875,-0.5653839111328125,-0.1206817626953125
1772642712747400700,2.445400634765625,-1.3398895263671875,-0.5459747314453125,-0.127044677734375
1772642712757446000,2.45544580078125,-1.4342041015625,-0.5410614013671875,-0.0896453857421875
1772642712767490600,2.465490478515625,-1.4686737060546875,-0.5432586669921875,-0.03887939453125
1772642712777535700,2.47553564453125,-1.471588134765625,-0.548248291015625,0.00433349609375
1772642712787580700,2.48558056640625,-1.473663330078125,-0.57049560546875,0.0412139892578125
1772642712797626600,2.495626708984375,-1.4578094482421875,-0.5971221923828125,0.0638580322265625
1772642712807671800,2.505671875,-1.4522705078125,-0.6319580078125,0.1043243408203125
1772642712817716500,2.515716552734375,-1.4233551025390625,-0.6615753173828125,0.15557861328125
1772642712827761700,2.52576171875,-1.4121856689453125,-0.643280029296875,0.1776123046875
1772642712837806600,2.535806640625,-1.5082855224609375,-0.5498046875,0.1825103759765625
1772642712847852800,2.545852783203125,-1.6994476318359375,-0.39532470703125,0.1942138671875
1772642712857897700,2.555897705078125,-1.9344024658203125,-0.2696380615234375,0.230621337890625
1772642712867943000,2.56594287109375,-2.11199951171875,-0.169219970703125,0.2577972412109375
1772642712877987600,2.575987548828125,-2.16363525390625,-0.1133270263671875,0.2634124755859375
1772642712888032800,2.58603271484375,-2.1077423095703125,-0.131591796875,0.24212646484375
1772642712898077700,2.59607763671875,-1.95318603515625,-0.18792724609375,0.1970977783203125
1772642712908123600,2.60612353515625,-1.786712646484375,-0.241058349609375,0.145782470703125
1772642712918168800,2.6161689453125,-1.6439056396484375,-0.2947540283203125,0.0999908447265625
1772642712928213500,2.626213623046875,-1.516571044921875,-0.3484649658203125,0.05914306640625
1772642712938258700,2.6362587890625,-1.3973846435546875,-0.390106201171875,0.023956298828125
1772642712948303600,2.6463037109375,-1.290374755859375,-0.420135498046875,0.007843017578125
1772642712958348800,2.656348876953125,-1.1959686279296875,-0.424774169921875,0.0083160400390625
1772642712968394800,2.666394775390625,-1.11248779296875,-0.412506103515625,0.01568603515625
1772642712978439700,2.676439697265625,-1.0420074462890625,-0.3866729736328125,0.00982666015625
1772642712988484600,2.686484619140625,-0.9821929931640625,-0.3407135009765625,-0.00469970703125
1772642712998529800,2.69652978515625,-0.917938232421875,-0.2872467041015625,-0.0169219970703125
1772642713008574700,2.70657470703125,-0.843505859375,-0.253173828125,-0.0248870849609375
1772642713018620700,2.71662060546875,-0.769012451171875,-0.2556915283203125,-0.0372772216796875
1772642713028665900,2.726665771484375,-0.683746337890625,-0.277496337890625,-0.06365966796875
1772642713038710800,2.736710693359375,-0.580902099609375,-0.2899017333984375,-0.09088134765625
1772642713048755700,2.746755615234375,-0.4646759033203125,-0.2790374755859375,-0.1197967529296875
1772642713058800600,2.756800537109375,-0.361602783203125,-0.238189697265625,-0.1536407470703125
1772642713068845800,2.766845703125,-0.2926025390625,-0.177886962890625,-0.178985595703125
1772642713078891800,2.776891845703125,-0.27166748046875,-0.1104583740234375,-0.1920166015625
1772642713088936700,2.786936767578125,-0.3168487548828125,-0.0440216064453125,-0.17498779296875
1772642713098981600,2.796981689453125,-0.434356689453125,0.014373779296875,-0.1231231689453125
1772642713109026600,2.807026611328125,-0.5544281005859375,0.0719451904296875,-0.0742340087890625
1772642713119071700,2.81707177734375,-0.6502685546875,0.1201934814453125,-0.0222930908203125
1772642713129116700,2.82711669921875,-0.7085723876953125,0.1514739990234375,0.025238037109375
1772642713139163000,2.837162841796875,-0.7056427001953125,0.1592559814453125,0.047943115234375
1772642713149207600,2.84720751953125,-0.658905029296875,0.156585693359375,0.0637359619140625
1772642713159252700,2.857252685546875,-0.604400634765625,0.120819091796875,0.0852813720703125
1772642713169297700,2.867297607421875,-0.54534912109375,0.075469970703125,0.0868377685546875
1772642713179342800,2.8773427734375,-0.46270751953125,0.0265655517578125,0.0470733642578125
1772642713189387500,2.887387451171875,-0.3770294189453125,-0.0108489990234375,-0.0082244873046875
1772642713199433500,2.89743359375,-0.3212738037109375,-0.0428009033203125,-0.05206298828125
1772642713209478700,2.907478759765625,-0.304107666015625,-0.067840576171875,-0.0693359375
1772642713219523600,2.917523681640625,-0.3169403076171875,-0.0828094482421875,-0.0692291259765625
1772642713229568800,2.92756884765625,-0.3408660888671875,-0.0891265869140625,-0.05450439453125
1772642713239613700,2.93761376953125,-0.365570068359375,-0.0908203125,-0.045501708984375
1772642713249660000,2.947659912109375,-0.3733673095703125,-0.0972747802734375,-0.0413360595703125
1772642713259704600,2.95770458984375,-0.3765716552734375,-0.1132354736328125,-0.022216796875
1772642713269749800,2.967749755859375,-0.396026611328125,-0.1414337158203125,0.0069122314453125
1772642713279794700,2.977794677734375,-0.42724609375,-0.1756744384765625,0.03900146484375
1772642713289839900,2.98783984375,-0.445037841796875,-0.2139129638671875,0.053985595703125
1772642713299884500,2.997884521484375,-0.4345855712890625,-0.2730712890625,0.0710906982421875
1772642713309930500,3.007930419921875,-0.4086456298828125,-0.3538970947265625,0.0838623046875
1772642713319975700,3.0179755859375,-0.4226226806640625,-0.4093017578125,0.0682830810546875
1772642713330020600,3.0280205078125,-0.5945587158203125,-0.3952178955078125,0.001373291015625
1772642713340065800,3.038065673828125,-0.8553009033203125,-0.3473663330078125,-0.0439910888671875
1772642713350110700,3.04811083984375,-1.0443115234375,-0.32696533203125,-0.0252838134765625
1772642713360155600,3.05815576171875,-1.087860107421875,-0.3166046142578125,-0.0095367431640625
1772642713370201600,3.06820166015625,-0.95184326171875,-0.28363037109375,-0.0406646728515625
1772642713380246500,3.07824658203125,-0.7799224853515625,-0.316741943359375,-0.0527801513671875
1772642713390291700,3.088291748046875,-0.7355499267578125,-0.4109954833984375,-0.06585693359375
1772642713400336600,3.098336669921875,-0.87335205078125,-0.51348876953125,-0.0821685791015625
1772642713410381600,3.108381591796875,-1.1263885498046875,-0.5496063232421875,-0.1015472412109375
1772642713420427500,3.118427490234375,-1.3754730224609375,-0.482421875,-0.128387451171875
1772642713430472700,3.12847265625,-1.567840576171875,-0.3693695068359375,-0.14471435546875
1772642713440517600,3.138517578125,-1.7044525146484375,-0.2551116943359375,-0.155120849609375
1772642713450562800,3.148562744140625,-1.8522186279296875,-0.1660308837890625,-0.137939453125
1772642713460607700,3.158607666015625,-2.0269317626953125,-0.1335296630859375,-0.071319580078125
1772642713470652700,3.168652587890625,-2.161712646484375,-0.1282196044921875,0.0216064453125
1772642713480698600,3.17869873046875,-2.198577880859375,-0.1369781494140625,0.1208038330078125
1772642713490743600,3.18874365234375,-2.189788818359375,-0.1765594482421875,0.16986083984375
1772642713500788700,3.198788818359375,-2.1315765380859375,-0.2301788330078125,0.1551055908203125
1772642713510833700,3.208833740234375,-2.051971435546875,-0.2672119140625,0.0895843505859375
1772642713520878600,3.218878662109375,-2.018951416015625,-0.2835540771484375,0.027587890625
1772642713530923500,3.228923583984375,-2.039031982421875,-0.263427734375,0.002685546875
1772642713540969700,3.2389697265625,-2.0441436767578125,-0.22344970703125,0.01495361328125
1772642713551014700,3.2490146484375,-1.9977569580078125,-0.194671630859375,0.0451202392578125
1772642713561059800,3.259059814453125,-1.8891143798828125,-0.201995849609375,0.0608673095703125
1772642713571104800,3.269104736328125,-1.7276611328125,-0.2315216064453125,0.053802490234375
1772642713581149700,3.279149658203125,-1.5922088623046875,-0.266998291015625,0.05059814453125
1772642713591194600,3.289194580078125,-1.476470947265625,-0.2947540283203125,0.071929931640625
1772642713601240600,3.299240478515625,-1.371368408203125,-0.311920166015625,0.09368896484375
1772642713611285800,3.30928564453125,-1.3168182373046875,-0.3430938720703125,0.126495361328125
1772642713621330700,3.31933056640625,-1.2654266357421875,-0.3802337646484375,0.1501312255859375
1772642713631376000,3.3293759765625,-1.2101898193359375,-0.4130401611328125,0.15008544921875
1772642713641420500,3.339420654296875,-1.15667724609375,-0.4268035888671875,0.13446044921875
1772642713651466500,3.349466552734375,-1.09075927734375,-0.4183197021484375,0.1132354736328125
1772642713661511700,3.35951171875,-1.031036376953125,-0.384521484375,0.0988922119140625
1772642713671556600,3.369556640625,-0.991729736328125,-0.337677001953125,0.079833984375
1772642713681601800,3.379601806640625,-0.966583251953125,-0.27874755859375,0.0556793212890625
1772642713691646500,3.389646484375,-0.93756103515625,-0.2229461669921875,0.0400543212890625
1772642713701691600,3.399691650390625,-0.8837127685546875,-0.201568603515625,0.0480194091796875
1772642713711737600,3.409737548828125,-0.800628662109375,-0.20458984375,0.0719146728515625
1772642713721782800,3.41978271484375,-0.669891357421875,-0.1948394775390625,0.0795135498046875
1772642713731827700,3.42982763671875,-0.5204620361328125,-0.159271240234375,0.0755462646484375
1772642713741873000,3.439872802734375,-0.401580810546875,-0.1089935302734375,0.072998046875
1772642713751917600,3.44991748046875,-0.32757568359375,-0.0642547607421875,0.0592041015625
1772642713761962800,3.459962646484375,-0.2978057861328125,-0.0361785888671875,0.0371246337890625
1772642713772008700,3.4700087890625,-0.2984161376953125,-0.0270233154296875,0.0195770263671875
1772642713782053600,3.4800537109375,-0.3090362548828125,-0.029022216796875,0.0125732421875
1772642713792098800,3.490098876953125,-0.3177032470703125,-0.0301361083984375,0.026092529296875
1772642713802143500,3.5001435546875,-0.31201171875,-0.0304107666015625,0.0413818359375
1772642713812188700,3.510188720703125,-0.3052825927734375,-0.0348052978515625,0.0454864501953125
1772642713822233600,3.520233642578125,-0.2909088134765625,-0.04437255859375,0.030059814453125
1772642713832279800,3.53027978515625,-0.2795257568359375,-0.0632171630859375,-0.0015106201171875
1772642713842324700,3.54032470703125,-0.2463226318359375,-0.079345703125,-0.051116943359375
1772642713852369700,3.55036962890625,-0.2220306396484375,-0.0936737060546875,-0.0915069580078125
1772642713862414600,3.56041455078125,-0.2201995849609375,-0.1096954345703125,-0.1181182861328125
1772642713872459800,3.570459716796875,-0.2239532470703125,-0.1121368408203125,-0.135467529296875
1772642713882504700,3.580504638671875,-0.221405029296875,-0.098480224609375,-0.1328582763671875
1772642713892550700,3.590550537109375,-0.229400634765625,-0.076080322265625,-0.1210174560546875
1772642713902595800,3.600595947265625,-0.276763916015625,-0.0549163818359375,-0.1002960205078125
1772642713912640500,3.610640625,-0.345855712890625,-0.026763916015625,-0.0577850341796875
1772642713922685700,3.620685791015625,-0.40008544921875,-0.00067138671875,-0.0122528076171875
1772642713932730600,3.630730712890625,-0.4464263916015625,0.0111846923828125,0.0220947265625
1772642713942775800,3.64077587890625,-0.5062713623046875,0.0108489990234375,0.0475311279296875
1772642713952821800,3.65082177734375,-0.560699462890625,-0.01495361328125,0.06219482421875
1772642713962866700,3.66086669921875,-0.58203125,-0.0713043212890625,0.0666351318359375
1772642713972911600,3.67091162109375,-0.553558349609375,-0.1466827392578125,0.0529022216796875
1772642713982956500,3.68095654296875,-0.5119781494140625,-0.208831787109375,0.0133209228515625
1772642713993001700,3.691001708984375,-0.4979705810546875,-0.2600555419921875,-0.0432586669921875
1772642714003047700,3.701047607421875,-0.5342864990234375,-0.277984619140625,-0.1040191650390625
1772642714013092900,3.7110927734375,-0.6476593017578125,-0.28179931640625,-0.137298583984375
1772642714023137500,3.721137451171875,-0.838104248046875,-0.3175201416015625,-0.1089630126953125
1772642714033182700,3.7311826171875,-0.9957427978515625,-0.464202880859375,-0.0009002685546875
1772642714043227600,3.7412275390625,-0.939727783203125,-0.55596923828125,0.0265960693359375
1772642714053272800,3.75127294921875,-0.7426910400390625,-0.4514923095703125,-0.0705108642578125
1772642714063318800,3.76131884765625,-0.7025299072265625,-0.376312255859375,-0.1414947509765625
1772642714073363700,3.77136376953125,-0.8262939453125,-0.4733428955078125,-0.0931549072265625
1772642714083408600,3.78140869140625,-0.9697418212890625,-0.5281524658203125,-0.0785675048828125
1772642714093453600,3.79145361328125,-1.16497802734375,-0.4688262939453125,-0.103607177734375
1772642714103498800,3.801498779296875,-1.423309326171875,-0.4014892578125,-0.0563812255859375
1772642714113543700,3.811543701171875,-1.621551513671875,-0.34161376953125,0.0246429443359375
1772642714123589600,3.821589599609375,-1.72991943359375,-0.2634429931640625,0.06048583984375
1772642714133634600,3.831634521484375,-1.778656005859375,-0.18841552734375,0.0600128173828125
1772642714143679200,3.84167919921875,-1.806854248046875,-0.13592529296875,0.087432861328125
1772642714153724200,3.85172412109375,-1.8253936767578125,-0.14208984375,0.1230010986328125
1772642714163769300,3.861769287109375,-1.793853759765625,-0.191680908203125,0.123199462890625
1772642714173814000,3.87181396484375,-1.7070770263671875,-0.2237548828125,0.124786376953125
1772642714183860000,3.88185986328125,-1.663299560546875,-0.227813720703125,0.147674560546875
1772642714193905200,3.8919052734375,-1.7064361572265625,-0.2206878662109375,0.16827392578125
1772642714203950000,3.9019501953125,-1.767791748046875,-0.2183380126953125,0.1555328369140625
1772642714213995300,3.911995361328125,-1.774322509765625,-0.2199249267578125,0.1258087158203125
1772642714224040200,3.922040283203125,-1.7395782470703125,-0.2223968505859375,0.083282470703125
1772642714234085000,3.932085205078125,-1.6898651123046875,-0.2332916259765625,0.0587005615234375
1772642714244131000,3.942131103515625,-1.607421875,-0.259918212890625,0.05755615234375
1772642714254176300,3.95217626953125,-1.5174407958984375,-0.2999420166015625,0.0727691650390625
1772642714264221200,3.96222119140625,-1.4453125,-0.33721923828125,0.0822601318359375
1772642714274266400,3.972266357421875,-1.3956756591796875,-0.3571014404296875,0.0819549560546875
1772642714284311000,3.98231103515625,-1.379150390625,-0.3668670654296875,0.08587646484375
1772642714294356200,3.992356201171875,-1.378326416015625,-0.383819580078125,0.098907470703125
1772642714304402200,4.002402099609375,-1.3767242431640625,-0.403961181640625,0.107269287109375
1772642714314447000,4.012447021484375,-1.3720550537109375,-0.4139556884765625,0.0884552001953125
1772642714324492300,4.0224921875,-1.3681488037109375,-0.41259765625,0.0540924072265625
1772642714334537200,4.032537109375,-1.351226806640625,-0.3914031982421875,0.0187225341796875
1772642714344582100,4.04258203125,-1.3210296630859375,-0.35186767578125,-0.00872802734375
1772642714354627000,4.052626953125,-1.2728271484375,-0.299652099609375,-0.0238800048828125
1772642714364673000,4.062673095703125,-1.1875152587890625,-0.2512969970703125,-0.0206146240234375
1772642714374718200,4.07271826171875,-1.109130859375,-0.2049102783203125,-0.01416015625
1772642714384763100,4.08276318359375,-1.018798828125,-0.15728759765625,-0.02398681640625
1772642714394808000,4.09280810546875,-0.9234619140625,-0.11260986328125,-0.0429229736328125
1772642714404853000,4.10285302734375,-0.8340911865234375,-0.0680694580078125,-0.06103515625
1772642714414899200,4.112899169921875,-0.734771728515625,-0.0311431884765625,-0.0626220703125
1772642714424944000,4.122944091796875,-0.636260986328125,0.0022125244140625,-0.0506134033203125
1772642714434989300,4.1329892578125,-0.54681396484375,0.033416748046875,-0.0374298095703125
1772642714445034200,4.1430341796875,-0.4847412109375,0.062652587890625,-0.0276641845703125
1772642714455079200,4.1530791015625,-0.44610595703125,0.0830841064453125,-0.0167388916015625
1772642714465124000,4.1631240234375,-0.4201202392578125,0.0984954833984375,-0.0069122314453125
1772642714475170000,4.173170166015625,-0.3984222412109375,0.099700927734375,0.0016021728515625
1772642714485215200,4.18321533203125,-0.3814849853515625,0.08795166015625,0.0145416259765625
1772642714495260200,4.19326025390625,-0.3654937744140625,0.073883056640625,0.0178375244140625
1772642714505305300,4.203305419921875,-0.345916748046875,0.0395355224609375,0.032257080078125
1772642714515350000,4.21335009765625,-0.3282318115234375,-0.0047454833984375,0.047760009765625
1772642714525395200,4.223395263671875,-0.3134002685546875,-0.0394134521484375,0.0549163818359375
1772642714535441200,4.233441162109375,-0.296844482421875,-0.0635986328125,0.0550994873046875
1772642714545486300,4.243486328125,-0.2814788818359375,-0.081024169921875,0.0544586181640625
1772642714555531300,4.25353125,-0.260009765625,-0.0976715087890625,0.0356903076171875
1772642714565576200,4.263576171875,-0.251068115234375,-0.1092376708984375,0.0006866455078125
1772642714575621000,4.27362109375,-0.283203125,-0.110076904296875,-0.0382232666015625
1772642714585666300,4.283666259765625,-0.34844970703125,-0.1118927001953125,-0.056427001953125
1772642714595712300,4.293712158203125,-0.4177703857421875,-0.113677978515625,-0.054931640625
1772642714605757200,4.303757080078125,-0.474578857421875,-0.1055145263671875,-0.05059814453125
1772642714615802400,4.31380224609375,-0.5221405029296875,-0.0925445556640625,-0.04095458984375
1772642714625847000,4.323846923828125,-0.5624542236328125,-0.090087890625,-0.024658203125
1772642714635892200,4.333892333984375,-0.6069488525390625,-0.1094970703125,-0.002593994140625
1772642714645937200,4.343937255859375,-0.658416748046875,-0.1546478271484375,0.0244293212890625
1772642714655983000,4.353983154296875,-0.6951751708984375,-0.205322265625,0.0377655029296875
1772642714666028300,4.3640283203125,-0.719970703125,-0.2302398681640625,0.02362060546875
1772642714676073000,4.374072998046875,-0.792999267578125,-0.24310302734375,-0.0084686279296875
1772642714686118100,4.3841181640625,-0.9979095458984375,-0.3663330078125,0.048431396484375
1772642714696163000,4.3941630859375,-1.167205810546875,-0.6170196533203125,0.1500091552734375
1772642714706208300,4.404208251953125,-0.976715087890625,-0.611175537109375,0.013763427734375
1772642714716254200,4.414254150390625,-0.7883758544921875,-0.3490447998046875,-0.231842041015625
1772642714726299400,4.42429931640625,-0.77838134765625,-0.1665496826171875,-0.3562469482421875
1772642714736344000,4.434343994140625,-0.708892822265625,-0.1390228271484375,-0.3341827392578125
1772642714746389200,4.44438916015625,-0.6411285400390625,-0.2255096435546875,-0.2119598388671875
1772642714756434200,4.45443408203125,-0.57318115234375,-0.3424072265625,-0.1055908203125
1772642714766479400,4.464479248046875,-0.513519287109375,-0.47369384765625,-0.05712890625
1772642714776525300,4.474525390625,-0.6684417724609375,-0.561187744140625,-0.030975341796875
1772642714786570000,4.484570068359375,-1.0241546630859375,-0.52520751953125,-0.0388031005859375
1772642714796615200,4.494615234375,-1.284820556640625,-0.3740692138671875,-0.118133544921875
1772642714806660000,4.50466015625,-1.4567108154296875,-0.1869659423828125,-0.2189788818359375
1772642714816705300,4.514705322265625,-1.626434326171875,-0.0658416748046875,-0.27008056640625
1772642714826750200,4.524750244140625,-1.8034515380859375,-0.03045654296875,-0.225128173828125
1772642714836796200,4.534796142578125,-1.931549072265625,-0.0284881591796875,-0.1448822021484375
1772642714846841000,4.544841064453125,-1.976776123046875,-0.0453948974609375,-0.0397491455078125
1772642714856886300,4.55488623046875,-1.931060791015625,-0.1175689697265625,0.0836639404296875
1772642714866931200,4.56493115234375,-1.8112945556640625,-0.17730712890625,0.149932861328125
1772642714876976000,4.57497607421875,-1.7139739990234375,-0.205963134765625,0.125335693359375
1772642714887021000,4.58502099609375,-1.6195220947265625,-0.212066650390625,0.0516357421875
1772642714897067000,4.59506689453125,-1.577850341796875,-0.2111053466796875,-0.0168609619140625
1772642714907112200,4.6051123046875,-1.5328826904296875,-0.194091796875,-0.0488433837890625
1772642714917157000,4.6151572265625,-1.48126220703125,-0.188568115234375,-0.035064697265625
1772642714927202300,4.625202392578125,-1.436492919921875,-0.1893463134765625,0.001617431640625
1772642714937247200,4.635247314453125,-1.3806304931640625,-0.16961669921875,0.044219970703125
1772642714947292200,4.645292236328125,-1.345062255859375,-0.1329803466796875,0.0860748291015625
1772642714957338000,4.655338134765625,-1.3263092041015625,-0.085418701171875,0.11553955078125
1772642714967383000,4.665383056640625,-1.384552001953125,-0.033111572265625,0.1425933837890625
1772642714977428200,4.67542822265625,-1.5009307861328125,0.002166748046875,0.1724853515625
1772642714987473200,4.68547314453125,-1.5808563232421875,0.0319366455078125,0.17926025390625
1772642714997518000,4.69551806640625,-1.618865966796875,0.04876708984375,0.1582794189453125
1772642715007563000,4.70556298828125,-1.62841796875,0.0548248291015625,0.1032562255859375
1772642715017609200,4.715609130859375,-1.5764923095703125,0.0501556396484375,0.03411865234375
1772642715027654100,4.725654052734375,-1.463958740234375,0.0301361083984375,-0.04168701171875
1772642715037699300,4.73569921875,-1.3469085693359375,-0.0284423828125,-0.1057281494140625
1772642715047744300,4.745744140625,-1.20855712890625,-0.1109466552734375,-0.161956787109375
1772642715057789200,4.7557890625,-1.0631256103515625,-0.1907958984375,-0.21026611328125
1772642715067834000,4.765834228515625,-0.899658203125,-0.247528076171875,-0.2435150146484375
1772642715077880000,4.775880126953125,-0.755218505859375,-0.2984771728515625,-0.2323760986328125
1772642715087925200,4.78592529296875,-0.68487548828125,-0.325775146484375,-0.163543701171875
1772642715097970200,4.79597021484375,-0.6720123291015625,-0.3193206787109375,-0.0732879638671875
1772642715108015000,4.80601513671875,-0.6687469482421875,-0.29931640625,-0.001617431640625
1772642715118060000,4.81606005859375,-0.662628173828125,-0.27972412109375,0.0271453857421875
1772642715128105200,4.826105224609375,-0.6580352783203125,-0.2548065185546875,0.002166748046875
1772642715138151200,4.836151123046875,-0.641021728515625,-0.2238311767578125,-0.05596923828125
1772642715148197000,4.846197021484375,-0.623504638671875,-0.196441650390625,-0.109222412109375
1772642715158242000,4.856241943359375,-0.5952301025390625,-0.1669464111328125,-0.1314697265625
1772642715168287000,4.866286865234375,-0.553619384765625,-0.1338043212890625,-0.1365814208984375
1772642715178332200,4.876332275390625,-0.5163421630859375,-0.0961761474609375,-0.133087158203125
1772642715188377000,4.886377197265625,-0.5140380859375,-0.045654296875,-0.1160888671875
1772642715198423000,4.896423095703125,-0.550079345703125,0.0034942626953125,-0.073150634765625
1772642715208468200,4.90646826171875,-0.5841217041015625,0.0360260009765625,-0.0034332275390625
1772642715218513000,4.916512939453125,-0.5791015625,0.0506439208984375,0.0467529296875
1772642715228558000,4.92655810546875,-0.5214996337890625,0.038604736328125,0.0720977783203125
1772642715238603000,4.93660302734375,-0.4244384765625,0.02197265625,0.0735321044921875
1772642715248648200,4.946648193359375,-0.3343658447265625,-0.003570556640625,0.059539794921875
1772642715258694100,4.956694091796875,-0.279998779296875,-0.0490570068359375,0.0511627197265625
1772642715268739000,4.966739013671875,-0.2675018310546875,-0.10931396484375,0.0481414794921875
1772642715278784000,4.976783935546875,-0.292755126953125,-0.1620025634765625,0.0412139892578125
1772642715288829200,4.9868291015625,-0.3372039794921875,-0.18426513671875,0.0086212158203125
1772642715298874000,4.9968740234375,-0.3875732421875,-0.1705169677734375,-0.040985107421875
1772642715308919300,5.006919189453125,-0.4509735107421875,-0.1554718017578125,-0.0818939208984375
1772642715318964000,5.0169638671875,-0.531768798828125,-0.1469879150390625,-0.098785400390625
1772642715329010000,5.027010009765625,-0.6248626708984375,-0.1375274658203125,-0.089508056640625
1772642715339055000,5.03705517578125,-0.7042083740234375,-0.11700439453125,-0.063812255859375
1772642715349100000,5.04710009765625,-0.7642059326171875,-0.083587646484375,-0.0293426513671875
1772642715359145200,5.057145263671875,-0.8089599609375,-0.0766754150390625,0.027313232421875
1772642715369190000,5.06718994140625,-0.8192138671875,-0.11016845703125,0.1024017333984375
1772642715379236000,5.077236083984375,-0.79766845703125,-0.1596832275390625,0.16046142578125
1772642715389281000,5.087281005859375,-0.778961181640625,-0.241668701171875,0.1868133544921875
1772642715399326200,5.097326171875,-0.764984130859375,-0.3785858154296875,0.1889801025390625
1772642715409371100,5.10737109375,-0.7228240966796875,-0.4542999267578125,0.11590576171875
1772642715419416000,5.117416015625,-0.839935302734375,-0.383087158203125,-0.0009765625
1772642715429461000,5.1274609375,-1.0452117919921875,-0.285980224609375,-0.088653564453125
1772642715439506200,5.137506103515625,-0.990936279296875,-0.22705078125,-0.1680450439453125
1772642715449552100,5.14755224609375,-0.7465057373046875,-0.2435302734375,-0.1522216796875
1772642715459597000,5.15759716796875,-0.5657806396484375,-0.3394012451171875,-0.0220184326171875
1772642715469642200,5.167642333984375,-0.5023651123046875,-0.4794921875,0.091796875
1772642715479687000,5.17768701171875,-0.6057586669921875,-0.5737762451171875,0.1419525146484375
1772642715489732000,5.187732177734375,-0.86865234375,-0.537811279296875,0.12890625
1772642715499777000,5.197777099609375,-1.172760009765625,-0.413970947265625,0.1071929931640625
1772642715509823000,5.207822998046875,-1.4005126953125,-0.2177276611328125,0.069671630859375
1772642715519868200,5.2178681640625,-1.53082275390625,-0.0449981689453125,0.043212890625
1772642715529913000,5.2279130859375,-1.645355224609375,0.0429534912109375,0.058135986328125
1772642715539958000,5.2379580078125,-1.7495880126953125,0.05523681640625,0.0869598388671875
1772642715550003000,5.2480029296875,-1.7454986572265625,-0.004150390625,0.120758056640625
1772642715560048000,5.258048095703125,-1.667755126953125,-0.140899658203125,0.1955413818359375
1772642715570094000,5.268093994140625,-1.5468597412109375,-0.25616455078125,0.2273406982421875
1772642715580139300,5.27813916015625,-1.4927215576171875,-0.3359527587890625,0.2022247314453125
1772642715590184000,5.288183837890625,-1.5025177001953125,-0.391448974609375,0.1361083984375
1772642715600229000,5.29822900390625,-1.538299560546875,-0.402801513671875,0.046356201171875
1772642715610274000,5.308274169921875,-1.562042236328125,-0.402069091796875,-0.0316314697265625
1772642715620319200,5.3183193359375,-1.565338134765625,-0.37823486328125,-0.0731201171875
1772642715630365200,5.328365234375,-1.53570556640625,-0.3518524169921875,-0.064056396484375
1772642715640410000,5.33841015625,-1.485321044921875,-0.3321685791015625,-0.02886962890625
1772642715650455000,5.348455078125,-1.478240966796875,-0.3075714111328125,0.0165863037109375
1772642715660500000,5.3585,-1.520233154296875,-0.2806854248046875,0.0662384033203125
1772642715670545200,5.368545166015625,-1.5852813720703125,-0.2570037841796875,0.101776123046875
1772642715680590000,5.378590087890625,-1.6473236083984375,-0.2389984130859375,0.113250732421875
1772642715690636000,5.388635986328125,-1.696014404296875,-0.2467193603515625,0.092254638671875
1772642715700681000,5.398680908203125,-1.7175140380859375,-0.26104736328125,0.0393218994140625
1772642715710726100,5.40872607421875,-1.69232177734375,-0.278900146484375,-0.0129241943359375
1772642715720771000,5.41877099609375,-1.6451873779296875,-0.3037872314453125,-0.0401763916015625
1772642715730816000,5.42881591796875,-1.5910186767578125,-0.3192901611328125,-0.05364990234375
1772642715740861200,5.438861083984375,-1.521148681640625,-0.322235107421875,-0.0532379150390625
1772642715750907100,5.4489072265625,-1.41845703125,-0.3159942626953125,-0.03948974609375
1772642715760952000,5.4589521484375,-1.283721923828125,-0.3063812255859375,-0.0227203369140625
1772642715770997000,5.4689970703125,-1.149200439453125,-0.2949676513671875,-0.0134124755859375
1772642715781042200,5.479042236328125,-1.0258941650390625,-0.2850341796875,-0.0047607421875
1772642715791087000,5.489087158203125,-0.9118499755859375,-0.2687835693359375,-0.0052490234375
1772642715801132300,5.49913232421875,-0.802093505859375,-0.2415924072265625,-0.019287109375
1772642715811177000,5.509177001953125,-0.7054443359375,-0.2132415771484375,-0.03448486328125
1772642715821223000,5.519222900390625,-0.626678466796875,-0.184814453125,-0.0483856201171875
1772642715831268000,5.52926806640625,-0.5650787353515625,-0.148162841796875,-0.0501251220703125
1772642715841313000,5.53931298828125,-0.521759033203125,-0.1086883544921875,-0.0418548583984375
1772642715851358200,5.549358154296875,-0.50079345703125,-0.07122802734375,-0.0325164794921875
1772642715861403000,5.55940283203125,-0.4903106689453125,-0.0341949462890625,-0.0186309814453125
1772642715871448000,5.569447998046875,-0.4773101806640625,-0.003082275390625,0.00445556640625
1772642715881494000,5.579493896484375,-0.46990966796875,0.0160369873046875,0.028778076171875
1772642715891539200,5.589539306640625,-0.4713134765625,0.022369384765625,0.05322265625
1772642715901584100,5.599584228515625,-0.4764862060546875,0.017791748046875,0.08111572265625
1772642715911629300,5.60962939453125,-0.4718780517578125,0.008697509765625,0.1087799072265625
1772642715921674000,5.619674072265625,-0.4414520263671875,-0.0023956298828125,0.126556396484375
1772642715931719200,5.62971923828125,-0.38726806640625,-0.0216522216796875,0.132598876953125
1772642715941765000,5.63976513671875,-0.3104705810546875,-0.050506591796875,0.1150970458984375
1772642715951810000,5.64981005859375,-0.2327423095703125,-0.0809783935546875,0.0851898193359375
1772642715961855200,5.659855224609375,-0.175933837890625,-0.1002655029296875,0.0562591552734375
1772642715971900000,5.66989990234375,-0.1561279296875,-0.1080322265625,0.026123046875
1772642715981945000,5.679945068359375,-0.1730499267578125,-0.101348876953125,-0.0082244873046875
1772642715991990000,5.689989990234375,-0.2356109619140625,-0.07757568359375,-0.0361785888671875
1772642716002036000,5.700035888671875,-0.3540496826171875,-0.04302978515625,-0.0421142578125
1772642716012081200,5.7100810546875,-0.4986572265625,-0.000823974609375,-0.01983642578125
1772642716022126000,5.7201259765625,-0.62017822265625,0.0452880859375,0.0107269287109375
1772642716032171000,5.7301708984375,-0.69488525390625,0.091949462890625,0.035430908203125
1772642716042216000,5.7402158203125,-0.7296600341796875,0.125396728515625,0.062530517578125
1772642716052261000,5.75026123046875,-0.73828125,0.1224365234375,0.091400146484375
1772642716062306000,5.76030615234375,-0.754852294921875,0.0743560791015625,0.1339111328125
1772642716072352300,5.770352294921875,-0.73358154296875,0.0065460205078125,0.1331329345703125
1772642716082397000,5.78039697265625,-0.6654052734375,-0.0346527099609375,0.070037841796875
1772642716092442000,5.790442138671875,-0.651397705078125,-0.072906494140625,0.0178375244140625
1772642716102487000,5.800487060546875,-0.6842803955078125,-0.17120361328125,0.0538787841796875
1772642716112532200,5.8105322265625,-0.6612548828125,-0.3403167724609375,0.14019775390625
1772642716122577200,5.8205771484375,-0.460784912109375,-0.4836273193359375,0.1733856201171875
1772642716132623000,5.830623046875,-0.1284027099609375,-0.45233154296875,0.0423583984375
1772642716142668000,5.84066796875,0.068878173828125,-0.3708648681640625,-0.13702392578125
1772642716152713000,5.850712890625,0.0405426025390625,-0.4211883544921875,-0.1624603271484375
1772642716162758000,5.8607578125,-0.0355682373046875,-0.53338623046875,-0.1733856201171875
1772642716172802800,5.870802734375,-0.1419830322265625,-0.56524658203125,-0.202850341796875
1772642716182848000,5.880847900390625,-0.411041259765625,-0.553070068359375,-0.1310577392578125
1772642716192894000,5.89089404296875,-0.8049774169921875,-0.559326171875,-0.0596466064453125
1772642716202939100,5.900939208984375,-1.149200439453125,-0.515625,-0.05438232421875
1772642716212983800,5.91098388671875,-1.37188720703125,-0.3849639892578125,-0.10791015625
1772642716223029000,5.921029052734375,-1.5569915771484375,-0.248046875,-0.15057373046875
1772642716233074000,5.931073974609375,-1.79620361328125,-0.1636962890625,-0.1462249755859375
1772642716243119000,5.941119140625,-2.057891845703125,-0.1534576416015625,-0.1099853515625
1772642716253165000,5.9511650390625,-2.2376251220703125,-0.176971435546875,-0.0830841064453125
1772642716263210000,5.9612099609375,-2.3321075439453125,-0.1941375732421875,-0.0509490966796875
1772642716273255000,5.9712548828125,-2.3271026611328125,-0.211151123046875,-0.0164337158203125
1772642716283299800,5.9812998046875,-2.2261962890625,-0.23199462890625,-0.0024871826171875
1772642716293345000,5.991344970703125,-2.0922698974609375,-0.2557830810546875,-0.00164794921875
1772642716303390000,6.001389892578125,-1.9766693115234375,-0.2966766357421875,0.0266571044921875
1772642716313435100,6.01143505859375,-1.8697357177734375,-0.34307861328125,0.0698394775390625
1772642716323480800,6.021480712890625,-1.7518463134765625,-0.3611602783203125,0.1072540283203125
1772642716333526000,6.031526123046875,-1.6379547119140625,-0.3692779541015625,0.1463470458984375
1772642716343571000,6.041571044921875,-1.5612030029296875,-0.362823486328125,0.166168212890625
1772642716353616000,6.051615966796875,-1.5338287353515625,-0.3326873779296875,0.163909912109375
1772642716363661000,6.0616611328125,-1.5436553955078125,-0.2863616943359375,0.1517791748046875
1772642716373706000,6.0717060546875,-1.561370849609375,-0.2396087646484375,0.13897705078125
1772642716383752000,6.081751953125,-1.5723114013671875,-0.1993255615234375,0.1325225830078125
1772642716393796900,6.091796875,-1.5583953857421875,-0.1619873046875,0.1338958740234375
1772642716403842000,6.101842041015625,-1.5063629150390625,-0.130706787109375,0.1392364501953125
1772642716413887000,6.111886962890625,-1.4337921142578125,-0.1168212890625,0.1393585205078125
1772642716423932200,6.12193212890625,-1.3610687255859375,-0.11834716796875,0.126953125
1772642716433976800,6.131976806640625,-1.2945709228515625,-0.1264495849609375,0.1055145263671875
1772642716444022800,6.142022705078125,-1.2268829345703125,-0.1389312744140625,0.0903167724609375
1772642716454068000,6.15206787109375,-1.1623992919921875,-0.1646270751953125,0.0881195068359375
1772642716464113000,6.16211279296875,-1.0967864990234375,-0.1959991455078125,0.08978271484375
1772642716474158000,6.172157958984375,-1.0229644775390625,-0.2198944091796875,0.089324951171875
1772642716484202800,6.18220263671875,-0.9389190673828125,-0.2404632568359375,0.0895538330078125
1772642716494248000,6.192248046875,-0.859710693359375,-0.25677490234375,0.0854034423828125
1772642716504292900,6.20229296875,-0.7868804931640625,-0.253448486328125,0.0739898681640625
1772642716514339000,6.212339111328125,-0.7245941162109375,-0.2211761474609375,0.057403564453125
1772642716524384000,6.222384033203125,-0.681915283203125,-0.171783447265625,0.050323486328125
1772642716534429200,6.23242919921875,-0.66314697265625,-0.1070098876953125,0.053802490234375
1772642716544473900,6.242473876953125,-0.6672515869140625,-0.025787353515625,0.0416107177734375
1772642716554519000,6.25251904296875,-0.6842193603515625,0.032867431640625,0.03155517578125
1772642716564564000,6.26256396484375,-0.6977386474609375,0.070220947265625,0.0336456298828125
1772642716574610000,6.27260986328125,-0.698089599609375,0.0933837890625,0.03662109375
1772642716584655000,6.282655029296875,-0.68646240234375,0.1061248779296875,0.0334320068359375
1772642716594699800,6.29269970703125,-0.66571044921875,0.1039581298828125,0.0283966064453125
1772642716604745000,6.302744873046875,-0.6340179443359375,0.0803070068359375,0.025299072265625
1772642716614790000,6.312789794921875,-0.581024169921875,0.045257568359375,0.0117645263671875
1772642716624835000,6.3228349609375,-0.5083465576171875,0.0126800537109375,-0.0149078369140625
1772642716634881000,6.332881103515625,-0.418243408203125,-0.011444091796875,-0.05023193359375
1772642716644926000,6.342926025390625,-0.330810546875,-0.0355072021484375,-0.08526611328125
1772642716654971000,6.352970947265625,-0.2607879638671875,-0.073089599609375,-0.1096343994140625
1772642716665015800,6.363015869140625,-0.2100372314453125,-0.11419677734375,-0.1195831298828125
1772642716675061000,6.37306103515625,-0.1783905029296875,-0.135833740234375,-0.12603759765625
1772642716685106000,6.38310595703125,-0.1678009033203125,-0.1314697265625,-0.1383209228515625
1772642716695150800,6.39315087890625,-0.18768310546875,-0.121063232421875,-0.146453857421875
1772642716705196800,6.40319677734375,-0.248260498046875,-0.111846923828125,-0.141632080078125
1772642716715242000,6.413241943359375,-0.32244873046875,-0.10284423828125,-0.122100830078125
1772642716725287000,6.423286865234375,-0.378173828125,-0.08526611328125,-0.1050567626953125
1772642716735332000,6.43333203125,-0.4326934814453125,-0.0592041015625,-0.09100341796875
1772642716745377000,6.443376953125,-0.5066986083984375,-0.04095458984375,-0.057769775390625
1772642716755422000,6.453421875,-0.594024658203125,-0.0509796142578125,0.0044708251953125
1772642716765468000,6.463468017578125,-0.6612396240234375,-0.090911865234375,0.0660400390625
1772642716775512800,6.473512939453125,-0.689971923828125,-0.1331939697265625,0.08734130859375
1772642716785558000,6.48355810546875,-0.70428466796875,-0.148345947265625,0.0574493408203125
1772642716795603000,6.49360302734375,-0.7682342529296875,-0.1577911376953125,0.02642822265625
1772642716805648000,6.50364794921875,-0.92803955078125,-0.1903076171875,0.0477447509765625
1772642716815692800,6.51369287109375,-1.0105133056640625,-0.2822113037109375,0.110565185546875
1772642716825738000,6.523738037109375,-0.889495849609375,-0.3994598388671875,0.1397247314453125
1772642716835784000,6.533783935546875,-0.6326141357421875,-0.3527679443359375,0.0362548828125
1772642716845829000,6.5438291015625,-0.411895751953125,-0.2064666748046875,-0.152313232421875
1772642716855874000,6.5538740234375,-0.338531494140625,-0.186431884765625,-0.227752685546875
1772642716865919000,6.5639189453125,-0.35711669921875,-0.3085479736328125,-0.15106201171875
1772642716875964000,6.5739638671875,-0.4351806640625,-0.43365478515625,-0.0400238037109375
1772642716886009000,6.584009033203125,-0.612335205078125,-0.4468536376953125,0.019378662109375
1772642716896055000,6.594054931640625,-0.88543701171875,-0.401275634765625,0.0694580078125
1772642716906100000,6.604099853515625,-1.2127838134765625,-0.327972412109375,0.092803955078125
1772642716916145000,6.614144775390625,-1.5044403076171875,-0.2252655029296875,0.0406494140625
1772642716926189800,6.62418994140625,-1.695343017578125,-0.1182403564453125,-0.0491790771484375
1772642716936235000,6.634235107421875,-1.8818511962890625,-0.0320281982421875,-0.112091064453125
1772642716946280000,6.644280029296875,-2.025177001953125,-0.0098876953125,-0.130035400390625
1772642716956325000,6.6543251953125,-2.064727783203125,-0.0825653076171875,-0.0850067138671875
1772642716966371000,6.66437109375,-2.038238525390625,-0.1838836669921875,-0.0184326171875
1772642716976416000,6.674416015625,-1.964813232421875,-0.260101318359375,0.0191802978515625
1772642716986461000,6.6844609375,-1.864349365234375,-0.328765869140625,0.0405731201171875
1772642716996505900,6.694505859375,-1.76385498046875,-0.3814697265625,0.043609619140625
1772642717006551000,6.704551025390625,-1.700469970703125,-0.413482666015625,0.040740966796875
1772642717016596000,6.714595947265625,-1.68841552734375,-0.425750732421875,0.0561065673828125
1772642717026642000,6.724641845703125,-1.6835784912109375,-0.418060302734375,0.0768280029296875
1772642717036686800,6.734686767578125,-1.6743927001953125,-0.3892974853515625,0.0688018798828125
1772642717046732000,6.74473193359375,-1.660797119140625,-0.3523406982421875,0.0447540283203125
1772642717056777000,6.75477685546875,-1.6341552734375,-0.3205413818359375,0.03851318359375
1772642717066822100,6.764822265625,-1.6128082275390625,-0.2943572998046875,0.0541839599609375
1772642717076866800,6.77486669921875,-1.58489990234375,-0.2629852294921875,0.0742645263671875
1772642717086912000,6.784912109375,-1.5644073486328125,-0.237213134765625,0.087677001953125
1772642717096958000,6.7949580078125,-1.5512542724609375,-0.2186431884765625,0.0876312255859375
1772642717107003000,6.8050029296875,-1.516815185546875,-0.1942596435546875,0.081024169921875
1772642717117048000,6.815048095703125,-1.4568634033203125,-0.17626953125,0.066009521484375
1772642717127093000,6.825093017578125,-1.3695831298828125,-0.1761016845703125,0.0511627197265625
1772642717137138000,6.835137939453125,-1.2698822021484375,-0.1986236572265625,0.0474395751953125
1772642717147182600,6.8451826171875,-1.174224853515625,-0.22955322265625,0.0626373291015625
1772642717157228800,6.855228759765625,-1.10113525390625,-0.2497406005859375,0.088226318359375
1772642717167273700,6.865273681640625,-1.0461883544921875,-0.2482147216796875,0.1088409423828125
1772642717177319000,6.87531884765625,-1.0047149658203125,-0.2302703857421875,0.112213134765625
1772642717187363600,6.885363525390625,-0.95941162109375,-0.2046356201171875,0.0947723388671875
1772642717197408800,6.89540869140625,-0.9138946533203125,-0.1876678466796875,0.0604095458984375
1772642717207453700,6.90545361328125,-0.864898681640625,-0.1837005615234375,0.0331878662109375
1772642717217499600,6.915499755859375,-0.8007659912109375,-0.180816650390625,0.0130157470703125
1772642717227544800,6.925544921875,-0.72821044921875,-0.17523193359375,-0.00067138671875
1772642717237589500,6.935589599609375,-0.652435302734375,-0.1679229736328125,0.0097198486328125
1772642717247634700,6.945634765625,-0.58538818359375,-0.11181640625,-0.0037841796875
1772642717257679600,6.9556796875,-0.5467071533203125,-0.06201171875,-0.0332794189453125
1772642717267724800,6.965724853515625,-0.541900634765625,-0.03759765625,-0.0533905029296875
1772642717277769700,6.975769775390625,-0.5460968017578125,-0.021026611328125,-0.063629150390625
1772642717287816000,6.98581591796875,-0.55169677734375,0.001617431640625,-0.06646728515625
1772642717297860600,6.995860595703125,-0.5596160888671875,0.031097412109375,-0.0629425048828125
1772642717307905800,7.00590576171875,-0.555450439453125,0.053680419921875,-0.0487518310546875
1772642717317950700,7.01595068359375,-0.51947021484375,0.0594329833984375,-0.031524658203125
1772642717327996000,7.025995849609375,-0.4494781494140625,0.0546722412109375,-0.021148681640625
1772642717338040800,7.036040771484375,-0.357635498046875,0.0369110107421875,-0.01708984375
1772642717348085800,7.046085693359375,-0.2537994384765625,0.003326416015625,-0.018341064453125
1772642717358131700,7.056131591796875,-0.1522674560546875,-0.0446014404296875,-0.0328826904296875
1772642717368176600,7.0661767578125,-0.08477783203125,-0.0837554931640625,-0.055145263671875
1772642717378221800,7.076221923828125,-0.0655670166015625,-0.1027679443359375,-0.073333740234375
1772642717388266800,7.086266845703125,-0.1133880615234375,-0.10089111328125,-0.08648681640625
1772642717398311700,7.096311767578125,-0.215301513671875,-0.0988006591796875,-0.085205078125
1772642717408356600,7.106356689453125,-0.3377227783203125,-0.1075592041015625,-0.059478759765625
1772642717418402600,7.116402587890625,-0.4658355712890625,-0.1149749755859375,-0.0260467529296875
1772642717428447700,7.12644775390625,-0.582427978515625,-0.097412109375,-0.0198211669921875
1772642717438492700,7.13649267578125,-0.67474365234375,-0.0506591796875,-0.045379638671875
1772642717448537900,7.146537841796875,-0.7573699951171875,0.0104522705078125,-0.063934326171875
1772642717458582500,7.15658251953125,-0.84625244140625,0.0355987548828125,-0.04205322265625
1772642717468627700,7.166627685546875,-0.918914794921875,0.016510009765625,0.0000457763671875
1772642717478672600,7.176672607421875,-0.9514007568359375,-0.032989501953125,0.03033447265625
1772642717488718800,7.18671875,-0.9708251953125,-0.0971221923828125,0.028289794921875
1772642717498763800,7.196763671875,-1.0155181884765625,-0.1976318359375,0.0178375244140625
1772642717508808700,7.20680859375,-1.0818939208984375,-0.3661346435546875,0.047332763671875
1772642717518853600,7.216853515625,-1.1007232666015625,-0.4932098388671875,0.01458740234375
1772642717528898800,7.22689892578125,-1.0003814697265625,-0.4148101806640625,-0.1311187744140625
1772642717538943700,7.23694384765625,-0.8745574951171875,-0.2363433837890625,-0.26611328125
1772642717548989700,7.24698974609375,-0.820770263671875,-0.1797943115234375,-0.25909423828125
1772642717559035000,7.257034912109375,-0.840240478515625,-0.2494049072265625,-0.1462860107421875
1772642717569079600,7.26707958984375,-0.87078857421875,-0.3569183349609375,-0.0005340576171875
1772642717579124700,7.277124755859375,-0.8922576904296875,-0.4524993896484375,0.08489990234375
1772642717589169700,7.287169677734375,-0.95977783203125,-0.531341552734375,0.1386566162109375
1772642717599214800,7.29721484375,-1.1482391357421875,-0.548736572265625,0.15087890625
1772642717609259500,7.307259521484375,-1.371673583984375,-0.4951934814453125,0.120147705078125
1772642717619305700,7.3173056640625,-1.514434814453125,-0.3790740966796875,0.055694580078125
1772642717629350700,7.3273505859375,-1.573699951171875,-0.24432373046875,-0.014251708984375
1772642717639395800,7.337395751953125,-1.6383819580078125,-0.1600341796875,-0.0336151123046875
1772642717649440800,7.347440673828125,-1.702728271484375,-0.1608428955078125,-0.0119781494140625
1772642717659485700,7.357485595703125,-1.707000732421875,-0.2297821044921875,0.0138092041015625
1772642717669530600,7.367530517578125,-1.6329803466796875,-0.310089111328125,0.03118896484375
1772642717679576600,7.37757666015625,-1.56561279296875,-0.3688507080078125,0.03558349609375
1772642717689621800,7.387621826171875,-1.5255279541015625,-0.423919677734375,0.012603759765625
1772642717699666700,7.397666748046875,-1.483978271484375,-0.460205078125,-0.0463714599609375
1772642717709712000,7.4077119140625,-1.445465087890625,-0.470916748046875,-0.1318511962890625
1772642717719756500,7.417756591796875,-1.42218017578125,-0.457122802734375,-0.2050933837890625
1772642717729801700,7.4278017578125,-1.40118408203125,-0.4254302978515625,-0.2196807861328125
1772642717739846700,7.4378466796875,-1.340789794921875,-0.3793487548828125,-0.18115234375
1772642717749892600,7.447892578125,-1.250152587890625,-0.3423004150390625,-0.1153106689453125
1772642717759937800,7.457937744140625,-1.1579742431640625,-0.3172149658203125,-0.0366668701171875
1772642717769982700,7.467982666015625,-1.085205078125,-0.2941741943359375,0.0339202880859375
1772642717780027600,7.478027587890625,-1.0371246337890625,-0.2734375,0.08795166015625
1772642717790072600,7.488072509765625,-1.0031890869140625,-0.2527618408203125,0.118011474609375
1772642717800117800,7.49811767578125,-0.9810333251953125,-0.2328033447265625,0.1342926025390625
1772642717810162700,7.50816259765625,-0.976409912109375,-0.2176055908203125,0.1384735107421875
1772642717820209000,7.518208984375,-0.991546630859375,-0.2055511474609375,0.1201171875
1772642717830253600,7.528253662109375,-1.006866455078125,-0.1954193115234375,0.0894622802734375
1772642717840298800,7.538298828125,-1.0231781005859375,-0.182342529296875,0.058013916015625
1772642717850343700,7.54834375,-1.0354766845703125,-0.1621856689453125,0.039764404296875
1772642717860388900,7.558388916015625,-1.0272979736328125,-0.13623046875,0.0271759033203125
1772642717870433800,7.568433837890625,-1.007537841796875,-0.118438720703125,0.02398681640625
1772642717880479700,7.578479736328125,-0.9868621826171875,-0.114898681640625,0.0244140625
1772642717890524700,7.588524658203125,-0.9669342041015625,-0.1177520751953125,0.0177459716796875
1772642717900569600,7.598569580078125,-0.9337005615234375,-0.12469482421875,0.00982666015625
1772642717910614800,7.60861474609375,-0.8830413818359375,-0.1337738037109375,-0.000213623046875
1772642717920659700,7.61865966796875,-0.8028564453125,-0.1600799560546875,-0.0054931640625
1772642717930705000,7.628704833984375,-0.74859619140625,-0.18841552734375,-0.01025390625
1772642717940749600,7.63874951171875,-0.709564208984375,-0.1966094970703125,-0.018951416015625
1772642717950795800,7.648795654296875,-0.6739959716796875,-0.217254638671875,-0.0247802734375
1772642717960840700,7.6588408203125,-0.6619415283203125,-0.245819091796875,-0.0268402099609375
1772642717970885600,7.6688857421875,-0.6358642578125,-0.2678680419921875,-0.0331268310546875
1772642717980930800,7.678930908203125,-0.6303863525390625,-0.2783966064453125,-0.0388946533203125
1772642717990975700,7.688975830078125,-0.652923583984375,-0.2817535400390625,-0.0329437255859375
1772642718001020700,7.699020751953125,-0.692230224609375,-0.2757568359375,-0.017608642578125
