time,seconds_elapsed,z,y,x
1772642710362925000,0.060925048828125,-0.03973864018917084,-0.23097068071365356,0.12407302111387253
1772642710372970000,0.070969970703125,-0.006594536826014519,-0.1412152349948883,0.06773997098207474
1772642710383015200,0.08101513671875,0.02240511029958725,-0.048140402883291245,0.011322363279759884
1772642710393061000,0.09106103515625,0.04575837031006813,0.039828598499298096,-0.037275530397892
1772642710403106000,0.10110595703125,0.06207837164402008,0.09284499287605286,-0.08118695020675659
1772642710413151000,0.11115087890625,0.06914772838354111,0.11709253489971161,-0.11303143203258514
1772642710423196200,0.121196044921875,0.07458727806806564,0.10831384360790253,-0.12824282050132751
1772642710433241000,0.131240966796875,0.07251746952533722,0.07577826827764511,-0.12972328066825867
1772642710443287000,0.141287109375,0.06095321476459503,0.041351236402988434,-0.1269170641899109
1772642710453332200,0.151332275390625,0.04336942732334137,0.02009548246860504,-0.1148284375667572
1772642710463377000,0.161376953125,0.022625619545578957,0.003735576756298542,-0.11198572814464569
1772642710473422000,0.171422119140625,0.0011813134187832475,-0.01604318805038929,-0.11493970453739166
1772642710483467000,0.181467041015625,-0.012775436975061893,-0.0439796969294548,-0.12986250221729279
1772642710493512200,0.19151220703125,-0.016955802217125893,-0.0645211860537529,-0.15443602204322815
1772642710503558100,0.20155810546875,-0.0134954284876585,-0.07469440251588821,-0.1850474774837494
1772642710513603000,0.21160302734375,-0.010124399326741695,-0.0773029699921608,-0.23105837404727936
1772642710523648000,0.22164794921875,-0.011879447847604752,-0.06230804696679115,-0.2740820050239563
1772642710533693200,0.231693115234375,-0.015407336875796318,-0.030565563589334488,-0.30295947194099426
1772642710543738000,0.241738037109375,-0.00201333686709404,0.008930657058954239,-0.31853386759757996
1772642710553784000,0.2517841796875,0.02554505318403244,0.026789816096425056,-0.32297202944755554
1772642710563829200,0.261829345703125,0.06016244366765022,0.03981081396341324,-0.3122626543045044
1772642710573874000,0.2718740234375,0.0983327329158783,0.05249758064746857,-0.2854590117931366
1772642710583919000,0.281919189453125,0.14401668310165405,0.07818177342414856,-0.25339195132255554
1772642710593964000,0.291964111328125,0.19514350593090057,0.12144802510738373,-0.2188291847705841
1772642710604010000,0.302010009765625,0.2424294501543045,0.19504433870315552,-0.16976861655712128
1772642710614055200,0.31205517578125,0.27954620122909546,0.2610292136669159,-0.11082088947296143
1772642710624100000,0.32210009765625,0.2850154936313629,0.2831641733646393,-0.05603279173374176
1772642710634145000,0.33214501953125,0.25903236865997314,0.3173128068447113,0.027055969461798668
1772642710644190000,0.34218994140625,0.21634286642074585,0.36484086513519287,0.12961752712726593
1772642710654236200,0.352236083984375,0.1877189576625824,0.34473851323127747,0.22420021891593933
1772642710664281000,0.362281005859375,0.16388623416423798,0.2380649298429489,0.3030852675437927
1772642710674326300,0.372326171875,0.14784760773181915,0.09612962603569031,0.37509289383888245
1772642710684371000,0.382370849609375,0.13131068646907806,-0.05424771085381508,0.45241671800613403
1772642710694416100,0.392416015625,0.10516217350959778,-0.18378493189811707,0.5246965289115906
1772642710704461000,0.4024609375,0.07244135439395905,-0.2842586636543274,0.573320746421814
1772642710714507000,0.412507080078125,0.04946492984890938,-0.38211119174957275,0.6121613383293152
1772642710724552200,0.42255224609375,-0.0053672827780246735,-0.3947162330150604,0.6531046628952026
1772642710734597000,0.43259716796875,-0.07815813273191452,-0.4403343200683594,0.6726863384246826
1772642710744642000,0.44264208984375,-0.14315257966518402,-0.4967472553253174,0.6963306665420532
1772642710754687000,0.45268701171875,-0.1997029334306717,-0.597123384475708,0.7053183317184448
1772642710764733200,0.462733154296875,-0.23307488858699799,-0.6722553968429565,0.6945217251777649
1772642710774778000,0.472778076171875,-0.2241133451461792,-0.6579441428184509,0.6683223247528076
1772642710784823300,0.4828232421875,-0.1731145679950714,-0.5384559035301208,0.5960429906845093
1772642710794868000,0.492867919921875,-0.07163988053798676,-0.371381938457489,0.4509878158569336
1772642710804913200,0.5029130859375,0.07276678830385208,-0.2031126767396927,0.2548806965351105
1772642710814958000,0.5129580078125,0.23875708878040314,-0.08665930479764938,0.02779027633368969
1772642710825004000,0.523004150390625,0.39415785670280457,-0.06401879340410233,-0.21905061602592468
1772642710835049200,0.53304931640625,0.4842342138290405,-0.20752641558647156,-0.43907567858695984
1772642710845094100,0.54309423828125,0.4791683256626129,-0.5355349779129028,-0.5799810886383057
1772642710855139000,0.55313916015625,0.4104161560535431,-0.9427850246429443,-0.5717023611068726
1772642710865184000,0.56318408203125,0.3010071814060211,-1.2008402347564697,-0.4394065737724304
1772642710875230000,0.57322998046875,0.2585156261920929,-1.2623835802078247,-0.28674405813217163
1772642710885275100,0.583275146484375,0.40097278356552124,-1.3089494705200195,-0.2038075476884842
1772642710895320000,0.593320068359375,0.6262895464897156,-1.083921194076538,-0.13792653381824493
1772642710905365000,0.603364990234375,0.8333979249000549,-0.9238432049751282,-0.1790274679660797
1772642710915410000,0.613409912109375,1.0191494226455688,-0.9259780049324036,-0.30650606751441956
1772642710925456100,0.6234560546875,1.1730798482894897,-0.9620547294616699,-0.4670574367046356
1772642710935501000,0.6335009765625,1.326664924621582,-1.0748553276062012,-0.6549407839775085
1772642710945546200,0.643546142578125,1.489864468574524,-1.1661077737808228,-0.8242062330245972
1772642710955591200,0.653591064453125,1.6027250289916992,-1.1462821960449219,-0.9601653814315796
1772642710965636000,0.663635986328125,1.626343011856079,-0.8579402565956116,-1.0188089609146118
1772642710975681000,0.673680908203125,1.5100853443145752,-0.37218397855758667,-1.0323678255081177
1772642710985727000,0.68372705078125,1.2592624425888062,0.21862609684467316,-1.0078204870224
1772642710995772200,0.693772216796875,0.9347090721130371,0.8359132409095764,-0.8985189199447632
1772642711005817000,0.703817138671875,0.6149588227272034,1.394430160522461,-0.6745755076408386
1772642711015862000,0.713862060546875,0.36858290433883667,1.696732759475708,-0.3683580756187439
1772642711025907000,0.723906982421875,0.1597212702035904,1.6654495000839233,0.025216493755578995
1772642711035953200,0.733953125,-0.026784157380461693,1.3271657228469849,0.4550144672393799
1772642711045998000,0.743998046875,-0.20061595737934113,0.778695285320282,0.8995527029037476
1772642711056043300,0.754043212890625,-0.37556806206703186,0.18592862784862518,1.304261565208435
1772642711066088200,0.764088134765625,-0.5414958000183105,-0.32352378964424133,1.618187665939331
1772642711076133000,0.774133056640625,-0.6979482769966125,-0.6397587060928345,1.8697868585586548
1772642711086179000,0.784178955078125,-0.8039751648902893,-0.7285851836204529,2.0498039722442627
1772642711096224000,0.79422412109375,-0.8943884372711182,-0.6397765278816223,2.1054530143737793
1772642711106269200,0.804269287109375,-0.9759367108345032,-0.4311887323856354,2.0384891033172607
1772642711116314000,0.814314208984375,-1.0481981039047241,-0.16589316725730896,1.8212488889694214
1772642711126359000,0.824359130859375,-1.0989595651626587,0.11536123603582382,1.484086513519287
1772642711136403500,0.834403564453125,-1.1543253660202026,0.42709141969680786,1.0989537239074707
1772642711146449700,0.84444970703125,-1.2011663913726807,0.784903883934021,0.7872634530067444
1772642711156494600,0.85449462890625,-1.2033860683441162,1.1825098991394043,0.6469476222991943
1772642711166539800,0.864539794921875,-1.1467238664627075,1.4646438360214233,0.678139328956604
1772642711176584700,0.874584716796875,-1.0443540811538696,1.4768072366714478,0.8150492906570435
1772642711186630000,0.8846298828125,-0.9332294464111328,1.2331351041793823,0.9866310954093933
1772642711196675800,0.89467578125,-0.8597826361656189,0.859711766242981,1.1623470783233643
1772642711206720500,0.904720458984375,-0.8645750880241394,0.5539609789848328,1.3145955801010132
1772642711216765700,0.914765625,-0.9211100339889526,0.4330657124519348,1.490356683731079
1772642711226810600,0.924810546875,-0.9823071956634521,0.40935394167900085,1.6622394323349
1772642711236855800,0.934855712890625,-1.025749683380127,0.3191896975040436,1.7623426914215088
1772642711246900500,0.944900390625,-1.0384150743484497,0.0955016165971756,1.7659600973129272
1772642711256946700,0.95494677734375,-1.0278189182281494,-0.18837112188339233,1.6610472202301025
1772642711266991600,0.96499169921875,-1.0022708177566528,-0.4236389398574829,1.4832491874694824
1772642711277036500,0.97503662109375,-0.9398050308227539,-0.48875322937965393,1.319353461265564
1772642711287081700,0.985081787109375,-0.8256416916847229,-0.4196561276912689,1.2397969961166382
1772642711297126700,0.995126708984375,-0.7059328556060791,-0.2953895628452301,1.162827491760254
1772642711307172900,1.0051728515625,-0.6054200530052185,-0.21727897226810455,0.9215815663337708
1772642711317217500,1.015217529296875,-0.478882372379303,-0.5062423348426819,0.4497290551662445
1772642711327262700,1.0252626953125,-0.3590608239173889,-0.8333276510238647,-0.18380865454673767
1772642711337307600,1.0353076171875,-0.2742162346839905,-0.7661952376365662,-0.8002396821975708
1772642711347352800,1.045352783203125,-0.18785259127616882,-0.471335232257843,-1.2829585075378418
1772642711357398800,1.055398681640625,-0.12042081356048584,-0.18728621304035187,-1.6158043146133423
1772642711367443500,1.065443359375,-0.0914386585354805,0.14330226182937622,-1.7503787279129028
1772642711377488600,1.075488525390625,-0.07924298197031021,0.3915128707885742,-1.7371457815170288
1772642711387533600,1.085533447265625,-0.09191614389419556,0.4091556668281555,-1.6482456922531128
1772642711397578800,1.095578857421875,-0.16620555520057678,0.3815773129463196,-1.4878746271133423
1772642711407623700,1.105623779296875,-0.301288366317749,0.30047279596328735,-1.2919301986694336
1772642711417670000,1.115669921875,-0.4411562383174896,0.17449384927749634,-1.0837708711624146
1772642711427714600,1.125714599609375,-0.5535879731178284,0.10254765301942825,-0.8796836137771606
1772642711437759700,1.135759765625,-0.6138129830360413,0.05217289179563522,-0.7295852303504944
1772642711447804700,1.1458046875,-0.6440957188606262,-0.044057514518499374,-0.6680625081062317
1772642711457849900,1.155849853515625,-0.6529416441917419,-0.16604280471801758,-0.6681778430938721
1772642711467894500,1.16589453125,-0.5954429507255554,-0.33127063512802124,-0.6633673906326294
1772642711477940500,1.1759404296875,-0.4273737668991089,-0.4568626582622528,-0.5531575083732605
1772642711487985700,1.185985595703125,-0.13809724152088165,-0.44776129722595215,-0.29223912954330444
1772642711498030600,1.196030517578125,0.2035471796989441,-0.31600460410118103,0.07239236682653427
1772642711508075800,1.20607568359375,0.5050269365310669,-0.08081076294183731,0.44278159737586975
1772642711518120700,1.21612060546875,0.7064918875694275,0.060203082859516144,0.7064568996429443
1772642711528166700,1.226166748046875,0.8081737756729126,0.030126238241791725,0.8399913907051086
1772642711538211600,1.236211669921875,0.8284609317779541,-0.15578770637512207,0.8447064757347107
1772642711548256500,1.246256591796875,0.776925265789032,-0.44159984588623047,0.7525649070739746
1772642711558301700,1.2563017578125,0.6910324692726135,-0.71182781457901,0.5995221138000488
1772642711568346600,1.2663466796875,0.6147181987762451,-0.8695499300956726,0.4054127037525177
1772642711578391800,1.276391845703125,0.5955082774162292,-0.8506547808647156,0.17569829523563385
1772642711588437500,1.2864375,0.6347594857215881,-0.7065779566764832,-0.0792115107178688
1772642711598482700,1.296482666015625,0.7137134075164795,-0.5542323589324951,-0.3625396490097046
1772642711608527600,1.306527587890625,0.8013975024223328,-0.4158175587654114,-0.6521629691123962
1772642711618572800,1.31657275390625,0.8580394983291626,-0.3262120485305786,-0.9318673014640808
1772642711628617700,1.32661767578125,0.858462929725647,-0.2571452558040619,-1.163291573524475
1772642711638663700,1.33666357421875,0.8228442072868347,-0.19023093581199646,-1.3043937683105469
1772642711648708600,1.34670849609375,0.750114381313324,-0.10585413128137589,-1.3417707681655884
1772642711658753500,1.35675341796875,0.6251053214073181,0.017244093120098114,-1.2992267608642578
1772642711668798700,1.366798828125,0.4525321424007416,0.12877154350280762,-1.2137445211410522
1772642711678843600,1.37684375,0.24198955297470093,0.1719094216823578,-1.1263164281845093
1772642711688888800,1.386888916015625,0.019576596096158028,0.15482397377490997,-1.020058035850525
1772642711698934500,1.3969345703125,-0.17379525303840637,0.12628206610679626,-0.8418702483177185
1772642711708979700,1.406979736328125,-0.3145252466201782,0.11321492493152618,-0.5890787839889526
1772642711719024600,1.417024658203125,-0.3823767304420471,0.07940103858709335,-0.2707098722457886
1772642711729069800,1.42706982421875,-0.3646116256713867,0.06685054302215576,0.08773940801620483
1772642711739114800,1.43711474609375,-0.286138117313385,0.07257500290870667,0.45057380199432373
1772642711749160700,1.44716064453125,-0.17531107366085052,0.07463749498128891,0.7879060506820679
1772642711759205600,1.45720556640625,-0.06941447407007217,0.07079961150884628,1.0521422624588013
1772642711769250600,1.46725048828125,0.002911883406341076,0.07056863605976105,1.2200562953948975
1772642711779295700,1.477295654296875,0.04910814389586449,0.08045722544193268,1.2888340950012207
1772642711789340700,1.487340576171875,0.064748615026474,0.10318224132061005,1.2630586624145508
1772642711799385900,1.4973857421875,0.044453468173742294,0.15264193713665009,1.1462029218673706
1772642711809431600,1.507431640625,-0.011915971525013447,0.2249046415090561,0.9806203246116638
1772642711819476500,1.5174765625,-0.09482470154762268,0.3048780560493469,0.8171994686126709
1772642711829521700,1.527521728515625,-0.18424686789512634,0.39832547307014465,0.6828779578208923
1772642711839566600,1.537566650390625,-0.261827677488327,0.4983426332473755,0.5736361742019653
1772642711849611800,1.54761181640625,-0.3183465301990509,0.5873111486434937,0.5130152702331543
1772642711859657700,1.55765771484375,-0.3328125774860382,0.6982060074806213,0.5366095900535583
1772642711869702700,1.56770263671875,-0.30730465054512024,0.8105678558349609,0.6257163286209106
1772642711879747600,1.57774755859375,-0.24832788109779358,0.8901652097702026,0.7609977126121521
1772642711889792800,1.587792724609375,-0.16213421523571014,0.8952115774154663,0.9203816652297974
1772642711899837700,1.597837646484375,-0.06017696112394333,0.801918625831604,1.0928049087524414
1772642711909883000,1.6078828125,0.05008694529533386,0.6089756488800049,1.2533077001571655
1772642711919928800,1.6179287109375,0.1562757045030594,0.3238733112812042,1.3815476894378662
1772642711929973500,1.627973388671875,0.23851849138736725,-0.04374360665678978,1.427711009979248
1772642711940018700,1.638018798828125,0.27757400274276733,-0.3630792498588562,1.3640161752700806
1772642711950063600,1.648063720703125,0.24639178812503815,-0.5703818202018738,1.2050690650939941
1772642711960108800,1.65810888671875,0.15062397718429565,-0.5771542191505432,1.000086784362793
1772642711970153500,1.668153564453125,0.03896075114607811,-0.2971091568470001,0.7908983826637268
1772642711980199700,1.67819970703125,-0.03669246286153793,-0.07606307417154312,0.5694411396980286
1772642711990244600,1.68824462890625,-0.114637590944767,-0.0973406657576561,0.20280399918556213
1772642712000289800,1.698289794921875,-0.22280481457710266,-0.04139990359544754,-0.29623350501060486
1772642712010334700,1.708334716796875,-0.3044723570346832,0.03393181040883064,-0.857014000415802
1772642712020380000,1.7183798828125,-0.3587837815284729,-0.10678189247846603,-1.4266200065612793
1772642712030425900,1.72842578125,-0.35492247343063354,-0.27378207445144653,-1.805835485458374
1772642712040470500,1.738470458984375,-0.22146214544773102,-0.4017927646636963,-1.9083693027496338
1772642712050515700,1.748515625,0.04327107220888138,-0.4379214942455292,-1.7632719278335571
1772642712060560600,1.758560546875,0.37188488245010376,-0.3893747329711914,-1.4597946405410767
1772642712070605800,1.768605712890625,0.5803341269493103,-0.37391024827957153,-1.1874631643295288
1772642712080650500,1.778650390625,0.571381151676178,-0.31159016489982605,-0.9997640252113342
1772642712090696400,1.788696533203125,0.3704049587249756,-0.07295320183038712,-0.8543859124183655
1772642712100741600,1.79874169921875,0.07226276397705078,0.13750708103179932,-0.8018670082092285
1772642712110786600,1.80878662109375,-0.16020168364048004,0.2074020355939865,-0.8297528624534607
1772642712120831700,1.818831787109375,-0.2517656683921814,0.12401632964611053,-0.8953944444656372
1772642712130876700,1.828876708984375,-0.20138482749462128,-0.09285809099674225,-0.9308359622955322
1772642712140923000,1.8389228515625,-0.09100211411714554,-0.35374587774276733,-0.8735455274581909
1772642712150967600,1.848967529296875,0.004260939545929432,-0.5744985938072205,-0.7481848001480103
1772642712161012700,1.8590126953125,0.07235024124383926,-0.6885141134262085,-0.5939581990242004
1772642712171057700,1.8690576171875,0.11565342545509338,-0.6815444827079773,-0.43392664194107056
1772642712181102800,1.879102783203125,0.13091759383678436,-0.5211020708084106,-0.2509025037288666
1772642712191147800,1.889147705078125,0.119996577501297,-0.3030446767807007,-0.07300372421741486
1772642712201193700,1.89919384765625,0.07377208769321442,-0.12935037910938263,0.05123966187238693
1772642712211238700,1.90923876953125,-0.010353625752031803,-0.0759085863828659,0.10675200819969177
1772642712221283600,1.91928369140625,-0.08287256211042404,-0.13540013134479523,0.09278053045272827
1772642712231328800,1.929328857421875,-0.12173401564359665,-0.2188928872346878,-0.017718011513352394
1772642712241373700,1.939373779296875,-0.11170055717229843,-0.2000371664762497,-0.21308352053165436
1772642712251419000,1.9494189453125,-0.026385348290205002,-0.06407614797353745,-0.45175960659980774
1772642712261464600,1.959464599609375,0.13114702701568604,0.16482894122600555,-0.6930094957351685
1772642712271509800,1.969509765625,0.3317033648490906,0.4401645064353943,-0.9261460304260254
1772642712281554700,1.9795546875,0.5460497140884399,0.6683290004730225,-1.1259382963180542
1772642712291600000,1.989599853515625,0.7550942897796631,0.7719545960426331,-1.2549972534179688
1772642712301644800,1.999644775390625,0.9131901860237122,0.71763676404953,-1.3211431503295898
1772642712311690800,2.009690673828125,0.9957364201545715,0.5668672919273376,-1.3294460773468018
1772642712321735700,2.019735595703125,0.9819119572639465,0.36006879806518555,-1.2818231582641602
1772642712331780600,2.029780517578125,0.8858356475830078,0.1283794343471527,-1.198077917098999
1772642712341825800,2.03982568359375,0.7346964478492737,-0.07830663025379181,-1.0828628540039062
1772642712351870700,2.04987060546875,0.5508482456207275,-0.24998995661735535,-0.9325297474861145
1772642712361916000,2.059916015625,0.3647356331348419,-0.3509168326854706,-0.7512694597244263
1772642712371961900,2.0699619140625,0.19837023317813873,-0.3768371343612671,-0.5491241812705994
1772642712382006500,2.080006591796875,0.0610714927315712,-0.3435673415660858,-0.33665475249290466
1772642712392051700,2.0900517578125,-0.045998722314834595,-0.253704309463501,-0.11482609063386917
1772642712402096600,2.1000966796875,-0.11839542537927628,-0.14642898738384247,0.12118963152170181
1772642712412141800,2.110141845703125,-0.1458253711462021,-0.07663137465715408,0.3629749119281769
1772642712422187800,2.120187744140625,-0.14749623835086823,-0.02107997238636017,0.5888954401016235
1772642712432232700,2.130232666015625,-0.11727697402238846,0.050722893327474594,0.7894344329833984
1772642712442277600,2.140277587890625,-0.05462078005075455,0.1839563101530075,0.9669961333274841
1772642712452322800,2.15032275390625,0.03178546205163002,0.36041930317878723,1.1356966495513916
1772642712462367700,2.16036767578125,0.12281177192926407,0.5216425657272339,1.2838504314422607
1772642712472413000,2.170412841796875,0.19770894944667816,0.6148287653923035,1.3796794414520264
1772642712482459000,2.180458984375,0.25374746322631836,0.6135799884796143,1.4173946380615234
1772642712492503600,2.190503662109375,0.29429975152015686,0.5687452554702759,1.4030416011810303
1772642712502548700,2.200548828125,0.3027541935443878,0.5400148034095764,1.3597066402435303
1772642712512593700,2.21059375,0.2699882388114929,0.5382466912269592,1.2803596258163452
1772642712522638800,2.220638916015625,0.20556877553462982,0.5657444000244141,1.163530707359314
1772642712532683500,2.23068359375,0.12456134706735611,0.6330753564834595,1.0458016395568848
1772642712542729700,2.240729736328125,0.07163368910551071,0.7348752617835999,0.975681483745575
1772642712552774700,2.250774658203125,0.07080584019422531,0.8464284539222717,0.9758474826812744
1772642712562819800,2.26081982421875,0.11238044500350952,0.8783962726593018,1.0203851461410522
1772642712572864800,2.27086474609375,0.15457582473754883,0.8117713928222656,1.1038506031036377
1772642712582909700,2.28090966796875,0.1259652078151703,0.6976118087768555,1.212462306022644
1772642712592956000,2.290955810546875,0.01096179336309433,0.5577546954154968,1.3135199546813965
1772642712603000600,2.30100048828125,-0.15363913774490356,0.3427433371543884,1.3734893798828125
1772642712613045800,2.311045654296875,-0.35765349864959717,0.009587660431861877,1.345674991607666
1772642712623090700,2.321090576171875,-0.5889713764190674,-0.4134940803050995,1.2180637121200562
1772642712633135900,2.331135986328125,-0.8356055021286011,-0.7635557651519775,1.033968448638916
1772642712643180500,2.3411806640625,-1.0340992212295532,-0.8396896719932556,0.8788478374481201
1772642712653226500,2.3512265625,-1.1080694198608398,-0.5855937004089355,0.7891624569892883
1772642712663271700,2.361271728515625,-1.024822473526001,-0.1315220594406128,0.798609733581543
1772642712673316600,2.371316650390625,-0.7394984364509583,-0.12485593557357788,0.7744384407997131
1772642712683361800,2.38136181640625,-0.380415141582489,-0.6258114576339722,0.5433335900306702
1772642712693406700,2.39140673828125,-0.07518269866704941,-1.0214227437973022,0.16898640990257263
1772642712703451600,2.40145166015625,0.13033689558506012,-1.2288371324539185,-0.2872559726238251
1772642712713497600,2.41149755859375,0.22287526726722717,-1.3119629621505737,-0.7641466856002808
1772642712723542800,2.421542724609375,0.1844319999217987,-1.1895264387130737,-1.1992331743240356
1772642712733587700,2.431587646484375,0.0963759794831276,-0.8273271322250366,-1.4740835428237915
1772642712743633000,2.4416328125,0.015648644417524338,-0.3909370005130768,-1.5896754264831543
1772642712753677600,2.451677490234375,-0.03288183733820915,-0.04153037071228027,-1.545746088027954
1772642712763723500,2.4617236328125,-0.0576431080698967,0.07279407232999802,-1.3719695806503296
1772642712773768700,2.471768798828125,-0.07798125594854355,-0.01173648051917553,-1.1293662786483765
1772642712783813600,2.481813720703125,-0.13454999029636383,-0.13988938927650452,-0.9017145037651062
1772642712793858800,2.49185888671875,-0.2576042413711548,-0.22457252442836761,-0.7684679627418518
1772642712803903700,2.50190380859375,-0.41386786103248596,-0.21925552189350128,-0.7333896160125732
1772642712813948700,2.51194873046875,-0.5638073086738586,-0.3041796386241913,-0.8344296813011169
1772642712823994600,2.52199462890625,-0.7189420461654663,-0.5211359262466431,-1.0383082628250122
1772642712834039800,2.532039794921875,-0.8458884954452515,-0.758635938167572,-1.2090665102005005
1772642712844084700,2.542084716796875,-0.8590205311775208,-0.9125434756278992,-1.217532992362976
1772642712854129700,2.552129638671875,-0.7080380320549011,-0.8812743425369263,-0.9982778429985046
1772642712864174600,2.562174560546875,-0.43138250708580017,-0.7421955466270447,-0.5801681876182556
1772642712874219800,2.5722197265625,-0.11422344297170639,-0.6079866290092468,-0.07074753940105438
1772642712884265700,2.582265625,0.14213590323925018,-0.5216501355171204,0.3979027569293976
1772642712894310700,2.592310546875,0.2933827042579651,-0.5568684935569763,0.7131203413009644
1772642712904355800,2.60235595703125,0.3718873858451843,-0.648118257522583,0.886276125907898
1772642712914400800,2.61240087890625,0.4083136022090912,-0.7288852334022522,0.9375074505805969
1772642712924445700,2.62244580078125,0.41398534178733826,-0.7779361009597778,0.8862432241439819
1772642712934491600,2.63249169921875,0.4032042622566223,-0.774878978729248,0.74638831615448
1772642712944536600,2.64253662109375,0.4048692584037781,-0.7098578810691833,0.5433995127677917
1772642712954581800,2.652581787109375,0.4397418797016144,-0.6004582047462463,0.3127712607383728
1772642712964626700,2.662626708984375,0.5101087689399719,-0.4594603180885315,0.07563754916191101
1772642712974671600,2.672671630859375,0.5976464748382568,-0.30441033840179443,-0.1322116106748581
1772642712984716500,2.682716552734375,0.695213258266449,-0.15178003907203674,-0.2788918912410736
1772642712994762800,2.6927626953125,0.8082066178321838,-0.022569522261619568,-0.3614518940448761
1772642713004807700,2.7028076171875,0.9136773943901062,0.0868629589676857,-0.4075932800769806
1772642713014852900,2.712852783203125,0.9527766108512878,0.21142806112766266,-0.43314579129219055
1772642713024897800,2.722897705078125,0.8808454275131226,0.35640737414360046,-0.4683991074562073
1772642713034942700,2.732942626953125,0.7086847424507141,0.45508965849876404,-0.5240523815155029
1772642713044987600,2.742987548828125,0.46863511204719543,0.4487771689891815,-0.6203626990318298
1772642713055033600,2.75303369140625,0.1757918745279312,0.31452828645706177,-0.7659943699836731
1772642713065078800,2.763078857421875,-0.1388576775789261,0.13134141266345978,-0.9713318347930908
1772642713075123700,2.773123779296875,-0.4405551552772522,-0.01412659790366888,-1.2319648265838623
1772642713085168600,2.783168701171875,-0.6644031405448914,-0.03363345190882683,-1.4827860593795776
1772642713095213600,2.793213623046875,-0.7860695123672485,0.11240635067224503,-1.6335937976837158
1772642713105259800,2.803259765625,-0.7996069192886353,0.3823755085468292,-1.630364179611206
1772642713115304700,2.8133046875,-0.7086178064346313,0.7251594662666321,-1.4717612266540527
1772642713125350000,2.823349853515625,-0.5301048159599304,1.0749653577804565,-1.1818764209747314
1772642713135394800,2.833394775390625,-0.34575071930885315,1.3892256021499634,-0.8614464402198792
1772642713145439700,2.843439697265625,-0.08981426060199738,1.5486516952514648,-0.457565039396286
1772642713155484700,2.853484619140625,0.19143587350845337,1.6160396337509155,-0.030046002939343452
1772642713165530600,2.863530517578125,0.4324096143245697,1.6302292346954346,0.3720122277736664
1772642713175575800,2.873575927734375,0.5551648736000061,1.5377476215362549,0.6719301342964172
1772642713185620700,2.883620849609375,0.558307945728302,1.271377682685852,0.882502019405365
1772642713195665700,2.893665771484375,0.4645729959011078,0.9072364568710327,1.0292812585830688
1772642713205710600,2.903710693359375,0.3219314217567444,0.5516844987869263,1.1513994932174683
1772642713215755800,2.913755859375,0.18238498270511627,0.2810945510864258,1.279710292816162
1772642713225801700,2.9238017578125,0.0781714916229248,0.13196390867233276,1.4076483249664307
1772642713235846700,2.9338466796875,0.0022469558753073215,0.07840780913829803,1.5157274007797241
1772642713245891600,2.9438916015625,-0.06222391501069069,0.08065018802881241,1.591513752937317
1772642713255936500,2.9539365234375,-0.12213881313800812,0.09786199033260345,1.6227777004241943
1772642713265981700,2.963981689453125,-0.1672692596912384,0.1100267767906189,1.6241891384124756
1772642713276026600,2.974026611328125,-0.18774738907814026,0.10822045058012009,1.6139286756515503
1772642713286072800,2.98407275390625,-0.20002830028533936,0.05930936709046364,1.5743656158447266
1772642713296117800,2.99411767578125,-0.21007390320301056,-0.1160157099366188,1.4315919876098633
1772642713306162700,3.00416259765625,-0.22978049516677856,-0.5360710024833679,1.1048647165298462
1772642713316207600,3.01420751953125,-0.2711524963378906,-1.1176789999008179,0.6176598072052002
1772642713326252800,3.024252685546875,-0.33478155732154846,-1.245199203491211,0.1720128357410431
1772642713336298800,3.034298828125,-0.3576313257217407,-0.8597316145896912,-0.041573088616132736
1772642713346343700,3.04434375,-0.31729641556739807,-0.20784464478492737,-0.044873807579278946
1772642713356388600,3.054388671875,-0.23706763982772827,0.35066747665405273,0.07029229402542114
1772642713366433500,3.06443359375,-0.1958906501531601,0.45108410716056824,0.04159194231033325
1772642713376478700,3.074478759765625,-0.19612304866313934,0.04617368057370186,-0.2514679431915283
1772642713386523600,3.084523681640625,-0.2575709819793701,-0.5959698557853699,-0.752991795539856
1772642713396569900,3.09456982421875,-0.3666680157184601,-1.0261237621307373,-1.307675838470459
1772642713406614800,3.10461474609375,-0.545213520526886,-1.011879324913025,-1.8499841690063477
1772642713416659700,3.11465966796875,-0.6429378390312195,-0.7984747290611267,-2.1762471199035645
1772642713426704600,3.12470458984375,-0.6573649644851685,-0.5367355346679688,-2.316929340362549
1772642713436749800,3.134749755859375,-0.6401506066322327,-0.2776888906955719,-2.316783905029297
1772642713446794800,3.144794677734375,-0.5843091607093811,0.02072550356388092,-2.15202260017395
1772642713456840700,3.1548408203125,-0.46020251512527466,0.3453751802444458,-1.7890677452087402
1772642713466885600,3.1648857421875,-0.2665417194366455,0.5809983611106873,-1.2869670391082764
1772642713476930600,3.1749306640625,-0.05039051175117493,0.5410609841346741,-0.7714275121688843
1772642713486975700,3.184975830078125,0.13695833086967468,0.3118589222431183,-0.2780875861644745
1772642713497020700,3.195020751953125,0.20401187241077423,-0.020966660231351852,0.10664330422878265
1772642713507065900,3.20506591796875,0.11652782559394836,-0.415056973695755,0.3501638174057007
1772642713517111800,3.21511181640625,-0.06769588589668274,-0.7440357804298401,0.5326962471008301
1772642713527156500,3.225156494140625,-0.2478390336036682,-0.9068337678909302,0.7479419708251953
1772642713537201700,3.23520166015625,-0.3415620028972626,-0.9402493834495544,1.0120947360992432
1772642713547246600,3.24524658203125,-0.3466710150241852,-0.8675413727760315,1.2971577644348145
1772642713557291800,3.255291748046875,-0.31937113404273987,-0.7246623039245605,1.5096863508224487
1772642713567337700,3.265337646484375,-0.28951922059059143,-0.5637567639350891,1.5717835426330566
1772642713577382700,3.275382568359375,-0.2420787513256073,-0.3311469852924347,1.4903985261917114
1772642713587427600,3.285427490234375,-0.1501200795173645,-0.1313004493713379,1.3041391372680664
1772642713597472800,3.29547265625,-0.03516336530447006,-0.040573496371507645,1.0638267993927002
1772642713607517700,3.305517578125,0.05669412016868591,0.025924570858478546,0.837441623210907
1772642713617563000,3.31556298828125,0.1054898202419281,0.047555141150951385,0.6185939311981201
1772642713627608800,3.32560888671875,0.10601819306612015,0.048704829066991806,0.4051405191421509
1772642713637653500,3.335653564453125,0.0702274888753891,0.016833700239658356,0.20307065546512604
1772642713647698700,3.34569873046875,0.021198958158493042,-0.07687761634588242,0.020439323037862778
1772642713657743600,3.35574365234375,-0.008569831028580666,-0.2323545664548874,-0.13566707074642181
1772642713667788800,3.365788818359375,-0.01268894225358963,-0.3947134017944336,-0.24412669241428375
1772642713677833500,3.37583349609375,0.00610952265560627,-0.4783535897731781,-0.2929462492465973
1772642713687879700,3.385879638671875,0.04235168546438217,-0.4753663241863251,-0.28382596373558044
1772642713697924600,3.395924560546875,0.07999151200056076,-0.39401155710220337,-0.24410876631736755
1772642713707969800,3.4059697265625,0.10451816022396088,-0.25065678358078003,-0.20856009423732758
1772642713718014700,3.4160146484375,0.1080261617898941,-0.12566490471363068,-0.24288204312324524
1772642713728059600,3.4260595703125,0.10346230119466782,-0.036986444145441055,-0.35832953453063965
1772642713738104600,3.4361044921875,0.1294209063053131,0.03932209685444832,-0.5198619365692139
1772642713748150500,3.446150634765625,0.18696755170822144,0.1434362530708313,-0.6958044767379761
1772642713758195700,3.45619580078125,0.2572367191314697,0.3373587429523468,-0.8396846055984497
1772642713768240600,3.46624072265625,0.31018009781837463,0.6164034008979797,-0.9169785976409912
1772642713778285800,3.476285888671875,0.3154810965061188,0.8931280970573425,-0.901008665561676
1772642713788330500,3.48633056640625,0.3039757013320923,1.056414246559143,-0.7834641933441162
1772642713798376400,3.49637646484375,0.31057143211364746,1.0639293193817139,-0.5939909815788269
1772642713808421600,3.506421630859375,0.3380241096019745,0.9947028160095215,-0.3590538501739502
1772642713818466600,3.516466552734375,0.3679405152797699,0.8955110907554626,-0.12180139869451523
1772642713828511700,3.52651171875,0.3681250810623169,0.8030360341072083,0.10247378051280975
1772642713838556700,3.536556640625,0.329824835062027,0.6725260019302368,0.26636722683906555
1772642713848601600,3.5466015625,0.23308363556861877,0.598853349685669,0.35074523091316223
1772642713858647600,3.5566474609375,0.09782028198242188,0.5868876576423645,0.3785884976387024
1772642713868692700,3.566692626953125,-0.03728240728378296,0.5862112045288086,0.36976358294487
1772642713878737700,3.576737548828125,-0.1649266481399536,0.5271799564361572,0.34483474493026733
1772642713888782800,3.586782958984375,-0.2914060354232788,0.42553719878196716,0.3051512539386749
1772642713898827500,3.59682763671875,-0.3964296877384186,0.33148714900016785,0.288983553647995
1772642713908872700,3.606872802734375,-0.44548165798187256,0.2561098337173462,0.3430350720882416
1772642713918918700,3.616918701171875,-0.42509889602661133,0.14849033951759338,0.4546109735965729
1772642713928963600,3.626963623046875,-0.3426138758659363,-0.006166072562336922,0.6038814187049866
1772642713939008800,3.6370087890625,-0.21723181009292603,-0.1509789675474167,0.7894400954246521
1772642713949053700,3.6470537109375,-0.08233977854251862,-0.2366853505373001,0.9826204776763916
1772642713959098600,3.6570986328125,0.04793110489845276,-0.2889164984226227,1.1348013877868652
1772642713969143600,3.6671435546875,0.11883271485567093,-0.3708350658416748,1.1867265701293945
1772642713979189800,3.677189697265625,0.14833086729049683,-0.5319890379905701,1.1235986948013306
1772642713989234700,3.687234619140625,0.125096395611763,-0.7410362362861633,0.9626601934432983
1772642713999279600,3.697279541015625,0.059194114059209824,-0.8911414742469788,0.7502745389938354
1772642714009324800,3.70732470703125,-0.004125473089516163,-0.9072781205177307,0.5832022428512573
1772642714019369700,3.71736962890625,-0.03395281359553337,-0.6166825294494629,0.5196270942687988
1772642714029414700,3.72741455078125,-0.01926281675696373,-0.09876672178506851,0.5634235739707947
1772642714039460600,3.737460693359375,0.004883632995188236,0.052750155329704285,0.5440133810043335
1772642714049505800,3.747505859375,-0.07030805945396423,-0.28379005193710327,0.24708019196987152
1772642714059550700,3.75755078125,-0.19186769425868988,-0.5806240439414978,-0.19269590079784393
1772642714069595600,3.767595703125,-0.2978905141353607,-0.6594048738479614,-0.6972320675849915
1772642714079640600,3.777640625,-0.43804216384887695,-0.6520060300827026,-1.254715919494629
1772642714089685800,3.787685791015625,-0.6214706301689148,-0.42204076051712036,-1.740892767906189
1772642714099731700,3.797731689453125,-0.7115029096603394,-0.00280669960193336,-1.9822241067886353
1772642714109776600,3.807776611328125,-0.670817494392395,0.3350197970867157,-1.9639841318130493
1772642714119821800,3.81782177734375,-0.5900918841362,0.49891239404678345,-1.7523211240768433
1772642714129866500,3.827866455078125,-0.5441678166389465,0.5244177579879761,-1.451363205909729
1772642714139911200,3.8379111328125,-0.46372753381729126,0.4390866756439209,-1.080721378326416
1772642714149957000,3.84795703125,-0.3616411089897156,0.31257322430610657,-0.6785094738006592
1772642714160002300,3.858002197265625,-0.3566705286502838,0.20245370268821716,-0.36412373185157776
1772642714170047200,3.868047119140625,-0.40484604239463806,-0.028353942558169365,-0.18575718998908997
1772642714180092200,3.878092041015625,-0.40085241198539734,-0.3350476324558258,-0.09256365895271301
1772642714190137000,3.88813720703125,-0.3239387273788452,-0.48360487818717957,-0.012506641447544098
1772642714200182300,3.898182373046875,-0.2099558711051941,-0.4220406413078308,0.08054190874099731
1772642714210228200,3.908228271484375,-0.09745249152183533,-0.2770932912826538,0.15195804834365845
1772642714220273200,3.918273193359375,-0.025052113458514214,-0.0998179167509079,0.2006668895483017
1772642714230318000,3.928318115234375,0.008262964896857738,0.055441711097955704,0.2405458688735962
1772642714240363000,3.938363037109375,0.023638246580958366,0.12075483053922653,0.25234177708625793
1772642714250408200,3.948408203125,0.020636597648262978,0.08983765542507172,0.2220565676689148
1772642714260453000,3.958453125,-0.000958405842538923,-0.002723092446103692,0.14796988666057587
1772642714270499300,3.968499267578125,-0.028016123920679092,-0.11972055584192276,0.04347703978419304
1772642714280544300,3.978544189453125,-0.028016766533255577,-0.24229641258716583,-0.05407128110527992
1772642714290589200,3.988589111328125,0.002264175098389387,-0.3820604383945465,-0.12800702452659607
1772642714300634000,3.998634033203125,0.04468274861574173,-0.5401583313941956,-0.183365136384964
1772642714310679300,4.00867919921875,0.06445591896772385,-0.6671853065490723,-0.24153336882591248
1772642714320724200,4.01872412109375,0.06734070926904678,-0.705628514289856,-0.317211776971817
1772642714330770200,4.028770263671875,0.05323421210050583,-0.6690750122070312,-0.40529635548591614
1772642714340815000,4.038815185546875,0.0377826988697052,-0.6036693453788757,-0.47297197580337524
1772642714350860000,4.048860107421875,0.019206086173653603,-0.5801701545715332,-0.47553178668022156
1772642714360905200,4.0589052734375,-0.0007628547609783709,-0.6865724921226501,-0.4404608905315399
1772642714370950100,4.0689501953125,-0.01903134025633335,-0.8225479125976562,-0.3444856107234955
1772642714380995300,4.078995361328125,-0.04388471320271492,-0.96839839220047,-0.2450007051229477
1772642714391041300,4.089041259765625,-0.0796259343624115,-1.0247838497161865,-0.17002339661121368
1772642714401086200,4.099086181640625,-0.12392027676105499,-0.9616546630859375,-0.12401314824819565
1772642714411131100,4.109131103515625,-0.17186623811721802,-0.8219630718231201,-0.11811798065900803
1772642714421176300,4.11917626953125,-0.20165015757083893,-0.648840606212616,-0.14583678543567657
1772642714431221200,4.12922119140625,-0.20995229482650757,-0.4700721800327301,-0.20551368594169617
1772642714441266200,4.13926611328125,-0.1949385404586792,-0.2677261531352997,-0.26956039667129517
1772642714451312000,4.14931201171875,-0.16061945259571075,-0.0396256223320961,-0.30573570728302
1772642714461357000,4.159357177734375,-0.11632504314184189,0.19629594683647156,-0.2948940694332123
1772642714471402200,4.16940234375,-0.062260743230581284,0.3935227394104004,-0.23103678226470947
1772642714481447200,4.179447265625,-0.036930862814188004,0.54841148853302,-0.11873263865709305
1772642714491492400,4.189492431640625,-0.037897057831287384,0.6453185677528381,0.042742278426885605
1772642714501537000,4.199537109375,-0.03896806016564369,0.6543186902999878,0.23158957064151764
1772642714511583000,4.2095830078125,-0.036862563341856,0.565244734287262,0.4207800030708313
1772642714521628200,4.219628173828125,-0.03983495756983757,0.433419406414032,0.5932436585426331
1772642714531673000,4.229673095703125,-0.04205896332859993,0.308827668428421,0.737067699432373
1772642714541718300,4.23971826171875,-0.03149852901697159,0.18148823082447052,0.8479135036468506
1772642714551763000,4.249762939453125,-0.02957013249397278,0.055177953094244,0.8895224332809448
1772642714561808100,4.25980810546875,-0.06722167879343033,-0.03487043082714081,0.8499693274497986
1772642714571854000,4.26985400390625,-0.14181628823280334,-0.03416842222213745,0.7577307224273682
1772642714581899300,4.279899169921875,-0.21738381683826447,0.09475327283143997,0.6717400550842285
1772642714591944200,4.289944091796875,-0.26945793628692627,0.3017708957195282,0.6083941459655762
1772642714601989400,4.2999892578125,-0.29238033294677734,0.526427686214447,0.576163113117218
1772642714612034000,4.310033935546875,-0.2857495844364166,0.7232563495635986,0.5774585008621216
1772642714622079200,4.320079345703125,-0.2601098120212555,0.8548702001571655,0.6040133237838745
1772642714632125200,4.330125244140625,-0.21611519157886505,0.9016464948654175,0.6543619632720947
1772642714642170000,4.340170166015625,-0.16293253004550934,0.8362882137298584,0.7204993367195129
1772642714652215300,4.35021533203125,-0.1216713935136795,0.6162048578262329,0.7864658236503601
1772642714662260000,4.360260009765625,-0.09033135324716568,0.2226298451423645,0.8217805624008179
1772642714672305200,4.37030517578125,-0.053534992039203644,-0.12892739474773407,0.835442066192627
1772642714682350000,4.38035009765625,-0.0018166223308071494,-0.006345828995108604,0.9046910405158997
1772642714692396300,4.390396240234375,0.0525270439684391,0.3797922730445862,1.0923506021499634
1772642714702441200,4.400441162109375,0.04609408602118492,0.17187117040157318,1.0355290174484253
1772642714712486100,4.410486083984375,-0.09570778906345367,-0.019534483551979065,0.8145713806152344
1772642714722531000,4.420531005859375,-0.2470470815896988,0.12809798121452332,0.6652471423149109
1772642714732576300,4.430576171875,-0.3429006338119507,0.1395421177148819,0.44618698954582214
1772642714742621200,4.44062109375,-0.311156690120697,-0.2784537374973297,0.14487944543361664
1772642714752667100,4.450667236328125,-0.24603496491909027,-0.8971361517906189,-0.3834208548069
1772642714762712300,4.46071240234375,-0.27835264801979065,-1.5018619298934937,-1.317274570465088
1772642714772757000,4.470757080078125,-0.30652302503585815,-1.7220048904418945,-2.3400216102600098
1772642714782802200,4.48080224609375,-0.26261213421821594,-1.3962041139602661,-3.065735340118408
1772642714792847000,4.49084716796875,-0.21148130297660828,-0.9589989185333252,-3.5211455821990967
1772642714802892300,4.500892333984375,-0.1791258156299591,-0.5476346611976624,-3.7512524127960205
1772642714812938200,4.510938232421875,-0.1654486060142517,-0.15076428651809692,-3.7752528190612793
1772642714822983200,4.520983154296875,-0.14844635128974915,0.21813781559467316,-3.528489828109741
1772642714833028000,4.531028076171875,-0.18163201212882996,0.5394529700279236,-3.0263819694519043
1772642714843073000,4.541072998046875,-0.12363814562559128,0.706855297088623,-2.254871368408203
1772642714853118200,4.5511181640625,0.016775162890553474,0.5402559041976929,-1.4335979223251343
1772642714863163100,4.5611630859375,0.1530863642692566,0.08651408553123474,-0.6646889448165894
1772642714873209300,4.571209228515625,0.1767461597919464,-0.43611928820610046,0.008920116350054741
1772642714883254300,4.581254150390625,0.07752536237239838,-0.8713335394859314,0.5129154920578003
1772642714893299200,4.59129931640625,-0.0782780796289444,-1.0075875520706177,0.8568704724311829
1772642714903344000,4.60134423828125,-0.21793551743030548,-0.8670358657836914,1.0192484855651855
1772642714913389300,4.611389404296875,-0.3091413080692291,-0.5272607207298279,1.0280741453170776
1772642714923434200,4.621434326171875,-0.3551369309425354,-0.07325799763202667,0.9279025793075562
1772642714933480200,4.631480224609375,-0.3595237135887146,0.36382266879081726,0.7553478479385376
1772642714943525000,4.641525146484375,-0.3197476267814636,0.6700155735015869,0.5600622296333313
1772642714953570000,4.651570068359375,-0.2515965402126312,0.7579267621040344,0.35269418358802795
1772642714963615200,4.661615234375,-0.15202930569648743,0.767950177192688,0.22459806501865387
1772642714973660200,4.67166015625,-0.004306431394070387,0.7543763518333435,0.25671151280403137
1772642714983705300,4.681705322265625,0.16368724405765533,0.6125301718711853,0.4380699098110199
1772642714993751300,4.691751220703125,0.3260452449321747,0.3693603575229645,0.735793948173523
1772642715003796200,4.701796142578125,0.467307448387146,0.09432707726955414,1.1112585067749023
1772642715013841200,4.711841064453125,0.5702729821205139,-0.23039081692695618,1.4672362804412842
1772642715023886000,4.721885986328125,0.6324666142463684,-0.5405306816101074,1.7216830253601074
1772642715033931300,4.73193115234375,0.6592891812324524,-0.7365478277206421,1.8400204181671143
1772642715043976200,4.74197607421875,0.6384807229042053,-0.8377900719642639,1.7863273620605469
1772642715054022100,4.752022216796875,0.553471028804779,-0.8431038856506348,1.587740182876587
1772642715064067000,4.762067138671875,0.40317320823669434,-0.7675126791000366,1.1993002891540527
1772642715074112300,4.7721123046875,0.23617197573184967,-0.611262857913971,0.6408031582832336
1772642715084157200,4.7821572265625,0.16249147057533264,-0.37786784768104553,0.06014689430594444
1772642715094202400,4.792202392578125,0.22311140596866608,-0.09734403342008591,-0.4249734580516815
1772642715104247000,4.8022470703125,0.3858727812767029,0.1423012614250183,-0.7791638374328613
1772642715114293000,4.81229296875,0.5743992924690247,0.3028275668621063,-1.00985586643219
1772642715124338200,4.822338134765625,0.6830033659934998,0.40665358304977417,-1.1203562021255493
1772642715134383000,4.832383056640625,0.6441470384597778,0.49659839272499084,-1.1295582056045532
1772642715144429300,4.84242919921875,0.47658514976501465,0.5738164782524109,-1.0552139282226562
1772642715154474000,4.852473876953125,0.24674421548843384,0.5982986688613892,-0.9080806970596313
1772642715164519200,4.862519287109375,0.0011494215577840805,0.5200169086456299,-0.716201663017273
1772642715174565000,4.872565185546875,-0.21908201277256012,0.36363503336906433,-0.5183751583099365
1772642715184610000,4.882610107421875,-0.3994064927101135,0.25784948468208313,-0.310280442237854
1772642715194655200,4.8926552734375,-0.46076464653015137,0.24549560248851776,-0.04650231823325157
1772642715204700000,4.902699951171875,-0.4373279809951782,0.38861164450645447,0.26383641362190247
1772642715214745000,4.9127451171875,-0.34441640973091125,0.619427502155304,0.5826109051704407
1772642715224790000,4.9227900390625,-0.22129765152931213,0.8246874809265137,0.8528656363487244
1772642715234836200,4.932836181640625,-0.11298582702875137,0.9234724044799805,1.0180587768554688
1772642715244881200,4.942881103515625,-0.036819033324718475,0.887730598449707,1.0832518339157104
1772642715254926000,4.952926025390625,0.005823499523103237,0.755707859992981,1.0817408561706543
1772642715264971000,4.962970947265625,0.00547752995043993,0.5642845630645752,1.0318418741226196
1772642715275016200,4.97301611328125,-0.034352175891399384,0.3382018804550171,0.9566134214401245
1772642715285061000,4.98306103515625,-0.10533805936574936,0.13183027505874634,0.864311695098877
1772642715295107000,4.993107177734375,-0.20754806697368622,0.04490256682038307,0.7382645010948181
1772642715305152300,5.00315234375,-0.32488319277763367,0.11356054246425629,0.5912665128707886
1772642715315197000,5.013197021484375,-0.42905592918395996,0.30301570892333984,0.4706873893737793
1772642715325242000,5.0232421875,-0.4910518527030945,0.5497722625732422,0.42839744687080383
1772642715335287000,5.033287109375,-0.5037841200828552,0.7937498092651367,0.45941048860549927
1772642715345332200,5.043332275390625,-0.4739038348197937,0.9844983816146851,0.5496256351470947
1772642715355378200,5.053378173828125,-0.4061032235622406,1.0715211629867554,0.689697265625
1772642715365423000,5.063423095703125,-0.2768644392490387,0.9919397234916687,0.8573906421661377
1772642715375468000,5.073468017578125,-0.10446764528751373,0.7265133857727051,0.9812316298484802
1772642715385513000,5.083512939453125,0.04069994390010834,0.4258607029914856,1.0027714967727661
1772642715395558100,5.09355810546875,0.1292569786310196,0.07980210334062576,0.9303886294364929
1772642715405603000,5.10360302734375,0.11773467063903809,-0.4297451674938202,0.679716944694519
1772642715415649300,5.113649169921875,0.08020567148923874,-0.47471529245376587,0.48720797896385193
1772642715425694000,5.12369384765625,0.045872144401073456,0.029329588636755943,0.6579405665397644
1772642715435739100,5.1337392578125,-0.1453300267457962,0.415299654006958,0.8725711107254028
1772642715445784000,5.1437841796875,-0.38209420442581177,0.16531088948249817,0.8199182152748108
1772642715455829200,5.153829345703125,-0.502508282661438,-0.5611461997032166,0.5030502676963806
1772642715465874200,5.163874267578125,-0.5811212658882141,-1.1877745389938354,-0.15776443481445312
1772642715475920100,5.173920166015625,-0.6370394229888916,-1.3817259073257446,-1.0704848766326904
1772642715485965000,5.183965087890625,-0.6127524375915527,-1.0939257144927979,-1.9270812273025513
1772642715496010000,5.194010009765625,-0.5144152045249939,-0.46667829155921936,-2.499361515045166
1772642715506055200,5.20405517578125,-0.39674341678619385,0.19564969837665558,-2.7439401149749756
1772642715516100000,5.21410009765625,-0.240661159157753,0.5905171036720276,-2.7091891765594482
1772642715526145000,5.22414501953125,-0.036743685603141785,0.8125403523445129,-2.391054153442383
1772642715536191000,5.23419091796875,0.12790678441524506,0.9634326696395874,-1.822590708732605
1772642715546236200,5.244236083984375,0.25528040528297424,0.8587258458137512,-1.0892446041107178
1772642715556281000,5.254281005859375,0.32082560658454895,0.4037442207336426,-0.42246013879776
1772642715566326000,5.264325927734375,0.32588592171669006,-0.29995986819267273,0.0870831236243248
1772642715576371200,5.27437109375,0.2658447027206421,-0.971757173538208,0.4509691894054413
1772642715586416000,5.284416015625,0.14983047544956207,-1.3962013721466064,0.6515892744064331
1772642715596461000,5.2944609375,0.010266993194818497,-1.48171865940094,0.6964068412780762
1772642715606507000,5.304507080078125,-0.1391371488571167,-1.2551459074020386,0.5937110781669617
1772642715616552200,5.31455224609375,-0.2731729745864868,-0.8159206509590149,0.39109116792678833
1772642715626597000,5.32459716796875,-0.3587016761302948,-0.386020302772522,0.13228580355644226
1772642715636642000,5.33464208984375,-0.39648526906967163,-0.15312820672988892,-0.15503385663032532
1772642715646687000,5.34468701171875,-0.3939532935619354,-0.06662388890981674,-0.3950078785419464
1772642715656732200,5.354732177734375,-0.33591073751449585,-0.0657663494348526,-0.5315758585929871
1772642715666778000,5.364778076171875,-0.21359895169734955,-0.14350846409797668,-0.5374824404716492
1772642715676823000,5.374822998046875,-0.04564296081662178,-0.30374979972839355,-0.40737852454185486
1772642715686868200,5.3848681640625,0.09777623414993286,-0.48807504773139954,-0.1984102874994278
1772642715696913000,5.394912841796875,0.1711159646511078,-0.6395758986473083,0.032789651304483414
1772642715706958000,5.4049580078125,0.177262544631958,-0.7848596572875977,0.2401573359966278
1772642715717003000,5.4150029296875,0.1392909288406372,-0.9053879380226135,0.40279126167297363
1772642715727049200,5.42504931640625,0.08858031779527664,-0.9705440998077393,0.5244910717010498
1772642715737094100,5.43509423828125,0.05876382812857628,-0.9418999552726746,0.596271276473999
1772642715747139000,5.44513916015625,0.0718308687210083,-0.8790392279624939,0.6169665455818176
1772642715757184000,5.45518408203125,0.1096554771065712,-0.8360635638237,0.588986337184906
1772642715767229200,5.465229248046875,0.1510024517774582,-0.7845035791397095,0.523665189743042
1772642715777274000,5.475274169921875,0.19362208247184753,-0.7072372436523438,0.41454267501831055
1772642715787320000,5.485320068359375,0.2354622781276703,-0.5879817008972168,0.2694653272628784
1772642715797365200,5.495365234375,0.26246675848960876,-0.45662954449653625,0.09987471997737885
1772642715807410000,5.505409912109375,0.2519252598285675,-0.2979419529438019,-0.08133243769407272
1772642715817455000,5.515455078125,0.21307002007961273,-0.11115024238824844,-0.26494407653808594
1772642715827500000,5.5255,0.15364548563957214,0.07809339463710785,-0.42643070220947266
1772642715837545200,5.535545166015625,0.09387668967247009,0.25648656487464905,-0.5479843020439148
1772642715847591200,5.545591064453125,0.028003890067338943,0.43666115403175354,-0.6123167872428894
1772642715857636000,5.555635986328125,-0.0267200767993927,0.6001270413398743,-0.5919870138168335
1772642715867681000,5.565680908203125,-0.05985468253493309,0.7104926705360413,-0.49705010652542114
1772642715877726000,5.575725830078125,-0.06977229565382004,0.7721751928329468,-0.3426501154899597
1772642715887771100,5.585771240234375,-0.07474397867918015,0.7918815612792969,-0.12184134125709534
1772642715897816000,5.595816162109375,-0.07352611422538757,0.7610245943069458,0.16306497156620026
1772642715907862300,5.6058623046875,-0.04795537143945694,0.6843013167381287,0.5000084638595581
1772642715917907000,5.615906982421875,-0.015379848890006542,0.562115490436554,0.849172830581665
1772642715927952100,5.6259521484375,0.011925122700631618,0.4013919234275818,1.1643574237823486
1772642715937997000,5.6359970703125,0.0034216498024761677,0.2317269742488861,1.361649990081787
1772642715948042200,5.646042236328125,-0.045921653509140015,0.09269780665636063,1.4006538391113281
1772642715958087200,5.656087158203125,-0.1324477642774582,0.01821318455040455,1.285753607749939
1772642715968132000,5.666132080078125,-0.24092890322208405,0.04718125984072685,1.0366029739379883
1772642715978178000,5.676177978515625,-0.3426313102245331,0.16510282456874847,0.6831887364387512
1772642715988223000,5.686222900390625,-0.4323893189430237,0.4153483510017395,0.29308152198791504
1772642715998268200,5.69626806640625,-0.48917803168296814,0.8153367638587952,-0.028637930750846863
1772642716008313000,5.70631298828125,-0.48991650342941284,1.2707470655441284,-0.1865002065896988
1772642716018358000,5.71635791015625,-0.4338846504688263,1.6161638498306274,-0.16388623416423798
1772642716028403000,5.72640283203125,-0.3308461904525757,1.7471702098846436,0.01602558046579361
1772642716038449200,5.73644921875,-0.21807116270065308,1.6953115463256836,0.2792905271053314
1772642716048494000,5.746494140625,-0.049885183572769165,1.4834048748016357,0.5986403226852417
1772642716058539300,5.756539306640625,0.1997145265340805,1.2115453481674194,0.9902016520500183
1772642716068584200,5.766584228515625,0.4084390699863434,0.9214112758636475,1.2801618576049805
1772642716078629000,5.776629150390625,0.5381044149398804,0.6702394485473633,1.4024022817611694
1772642716088674000,5.786674072265625,0.6127200722694397,0.6672797203063965,1.4296252727508545
1772642716098720000,5.796719970703125,0.6880505084991455,1.0355192422866821,1.4576624631881714
1772642716108765200,5.80676513671875,0.8465248346328735,1.4405090808868408,1.5609759092330933
1772642716118810000,5.81681005859375,1.029831886291504,1.3769404888153076,1.5910714864730835
1772642716128855000,5.82685498046875,1.051300048828125,0.7156854271888733,1.3212600946426392
1772642716138900000,5.83689990234375,0.8842160105705261,-0.04672031104564667,0.8552516102790833
1772642716148945000,5.84694482421875,0.5707983374595642,-0.4565782845020294,0.2614273726940155
1772642716158990800,5.856990966796875,0.28775838017463684,-0.9084267020225525,-0.4396204650402069
1772642716169036000,5.8670361328125,0.09740757942199707,-1.4435794353485107,-1.4026423692703247
1772642716179081000,5.8770810546875,0.037863556295633316,-1.5708348751068115,-2.386521339416504
1772642716189126000,5.8871259765625,0.11174766719341278,-1.1172343492507935,-3.111758232116699
1772642716199171000,5.897171142578125,0.20528852939605713,-0.43565109372138977,-3.642042875289917
1772642716209216000,5.907216064453125,0.2123037427663803,0.1252964287996292,-3.9959640502929688
1772642716219261000,5.917260986328125,0.16253219544887543,0.33708110451698303,-4.086831569671631
1772642716229307000,5.927306884765625,0.09957095980644226,0.2772176265716553,-3.8093996047973633
1772642716239352000,5.93735205078125,0.02223808877170086,0.10442029684782028,-3.180603504180908
1772642716249397000,5.94739697265625,-0.08092435449361801,-0.13347522914409637,-2.337543249130249
1772642716259442000,5.95744189453125,-0.1723504215478897,-0.37687456607818604,-1.3752235174179077
1772642716269486800,5.96748681640625,-0.2492065578699112,-0.6590630412101746,-0.4471747577190399
1772642716279532000,5.977531982421875,-0.32960256934165955,-0.9189801216125488,0.29891300201416016
1772642716289578000,5.987577880859375,-0.414764940738678,-1.0038694143295288,0.7810970544815063
1772642716299623000,5.997622802734375,-0.45394375920295715,-0.8264628648757935,0.9925535917282104
1772642716309668000,6.007668212890625,-0.4200758934020996,-0.4525776505470276,0.981965959072113
1772642716319712800,6.017712646484375,-0.3405155539512634,-0.04459308460354805,0.848901629447937
1772642716329758000,6.027758056640625,-0.2650313973426819,0.1831829845905304,0.7026455402374268
1772642716339803000,6.037802978515625,-0.24329495429992676,0.17725026607513428,0.5961681008338928
1772642716349849000,6.04784912109375,-0.28340956568717957,-0.007640681229531765,0.5604724287986755
1772642716359894000,6.05789404296875,-0.36111634969711304,-0.2884931266307831,0.6022867560386658
1772642716369939000,6.06793896484375,-0.44440770149230957,-0.5732460021972656,0.6871960163116455
1772642716379984000,6.07798388671875,-0.4996424615383148,-0.7828546166419983,0.7773213982582092
1772642716390029000,6.088029052734375,-0.4985179305076599,-0.8878956437110901,0.8236532211303711
1772642716400074000,6.098073974609375,-0.42285406589508057,-0.9015917778015137,0.7849199175834656
1772642716410119200,6.108119140625,-0.2852095663547516,-0.8383845686912537,0.6537783741950989
1772642716420165000,6.1181650390625,-0.10815144330263138,-0.685779869556427,0.45501866936683655
1772642716430209800,6.128209716796875,0.07626883685588837,-0.4630701243877411,0.2222997546195984
1772642716440255000,6.1382548828125,0.2516254782676697,-0.23856325447559357,-0.011763335205614567
1772642716450300000,6.1482998046875,0.4011753797531128,-0.08323530852794647,-0.21313944458961487
1772642716460345000,6.158344970703125,0.5017967820167542,-0.035946086049079895,-0.36513325572013855
1772642716470390000,6.16839013671875,0.5458980798721313,-0.10477463155984879,-0.470748633146286
1772642716480436000,6.17843603515625,0.536813497543335,-0.23348146677017212,-0.5616654753684998
1772642716490481000,6.18848095703125,0.48297494649887085,-0.35963496565818787,-0.6630324125289917
1772642716500525800,6.19852587890625,0.4129748046398163,-0.44163209199905396,-0.7792372703552246
1772642716510571000,6.208571044921875,0.33770492672920227,-0.4774550199508667,-0.914329469203949
1772642716520616000,6.218615966796875,0.2906807065010071,-0.5007933378219604,-1.0384422540664673
1772642716530660900,6.228660888671875,0.2542232871055603,-0.45890843868255615,-1.1370948553085327
1772642716540705800,6.238705810546875,0.23127427697181702,-0.33340537548065186,-1.1814534664154053
1772642716550752000,6.248751953125,0.2481268048286438,-0.13496936857700348,-1.1682815551757812
1772642716560797000,6.258796875,0.30770358443260193,0.11026328802108765,-1.0848416090011597
1772642716570842000,6.268842041015625,0.39277711510658264,0.343781977891922,-0.9239045977592468
1772642716580887000,6.278886962890625,0.4859408736228943,0.5286495685577393,-0.6971561312675476
1772642716590932000,6.288931884765625,0.5746933817863464,0.6833232045173645,-0.41496342420578003
1772642716600977000,6.298976806640625,0.6614128351211548,0.8263416290283203,-0.1048889234662056
1772642716611022800,6.30902294921875,0.7383381724357605,0.9414244294166565,0.20450450479984283
1772642716621068000,6.319068115234375,0.7860050201416016,1.0106242895126343,0.4859340786933899
1772642716631113000,6.329113037109375,0.785735011100769,0.9948242902755737,0.7237058877944946
1772642716641158000,6.339157958984375,0.7242961525917053,0.888933002948761,0.9080107808113098
1772642716651202800,6.349202880859375,0.6114712953567505,0.7254236340522766,1.0266458988189697
1772642716661248000,6.359248046875,0.4705067574977875,0.5514710545539856,1.0746562480926514
1772642716671294000,6.3692939453125,0.32558131217956543,0.3917584717273712,1.0582716464996338
1772642716681339100,6.379339111328125,0.18337036669254303,0.2640809118747711,0.9842842817306519
1772642716691384000,6.389384033203125,0.041905276477336884,0.20332351326942444,0.8699097633361816
1772642716701429000,6.399428955078125,-0.08165740221738815,0.23751477897167206,0.766024649143219
1772642716711474000,6.409473876953125,-0.1805340200662613,0.32398542761802673,0.7022659182548523
1772642716721519000,6.41951904296875,-0.26790568232536316,0.4020136594772339,0.6568140387535095
1772642716731565000,6.42956494140625,-0.33189189434051514,0.443352073431015,0.6189027428627014
1772642716741610000,6.43960986328125,-0.35778793692588806,0.46912187337875366,0.6218058466911316
1772642716751655000,6.449655029296875,-0.3201011121273041,0.4743557274341583,0.6962615251541138
1772642716761699800,6.459699951171875,-0.24613739550113678,0.4047473669052124,0.8021600246429443
1772642716771745000,6.4697451171875,-0.18016599118709564,0.2195134460926056,0.8701506853103638
1772642716781790000,6.4797900390625,-0.16430340707302094,-0.01323511078953743,0.8480871915817261
1772642716791835100,6.489835205078125,-0.16056743264198303,-0.07922854274511337,0.7788559198379517
1772642716801881000,6.499881103515625,-0.09346988797187805,0.24779991805553436,0.8672478199005127
1772642716811926000,6.509926025390625,-0.01654944010078907,0.798503041267395,1.06364905834198
1772642716821971000,6.519970947265625,0.07642630487680435,0.9367820620536804,1.2500284910202026
1772642716832016000,6.530015869140625,0.08411256968975067,0.45071932673454285,1.2951430082321167
1772642716842061000,6.54006103515625,-0.06294265389442444,-0.21595856547355652,1.150252103805542
1772642716852105700,6.550105712890625,-0.29926860332489014,-0.6993677020072937,0.8210244178771973
1772642716862152000,6.56015185546875,-0.5146437287330627,-1.055362343788147,0.26501867175102234
1772642716872196900,6.57019677734375,-0.6703182458877563,-1.3089200258255005,-0.5378217697143555
1772642716882242000,6.580241943359375,-0.6933255195617676,-1.3961372375488281,-1.403838872909546
1772642716892287000,6.590286865234375,-0.5587530732154846,-1.2436182498931885,-2.1168053150177
1772642716902332200,6.600332275390625,-0.3243696093559265,-0.9045973420143127,-2.5440444946289062
1772642716912376800,6.610376953125,-0.09081079065799713,-0.5402396321296692,-2.658895254135132
1772642716922422000,6.620422119140625,0.07703413814306259,-0.3102104067802429,-2.5544464588165283
1772642716932468000,6.630468017578125,0.16623413562774658,-0.021693257614970207,-2.1551408767700195
1772642716942513000,6.640512939453125,0.1993553340435028,0.13733446598052979,-1.558110237121582
1772642716952558000,6.65055810546875,0.19335980713367462,0.032918039709329605,-0.9100162982940674
1772642716962602800,6.660602783203125,0.14119753241539001,-0.19060426950454712,-0.2906467914581299
1772642716972648000,6.67064794921875,0.043292783200740814,-0.4386335611343384,0.22167615592479706
1772642716982692900,6.68069287109375,-0.056107304990291595,-0.6602078080177307,0.5483394861221313
1772642716992739000,6.690739013671875,-0.1610696017742157,-0.7818282842636108,0.6612639427185059
1772642717002784000,6.700783935546875,-0.25255078077316284,-0.7354229688644409,0.6168237328529358
1772642717012829200,6.7108291015625,-0.29186752438545227,-0.5522502660751343,0.5124197602272034
1772642717022873900,6.720873779296875,-0.28871995210647583,-0.34426140785217285,0.4165326654911041
1772642717032919000,6.7309189453125,-0.2977997660636902,-0.15926259756088257,0.35021477937698364
1772642717042964000,6.7409638671875,-0.34742218255996704,0.007575662806630135,0.30472293496131897
1772642717053009200,6.751009033203125,-0.4146172106266022,0.11507460474967957,0.2710915505886078
1772642717063055000,6.76105517578125,-0.458751380443573,0.14507219195365906,0.2682321071624756
1772642717073099800,6.771099853515625,-0.48651522397994995,0.023306652903556824,0.3143234848976135
1772642717083145000,6.78114501953125,-0.5136837363243103,-0.2116193175315857,0.41367191076278687
1772642717093190000,6.79118994140625,-0.5339324474334717,-0.44801777601242065,0.5406577587127686
1772642717103235000,6.801235107421875,-0.5252686142921448,-0.6468704342842102,0.6560570597648621
1772642717113280000,6.811280029296875,-0.4873586893081665,-0.7714105844497681,0.7180332541465759
1772642717123326000,6.821325927734375,-0.43166106939315796,-0.8150907158851624,0.6918581128120422
1772642717133371000,6.831370849609375,-0.3552943170070648,-0.773205041885376,0.5468858480453491
1772642717143415800,6.841415771484375,-0.24752207100391388,-0.6515204310417175,0.2867334187030792
1772642717153460700,6.851460693359375,-0.1026148721575737,-0.49839138984680176,-0.019463282078504562
1772642717163506000,6.861505859375,0.06483883410692215,-0.3762334883213043,-0.2903613746166229
1772642717173550600,6.871550537109375,0.23183849453926086,-0.3306390345096588,-0.4738267958164215
1772642717183595800,6.881595703125,0.36361250281333923,-0.37982550263404846,-0.5642874240875244
1772642717193641700,6.891641845703125,0.42865708470344543,-0.42959851026535034,-0.5895001292228699
1772642717203686700,6.901686767578125,0.43348032236099243,-0.4207642674446106,-0.5841602087020874
1772642717213731800,6.91173193359375,0.39929071068763733,-0.3640166223049164,-0.5668838620185852
1772642717223776800,6.92177685546875,0.35015058517456055,-0.29280105233192444,-0.5603106021881104
1772642717233821700,6.93182177734375,0.3241182863712311,-0.27132847905158997,-0.561295211315155
1772642717243866600,6.94186669921875,0.27127769589424133,-0.2488119751214981,-0.5427476167678833
1772642717253912600,6.95191259765625,0.2111985832452774,-0.2265118807554245,-0.4822228252887726
1772642717263957800,6.961957763671875,0.15234805643558502,-0.16946963965892792,-0.37617227435112
1772642717274002700,6.972002685546875,0.10640604048967361,-0.06588195264339447,-0.23391476273536682
1772642717284047600,6.982047607421875,0.07501509040594101,0.06870009005069733,-0.053666695952415466
1772642717294092500,6.992092529296875,0.06714098155498505,0.23395143449306488,0.1753692477941513
1772642717304137700,7.0021376953125,0.08702573925256729,0.43630534410476685,0.4481927752494812
1772642717314182700,7.0121826171875,0.13137556612491608,0.6268660426139832,0.7417290210723877
1772642717324228900,7.022228759765625,0.1785569190979004,0.7385686039924622,1.0011310577392578
1772642717334273800,7.032273681640625,0.21372513473033905,0.7403998970985413,1.19119131565094
1772642717344318700,7.042318603515625,0.213394895195961,0.6250751614570618,1.292500376701355
1772642717354363600,7.05236376953125,0.15823325514793396,0.4164772629737854,1.2611324787139893
1772642717364408800,7.062408935546875,0.0582515150308609,0.186191588640213,1.0943644046783447
1772642717374453800,7.072453857421875,-0.059680841863155365,-0.007980872876942158,0.81239253282547
1772642717384499700,7.082499755859375,-0.16845925152301788,-0.0676756277680397,0.4718075096607208
1772642717394544600,7.092544677734375,-0.2408321499824524,0.011631498113274574,0.12551532685756683
1772642717404589600,7.102589599609375,-0.24444793164730072,0.20310825109481812,-0.15642154216766357
1772642717414634800,7.112634765625,-0.19096113741397858,0.4889424741268158,-0.32550930976867676
1772642717424679700,7.1226796875,-0.13139528036117554,0.7974661588668823,-0.38482776284217834
1772642717434724900,7.132724853515625,-0.08916380256414413,1.0337947607040405,-0.35386964678764343
1772642717444769500,7.14276953125,-0.07095444202423096,1.159713625907898,-0.22380352020263672
1772642717454815700,7.152815673828125,-0.0341123566031456,1.1594468355178833,0.02599668875336647
1772642717464860700,7.162860595703125,0.0506637841463089,0.9885162711143494,0.3723224103450775
1772642717474905900,7.17290576171875,0.18252545595169067,0.6635246872901917,0.7147605419158936
1772642717484950800,7.18295068359375,0.31337401270866394,0.2871430516242981,0.95719313621521
1772642717494995700,7.19299560546875,0.3869456350803375,0.08961911499500275,1.0534069538116455
1772642717505040600,7.20304052734375,0.41842979192733765,0.1396479308605194,1.0519737005233765
1772642717515086600,7.213086669921875,0.44085192680358887,0.22189301252365112,1.035019040107727
1772642717525131800,7.2231318359375,0.34797367453575134,0.18727858364582062,0.9432051181793213
1772642717535176700,7.2331767578125,0.16595010459423065,0.11967006325721741,0.8007004857063293
1772642717545222000,7.243221923828125,-0.06569591909646988,0.19113147258758545,0.596372127532959
1772642717555266600,7.2532666015625,-0.20062245428562164,0.286998450756073,0.38697147369384766
1772642717565311700,7.263311767578125,-0.22446812689304352,0.23683756589889526,0.12521018087863922
1772642717575356700,7.273356689453125,-0.21668994426727295,-0.06403391808271408,-0.32486456632614136
1772642717585402600,7.283402587890625,-0.20836995542049408,-0.5387408137321472,-0.8904089331626892
1772642717595447800,7.29344775390625,-0.1885467767715454,-0.7077155709266663,-1.3416410684585571
1772642717605492700,7.30349267578125,-0.15660350024700165,-0.5297977924346924,-1.5952988862991333
1772642717615537700,7.31353759765625,-0.11248540878295898,-0.2992043197154999,-1.6649717092514038
1772642717625582600,7.32358251953125,-0.05165693908929825,-0.16643773019313812,-1.5922298431396484
1772642717635627800,7.333627685546875,0.06462159752845764,-0.07629910111427307,-1.3670884370803833
1772642717645673700,7.343673828125,0.2152622491121292,0.04416606202721596,-0.9977099299430847
1772642717655719000,7.353718994140625,0.3007971942424774,0.12506701052188873,-0.631875216960907
1772642717665763600,7.363763671875,0.33941009640693665,-0.003650484373793006,-0.36039894819259644
1772642717675808800,7.373808837890625,0.3816157579421997,-0.23433931171894073,-0.1512639820575714
1772642717685853700,7.383853759765625,0.39471104741096497,-0.4063957631587982,0.001043801661580801
1772642717695899000,7.39389892578125,0.3420441448688507,-0.48453062772750854,0.07510565966367722
1772642717705943800,7.40394384765625,0.20815451443195343,-0.455096036195755,0.07824872434139252
1772642717715989800,7.41398974609375,0.010375927202403545,-0.2756812572479248,0.048275966197252274
1772642717726034700,7.42403466796875,-0.19054679572582245,0.043319087475538254,0.03839723765850067
1772642717736079600,7.43407958984375,-0.3406231105327606,0.33704686164855957,0.05562463775277138
1772642717746124800,7.444124755859375,-0.431563138961792,0.49782535433769226,0.07399486005306244
1772642717756169700,7.454169677734375,-0.4699629247188568,0.5228862166404724,0.08317055553197861
1772642717766214700,7.464214599609375,-0.4632112681865692,0.4339675307273865,0.09923287481069565
1772642717776259600,7.474259521484375,-0.4280362129211426,0.2882669270038605,0.116564080119133
1772642717786305800,7.484305908203125,-0.3870035409927368,0.13097958266735077,0.12323663383722305
1772642717796350700,7.494350830078125,-0.3219532072544098,-0.02048574388027191,0.11645740270614624
1772642717806395600,7.504395751953125,-0.23102064430713654,-0.11422688513994217,0.09182263165712357
1772642717816440800,7.51444091796875,-0.14012733101844788,-0.12826640903949738,0.07460084557533264
1772642717826485800,7.52448583984375,-0.07343032211065292,-0.10489344596862793,0.07287777960300446
1772642717836530700,7.53453076171875,-0.03744162991642952,-0.0730043277144432,0.09699966013431549
1772642717846576600,7.54457666015625,-0.009111190214753151,-0.05455261841416359,0.15996664762496948
1772642717856621800,7.554621826171875,0.02314630337059498,-0.05975375324487686,0.2456236183643341
1772642717866666800,7.564666748046875,0.06547911465167999,-0.05735291540622711,0.33619824051856995
1772642717876711700,7.574711669921875,0.10784430056810379,-0.014824239537119865,0.4253612160682678
1772642717886756600,7.584756591796875,0.14768998324871063,0.05620573088526726,0.5181076526641846
1772642717896801800,7.5948017578125,0.18837882578372955,0.13663426041603088,0.6113947629928589
1772642717906846700,7.6048466796875,0.20988571643829346,0.1496400684118271,0.7113453149795532
1772642717916892700,7.614892578125,0.20634178817272186,0.03830282762646675,0.7534257769584656
1772642717926937900,7.624937744140625,0.19142195582389832,-0.03622600436210632,0.7549176812171936
1772642717936982500,7.634982421875,0.1887536495923996,-0.05107106640934944,0.7061127424240112
1772642717947027700,7.64502783203125,0.18756242096424103,0.0165263544768095,0.5835404396057129
1772642717957072600,7.65507275390625,0.18829095363616943,0.1580192595720291,0.42713937163352966
1772642717967117800,7.665117919921875,0.18013502657413483,0.2619651257991791,0.23012934625148773
1772642717977162500,7.67516259765625,0.16433069109916687,0.3212101459503174,0.03293289244174957
1772642717987208700,7.685208740234375,0.1405680924654007,0.32864758372306824,-0.1322864145040512
1772642717997253600,7.695253662109375,0.11597758531570435,0.2942938208580017,-0.22482658922672272
1772642718007298800,7.705298828125,0.1252768188714981,0.2281145453453064,-0.23277266323566437
