time,seconds_elapsed,z,y,x
1772639667399198700,0.04819873046875,-0.9734649658203125,-0.0408172607421875,0.0543670654296875
1772639667409244000,0.058243896484375,-0.9783935546875,-0.040191650390625,0.0556640625
1772639667419288600,0.06828857421875,-0.98724365234375,-0.039276123046875,0.054229736328125
1772639667429333800,0.078333740234375,-1.000213623046875,-0.0352783203125,0.04986572265625
1772639667439378700,0.088378662109375,-1.0051422119140625,-0.0322418212890625,0.047698974609375
1772639667449424000,0.098423828125,-1.0025634765625,-0.0328826904296875,0.0470428466796875
1772639667459468800,0.10846875,-0.999908447265625,-0.0343170166015625,0.050537109375
1772639667469513700,0.118513671875,-0.9974212646484375,-0.0364532470703125,0.0518646240234375
1772639667479558700,0.12855859375,-0.9915618896484375,-0.037139892578125,0.0547943115234375
1772639667489603800,0.138603759765625,-0.979827880859375,-0.0346832275390625,0.0533599853515625
1772639667499648800,0.148648681640625,-0.9713897705078125,-0.0338287353515625,0.0496826171875
1772639667509693700,0.158693603515625,-0.97113037109375,-0.03546142578125,0.0482177734375
1772639667519738600,0.168738525390625,-0.974853515625,-0.0315093994140625,0.0429229736328125
1772639667529783800,0.17878369140625,-0.9790191650390625,-0.032989501953125,0.03826904296875
1772639667539827700,0.18882763671875,-0.981658935546875,-0.0358734130859375,0.0364837646484375
1772639667549872600,0.19887255859375,-0.985015869140625,-0.0391693115234375,0.0343170166015625
1772639667559917600,0.20891748046875,-0.986785888671875,-0.0436248779296875,0.0314788818359375
1772639667569962800,0.218962646484375,-0.9852142333984375,-0.0469818115234375,0.028594970703125
1772639667580007700,0.229007568359375,-0.9804229736328125,-0.0492706298828125,0.0278778076171875
1772639667590052900,0.239052978515625,-0.9803009033203125,-0.0521087646484375,0.026611328125
1772639667600097500,0.24909765625,-0.9814453125,-0.0523529052734375,0.0280914306640625
1772639667610142700,0.259142822265625,-0.9833221435546875,-0.051025390625,0.03009033203125
1772639667620187600,0.269187744140625,-0.9816436767578125,-0.0514068603515625,0.035400390625
1772639667630232800,0.27923291015625,-0.985107421875,-0.0518646240234375,0.03656005859375
1772639667640277500,0.289277587890625,-0.9859161376953125,-0.0491943359375,0.0376739501953125
1772639667650322700,0.29932275390625,-0.987548828125,-0.048858642578125,0.041473388671875
1772639667660367600,0.30936767578125,-0.9901885986328125,-0.051300048828125,0.0431060791015625
1772639667670412800,0.319412841796875,-0.992156982421875,-0.0496673583984375,0.0388336181640625
1772639667680457700,0.329457763671875,-0.9963226318359375,-0.04840087890625,0.0410003662109375
1772639667690502700,0.339502685546875,-0.9982757568359375,-0.04833984375,0.043670654296875
1772639667700547600,0.349547607421875,-0.998809814453125,-0.045806884765625,0.0465087890625
1772639667710592800,0.3595927734375,-0.9968719482421875,-0.0435028076171875,0.0511932373046875
1772639667720637700,0.3696376953125,-0.9928131103515625,-0.041961669921875,0.05157470703125
1772639667730683000,0.379682861328125,-0.9900970458984375,-0.0398101806640625,0.051849365234375
1772639667740727600,0.3897275390625,-0.990875244140625,-0.037567138671875,0.052337646484375
1772639667750772700,0.399772705078125,-0.9919891357421875,-0.034423828125,0.0512237548828125
1772639667760817700,0.409817626953125,-0.9911346435546875,-0.0308380126953125,0.0515899658203125
1772639667770862800,0.41986279296875,-0.99420166015625,-0.026580810546875,0.0483551025390625
1772639667780907500,0.429907470703125,-1.00018310546875,-0.0251312255859375,0.046417236328125
1772639667790952700,0.43995263671875,-1.0086212158203125,-0.0240478515625,0.0462188720703125
1772639667800997600,0.44999755859375,-1.01116943359375,-0.02203369140625,0.04449462890625
1772639667811042800,0.460042724609375,-1.0110931396484375,-0.02197265625,0.0371856689453125
1772639667821087700,0.470087646484375,-1.0081024169921875,-0.0227203369140625,0.03314208984375
1772639667831132700,0.480132568359375,-1.0058441162109375,-0.022735595703125,0.03192138671875
1772639667841177600,0.490177490234375,-1.0066375732421875,-0.026031494140625,0.032379150390625
1772639667851222800,0.500222900390625,-1.0045928955078125,-0.02783203125,0.03643798828125
1772639667861267700,0.510267822265625,-1.004486083984375,-0.0262298583984375,0.0364837646484375
1772639667871312600,0.520312744140625,-1.0048980712890625,-0.0248870849609375,0.0347442626953125
1772639667881356800,0.530356689453125,-1.0046234130859375,-0.026580810546875,0.0274810791015625
1772639667891401700,0.540401611328125,-1.002685546875,-0.0311737060546875,0.0185394287109375
1772639667901447000,0.550447021484375,-1.0030975341796875,-0.034332275390625,0.010345458984375
1772639667911491600,0.56049169921875,-1.001251220703125,-0.0347442626953125,0.004119873046875
1772639667921536800,0.570536865234375,-1.0016632080078125,-0.038116455078125,0.00518798828125
1772639667931581700,0.580581787109375,-0.998504638671875,-0.0423736572265625,0.0089263916015625
1772639667941627000,0.590626953125,-0.98602294921875,-0.04315185546875,0.0122528076171875
1772639667951671800,0.600671875,-0.9775390625,-0.045074462890625,0.01470947265625
1772639667961716700,0.610716796875,-0.9710235595703125,-0.0458831787109375,0.0141754150390625
1772639667971761700,0.62076171875,-0.9637298583984375,-0.0456695556640625,0.011016845703125
1772639667981806800,0.630806884765625,-0.9594573974609375,-0.04730224609375,0.0082244873046875
1772639667991851800,0.640851806640625,-0.9558868408203125,-0.0459747314453125,0.0064544677734375
1772639668001896700,0.650896728515625,-0.952301025390625,-0.0430755615234375,0.0059814453125
1772639668011941600,0.660941650390625,-0.955780029296875,-0.0420074462890625,0.0086822509765625
1772639668021986800,0.67098681640625,-0.967498779296875,-0.039215087890625,0.013275146484375
1772639668032031700,0.68103173828125,-0.97576904296875,-0.0350341796875,0.0131683349609375
1772639668042077000,0.691076904296875,-0.979095458984375,-0.0326690673828125,0.0156707763671875
1772639668052121600,0.70112158203125,-0.9809722900390625,-0.0313568115234375,0.0151214599609375
1772639668062166800,0.711166748046875,-0.9834442138671875,-0.031341552734375,0.0192413330078125
1772639668072211700,0.721211669921875,-0.9854736328125,-0.0285186767578125,0.023590087890625
1772639668082257000,0.7312568359375,-0.9878387451171875,-0.027862548828125,0.0267486572265625
1772639668092301800,0.7413017578125,-0.992523193359375,-0.026336669921875,0.0313873291015625
1772639668102346800,0.7513466796875,-0.9954986572265625,-0.0270843505859375,0.0325469970703125
1772639668112391700,0.7613916015625,-0.9988861083984375,-0.029571533203125,0.032928466796875
1772639668122436900,0.771436767578125,-1.0027313232421875,-0.03125,0.0332489013671875
1772639668132481800,0.781481689453125,-1.001220703125,-0.0312347412109375,0.033111572265625
1772639668142526700,0.791526611328125,-1.0018768310546875,-0.03240966796875,0.032867431640625
1772639668152571600,0.801571533203125,-1.003875732421875,-0.03326416015625,0.0325469970703125
1772639668162616800,0.811616943359375,-1.0014190673828125,-0.034637451171875,0.0308074951171875
1772639668172661800,0.821661865234375,-0.9992828369140625,-0.03570556640625,0.026702880859375
1772639668182707000,0.83170703125,-0.9949798583984375,-0.0384979248046875,0.0228729248046875
1772639668192751600,0.841751708984375,-0.9934234619140625,-0.0417327880859375,0.018218994140625
1772639668202796800,0.851796875,-0.99114990234375,-0.042816162109375,0.011962890625
1772639668212841700,0.861841796875,-0.989013671875,-0.042755126953125,0.00909423828125
1772639668222887000,0.871886962890625,-0.9894256591796875,-0.0447845458984375,0.0075225830078125
1772639668232931600,0.881931640625,-0.990966796875,-0.0458984375,0.0084381103515625
1772639668242976800,0.891976806640625,-0.9917449951171875,-0.04425048828125,0.0118865966796875
1772639668253021700,0.902021728515625,-0.9975433349609375,-0.0416412353515625,0.0132598876953125
1772639668263067000,0.91206689453125,-0.998260498046875,-0.0383453369140625,0.014434814453125
1772639668273110500,0.922110595703125,-0.9973297119140625,-0.0390167236328125,0.0150146484375
1772639668283155700,0.93215576171875,-0.995208740234375,-0.0355987548828125,0.01361083984375
1772639668293200600,0.94220068359375,-0.9940338134765625,-0.0343780517578125,0.0115814208984375
1772639668303245800,0.952245849609375,-0.9954681396484375,-0.03399658203125,0.011749267578125
1772639668313290500,0.96229052734375,-0.9959716796875,-0.0324249267578125,0.0128021240234375
1772639668323335700,0.972335693359375,-0.99761962890625,-0.029693603515625,0.0141448974609375
1772639668333380600,0.982380615234375,-0.996490478515625,-0.030670166015625,0.0165557861328125
1772639668343425800,0.99242578125,-0.9974365234375,-0.030242919921875,0.01495361328125
1772639668353470700,1.002470703125,-0.9969024658203125,-0.0278167724609375,0.015777587890625
1772639668363515600,1.012515625,-0.995269775390625,-0.02801513671875,0.017303466796875
1772639668373560600,1.022560546875,-0.987518310546875,-0.03082275390625,0.0189056396484375
1772639668383605800,1.032605712890625,-0.9801788330078125,-0.03314208984375,0.0195465087890625
1772639668393650700,1.042650634765625,-0.97320556640625,-0.0340423583984375,0.019439697265625
1772639668403695600,1.052695556640625,-0.9684600830078125,-0.03338623046875,0.0181884765625
1772639668413740500,1.062740478515625,-0.9693145751953125,-0.034454345703125,0.0207366943359375
1772639668423785700,1.07278564453125,-0.976470947265625,-0.0327606201171875,0.024139404296875
1772639668433830700,1.08283056640625,-0.9831695556640625,-0.0322418212890625,0.02606201171875
1772639668443875800,1.092875732421875,-0.9861602783203125,-0.031494140625,0.02874755859375
1772639668453920500,1.10292041015625,-0.986572265625,-0.032928466796875,0.0292816162109375
1772639668463965700,1.112965576171875,-0.9852142333984375,-0.0345306396484375,0.0288543701171875
1772639668474010600,1.1230107421875,-0.9885711669921875,-0.0351715087890625,0.028167724609375
1772639668484055800,1.133055908203125,-0.9953460693359375,-0.0370330810546875,0.0280609130859375
1772639668494100500,1.1431005859375,-1.0021514892578125,-0.0342864990234375,0.0303955078125
1772639668504145700,1.153145751953125,-1.014007568359375,-0.0288238525390625,0.0311126708984375
1772639668514190600,1.163190673828125,-1.025787353515625,-0.026336669921875,0.0316619873046875
1772639668524235800,1.17323583984375,-1.03692626953125,-0.0261688232421875,0.0323638916015625
1772639668534280700,1.18328076171875,-1.0378265380859375,-0.024261474609375,0.033355712890625
1772639668544325600,1.19332568359375,-1.027740478515625,-0.0276336669921875,0.03369140625
1772639668554370600,1.20337060546875,-1.014068603515625,-0.0330810546875,0.0336761474609375
1772639668564415700,1.213415771484375,-0.999755859375,-0.0359649658203125,0.0370941162109375
1772639668574460700,1.223460693359375,-0.9894256591796875,-0.0365753173828125,0.0345306396484375
1772639668584505900,1.233505859375,-0.9816436767578125,-0.0389251708984375,0.0314178466796875
1772639668594550500,1.243550537109375,-0.96881103515625,-0.0426025390625,0.028350830078125
1772639668604595700,1.253595703125,-0.9624481201171875,-0.0429840087890625,0.029571533203125
1772639668614640600,1.263640625,-0.962371826171875,-0.0432586669921875,0.03253173828125
1772639668624685800,1.273685791015625,-0.9600372314453125,-0.04296875,0.0355377197265625
1772639668634730500,1.28373046875,-0.961029052734375,-0.042022705078125,0.0379638671875
1772639668644775700,1.293775634765625,-0.9632415771484375,-0.0387725830078125,0.0381317138671875
1772639668654820600,1.303820556640625,-0.966156005859375,-0.0365142822265625,0.0375213623046875
1772639668664865800,1.31386572265625,-0.9679718017578125,-0.037200927734375,0.0378265380859375
1772639668674910700,1.32391064453125,-0.9679412841796875,-0.0346527099609375,0.03472900390625
1772639668684955600,1.33395556640625,-0.970062255859375,-0.0305633544921875,0.0337066650390625
1772639668695000600,1.34400048828125,-0.974853515625,-0.029754638671875,0.03363037109375
1772639668705045800,1.354045654296875,-0.9800872802734375,-0.0278167724609375,0.0319366455078125
1772639668715090700,1.364090576171875,-0.9857635498046875,-0.0250396728515625,0.0329437255859375
1772639668725136000,1.374135986328125,-0.990753173828125,-0.0240020751953125,0.035491943359375
1772639668735180500,1.3841806640625,-0.9913787841796875,-0.025634765625,0.035614013671875
1772639668745225700,1.394225830078125,-0.9953460693359375,-0.0255126953125,0.033355712890625
1772639668755270700,1.404270751953125,-1,-0.0249176025390625,0.0326385498046875
1772639668765315800,1.41431591796875,-0.9983673095703125,-0.0240325927734375,0.033203125
1772639668775359700,1.42435986328125,-0.993560791015625,-0.0283050537109375,0.0356903076171875
1772639668785405700,1.43440576171875,-0.987274169921875,-0.032562255859375,0.034881591796875
1772639668795449900,1.444449951171875,-0.9813079833984375,-0.0360107421875,0.031982421875
1772639668805494800,1.454494873046875,-0.97705078125,-0.038818359375,0.0280303955078125
1772639668815539700,1.464539794921875,-0.97222900390625,-0.037933349609375,0.025299072265625
1772639668825584600,1.474584716796875,-0.9729156494140625,-0.037933349609375,0.02398681640625
1772639668835629800,1.4846298828125,-0.980621337890625,-0.036224365234375,0.0228118896484375
1772639668845674800,1.4946748046875,-0.9924774169921875,-0.0345611572265625,0.0219573974609375
1772639668855719700,1.5047197265625,-1.0009918212890625,-0.035614013671875,0.023162841796875
1772639668865764600,1.5147646484375,-1.0054168701171875,-0.036285400390625,0.0253448486328125
1772639668875809800,1.524809814453125,-1.007781982421875,-0.037506103515625,0.0278778076171875
1772639668885854700,1.534854736328125,-1.00677490234375,-0.03814697265625,0.028167724609375
1772639668895899600,1.544899658203125,-1.0027008056640625,-0.0359039306640625,0.0303497314453125
1772639668905944600,1.554944580078125,-1.00152587890625,-0.034942626953125,0.0297088623046875
1772639668915989800,1.56498974609375,-1.0017242431640625,-0.0363311767578125,0.02886962890625
1772639668926034700,1.57503466796875,-1.0010833740234375,-0.0347137451171875,0.0263824462890625
1772639668936079600,1.58507958984375,-0.998931884765625,-0.033660888671875,0.0264892578125
1772639668946124800,1.595124755859375,-0.99517822265625,-0.034149169921875,0.027191162109375
1772639668956169700,1.605169677734375,-0.99139404296875,-0.033355712890625,0.0268096923828125
1772639668966214700,1.615214599609375,-0.9878387451171875,-0.0342864990234375,0.023040771484375
1772639668976259600,1.625259521484375,-0.9891357421875,-0.0349578857421875,0.018707275390625
1772639668986304800,1.6353046875,-0.99090576171875,-0.0334930419921875,0.015472412109375
1772639668996349700,1.645349609375,-0.9908599853515625,-0.0320892333984375,0.014923095703125
1772639669006394600,1.65539453125,-0.9910430908203125,-0.031158447265625,0.0171661376953125
1772639669016439600,1.665439453125,-0.9903411865234375,-0.0304412841796875,0.0186309814453125
1772639669026484700,1.675484619140625,-0.9872283935546875,-0.0306549072265625,0.0153350830078125
1772639669036529700,1.68552978515625,-0.9846649169921875,-0.028717041015625,0.0107879638671875
1772639669046574600,1.69557470703125,-0.9795684814453125,-0.0264892578125,0.0094757080078125
1772639669056619500,1.70561962890625,-0.9764862060546875,-0.0262451171875,0.011016845703125
1772639669066664700,1.715664794921875,-0.974822998046875,-0.02484130859375,0.013458251953125
1772639669076709600,1.725709716796875,-0.9753875732421875,-0.024688720703125,0.016357421875
1772639669086754800,1.7357548828125,-0.973663330078125,-0.02471923828125,0.0146331787109375
1772639669096799500,1.745799560546875,-0.97625732421875,-0.0237884521484375,0.013275146484375
1772639669106844700,1.7558447265625,-0.9788970947265625,-0.022308349609375,0.0169219970703125
1772639669116889600,1.7658896484375,-0.985687255859375,-0.019012451171875,0.0203399658203125
1772639669126934800,1.775934814453125,-0.990020751953125,-0.021087646484375,0.020263671875
1772639669136979500,1.7859794921875,-0.994598388671875,-0.02264404296875,0.021392822265625
1772639669147024600,1.796024658203125,-0.9979400634765625,-0.0225067138671875,0.0242462158203125
1772639669157069600,1.806069580078125,-0.9952850341796875,-0.024871826171875,0.0264892578125
1772639669167114800,1.81611474609375,-0.9935455322265625,-0.0265045166015625,0.0255584716796875
1772639669177159700,1.82615966796875,-0.9918212890625,-0.0264434814453125,0.0255584716796875
1772639669187204600,1.83620458984375,-0.991424560546875,-0.02740478515625,0.02398681640625
1772639669197249500,1.84624951171875,-0.9909210205078125,-0.029632568359375,0.0252532958984375
1772639669207295000,1.856294921875,-0.9932861328125,-0.030364990234375,0.029144287109375
1772639669217340000,1.86633984375,-1.000213623046875,-0.0318145751953125,0.03228759765625
1772639669227385000,1.876385009765625,-1.0009765625,-0.032623291015625,0.029296875
1772639669237429800,1.8864296875,-0.9970550537109375,-0.033782958984375,0.026458740234375
1772639669247475000,1.896474853515625,-0.9968719482421875,-0.0343170166015625,0.02630615234375
1772639669257519900,1.906519775390625,-0.9971160888671875,-0.0352325439453125,0.028045654296875
1772639669267565000,1.91656494140625,-0.993255615234375,-0.03448486328125,0.0293426513671875
1772639669277609700,1.926609619140625,-0.99163818359375,-0.0327301025390625,0.030426025390625
1772639669287655000,1.936655029296875,-0.99029541015625,-0.030975341796875,0.0347137451171875
1772639669297699800,1.946699951171875,-0.9919586181640625,-0.029144287109375,0.036407470703125
1772639669307745000,1.9567451171875,-0.996826171875,-0.025421142578125,0.0346527099609375
1772639669317790000,1.9667900390625,-1.0027923583984375,-0.023345947265625,0.0300140380859375
1772639669327835000,1.9768349609375,-1.00323486328125,-0.02105712890625,0.0311126708984375
1772639669337879800,1.9868798828125,-1.0052032470703125,-0.0201873779296875,0.0314483642578125
1772639669347925000,1.996925048828125,-1.002777099609375,-0.020904541015625,0.03277587890625
1772639669357970000,2.006969970703125,-0.9990997314453125,-0.018951416015625,0.0356903076171875
1772639669368015000,2.01701513671875,-0.996337890625,-0.0201873779296875,0.0337066650390625
1772639669378059800,2.027059814453125,-0.9933319091796875,-0.0203857421875,0.0313262939453125
1772639669388105000,2.03710498046875,-0.9867095947265625,-0.02130126953125,0.0332183837890625
1772639669398150000,2.04714990234375,-0.980438232421875,-0.0214691162109375,0.0352630615234375
1772639669408195000,2.057195068359375,-0.977203369140625,-0.022552490234375,0.0368499755859375
1772639669418239700,2.06723974609375,-0.976654052734375,-0.022857666015625,0.033355712890625
1772639669428285000,2.077284912109375,-0.973876953125,-0.0242462158203125,0.0281982421875
1772639669438329900,2.087329833984375,-0.9754791259765625,-0.0234375,0.0255279541015625
1772639669448375000,2.097375,-0.9762420654296875,-0.0227508544921875,0.022308349609375
1772639669458420000,2.107419921875,-0.9747314453125,-0.0233612060546875,0.02288818359375
1772639669468465000,2.11746484375,-0.9779052734375,-0.024261474609375,0.0240478515625
1772639669478509800,2.127509765625,-0.9788055419921875,-0.0254058837890625,0.02374267578125
1772639669488555000,2.137554931640625,-0.9808197021484375,-0.0237884521484375,0.02142333984375
1772639669498600000,2.147599853515625,-0.9850311279296875,-0.0236053466796875,0.020294189453125
1772639669508645000,2.15764501953125,-0.9923248291015625,-0.023590087890625,0.0193939208984375
1772639669518689800,2.167689697265625,-0.996978759765625,-0.0227508544921875,0.0205535888671875
1772639669528735000,2.17773486328125,-1.0017242431640625,-0.021331787109375,0.02264404296875
1772639669538780000,2.18777978515625,-1.0068511962890625,-0.0207672119140625,0.0236968994140625
1772639669548825000,2.1978251953125,-1.0139312744140625,-0.019439697265625,0.0244140625
1772639669558869800,2.207869873046875,-1.0150909423828125,-0.021240234375,0.0250091552734375
1772639669568915000,2.2179150390625,-1.011260986328125,-0.02081298828125,0.02642822265625
1772639669578960000,2.2279599609375,-1.0051422119140625,-0.0213470458984375,0.0260162353515625
1772639669589005000,2.238005126953125,-0.995758056640625,-0.022979736328125,0.0274200439453125
1772639669599050000,2.248050048828125,-0.9873046875,-0.026031494140625,0.0265045166015625
1772639669609095000,2.258094970703125,-0.980712890625,-0.027130126953125,0.0261688232421875
1772639669619139800,2.268139892578125,-0.9784698486328125,-0.025726318359375,0.0259857177734375
1772639669629185000,2.27818505859375,-0.978973388671875,-0.026519775390625,0.024017333984375
1772639669639230000,2.28822998046875,-0.982452392578125,-0.02423095703125,0.0246734619140625
1772639669649275000,2.29827490234375,-0.9836273193359375,-0.025360107421875,0.0282745361328125
1772639669659319800,2.30831982421875,-0.984222412109375,-0.0247344970703125,0.031097412109375
1772639669669365000,2.318364990234375,-0.98419189453125,-0.0241851806640625,0.0309600830078125
1772639669679410000,2.328409912109375,-0.9847869873046875,-0.0211029052734375,0.031890869140625
1772639669689455000,2.338455078125,-0.98486328125,-0.0187225341796875,0.032470703125
1772639669699499800,2.348499755859375,-0.984222412109375,-0.0180816650390625,0.0313720703125
1772639669709545000,2.358544921875,-0.9842681884765625,-0.0184173583984375,0.0331573486328125
1772639669719590000,2.36858984375,-0.982452392578125,-0.0191802978515625,0.0307159423828125
1772639669729635000,2.378635009765625,-0.9839324951171875,-0.019317626953125,0.0277252197265625
1772639669739680000,2.388679931640625,-0.989349365234375,-0.0193328857421875,0.026123046875
1772639669749725000,2.398724853515625,-0.9933624267578125,-0.018524169921875,0.0228729248046875
1772639669759769900,2.408769775390625,-0.994964599609375,-0.019012451171875,0.0227508544921875
1772639669769815000,2.41881494140625,-0.99407958984375,-0.0219879150390625,0.022857666015625
1772639669779860000,2.42885986328125,-0.98846435546875,-0.0208282470703125,0.022674560546875
1772639669789905000,2.43890478515625,-0.9800262451171875,-0.02374267578125,0.0247802734375
1772639669799949800,2.44894970703125,-0.975128173828125,-0.027374267578125,0.024200439453125
1772639669809995000,2.4589951171875,-0.972900390625,-0.0254974365234375,0.022735595703125
1772639669820040000,2.4690400390625,-0.975250244140625,-0.0245361328125,0.0223236083984375
1772639669830085000,2.479085205078125,-0.98175048828125,-0.0254058837890625,0.0243377685546875
1772639669840129800,2.4891298828125,-0.9926300048828125,-0.023895263671875,0.025665283203125
1772639669850175000,2.499175048828125,-1.0027923583984375,-0.0226898193359375,0.0277557373046875
1772639669860220000,2.509219970703125,-1.0087127685546875,-0.0206146240234375,0.0294036865234375
1772639669870265000,2.51926513671875,-1.0106048583984375,-0.0202789306640625,0.030609130859375
1772639669880310000,2.52931005859375,-1.010772705078125,-0.020263671875,0.0308837890625
1772639669890355000,2.53935498046875,-1.0067291259765625,-0.021697998046875,0.0305938720703125
1772639669900399900,2.54939990234375,-1.0012054443359375,-0.0229949951171875,0.029541015625
1772639669910445000,2.559445068359375,-0.997161865234375,-0.022247314453125,0.0269927978515625
1772639669920490000,2.569489990234375,-0.992828369140625,-0.022552490234375,0.0265655517578125
1772639669930535000,2.579534912109375,-0.9954071044921875,-0.0233306884765625,0.0274658203125
1772639669940579800,2.589579833984375,-0.9955596923828125,-0.0233001708984375,0.029327392578125
1772639669950625000,2.599625,-0.9911956787109375,-0.0243988037109375,0.031005859375
1772639669960670000,2.609669921875,-0.9884796142578125,-0.023712158203125,0.032989501953125
1772639669970715100,2.619715087890625,-0.9861602783203125,-0.023773193359375,0.029876708984375
1772639669980759800,2.629759765625,-0.9813995361328125,-0.02459716796875,0.0286102294921875
1772639669990805000,2.639804931640625,-0.9822540283203125,-0.024322509765625,0.02685546875
1772639670000850000,2.649849853515625,-0.9840850830078125,-0.0245361328125,0.0265655517578125
1772639670010895000,2.65989501953125,-0.9838409423828125,-0.0236663818359375,0.02691650390625
1772639670020939800,2.669939697265625,-0.9859161376953125,-0.0234375,0.02667236328125
1772639670030985000,2.67998486328125,-0.9918670654296875,-0.0210113525390625,0.0264739990234375
1772639670041030000,2.69002978515625,-0.9930267333984375,-0.020050048828125,0.0263824462890625
1772639670051075000,2.700074951171875,-0.997589111328125,-0.0189971923828125,0.0244293212890625
1772639670061120000,2.7101201171875,-0.9991912841796875,-0.018402099609375,0.0223541259765625
1772639670071165000,2.7201650390625,-0.998779296875,-0.01824951171875,0.021026611328125
1772639670081209900,2.7302099609375,-0.9976806640625,-0.019561767578125,0.0208282470703125
1772639670091255000,2.740255126953125,-0.995269775390625,-0.020416259765625,0.0216522216796875
1772639670101300000,2.750300048828125,-0.9923858642578125,-0.0211181640625,0.0187225341796875
1772639670111345200,2.76034521484375,-0.9872589111328125,-0.02154541015625,0.018310546875
1772639670121389800,2.770389892578125,-0.9810333251953125,-0.02117919921875,0.0200653076171875
1772639670131435000,2.78043505859375,-0.9794464111328125,-0.0205841064453125,0.0203399658203125
1772639670141480000,2.79047998046875,-0.9790496826171875,-0.0213470458984375,0.0209197998046875
1772639670151525000,2.800525146484375,-0.983551025390625,-0.0221710205078125,0.0227508544921875
1772639670161569800,2.81056982421875,-0.9874420166015625,-0.023223876953125,0.0247039794921875
1772639670171615000,2.820614990234375,-0.987518310546875,-0.0226287841796875,0.0264892578125
1772639670181660000,2.830659912109375,-0.98681640625,-0.021148681640625,0.0250091552734375
1772639670191705000,2.840705078125,-0.9858551025390625,-0.02166748046875,0.02349853515625
1772639670201750500,2.85075048828125,-0.987884521484375,-0.022247314453125,0.0247344970703125
1772639670211795500,2.86079541015625,-0.985748291015625,-0.021820068359375,0.025543212890625
1772639670221840400,2.87084033203125,-0.986083984375,-0.0220794677734375,0.026123046875
1772639670231885300,2.88088525390625,-0.988677978515625,-0.0241241455078125,0.024566650390625
1772639670241930500,2.890930419921875,-0.9900054931640625,-0.0251312255859375,0.0211181640625
1772639670251975400,2.900975341796875,-0.990631103515625,-0.025054931640625,0.0203094482421875
1772639670262020600,2.9110205078125,-0.9903106689453125,-0.024749755859375,0.0205230712890625
1772639670272065300,2.921065185546875,-0.9900054931640625,-0.0253448486328125,0.021270751953125
1772639670282110500,2.9311103515625,-0.98846435546875,-0.0250396728515625,0.02435302734375
1772639670292155400,2.9411552734375,-0.98492431640625,-0.0254669189453125,0.0255889892578125
1772639670302200600,2.95120068359375,-0.980865478515625,-0.0224456787109375,0.024932861328125
1772639670312245200,2.961245361328125,-0.977874755859375,-0.021392822265625,0.02471923828125
1772639670322290400,2.97129052734375,-0.9759979248046875,-0.020416259765625,0.0271453857421875
1772639670332335400,2.98133544921875,-0.97674560546875,-0.0169677734375,0.030120849609375
1772639670342380500,2.991380615234375,-0.981109619140625,-0.015899658203125,0.032623291015625
1772639670352425500,3.001425537109375,-0.9873809814453125,-0.0137176513671875,0.0313873291015625
1772639670362470400,3.011470458984375,-0.9936065673828125,-0.0141754150390625,0.0311431884765625
1772639670372515300,3.021515380859375,-0.99725341796875,-0.0131378173828125,0.0305633544921875
1772639670382560500,3.031560546875,-0.9955291748046875,-0.01336669921875,0.0299530029296875
1772639670392605400,3.04160546875,-0.99365234375,-0.0150604248046875,0.0289459228515625
1772639670402650600,3.051650634765625,-0.98876953125,-0.0155792236328125,0.0236663818359375
1772639670412695300,3.0616953125,-0.989898681640625,-0.0146484375,0.0236663818359375
1772639670422740500,3.071740478515625,-0.99847412109375,-0.0171051025390625,0.033416748046875
1772639670432785400,3.081785400390625,-0.996185302734375,-0.0160675048828125,0.0316009521484375
1772639670442830600,3.09183056640625,-0.992919921875,-0.0138702392578125,0.027557373046875
1772639670452875300,3.101875244140625,-0.996185302734375,-0.0136566162109375,0.026092529296875
1772639670462920400,3.11192041015625,-0.9968109130859375,-0.015960693359375,0.0244903564453125
1772639670472965400,3.12196533203125,-0.9978179931640625,-0.0155487060546875,0.0261077880859375
1772639670483010600,3.132010498046875,-0.9956817626953125,-0.0150909423828125,0.026641845703125
1772639670493055500,3.142055419921875,-0.9986572265625,-0.0144805908203125,0.0277557373046875
1772639670503100400,3.152100341796875,-1.0039215087890625,-0.0163116455078125,0.026031494140625
1772639670513145300,3.162145263671875,-1.000518798828125,-0.017242431640625,0.025726318359375
1772639670523190500,3.1721904296875,-0.99896240234375,-0.0161590576171875,0.0258331298828125
1772639670533235500,3.1822353515625,-0.9969329833984375,-0.013427734375,0.0241241455078125
1772639670543280400,3.1922802734375,-0.9980010986328125,-0.0159759521484375,0.0208587646484375
1772639670553325300,3.2023251953125,-0.998504638671875,-0.015716552734375,0.021240234375
1772639670563370500,3.21237060546875,-0.9955596923828125,-0.0127410888671875,0.0236358642578125
1772639670573415400,3.22241552734375,-0.9954681396484375,-0.013580322265625,0.0262603759765625
1772639670583460600,3.232460693359375,-0.99371337890625,-0.012603759765625,0.0268707275390625
1772639670593505300,3.24250537109375,-0.9912872314453125,-0.0128936767578125,0.0267181396484375
1772639670603550500,3.252550537109375,-0.98602294921875,-0.015411376953125,0.0278472900390625
1772639670613595400,3.262595458984375,-0.981048583984375,-0.0155181884765625,0.0281219482421875
1772639670623640600,3.272640625,-0.9776153564453125,-0.01495361328125,0.027313232421875
1772639670633685500,3.282685546875,-0.9771575927734375,-0.0135040283203125,0.0257720947265625
1772639670643730400,3.29273046875,-0.97802734375,-0.013336181640625,0.026092529296875
1772639670653775400,3.302775390625,-0.98046875,-0.0146026611328125,0.0279998779296875
1772639670663820500,3.312820556640625,-0.9832916259765625,-0.015533447265625,0.0301513671875
1772639670673865500,3.322865478515625,-0.98883056640625,-0.0150604248046875,0.030517578125
1772639670683910400,3.332910400390625,-0.9912109375,-0.0136260986328125,0.028350830078125
1772639670693955300,3.342955322265625,-0.9947052001953125,-0.0141754150390625,0.0277099609375
1772639670704000500,3.35300048828125,-1.001190185546875,-0.0161895751953125,0.0350341796875
1772639670714045400,3.36304541015625,-1.0012664794921875,-0.0145111083984375,0.0351104736328125
1772639670724090600,3.373090576171875,-1.0014801025390625,-0.0149993896484375,0.02996826171875
1772639670734135300,3.38313525390625,-1.0022125244140625,-0.0146942138671875,0.0250244140625
1772639670744180500,3.393180419921875,-1.0005645751953125,-0.0165863037109375,0.0230712890625
1772639670754225400,3.403225341796875,-0.9959716796875,-0.0175628662109375,0.023223876953125
1772639670764270600,3.4132705078125,-0.9901275634765625,-0.01708984375,0.0228729248046875
1772639670774315500,3.4233154296875,-0.988616943359375,-0.0186614990234375,0.022674560546875
1772639670784360400,3.4333603515625,-0.98663330078125,-0.017730712890625,0.0225982666015625
1772639670794405400,3.4434052734375,-0.9876861572265625,-0.01910400390625,0.0236358642578125
1772639670804450600,3.453450439453125,-0.9912261962890625,-0.0168914794921875,0.026458740234375
1772639670814495500,3.46349560546875,-0.9944610595703125,-0.0141143798828125,0.0261383056640625
1772639670824540400,3.47354052734375,-0.9930267333984375,-0.0135040283203125,0.02337646484375
1772639670834585300,3.48358544921875,-0.9894866943359375,-0.0155792236328125,0.0232086181640625
1772639670844630500,3.493630615234375,-0.9851531982421875,-0.0161590576171875,0.021240234375
1772639670854675500,3.503675537109375,-0.9796905517578125,-0.016754150390625,0.0178375244140625
1772639670864720600,3.513720703125,-0.97406005859375,-0.0166168212890625,0.01568603515625
1772639670874765300,3.523765380859375,-0.9732666015625,-0.0182952880859375,0.0160980224609375
1772639670884810500,3.533810546875,-0.9749603271484375,-0.01959228515625,0.019439697265625
1772639670894855400,3.54385546875,-0.981536865234375,-0.017852783203125,0.0201873779296875
1772639670904900600,3.553900634765625,-0.98419189453125,-0.017364501953125,0.018707275390625
1772639670914946600,3.563946533203125,-0.985626220703125,-0.019012451171875,0.019775390625
1772639670924991500,3.573991455078125,-0.984771728515625,-0.019775390625,0.0185089111328125
1772639670935036400,3.584036376953125,-0.9864959716796875,-0.019073486328125,0.016448974609375
1772639670945081600,3.59408154296875,-0.9888153076171875,-0.018707275390625,0.0164337158203125
1772639670955126500,3.60412646484375,-0.990997314453125,-0.0168609619140625,0.0193634033203125
1772639670965171500,3.61417138671875,-0.9923095703125,-0.0150909423828125,0.0227813720703125
1772639670975216400,3.62421630859375,-0.99542236328125,-0.0186004638671875,0.0233306884765625
1772639670985261600,3.634261474609375,-0.9976959228515625,-0.0205841064453125,0.024810791015625
1772639670995306500,3.644306396484375,-0.99755859375,-0.0201873779296875,0.0249176025390625
1772639671005351400,3.654351318359375,-0.9940185546875,-0.019134521484375,0.023834228515625
1772639671015396600,3.664396728515625,-0.9911346435546875,-0.019561767578125,0.0217742919921875
1772639671025441500,3.674441650390625,-0.99322509765625,-0.02056884765625,0.020538330078125
1772639671035486500,3.684486572265625,-0.994537353515625,-0.0204620361328125,0.020843505859375
1772639671045531400,3.694531494140625,-0.9957122802734375,-0.0177001953125,0.0233001708984375
1772639671055576600,3.70457666015625,-1.00140380859375,-0.01715087890625,0.0230560302734375
1772639671065621500,3.71462158203125,-1.0063629150390625,-0.01678466796875,0.023406982421875
1772639671075666400,3.72466650390625,-1.0132293701171875,-0.017486572265625,0.02337646484375
1772639671085711400,3.73471142578125,-1.0133514404296875,-0.017242431640625,0.0247344970703125
1772639671095756500,3.744756591796875,-1.0077362060546875,-0.0186767578125,0.027099609375
1772639671105801500,3.754801513671875,-0.99725341796875,-0.021636962890625,0.0251617431640625
1772639671115846400,3.764846435546875,-0.9905242919921875,-0.0222015380859375,0.0243682861328125
1772639671125891300,3.774891357421875,-0.98291015625,-0.0216217041015625,0.0220947265625
1772639671135936500,3.7849365234375,-0.98114013671875,-0.0247955322265625,0.0208282470703125
1772639671145981400,3.7949814453125,-0.98138427734375,-0.0261383056640625,0.0214385986328125
1772639671156026400,3.8050263671875,-0.9835968017578125,-0.02557373046875,0.02532958984375
1772639671166071300,3.8150712890625,-0.983978271484375,-0.0258331298828125,0.025482177734375
1772639671176116500,3.825116455078125,-0.9875335693359375,-0.0222930908203125,0.024078369140625
1772639671186161400,3.835161376953125,-0.98846435546875,-0.0183868408203125,0.022735595703125
1772639671196206600,3.84520654296875,-0.9904022216796875,-0.0169525146484375,0.0230255126953125
1772639671206251000,3.8552509765625,-0.9940032958984375,-0.0176239013671875,0.0236358642578125
1772639671216296000,3.8652958984375,-1.0001220703125,-0.01397705078125,0.02362060546875
1772639671226341000,3.875341064453125,-1.0014190673828125,-0.0112457275390625,0.0210113525390625
1772639671236386000,3.885385986328125,-1.001861572265625,-0.0112762451171875,0.0196685791015625
1772639671246431000,3.895430908203125,-0.9979095458984375,-0.011871337890625,0.016265869140625
1772639671256476000,3.905475830078125,-0.991668701171875,-0.0121002197265625,0.0159912109375
1772639671266521000,3.91552099609375,-0.9859161376953125,-0.011962890625,0.0173492431640625
1772639671276566000,3.92556591796875,-0.98046875,-0.014190673828125,0.0178985595703125
1772639671286611200,3.935611083984375,-0.9777679443359375,-0.016387939453125,0.021728515625
1772639671296656000,3.94565576171875,-0.97857666015625,-0.0165252685546875,0.023651123046875
1772639671306701000,3.955701171875,-0.9787750244140625,-0.017181396484375,0.0229339599609375
1772639671316746000,3.96574609375,-0.9794769287109375,-0.0180816650390625,0.0220947265625
1772639671326791200,3.975791259765625,-0.9792938232421875,-0.0169677734375,0.02252197265625
1772639671336836000,3.985836181640625,-0.980682373046875,-0.0180511474609375,0.024444580078125
1772639671346881800,3.9958818359375,-0.9810943603515625,-0.02001953125,0.0276641845703125
1772639671356927000,4.005927001953125,-0.9781494140625,-0.021636962890625,0.03070068359375
1772639671366972000,4.015971923828125,-0.977783203125,-0.0214996337890625,0.0304107666015625
1772639671377017000,4.02601708984375,-0.9784393310546875,-0.0205535888671875,0.0299835205078125
1772639671387062000,4.03606201171875,-0.9847869873046875,-0.0203094482421875,0.0294342041015625
1772639671397107000,4.04610693359375,-0.9930572509765625,-0.02056884765625,0.0321502685546875
1772639671407151900,4.05615185546875,-0.996856689453125,-0.0183563232421875,0.0331573486328125
1772639671417197000,4.066197021484375,-0.9980010986328125,-0.0179443359375,0.0339508056640625
1772639671427242000,4.076241943359375,-0.9972381591796875,-0.01922607421875,0.0319671630859375
1772639671437287200,4.086287109375,-0.9949188232421875,-0.0202789306640625,0.0278472900390625
1772639671447331800,4.096331787109375,-0.99029541015625,-0.0200958251953125,0.0229339599609375
1772639671457377000,4.106376953125,-0.9901580810546875,-0.0218353271484375,0.0211334228515625
1772639671467422000,4.116421875,-0.9900360107421875,-0.0207366943359375,0.0200347900390625
1772639671477467100,4.126467041015625,-0.99127197265625,-0.0192718505859375,0.0211944580078125
1772639671487511800,4.13651171875,-0.9913787841796875,-0.020294189453125,0.0218505859375
1772639671497557000,4.146556884765625,-0.9925689697265625,-0.0193023681640625,0.0212554931640625
1772639671507602000,4.156601806640625,-0.9934234619140625,-0.0201568603515625,0.0202178955078125
1772639671517647000,4.166647216796875,-0.9934844970703125,-0.019989013671875,0.020111083984375
1772639671527692000,4.176692138671875,-0.9914703369140625,-0.0217742919921875,0.0206146240234375
1772639671537737000,4.186737060546875,-0.9899139404296875,-0.0219879150390625,0.0201416015625
1772639671547782000,4.196781982421875,-0.99102783203125,-0.021209716796875,0.0199432373046875
1772639671557827000,4.2068271484375,-0.99322509765625,-0.0196990966796875,0.0208587646484375
1772639671567872000,4.2168720703125,-0.9941253662109375,-0.0182037353515625,0.02142333984375
1772639671577917200,4.226917236328125,-0.9954986572265625,-0.018463134765625,0.0223388671875
1772639671587961900,4.2369619140625,-0.9954681396484375,-0.017303466796875,0.023468017578125
1772639671598007000,4.247007080078125,-0.99371337890625,-0.0188140869140625,0.0246429443359375
1772639671608052000,4.257052001953125,-0.990875244140625,-0.0194549560546875,0.02349853515625
1772639671618097200,4.26709716796875,-0.9864349365234375,-0.0190582275390625,0.022216796875
1772639671628141800,4.277141845703125,-0.9824676513671875,-0.019866943359375,0.02313232421875
1772639671638187000,4.28718701171875,-0.982025146484375,-0.021209716796875,0.0259246826171875
1772639671648232000,4.29723193359375,-0.9811859130859375,-0.021942138671875,0.0282135009765625
1772639671658277000,4.307277099609375,-0.9806671142578125,-0.0229644775390625,0.0301971435546875
1772639671668323000,4.317322998046875,-0.9837493896484375,-0.02178955078125,0.0296173095703125
1772639671678368000,4.327367919921875,-0.983306884765625,-0.0215911865234375,0.02996826171875
1772639671688413000,4.337412841796875,-0.984619140625,-0.0206298828125,0.0287322998046875
1772639671698457900,4.347457763671875,-0.986572265625,-0.0204315185546875,0.0266265869140625
1772639671708503000,4.3575029296875,-0.9877166748046875,-0.0211029052734375,0.02587890625
1772639671718548000,4.3675478515625,-0.9915924072265625,-0.0206756591796875,0.025115966796875
1772639671728593000,4.377593017578125,-0.9963226318359375,-0.01934814453125,0.0245819091796875
1772639671738637800,4.387637939453125,-1.000457763671875,-0.021392822265625,0.022491455078125
1772639671748683000,4.39768310546875,-1.0023956298828125,-0.0215301513671875,0.0211334228515625
1772639671758728000,4.40772802734375,-1.0053863525390625,-0.0217742919921875,0.0215606689453125
1772639671768773000,4.417773193359375,-1.0067901611328125,-0.023193359375,0.0203094482421875
1772639671778817800,4.42781787109375,-1.0033111572265625,-0.0243682861328125,0.019439697265625
1772639671788863000,4.437863037109375,-0.997222900390625,-0.0243988037109375,0.019927978515625
1772639671798908000,4.447907958984375,-0.991546630859375,-0.0239105224609375,0.018951416015625
1772639671808953000,4.457953125,-0.9876708984375,-0.0252227783203125,0.020538330078125
1772639671818998000,4.467998046875,-0.9825439453125,-0.0263519287109375,0.0218505859375
1772639671829043000,4.47804296875,-0.9767608642578125,-0.025787353515625,0.0206451416015625
1772639671839087900,4.488087890625,-0.976776123046875,-0.026123046875,0.019744873046875
1772639671849133000,4.498133056640625,-0.979583740234375,-0.0251617431640625,0.0177764892578125
1772639671859178000,4.508177978515625,-0.98382568359375,-0.0238189697265625,0.018035888671875
1772639671869223000,4.518222900390625,-0.98980712890625,-0.0231781005859375,0.0187835693359375
1772639671879267800,4.528267822265625,-0.99481201171875,-0.01971435546875,0.020263671875
1772639671889313000,4.53831298828125,-0.9973602294921875,-0.01947021484375,0.020172119140625
1772639671899358000,4.54835791015625,-0.9993896484375,-0.0173492431640625,0.019561767578125
1772639671909403100,4.558403076171875,-1.0002288818359375,-0.0191650390625,0.020751953125
1772639671919447800,4.56844775390625,-0.9973602294921875,-0.020294189453125,0.0211029052734375
1772639671929493000,4.578492919921875,-0.9955902099609375,-0.019805908203125,0.0223388671875
1772639671939539000,4.5885390625,-0.9901275634765625,-0.0221405029296875,0.0206451416015625
1772639671949584100,4.598584228515625,-0.9826812744140625,-0.0253143310546875,0.0208282470703125
1772639671959629000,4.608629150390625,-0.9799041748046875,-0.0269622802734375,0.0218658447265625
1772639671969674000,4.618674072265625,-0.9799957275390625,-0.0270538330078125,0.023681640625
1772639671979719000,4.628718994140625,-0.9790802001953125,-0.0263214111328125,0.024261474609375
1772639671989764000,4.63876416015625,-0.977996826171875,-0.0278472900390625,0.0244293212890625
1772639671999809000,4.64880908203125,-0.9776458740234375,-0.0269927978515625,0.0249786376953125
1772639672009854000,4.65885400390625,-0.9774322509765625,-0.0262298583984375,0.024322509765625
1772639672019899000,4.66889892578125,-0.9785308837890625,-0.0263519287109375,0.0243377685546875
1772639672029944000,4.678944091796875,-0.98406982421875,-0.0280303955078125,0.027313232421875
1772639672039989000,4.688989013671875,-0.989959716796875,-0.0299530029296875,0.030181884765625
1772639672050034000,4.699033935546875,-0.9935302734375,-0.030242919921875,0.031280517578125
1772639672060079000,4.7090791015625,-1.0009918212890625,-0.0279998779296875,0.0339202880859375
1772639672070124000,4.7191240234375,-1.00341796875,-0.025787353515625,0.0364532470703125
1772639672080169000,4.7291689453125,-1.0049285888671875,-0.0237884521484375,0.0369720458984375
1772639672090214000,4.7392138671875,-1.0023193359375,-0.0290374755859375,0.035125732421875
1772639672100259000,4.749259033203125,-0.9986114501953125,-0.028656005859375,0.0262298583984375
1772639672110304000,4.759303955078125,-0.994903564453125,-0.0247344970703125,0.0211639404296875
1772639672120349000,4.769348876953125,-0.9945068359375,-0.022491455078125,0.020294189453125
1772639672130393900,4.779393798828125,-0.9969329833984375,-0.0206756591796875,0.019866943359375
1772639672140439000,4.78943896484375,-0.9976043701171875,-0.0198822021484375,0.0137176513671875
1772639672150484000,4.79948388671875,-0.99993896484375,-0.019134521484375,0.009429931640625
1772639672160529000,4.80952880859375,-0.997314453125,-0.0191650390625,0.0140228271484375
1772639672170573800,4.81957373046875,-0.992919921875,-0.018218994140625,0.0182952880859375
1772639672180620000,4.8296201171875,-0.986053466796875,-0.018402099609375,0.0179290771484375
1772639672190665000,4.8396650390625,-0.980194091796875,-0.0192413330078125,0.016754150390625
1772639672200710100,4.849710205078125,-0.9776611328125,-0.0185089111328125,0.015899658203125
1772639672210754800,4.8597548828125,-0.9750823974609375,-0.018463134765625,0.01483154296875
1772639672220800000,4.869800048828125,-0.9749603271484375,-0.019561767578125,0.0140228271484375
1772639672230845000,4.879844970703125,-0.97332763671875,-0.0200653076171875,0.0169525146484375
1772639672240890000,4.88989013671875,-0.972137451171875,-0.0201568603515625,0.018035888671875
1772639672250934800,4.899934814453125,-0.9697418212890625,-0.0222320556640625,0.01763916015625
1772639672260980000,4.90997998046875,-0.971893310546875,-0.023651123046875,0.019134521484375
1772639672271025000,4.92002490234375,-0.9723663330078125,-0.023651123046875,0.02166748046875
1772639672281070000,4.930070068359375,-0.9754486083984375,-0.02398681640625,0.0231170654296875
1772639672291115000,4.940114990234375,-0.9772796630859375,-0.0254669189453125,0.0260009765625
1772639672301160000,4.950159912109375,-0.97918701171875,-0.02374267578125,0.027435302734375
1772639672311204900,4.960204833984375,-0.97528076171875,-0.0254669189453125,0.029052734375
1772639672321250000,4.97025,-0.97320556640625,-0.027679443359375,0.028656005859375
1772639672331295000,4.980294921875,-0.977996826171875,-0.02642822265625,0.0296630859375
1772639672341340000,4.99033984375,-0.9833526611328125,-0.022674560546875,0.02777099609375
1772639672351384800,5.000384765625,-0.9926605224609375,-0.0235595703125,0.0294647216796875
1772639672361430000,5.010429931640625,-1.00341796875,-0.023223876953125,0.0301513671875
1772639672371475000,5.020474853515625,-1.0098114013671875,-0.023284912109375,0.03106689453125
1772639672381520100,5.03052001953125,-1.01171875,-0.0224456787109375,0.0293731689453125
1772639672391564800,5.040564697265625,-1.0125274658203125,-0.0206451416015625,0.0265045166015625
1772639672401610800,5.05061083984375,-1.0115966796875,-0.0224151611328125,0.023712158203125
1772639672411656000,5.060656005859375,-1.0075225830078125,-0.023773193359375,0.0233612060546875
1772639672421700900,5.070700927734375,-1.0048370361328125,-0.0228271484375,0.0224456787109375
1772639672431746000,5.08074609375,-1.001800537109375,-0.0247650146484375,0.0232696533203125
1772639672441791000,5.090791015625,-0.9991912841796875,-0.0237274169921875,0.0242156982421875
1772639672451836000,5.1008359375,-0.995147705078125,-0.0237274169921875,0.0244140625
1772639672461880800,5.110880859375,-0.9948272705078125,-0.0260162353515625,0.0237579345703125
1772639672471926000,5.120926025390625,-0.9920654296875,-0.0269317626953125,0.024932861328125
1772639672481971000,5.130970947265625,-0.9899749755859375,-0.02630615234375,0.0229034423828125
1772639672492015900,5.141015869140625,-0.9907073974609375,-0.026153564453125,0.0223236083984375
1772639672502060800,5.151060791015625,-0.9931488037109375,-0.0240936279296875,0.022430419921875
1772639672512106000,5.16110595703125,-0.9919281005859375,-0.0259857177734375,0.021759033203125
1772639672522151000,5.17115087890625,-0.9905853271484375,-0.02349853515625,0.0221099853515625
1772639672532196000,5.181196044921875,-0.9908905029296875,-0.020538330078125,0.02056884765625
1772639672542240800,5.19124072265625,-0.988006591796875,-0.0207061767578125,0.0203704833984375
1772639672552286000,5.201285888671875,-0.9870758056640625,-0.0217742919921875,0.0215301513671875
1772639672562331000,5.211330810546875,-0.98785400390625,-0.0196380615234375,0.0241546630859375
1772639672572376000,5.2213759765625,-0.986541748046875,-0.0182037353515625,0.0274658203125
1772639672582420700,5.231420654296875,-0.986114501953125,-0.018463134765625,0.0250701904296875
1772639672592466000,5.2414658203125,-0.9852752685546875,-0.0165557861328125,0.02398681640625
1772639672602512000,5.251511962890625,-0.985870361328125,-0.0169677734375,0.0236968994140625
1772639672612557000,5.26155712890625,-0.9868621826171875,-0.0163116455078125,0.0236968994140625
1772639672622602000,5.27160205078125,-0.9859619140625,-0.0151824951171875,0.0241241455078125
1772639672632647000,5.28164697265625,-0.986907958984375,-0.014068603515625,0.0231475830078125
1772639672642691800,5.29169189453125,-0.986968994140625,-0.015350341796875,0.0206756591796875
1772639672652737000,5.301737060546875,-0.985870361328125,-0.0186920166015625,0.0189208984375
1772639672662782000,5.311781982421875,-0.983489990234375,-0.0204010009765625,0.0203704833984375
1772639672672827000,5.321826904296875,-0.978607177734375,-0.01995849609375,0.020050048828125
1772639672682872000,5.3318720703125,-0.97271728515625,-0.0218963623046875,0.0204315185546875
1772639672692917000,5.3419169921875,-0.96954345703125,-0.023101806640625,0.019744873046875
1772639672702962000,5.3519619140625,-0.96893310546875,-0.0203857421875,0.0194549560546875
1772639672713006800,5.3620068359375,-0.9753875732421875,-0.0187530517578125,0.0222930908203125
1772639672723052000,5.372052001953125,-0.984710693359375,-0.01947021484375,0.0230560302734375
1772639672733097000,5.382096923828125,-0.9942474365234375,-0.0191802978515625,0.0230865478515625
1772639672743142000,5.392141845703125,-1.0004119873046875,-0.0175018310546875,0.022552490234375
1772639672753186800,5.402186767578125,-1.0032196044921875,-0.0166778564453125,0.02197265625
1772639672763232000,5.41223193359375,-1.0046234130859375,-0.0157012939453125,0.0205230712890625
1772639672773277000,5.42227685546875,-1.003753662109375,-0.0172271728515625,0.0223541259765625
1772639672783321900,5.43232177734375,-1.00250244140625,-0.0173492431640625,0.0234832763671875
1772639672793367800,5.442367919921875,-1.0009765625,-0.017578125,0.0249481201171875
1772639672803413000,5.4524130859375,-0.9994964599609375,-0.0180816650390625,0.0281219482421875
1772639672813458000,5.4624580078125,-0.995269775390625,-0.0167694091796875,0.02777099609375
1772639672823503000,5.472503173828125,-0.9897613525390625,-0.0172119140625,0.0264739990234375
1772639672833547800,5.4825478515625,-0.9883270263671875,-0.018768310546875,0.0282745361328125
1772639672843593000,5.492593017578125,-0.99029541015625,-0.019195556640625,0.02606201171875
1772639672853638000,5.502637939453125,-0.9912109375,-0.01947021484375,0.0250701904296875
1772639672863683000,5.51268310546875,-0.99224853515625,-0.0197601318359375,0.023590087890625
1772639672873728000,5.52272802734375,-0.9926300048828125,-0.0196990966796875,0.0243682861328125
1772639672883773000,5.53277294921875,-0.9940185546875,-0.019561767578125,0.02490234375
1772639672893817900,5.54281787109375,-0.9947662353515625,-0.019256591796875,0.0248260498046875
1772639672903863000,5.552863037109375,-0.9963531494140625,-0.0189056396484375,0.026336669921875
1772639672913908000,5.562907958984375,-0.994873046875,-0.0209503173828125,0.0257110595703125
1772639672923953200,5.572953125,-0.989288330078125,-0.0191497802734375,0.0219573974609375
1772639672933997800,5.582997802734375,-0.987091064453125,-0.018096923828125,0.0211944580078125
1772639672944043000,5.59304296875,-0.9891204833984375,-0.0185546875,0.025482177734375
1772639672954088000,5.603087890625,-0.9937286376953125,-0.018035888671875,0.02764892578125
1772639672964134000,5.6131337890625,-0.994354248046875,-0.016448974609375,0.0286712646484375
1772639672974179000,5.623178955078125,-0.9949798583984375,-0.016357421875,0.0268707275390625
1772639672984223700,5.6332236328125,-0.9974365234375,-0.0170745849609375,0.024261474609375
1772639672994269000,5.64326904296875,-0.997650146484375,-0.016876220703125,0.0235595703125
1772639673004313900,5.65331396484375,-0.996246337890625,-0.016571044921875,0.022705078125
1772639673014359000,5.663359130859375,-0.995147705078125,-0.01507568359375,0.021331787109375
1772639673024404000,5.673404052734375,-0.99462890625,-0.0142822265625,0.020294189453125
1772639673034449000,5.683448974609375,-0.9943389892578125,-0.0136871337890625,0.018280029296875
1772639673044493800,5.693493896484375,-0.9925079345703125,-0.0143890380859375,0.0185699462890625
1772639673054539000,5.7035390625,-0.9921112060546875,-0.015380859375,0.019287109375
1772639673064584000,5.713583984375,-0.99041748046875,-0.015228271484375,0.0188751220703125
1772639673074628900,5.72362890625,-0.9887542724609375,-0.016448974609375,0.019317626953125
1772639673084673800,5.733673828125,-0.9881439208984375,-0.0160064697265625,0.0197601318359375
1772639673094719000,5.743718994140625,-0.9877471923828125,-0.0152130126953125,0.0191802978515625
1772639673104764000,5.753763916015625,-0.986175537109375,-0.014251708984375,0.0189056396484375
1772639673114809000,5.76380908203125,-0.9865875244140625,-0.0143890380859375,0.0197906494140625
1772639673124855000,5.77385498046875,-0.983795166015625,-0.0137481689453125,0.0180511474609375
1772639673134900000,5.78389990234375,-0.982940673828125,-0.0142364501953125,0.0162811279296875
1772639673144945000,5.79394482421875,-0.98114013671875,-0.013946533203125,0.015594482421875
1772639673154990000,5.803989990234375,-0.98162841796875,-0.014404296875,0.01617431640625
1772639673165035000,5.814034912109375,-0.98419189453125,-0.0150146484375,0.0171966552734375
1772639673175080000,5.824079833984375,-0.9862060546875,-0.0164947509765625,0.0225677490234375
1772639673185124900,5.834124755859375,-0.9891357421875,-0.01556396484375,0.0225372314453125
1772639673195170000,5.844170166015625,-0.9908447265625,-0.013702392578125,0.0208282470703125
1772639673205214700,5.854214599609375,-0.991912841796875,-0.013671875,0.019561767578125
1772639673215260000,5.864260009765625,-0.9943084716796875,-0.012969970703125,0.01971435546875
1772639673225304600,5.8743046875,-0.997589111328125,-0.012451171875,0.0211639404296875
1772639673235349800,5.884349853515625,-1.0002899169921875,-0.0131988525390625,0.019317626953125
1772639673245394700,5.894394775390625,-1.001129150390625,-0.01580810546875,0.01776123046875
1772639673255440000,5.90443994140625,-1.0015716552734375,-0.0153045654296875,0.018341064453125
1772639673265484500,5.914484619140625,-1.000152587890625,-0.0167694091796875,0.0203857421875
1772639673275529700,5.92452978515625,-0.9958343505859375,-0.017303466796875,0.0213165283203125
1772639673285575700,5.93457568359375,-0.9937896728515625,-0.018310546875,0.020355224609375
1772639673295620600,5.94462060546875,-0.9890594482421875,-0.0184326171875,0.0200653076171875
1772639673305665800,5.954665771484375,-0.984588623046875,-0.0189361572265625,0.021820068359375
1772639673315710700,5.964710693359375,-0.9850006103515625,-0.0170745849609375,0.0222015380859375
1772639673325755600,5.974755615234375,-0.985504150390625,-0.0172576904296875,0.024200439453125
1772639673335800600,5.984800537109375,-0.989288330078125,-0.017974853515625,0.02490234375
1772639673345845800,5.994845703125,-0.988861083984375,-0.018096923828125,0.0223541259765625
1772639673355890700,6.004890625,-0.9885711669921875,-0.016448974609375,0.02178955078125
1772639673365935900,6.014935791015625,-0.986785888671875,-0.0177459716796875,0.021881103515625
1772639673375980500,6.02498046875,-0.9823150634765625,-0.015869140625,0.019622802734375
1772639673386025700,6.035025634765625,-0.9779815673828125,-0.01336669921875,0.0201873779296875
1772639673396070700,6.045070556640625,-0.9834747314453125,-0.0145416259765625,0.0213470458984375
1772639673406115800,6.05511572265625,-0.9907379150390625,-0.013214111328125,0.019073486328125
1772639673416160500,6.065160400390625,-0.9979400634765625,-0.0102691650390625,0.023284912109375
1772639673426205700,6.075205810546875,-1,-0.0083770751953125,0.022216796875
1772639673436251600,6.085251708984375,-0.9995880126953125,-0.008331298828125,0.014373779296875
1772639673446296600,6.095296630859375,-1.00054931640625,-0.0106658935546875,0.012359619140625
1772639673456341800,6.105341796875,-1.0040130615234375,-0.0095367431640625,0.0196075439453125
1772639673466386700,6.11538671875,-1.00018310546875,-0.0100860595703125,0.0242919921875
1772639673476431600,6.125431640625,-0.9965057373046875,-0.010711669921875,0.0208892822265625
1772639673486476500,6.1354765625,-0.99615478515625,-0.01025390625,0.02288818359375
1772639673496521700,6.145521728515625,-0.99383544921875,-0.0102996826171875,0.029388427734375
1772639673506566700,6.155566650390625,-0.987548828125,-0.013763427734375,0.0309906005859375
1772639673516611600,6.165611572265625,-0.982147216796875,-0.0157928466796875,0.0306243896484375
1772639673526656500,6.175656494140625,-0.982940673828125,-0.0150604248046875,0.0282135009765625
1772639673536701700,6.18570166015625,-0.9819793701171875,-0.0139617919921875,0.027313232421875
1772639673546746600,6.19574658203125,-0.98248291015625,-0.0150146484375,0.029388427734375
1772639673556791800,6.205791748046875,-0.9840850830078125,-0.0152587890625,0.0288543701171875
1772639673566836500,6.21583642578125,-0.98779296875,-0.0134429931640625,0.0287017822265625
1772639673576882700,6.225882568359375,-0.98907470703125,-0.0121917724609375,0.0305633544921875
1772639673586927600,6.235927734375,-0.98992919921875,-0.0139312744140625,0.0302276611328125
1772639673596972800,6.245972900390625,-0.988800048828125,-0.0129852294921875,0.030029296875
1772639673607017700,6.256017822265625,-0.98736572265625,-0.0113067626953125,0.029754638671875
1772639673617063000,6.26606298828125,-0.98687744140625,-0.0134735107421875,0.02703857421875
1772639673627107600,6.276107666015625,-0.9865875244140625,-0.0140380859375,0.0238494873046875
1772639673637152800,6.28615283203125,-0.9841766357421875,-0.01092529296875,0.0215911865234375
1772639673647197700,6.29619775390625,-0.9854278564453125,-0.0129547119140625,0.0218353271484375
1772639673657243000,6.306242919921875,-0.9889068603515625,-0.014984130859375,0.022430419921875
1772639673667287600,6.31628759765625,-0.9948577880859375,-0.0131683349609375,0.028289794921875
1772639673677332700,6.326332763671875,-1.001312255859375,-0.0117950439453125,0.0341339111328125
1772639673687377700,6.336377685546875,-1.0077056884765625,-0.014495849609375,0.0365447998046875
1772639673697422800,6.3464228515625,-1.0055694580078125,-0.013519287109375,0.0350189208984375
1772639673707467800,6.3564677734375,-1.000457763671875,-0.0138397216796875,0.029052734375
1772639673717513700,6.366513671875,-0.9961395263671875,-0.0157012939453125,0.0269622802734375
1772639673727558700,6.37655859375,-0.9932861328125,-0.0162200927734375,0.0263214111328125
1772639673737603600,6.386603515625,-0.9911346435546875,-0.0167999267578125,0.0240478515625
1772639673747648800,6.396648681640625,-0.9853057861328125,-0.0175018310546875,0.022552490234375
1772639673757693700,6.406693603515625,-0.980621337890625,-0.0195159912109375,0.0225982666015625
1772639673767738600,6.416738525390625,-0.9764251708984375,-0.0203094482421875,0.022003173828125
1772639673777783600,6.426783447265625,-0.97509765625,-0.021270751953125,0.02105712890625
1772639673787828700,6.436828857421875,-0.975494384765625,-0.020477294921875,0.0229644775390625
1772639673797873700,6.446873779296875,-0.981231689453125,-0.01861572265625,0.023345947265625
1772639673807918800,6.4569189453125,-0.9909515380859375,-0.0152740478515625,0.0254669189453125
1772639673817963500,6.466963623046875,-0.996429443359375,-0.0124969482421875,0.0270843505859375
1772639673828008700,6.4770087890625,-1.0006561279296875,-0.011871337890625,0.028839111328125
1772639673838053600,6.4870537109375,-1.000030517578125,-0.0104217529296875,0.028839111328125
1772639673848099600,6.497099609375,-0.9979095458984375,-0.0116424560546875,0.0256195068359375
1772639673858144800,6.507144775390625,-0.9944610595703125,-0.0115509033203125,0.0223846435546875
1772639673868189700,6.517189697265625,-0.9930419921875,-0.0114593505859375,0.0233154296875
1772639673878234600,6.527234619140625,-0.9903564453125,-0.01446533203125,0.024383544921875
1772639673888279600,6.537279541015625,-0.98797607421875,-0.0162506103515625,0.0233154296875
1772639673898324700,6.54732470703125,-0.988861083984375,-0.0165863037109375,0.02423095703125
1772639673908369700,6.55736962890625,-0.9863433837890625,-0.0197601318359375,0.0229949951171875
1772639673918414600,6.56741455078125,-0.981231689453125,-0.020904541015625,0.0216064453125
1772639673928459500,6.57745947265625,-0.9800567626953125,-0.02459716796875,0.0213775634765625
1772639673938504700,6.587504638671875,-0.9815673828125,-0.0207977294921875,0.01971435546875
1772639673948549600,6.597549560546875,-0.98358154296875,-0.0223388671875,0.0192108154296875
1772639673958594800,6.6075947265625,-0.9865570068359375,-0.0238800048828125,0.017181396484375
1772639673968639500,6.617639404296875,-0.98883056640625,-0.022308349609375,0.0174102783203125
1772639673978685700,6.627685791015625,-0.9938812255859375,-0.0227508544921875,0.017578125
1772639673988730600,6.637730712890625,-0.99395751953125,-0.02294921875,0.0193023681640625
1772639673998775800,6.64777587890625,-0.9960784912109375,-0.02239990234375,0.02117919921875
1772639674008820700,6.65782080078125,-0.9972991943359375,-0.0214385986328125,0.02142333984375
1772639674018865700,6.66786572265625,-0.997344970703125,-0.0214691162109375,0.021148681640625
1772639674028910600,6.67791064453125,-1.0003204345703125,-0.020233154296875,0.0218505859375
1772639674038955800,6.687955810546875,-1.003570556640625,-0.0192413330078125,0.024627685546875
1772639674049000700,6.698000732421875,-1.0039520263671875,-0.0186309814453125,0.025238037109375
1772639674059046000,6.7080458984375,-1.004730224609375,-0.0186920166015625,0.0258636474609375
1772639674069090600,6.718090576171875,-1.006744384765625,-0.01715087890625,0.02642822265625
1772639674079135700,6.7281357421875,-1.0040130615234375,-0.0190582275390625,0.026519775390625
1772639674089180700,6.7381806640625,-0.9973907470703125,-0.0196075439453125,0.0267181396484375
1772639674099226600,6.7482265625,-0.9915618896484375,-0.021087646484375,0.0283203125
1772639674109271800,6.758271728515625,-0.98529052734375,-0.021484375,0.0264892578125
1772639674119316500,6.76831640625,-0.9809417724609375,-0.0224151611328125,0.025787353515625
1772639674129361700,6.778361572265625,-0.98028564453125,-0.023284912109375,0.024871826171875
1772639674139406600,6.788406494140625,-0.9791107177734375,-0.0253753662109375,0.025360107421875
1772639674149451800,6.79845166015625,-0.9765167236328125,-0.025146484375,0.022796630859375
1772639674159496700,6.80849658203125,-0.977691650390625,-0.0247955322265625,0.0225067138671875
1772639674169541600,6.818541748046875,-0.981201171875,-0.024017333984375,0.024932861328125
1772639674179586600,6.828586669921875,-0.98431396484375,-0.023834228515625,0.0294342041015625
1772639674189631700,6.8386318359375,-0.984466552734375,-0.025360107421875,0.0332183837890625
1772639674199676700,6.8486767578125,-0.983856201171875,-0.0242462158203125,0.03399658203125
1772639674209722400,6.858722412109375,-0.9846038818359375,-0.02227783203125,0.03472900390625
1772639674219767000,6.86876708984375,-0.9866943359375,-0.02154541015625,0.0346221923828125
1772639674229813000,6.87881298828125,-0.9922637939453125,-0.0229339599609375,0.0336151123046875
1772639674239858200,6.888858154296875,-0.994049072265625,-0.0225372314453125,0.0330810546875
1772639674249903000,6.898903076171875,-0.993560791015625,-0.0211334228515625,0.033721923828125
1772639674259948300,6.9089482421875,-0.9951934814453125,-0.022186279296875,0.0326995849609375
1772639674269993200,6.9189931640625,-0.99871826171875,-0.02264404296875,0.0312347412109375
1772639674280038100,6.9290380859375,-1.0014495849609375,-0.02215576171875,0.03143310546875
1772639674290083000,6.9390830078125,-1.0015411376953125,-0.0229339599609375,0.029998779296875
1772639674300128300,6.949128173828125,-0.9989471435546875,-0.02252197265625,0.031005859375
1772639674310173200,6.959173095703125,-0.9966583251953125,-0.0224609375,0.030181884765625
1772639674320218000,6.969218017578125,-0.9902496337890625,-0.024322509765625,0.0291748046875
1772639674330263000,6.979262939453125,-0.9831390380859375,-0.0254974365234375,0.02978515625
1772639674340309200,6.989309326171875,-0.9754791259765625,-0.0268096923828125,0.03070068359375
1772639674350354200,6.999354248046875,-0.96966552734375,-0.0279083251953125,0.03131103515625
1772639674360399400,7.0093994140625,-0.9666595458984375,-0.026702880859375,0.0277557373046875
1772639674370444300,7.0194443359375,-0.968231201171875,-0.0283355712890625,0.0230712890625
1772639674380489200,7.0294892578125,-0.9744415283203125,-0.0283355712890625,0.02252197265625
1772639674390534100,7.0395341796875,-0.979461669921875,-0.027923583984375,0.0229034423828125
1772639674400579300,7.049579345703125,-0.984161376953125,-0.0252685546875,0.0205841064453125
1772639674410624300,7.059624267578125,-0.9913787841796875,-0.024932861328125,0.027191162109375
1772639674420669200,7.069669189453125,-0.9911041259765625,-0.024871826171875,0.0267791748046875
1772639674430714000,7.079714111328125,-0.9901275634765625,-0.020172119140625,0.02874755859375
1772639674440759300,7.08975927734375,-0.991119384765625,-0.0216827392578125,0.029296875
1772639674450804200,7.09980419921875,-0.9939422607421875,-0.0223541259765625,0.0258026123046875
1772639674460850200,7.10985009765625,-0.993743896484375,-0.0225830078125,0.020751953125
1772639674470895400,7.119895263671875,-0.994964599609375,-0.0200653076171875,0.02569580078125
1772639674480940000,7.12993994140625,-0.995361328125,-0.0205841064453125,0.0266265869140625
1772639674490985200,7.139985107421875,-0.998931884765625,-0.0196990966796875,0.026214599609375
1772639674501030100,7.150030029296875,-1.00946044921875,-0.021484375,0.02630615234375
1772639674511075300,7.160075439453125,-1.004669189453125,-0.0268707275390625,0.0278167724609375
1772639674521120000,7.1701201171875,-0.994384765625,-0.0164031982421875,0.031524658203125
1772639674531165200,7.180165283203125,-0.9910125732421875,-0.017669677734375,0.03509521484375
1772639674541210000,7.190210205078125,-0.98809814453125,-0.0260162353515625,0.030487060546875
1772639674551255300,7.20025537109375,-0.9817047119140625,-0.0315399169921875,0.0247344970703125
1772639674561300200,7.21030029296875,-0.9793243408203125,-0.0331878662109375,0.022857666015625
1772639674571346200,7.22034619140625,-0.9832916259765625,-0.0326690673828125,0.025360107421875
1772639674581391000,7.23039111328125,-0.98956298828125,-0.03204345703125,0.026092529296875
1772639674591436000,7.24043603515625,-0.9976959228515625,-0.031158447265625,0.026702880859375
1772639674601481200,7.250481201171875,-1.008087158203125,-0.0214385986328125,0.026153564453125
