time,seconds_elapsed,z,y,x
1772639544224350700,0.057350830078125,0.029065357521176338,-0.03855585679411888,-0.011981567367911339
1772639544234395600,0.067395751953125,0.029330749064683914,-0.03306340426206589,-0.019355598837137222
1772639544244440800,0.07744091796875,0.023795370012521744,-0.03538088500499725,-0.012855355627834797
1772639544254485000,0.087485107421875,0.01910475827753544,-0.037577975541353226,0.00359722669236362
1772639544264529700,0.09752978515625,0.020776690915226936,-0.03933113440871239,0.019443567842245102
1772639544274574800,0.107574951171875,0.026723185554146767,-0.034214649349451065,0.02960232086479664
1772639544284619800,0.117619873046875,0.03438989445567131,-0.02510077878832817,0.040177732706069946
1772639544294665000,0.1276650390625,0.031616996973752975,-0.009773910976946354,0.0469653382897377
1772639544304709600,0.137709716796875,0.022174226120114326,0.0028031333349645138,0.04550858959555626
1772639544314754800,0.1477548828125,0.01189995277673006,-0.0014622814487665892,0.0365271121263504
1772639544324799700,0.1577998046875,0.0028864843770861626,-0.008372651413083076,0.023175088688731194
1772639544334845000,0.167844970703125,0.004863302689045668,-0.008152077905833721,0.0071799419820308685
1772639544344889900,0.177889892578125,0.010267921723425388,-0.0028699643444269896,-0.006832013837993145
1772639544354933800,0.187933837890625,0.017891578376293182,0.0008422222454100847,-0.011572418734431267
1772639544364978700,0.197978759765625,0.020604807883501053,0.0008307704702019691,-0.014915218576788902
1772639544375023900,0.20802392578125,0.01762705110013485,-0.010682591237127781,-0.01385519839823246
1772639544385068800,0.21806884765625,0.00835605338215828,-0.019700054079294205,-0.015885593369603157
1772639544395113700,0.22811376953125,0.003255207557231188,-0.013836579397320747,-0.023633547127246857
1772639544405158700,0.23815869140625,-0.0001291374210268259,-0.0021724661346524954,-0.025923598557710648
1772639544415203800,0.248203857421875,0.00406534131616354,0.004525383934378624,-0.032709334045648575
1772639544425248800,0.258248779296875,0.0036466922610998154,-0.0032121643889695406,-0.03819144889712334
1772639544435293700,0.268293701171875,0.002026941394433379,-0.007362460717558861,-0.03751648589968681
1772639544445338600,0.278338623046875,0.004542030859738588,-0.01545341033488512,-0.034277014434337616
1772639544455383800,0.2883837890625,0.002756600733846426,-0.0217228252440691,-0.03205971419811249
1772639544465428000,0.298427978515625,0.0028085322119295597,-0.02472687140107155,-0.026855627074837685
1772639544475472600,0.30847265625,0.0010887886164709926,-0.02330295741558075,-0.019765647128224373
1772639544485517800,0.318517822265625,0.004338910337537527,-0.020404107868671417,-0.015330418944358826
1772639544495562800,0.328562744140625,0.003064321354031563,-0.014153669588267803,-0.010572947561740875
1772639544505608000,0.33860791015625,0.005369287449866533,-0.009525095112621784,-0.00888849887996912
1772639544515652600,0.348652587890625,0.007485168520361185,-0.008581004105508327,-0.009175587445497513
1772639544525697800,0.35869775390625,0.011925175786018372,-0.0049118585884571075,-0.013961546123027802
1772639544535742700,0.36874267578125,0.01446907315403223,-0.004259845241904259,-0.020084865391254425
1772639544545788000,0.378787841796875,0.015238194726407528,-0.0027343868277966976,-0.022436436265707016
1772639544555832800,0.388832763671875,0.010921664535999298,0.004194243811070919,-0.02005000412464142
1772639544565877800,0.398877685546875,0.005491479299962521,0.0063498062081635,-0.017695505172014236
1772639544575921700,0.408921630859375,0.003344893455505371,0.008662110194563866,-0.010907445102930069
1772639544585966800,0.418966796875,0.005665305536240339,0.012458711862564087,-0.005099357571452856
1772639544596011800,0.42901171875,0.007338177878409624,0.008476166985929012,-0.003335549496114254
1772639544606056700,0.439056640625,0.005649201571941376,0.0006571260746568441,-0.0061739468947052956
1772639544616101600,0.4491015625,0.004916142672300339,-0.001794416457414627,-0.006579000968486071
1772639544626146800,0.459146728515625,0.00478937616571784,-0.004973964300006628,-0.012330630794167519
1772639544636191700,0.469191650390625,0.0012916744453832507,0.0010647631715983152,-0.018103234469890594
1772639544646236700,0.479236572265625,0.0004714207025244832,0.00994161143898964,-0.022187724709510803
1772639544656281600,0.489281494140625,0.0004850345430895686,0.012181776575744152,-0.02584601379930973
1772639544666326800,0.499326904296875,-0.000692349043674767,0.008326318114995956,-0.025194337591528893
1772639544676371700,0.509371826171875,0.0019289512420073152,0.002627078676596284,-0.019511811435222626
1772639544686415600,0.51941552734375,0.004034979268908501,0.0031495909206569195,-0.015129311941564083
1772639544696460800,0.529460693359375,0.004091440234333277,-0.0014307757373899221,-0.008346470072865486
1772639544706505700,0.539505615234375,0.0003558243624866009,0.0017477066721767187,-0.008526765741407871
1772639544716551000,0.549551025390625,-0.006078060250729322,0.001698906533420086,-0.008948145434260368
1772639544726595800,0.559595947265625,-0.00903257168829441,0.0029564511496573687,-0.010260285809636116
1772639544736640800,0.569640869140625,-0.011121726594865322,0.01106485165655613,-0.013386128470301628
1772639544746685700,0.579685791015625,-0.010793092660605907,0.008503424003720284,-0.012870807200670242
1772639544756731000,0.58973095703125,-0.007716154679656029,-0.0023081947583705187,-0.016166917979717255
1772639544766775800,0.59977587890625,-0.008036532439291477,-0.0036597487051039934,-0.014439592137932777
1772639544776820700,0.60982080078125,-0.010803980752825737,-0.0007096016779541969,-0.01213141717016697
1772639544786865700,0.61986572265625,-0.014217087998986244,-0.002581804059445858,-0.01411999948322773
1772639544796910800,0.629910888671875,-0.014956505969166756,-0.0035037097986787558,-0.016662634909152985
1772639544806954800,0.639954833984375,-0.012135152705013752,-0.003699186025187373,-0.018804881721735
1772639544816999700,0.649999755859375,-0.008589891716837883,-0.010000534355640411,-0.02351650781929493
1772639544827044600,0.660044677734375,-0.004155462142080069,-0.012348643504083157,-0.021313274279236794
1772639544837089800,0.67008984375,-0.0024481243453919888,-0.017711738124489784,-0.023445773869752884
1772639544847134700,0.680134765625,-0.001122402842156589,-0.01920257695019245,-0.023286784067749977
1772639544857180000,0.690179931640625,-0.0027259858325123787,-0.004789021797478199,-0.021318994462490082
1772639544867224600,0.700224609375,-0.008891203440725803,0.0057051642797887325,-0.016592415049672127
1772639544877269800,0.710269775390625,-0.012895485386252403,0.004871931858360767,-0.009600730612874031
1772639544887314700,0.720314697265625,-0.011885881423950195,0.0066892728209495544,-0.0006280085071921349
1772639544897360000,0.73035986328125,-0.009182005189359188,0.009450258687138557,0.009043699130415916
1772639544907404500,0.740404541015625,-0.0032072034664452076,0.012029796838760376,0.014038990251719952
1772639544917448700,0.75044873046875,-0.004424158949404955,0.010272138752043247,0.010962363332509995
1772639544927494000,0.760493896484375,-0.007167481351643801,0.003342593554407358,0.0031217513605952263
1772639544937538800,0.770538818359375,-0.017210450023412704,-0.004084180109202862,-0.004624401219189167
1772639544947583700,0.780583740234375,-0.025769317522644997,-0.004481523297727108,-0.010814386419951916
1772639544957628700,0.790628662109375,-0.029937993735074997,-0.0035111121833324432,-0.015134509652853012
1772639544967673900,0.800673828125,-0.028467660769820213,-0.0012977593578398228,-0.011827928945422173
1772639544977718800,0.81071875,-0.02383814938366413,0.00019888300448656082,-0.0068137324415147305
1772639544987764000,0.820763916015625,-0.01961490884423256,0.0021677580662071705,0.002616786863654852
1772639544997808600,0.83080859375,-0.014245661906898022,0.004650558810681105,0.013433679938316345
1772639545007853800,0.840853759765625,-0.013143911957740784,0.005836730822920799,0.02075151540338993
1772639545017898800,0.850898681640625,-0.011586935259401798,0.006073491647839546,0.0238751582801342
1772639545027942700,0.860942626953125,-0.01291771698743105,0.003218849189579487,0.02068762294948101
1772639545037987600,0.870987548828125,-0.014723479747772217,-0.004525966010987759,0.015583297237753868
1772639545048032800,0.88103271484375,-0.017532316967844963,0.0007982254028320312,0.007550936657935381
1772639545058077700,0.89107763671875,-0.018399817869067192,0.010273187421262264,-0.002861655317246914
1772639545068123000,0.901122802734375,-0.015952106565237045,0.019756969064474106,-0.005963971838355064
1772639545078167600,0.91116748046875,-0.009506989270448685,0.01565823331475258,-0.003871907014399767
1772639545088212700,0.921212646484375,-0.003257349133491516,0.007708432152867317,0.0033527167979627848
1772639545098257700,0.931257568359375,-0.0008737736498005688,-0.004330717958509922,0.013223391957581043
1772639545108303400,0.941303466796875,-0.0017747210804373026,-0.008356618694961071,0.017235444858670235
1772639545118348000,0.95134814453125,-0.0006897173589095473,-0.004459567368030548,0.019844790920615196
1772639545128393200,0.961393310546875,-0.006062112282961607,0.000787925673648715,0.023698652163147926
1772639545138437400,0.971437255859375,-0.005162135697901249,0.0012629085686057806,0.024597376585006714
1772639545148482000,0.98148193359375,-0.004681435413658619,0.0030176653526723385,0.02475104108452797
1772639545158527200,0.99152734375,-0.002054368145763874,0.0020428714342415333,0.023993264883756638
1772639545168572200,1.001572265625,-0.0019443795317783952,-0.003087175777181983,0.01932314783334732
1772639545178617300,1.011617431640625,-0.004153111483901739,-0.008182861842215061,0.01713990606367588
1772639545188662300,1.021662353515625,-0.004928623791784048,-0.007093362510204315,0.010092116892337799
1772639545198707200,1.031707275390625,-0.0051895976066589355,-0.002799656940624118,0.004911727737635374
1772639545208752000,1.041752197265625,-0.002727505285292864,0.004627632908523083,-0.00021246029064059258
1772639545218797300,1.05179736328125,-0.0027152393013238907,0.003676509251818061,-0.00548073323443532
1772639545228842200,1.06184228515625,-0.006153646856546402,0.0033369562588632107,-0.00653401343151927
1772639545238887400,1.071887451171875,-0.0025140137877315283,0.0017544736620038748,-0.0067933062091469765
1772639545248932000,1.08193212890625,-0.008801204152405262,0.0013906857930123806,-0.005997819826006889
1772639545258976300,1.091976318359375,-0.008137483149766922,0.0019617604557424784,-0.0029389881528913975
1772639545269021200,1.102021240234375,-0.009163598529994488,0.002719429787248373,-0.002587983850389719
1772639545279066000,1.112066162109375,-0.004486194346100092,0.001067079370841384,0.0007270276546478271
1772639545289111000,1.122111083984375,-0.0033237244933843613,0.001162953209131956,0.004353720229119062
1772639545299156200,1.13215625,-0.00039531278889626265,-0.003583865240216255,0.005062120966613293
1772639545309201200,1.142201171875,-0.004212155006825924,-0.007058757822960615,0.006648832466453314
1772639545319246300,1.152246337890625,-0.008107702247798443,-0.006088780239224434,0.00941825844347477
1772639545329291000,1.162291015625,-0.013064111582934856,-0.0077031878754496574,0.011675287038087845
1772639545339336200,1.172336181640625,-0.017756428569555283,-0.006317420396953821,0.014470899477601051
1772639545349381000,1.182381103515625,-0.021604429930448532,-0.003409248311072588,0.015638163313269615
1772639545359426300,1.19242626953125,-0.024526402354240417,0.0002472114283591509,0.017316460609436035
1772639545369470200,1.20247021484375,-0.024860629811882973,0.006771157030016184,0.016609657555818558
1772639545379515100,1.21251513671875,-0.020088138058781624,0.013924702070653439,0.017412729561328888
1772639545389560300,1.222560302734375,-0.011340451426804066,0.012492187321186066,0.01861940696835518
1772639545399605200,1.232605224609375,-0.004427981562912464,0.01616504043340683,0.02470596507191658
1772639545409650200,1.242650146484375,-0.0038391565904021263,0.01522840652614832,0.02656272053718567
1772639545419695000,1.252695068359375,-0.008456183597445488,0.014704039320349693,0.024948373436927795
1772639545429740300,1.262740234375,-0.012139868922531605,0.0065137543715536594,0.022173359990119934
1772639545439785200,1.27278515625,-0.015398778952658176,-0.0007910302374511957,0.017369017004966736
1772639545449830400,1.282830322265625,-0.014185975305736065,-0.0007460226770490408,0.011853611096739769
1772639545459875000,1.292875,-0.011297620832920074,0.0011221524327993393,0.006195025518536568
1772639545469920300,1.302920166015625,-0.010066707618534565,0.003454549005255103,0.004204312339425087
1772639545479964200,1.312964111328125,-0.008696229197084904,0.00464833527803421,0.004046378657221794
1772639545490009300,1.32300927734375,-0.003929437138140202,0.0030959786381572485,0.0010900036431849003
1772639545500054000,1.333053955078125,-0.0021492077503353357,0.0026984934229403734,-0.0027307425625622272
1772639545510099200,1.34309912109375,0.003974997438490391,0.004816771484911442,-0.00575529458001256
1772639545520144100,1.35314404296875,0.006285508628934622,0.006784244906157255,-0.006874973885715008
1772639545530189300,1.363189208984375,0.005212521180510521,0.007046299986541271,-0.004646707326173782
1772639545540234000,1.37323388671875,0.004727464634925127,0.0020392804872244596,-0.0018168920651078224
1772639545550279200,1.383279052734375,-0.0015538671286776662,0.0017684369813650846,0.00004732050001621246
1772639545560324000,1.393323974609375,-0.0025583321694284678,0.003563526552170515,0.000042329076677560806
1772639545570369300,1.403369384765625,-0.0012387358583509922,0.0040151989087462425,-0.001635995227843523
1772639545580414200,1.413414306640625,0.004113074392080307,0.0050543807446956635,-0.004428236745297909
1772639545590458000,1.4234580078125,0.004982862621545792,-0.004846453666687012,-0.012673117220401764
1772639545600503300,1.43350341796875,0.006492765620350838,-0.014178600162267685,-0.018423959612846375
1772639545610548200,1.44354833984375,0.005625107791274786,-0.01474771648645401,-0.028107477352023125
1772639545620593400,1.453593505859375,0.002028555143624544,-0.012779971584677696,-0.028442569077014923
1772639545630638000,1.46363818359375,-0.0015813596546649933,-0.0037550516426563263,-0.023830242455005646
1772639545640683300,1.473683349609375,-0.001242103986442089,-0.0011093809735029936,-0.01795194298028946
1772639545650728200,1.483728271484375,-0.0017680783057585359,-0.006176844239234924,-0.009059915319085121
1772639545660773400,1.4937734375,0.0002744568046182394,-0.013986993581056595,-0.000024353619664907455
1772639545670818000,1.503818115234375,0.0005860466044396162,-0.02058018185198307,0.0034100585617125034
1772639545680863200,1.51386328125,0.002959298901259899,-0.020392529666423798,0.0028745087329298258
1772639545690908200,1.523908203125,0.0031126970425248146,-0.013083753176033497,0.0028143213130533695
1772639545700952300,1.533952392578125,0.001562486169859767,-0.008428257890045643,0.0028117636684328318
1772639545710997000,1.5439970703125,-0.00031211297027766705,-0.004623399116098881,0.0024309316650032997
1772639545721042200,1.554042236328125,-0.002929295878857374,-0.0009475795086473227,0.004204954952001572
1772639545731087000,1.564087158203125,-0.0032781697809696198,0.001981897745281458,0.007793298456817865
1772639545741132300,1.57413232421875,-0.0022244970314204693,0.000824144808575511,0.014607418328523636
1772639545751177000,1.584177001953125,0.00013825937639921904,0.000027060741558670998,0.021818192675709724
1772639545761222100,1.59422216796875,0.0001485047396272421,0.0002287162933498621,0.030425000935792923
1772639545771267000,1.60426708984375,-0.0018874818924814463,0.006416837219148874,0.037175051867961884
1772639545781312300,1.614312255859375,-0.0033158445730805397,0.007479275576770306,0.04001609608530998
1772639545791357200,1.624357177734375,-0.0038807010278105736,0.0050342269241809845,0.03585091233253479
1772639545801402000,1.634402099609375,-0.005340442527085543,-0.0006776826921850443,0.027579588815569878
1772639545811446300,1.6444462890625,-0.008203607052564621,-0.007022397592663765,0.015637174248695374
1772639545821491200,1.6544912109375,-0.009114674292504787,-0.0037524334620684385,0.0010701068677008152
1772639545831536400,1.664536376953125,-0.008973526768386364,0.0011874642223119736,-0.010828896425664425
1772639545841581000,1.6745810546875,-0.008642449975013733,0.003447489580139518,-0.01896134577691555
1772639545851626200,1.684626220703125,-0.009082937613129616,0.002748942468315363,-0.02021968923509121
1772639545861671200,1.694671142578125,-0.010346323251724243,-0.0013208738528192043,-0.015254881232976913
1772639545871716400,1.70471630859375,-0.006551052909344435,-0.0060272119008004665,-0.0031026103533804417
1772639545881761000,1.714760986328125,-0.000031305826269090176,-0.012700468301773071,0.010438689962029457
1772639545891806200,1.72480615234375,0.008973906747996807,-0.013471720740199089,0.01809794083237648
1772639545901851100,1.73485107421875,0.013414759188890457,-0.012238762341439724,0.022761765867471695
1772639545911896300,1.744896240234375,0.010144929401576519,-0.01468248013406992,0.021745502948760986
1772639545921941200,1.754941162109375,0.006648605223745108,-0.0276461374014616,0.017933566123247147
1772639545931985200,1.764985107421875,0.0018671659054234624,-0.04466266930103302,0.008784276433289051
1772639545942030000,1.775030029296875,-0.0030038319528102875,-0.045342426747083664,0.0019798660650849342
1772639545952075300,1.7850751953125,-0.007254770025610924,-0.031015949323773384,-0.004324368666857481
1772639545962120200,1.7951201171875,-0.011361975222826004,-0.0101399477571249,-0.004415898118168116
1772639545972165000,1.8051650390625,-0.012468785047531128,0.007119732443243265,0.001524282619357109
1772639545982210000,1.8152099609375,-0.010585115291178226,0.01348164863884449,0.012266933917999268
1772639545992255200,1.825255126953125,-0.004359443672001362,0.0111327413469553,0.021932609379291534
1772639546002300200,1.835300048828125,0.005534137133508921,0.0098155802115798,0.02845194935798645
1772639546012345000,1.845344970703125,0.00924764946103096,0.005159575492143631,0.028411202132701874
1772639546022390000,1.85539013671875,0.007481064181774855,0.011289607733488083,0.012707973830401897
1772639546032435200,1.865435302734375,0.0005688294768333435,0.024136696010828018,-0.002365251537412405
1772639546042479400,1.875479248046875,-0.008374127559363842,0.02488841488957405,-0.012122999876737595
1772639546052524000,1.88552392578125,-0.0115779098123312,0.01759428158402443,-0.011318458244204521
1772639546062569200,1.8955693359375,-0.009012064896523952,0.004227577708661556,-0.00773747218772769
1772639546072614100,1.9056142578125,-0.004605332389473915,-0.0033046407625079155,-0.0018976922146975994
1772639546082659300,1.915659423828125,0.001207189168781042,-0.005224387627094984,0.006295348517596722
1772639546092704300,1.925704345703125,0.004298852756619453,-0.008622314780950546,0.010083162225782871
1772639546102749200,1.935749267578125,0.0030728746205568314,-0.008572835475206375,0.011428054422140121
1772639546112793000,1.94579296875,0.0017777796601876616,-0.00556293036788702,0.009835483506321907
1772639546122838000,1.955838134765625,-0.0009334589121863246,-0.000469977967441082,0.005771658383309841
1772639546132883000,1.965883056640625,-0.0027460064738988876,0.007429224438965321,-0.0012183403596282005
1772639546142928100,1.97592822265625,-0.003993794322013855,0.01182009931653738,-0.0024952711537480354
1772639546152972000,1.985971923828125,0.00011306663509458303,0.01106962002813816,-0.0057584429159760475
1772639546163017000,1.996016845703125,0.0033943969756364822,0.005097555927932262,-0.008124537765979767
1772639546173062100,2.006062255859375,0.005383512005209923,0.00571647472679615,-0.00801881030201912
1772639546183107000,2.016107177734375,0.007019820157438517,0.0017926658038049936,-0.011130789294838905
1772639546193152000,2.026152099609375,0.00679797912016511,0.0025830918457359076,-0.008668430149555206
1772639546203197000,2.036197021484375,0.004224237985908985,0.00295397755689919,-0.014113454148173332
1772639546213242000,2.0462421875,0.002367748413234949,0.015150988474488258,-0.005144460592418909
1772639546223287000,2.056287109375,0.0100264186039567,-0.0008683966007083654,-0.007605461403727531
1772639546233332000,2.06633203125,0.007928380742669106,0.004451533779501915,-0.01704290509223938
1772639546243377000,2.076376953125,0.0009764652932062745,0.0027060979045927525,-0.012131502851843834
1772639546253422000,2.086422119140625,-0.001673113671131432,-0.0019376559648662806,-0.005065605044364929
1772639546263466200,2.09646630859375,0.0010424185311421752,0.0030006375163793564,-0.0018581156618893147
1772639546273511000,2.106510986328125,0.0034991842694580555,-0.006181675475090742,-0.0006543667986989021
1772639546283556000,2.11655615234375,0.0025778869166970253,-0.008393995463848114,-0.0020225984044373035
1772639546293601000,2.12660107421875,0.0035496745258569717,-0.008578287437558174,-0.005170721095055342
1772639546303646200,2.136646240234375,0.0045541562139987946,-0.00746504683047533,-0.012415396049618721
1772639546313691100,2.146691162109375,0.0024132407270371914,-0.0026777482125908136,-0.018648525699973106
1772639546323736000,2.156736083984375,-0.0029211328364908695,0.0010881347116082907,-0.018761370331048965
1772639546333781000,2.166781005859375,-0.009139081463217735,0.0013501897919923067,-0.01752646081149578
1772639546343826200,2.176826171875,-0.014038389548659325,0.0017692684195935726,-0.012400662526488304
1772639546353871000,2.18687109375,-0.015006715431809425,0.0045187161304056644,-0.0021504214964807034
1772639546363916000,2.196916015625,-0.012386399321258068,0.006954757496714592,0.006435325834900141
1772639546373961000,2.2069609375,-0.007068599108606577,0.004892405588179827,0.02037084847688675
1772639546384005000,2.217005126953125,0.002304176799952984,0.005201136693358421,0.031505879014730453
1772639546394050000,2.227050048828125,0.007693882565945387,0.0015398229006677866,0.036517150700092316
1772639546404095000,2.237094970703125,0.005345882847905159,-0.00598504114896059,0.02952742949128151
1772639546414140000,2.247139892578125,-0.004067060071974993,-0.011173943988978863,0.01160488836467266
1772639546424185000,2.25718505859375,-0.01153127383440733,-0.006316062994301319,-0.0038927816785871983
1772639546434230000,2.26722998046875,-0.016064506024122238,0.00705220689997077,-0.01544424332678318
1772639546444275200,2.277275146484375,-0.01699128746986389,0.015350612811744213,-0.015426971949636936
1772639546454319900,2.28731982421875,-0.014592045918107033,0.017076607793569565,-0.005094439722597599
1772639546464365000,2.297364990234375,-0.009287828579545021,0.010761188343167305,0.00937744416296482
1772639546474410000,2.307409912109375,-0.0021931673400104046,0.0008028296288102865,0.027687210589647293
1772639546484455200,2.317455078125,0.005023060366511345,-0.006194436922669411,0.03587818145751953
1772639546494499000,2.3274990234375,0.0068060471676290035,-0.005748623050749302,0.036624401807785034
1772639546504544000,2.3375439453125,0.0074165379628539085,-0.0013814307749271393,0.027722425758838654
1772639546514589200,2.347589111328125,0.002251336583867669,0.006948404014110565,0.014387711882591248
1772639546524634000,2.357634033203125,-0.0010432598646730185,0.015500612556934357,0.0023219946306198835
1772639546534679000,2.367678955078125,-0.0048875329084694386,0.015609536319971085,0.0004127747379243374
1772639546544724000,2.377723876953125,-0.0047756643034517765,0.012648259289562702,0.007244839798659086
1772639546554769200,2.38776904296875,-0.0008078206446953118,0.005698207765817642,0.01998167484998703
1772639546564814000,2.39781396484375,0.0025265663862228394,-0.0005520679987967014,0.030924614518880844
1772639546574859300,2.407859375,0.001679947366937995,-0.005732981488108635,0.03795429691672325
1772639546584904000,2.417904052734375,-0.00018984207417815924,-0.008307302370667458,0.03887547552585602
1772639546594949000,2.42794921875,-0.008524470962584019,-0.008409833535552025,0.03185831010341644
1772639546604994000,2.437994140625,-0.017325906082987785,-0.0011807477567344904,0.018431387841701508
1772639546615038000,2.448037841796875,-0.021238356828689575,0.010665259324014187,0.004777360707521439
1772639546625083000,2.458082763671875,-0.021877355873584747,0.014128271490335464,-0.005814311560243368
1772639546635128000,2.468128173828125,-0.017959579825401306,0.01313411258161068,-0.007261473219841719
1772639546645173000,2.478173095703125,-0.013744736090302467,0.002954901661723852,-0.0037275664508342743
1772639546655218200,2.48821826171875,-0.010741222649812698,-0.0023059069644659758,0.0027329956647008657
1772639546665262800,2.498262939453125,-0.007900727912783623,-0.0016763838939368725,0.01276860199868679
1772639546675308000,2.50830810546875,-0.010877076536417007,-0.0005884827114641666,0.023152265697717667
1772639546685353000,2.51835302734375,-0.012514043599367142,0.0005470733158290386,0.032121442258358
1772639546695398100,2.528398193359375,-0.013316454365849495,-0.0009173990692943335,0.031652726233005524
1772639546705443000,2.538443115234375,-0.013039924204349518,-0.0005606603808701038,0.02913088910281658
1772639546715488000,2.548488037109375,-0.014527831226587296,-0.0009872987866401672,0.01949663832783699
1772639546725532200,2.5585322265625,-0.015977922827005386,0.002071874216198921,0.008593123406171799
1772639546735577000,2.5685771484375,-0.01931672729551792,0.0027842698618769646,-0.002334891352802515
1772639546745622000,2.5786220703125,-0.023111842572689056,0.003996377345174551,-0.009373905137181282
1772639546755667000,2.5886669921875,-0.022966433316469193,0.007965552620589733,-0.009645814076066017
1772639546765712100,2.598712158203125,-0.01682557538151741,0.0066473642364144325,0.00015872251242399216
1772639546775757000,2.608757080078125,-0.010306689888238907,-0.000675529707223177,0.013152551837265491
1772639546785802200,2.61880224609375,-0.005006295163184404,-0.009047051891684532,0.021613506600260735
1772639546795847000,2.628846923828125,0.0006899401778355241,-0.013664173893630505,0.027099084109067917
1772639546805892000,2.63889208984375,0.0007848429959267378,-0.010143865831196308,0.022397449240088463
1772639546815937000,2.64893701171875,-0.0032413238659501076,-0.0039094057865440845,0.010735467076301575
1772639546825982200,2.658982177734375,-0.009506802074611187,0.00044161221012473106,-0.0006245174445211887
1772639546836027000,2.66902685546875,-0.014334580861032009,0.006990059278905392,-0.00895195547491312
1772639546846071000,2.679071044921875,-0.015107898972928524,0.009438796900212765,-0.013390835374593735
1772639546856116000,2.689115966796875,-0.011142185889184475,0.006736487150192261,-0.0087252426892519
1772639546866161200,2.6991611328125,-0.004092423245310783,0.006252754479646683,-0.0005831471644341946
1772639546876205800,2.709205810546875,0.0021513579413294792,0.007989401929080486,0.01008521020412445
1772639546886251000,2.7192509765625,0.002550753764808178,0.006133994087576866,0.01920315809547901
1772639546896296000,2.7292958984375,-0.0026168436743319035,-0.004874448757618666,0.018785307183861732
1772639546906341000,2.739341064453125,-0.009254459291696548,-0.012409793213009834,0.011602582409977913
1772639546916386000,2.749385986328125,-0.01528332382440567,-0.012457197532057762,-0.000836509745568037
1772639546926431000,2.759430908203125,-0.017674781382083893,-0.007501227781176567,-0.014310313388705254
1772639546936476000,2.769475830078125,-0.017803145572543144,-0.0015554542187601328,-0.02493925578892231
1772639546946521000,2.77952099609375,-0.01479543186724186,0.005014471244066954,-0.024001218378543854
1772639546956565200,2.789565185546875,-0.006370522081851959,0.011098995804786682,-0.01485938485711813
1772639546966610000,2.79960986328125,0.0008931715274229646,0.015598688274621964,-0.005965142045170069
1772639546976655000,2.809655029296875,0.00959025602787733,0.013582408428192139,0.00670937355607748
1772639546986700000,2.819699951171875,0.012193543836474419,0.010736092925071716,0.014334623701870441
1772639546996745200,2.8297451171875,0.012093408964574337,0.0085376538336277,0.0197720006108284
1772639547006790000,2.839789794921875,0.005983943585306406,0.006359460297971964,0.01953473500907421
1772639547016835000,2.8498349609375,0.0009417809778824449,0.008300372399389744,0.015578875318169594
1772639547026880000,2.8598798828125,-0.0040562814101576805,0.011909193359315395,0.014029055833816528
1772639547036925200,2.86992529296875,-0.002071960363537073,0.01828746497631073,0.014532659202814102
1772639547046970000,2.87997021484375,0.004702650010585785,0.019673064351081848,0.016558032482862473
1772639547057015000,2.89001513671875,0.013014641590416431,0.017684748396277428,0.022817526012659073
1772639547067059000,2.900058837890625,0.020593170076608658,0.008595999330282211,0.025470737367868423
1772639547077104000,2.910104248046875,0.02204246073961258,0.0024086772464215755,0.022366821765899658
1772639547087149000,2.920149169921875,0.018720168620347977,0.003925081342458725,0.012850282713770866
1772639547097194000,2.930194091796875,0.014625024981796741,0.009479369968175888,-0.0004428853280842304
1772639547107239200,2.9402392578125,0.010646372102200985,0.01125706173479557,-0.01265784166753292
1772639547117284400,2.950284423828125,0.010059145279228687,0.007802409585565329,-0.02528735063970089
1772639547127329300,2.960329345703125,0.008832477033138275,0.0009757715743035078,-0.03362250328063965
1772639547137374200,2.970374267578125,0.012028803117573261,-0.002856251085177064,-0.03601907938718796
1772639547147419100,2.980419189453125,0.013846740126609802,-0.0025115408934652805,-0.035599399358034134
1772639547157464300,2.99046435546875,0.014350077137351036,0.0017212871462106705,-0.028338022530078888
1772639547167509200,3.00050927734375,0.015264324843883514,0.013824795372784138,-0.02432185783982277
1772639547177554400,3.010554443359375,0.022022893652319908,-0.0007978228386491537,-0.020335370674729347
1772639547187599000,3.02059912109375,0.02434116043150425,-0.011660215444862843,-0.014165882021188736
1772639547197643300,3.030643310546875,0.02036213129758835,-0.01908217929303646,-0.011516835540533066
1772639547207688400,3.0406884765625,0.012029210105538368,-0.03251566365361214,-0.011020790785551071
1772639547217733400,3.0507333984375,0.005590752232819796,-0.03245973959565163,-0.010450074449181557
1772639547227778300,3.0607783203125,0.0025398191064596176,-0.02541370317339897,-0.014606195501983166
1772639547237823200,3.0708232421875,0.0039994977414608,-0.017965905368328094,-0.01922677829861641
1772639547247868400,3.080868408203125,0.004180468153208494,-0.011733763851225376,-0.01863381266593933
1772639547257913300,3.090913330078125,0.005833758506923914,-0.005330459214746952,-0.014217492192983627
1772639547267958300,3.100958251953125,0.0075150891207158566,-0.003479446517303586,-0.0058625927194952965
1772639547278003200,3.111003173828125,0.008612312376499176,-0.005102910101413727,0.006829766556620598
1772639547288048400,3.12104833984375,0.008894216269254684,-0.002287335228174925,0.020281542092561722
1772639547298093300,3.13109326171875,0.005028371699154377,0.0004370785318315029,0.029821516945958138
1772639547308137200,3.14113720703125,-0.001203332096338272,0.0018645391101017594,0.03790050745010376
1772639547318182100,3.15118212890625,-0.005740825552493334,0.00018621515482664108,0.03826402872800827
1772639547328227300,3.161227294921875,-0.008839274756610394,-0.00017696339637041092,0.032006509602069855
1772639547338272300,3.171272216796875,-0.009870716370642185,0.006195181980729103,0.02216639369726181
1772639547348317400,3.1813173828125,-0.004890133161097765,0.012040862813591957,0.015712713822722435
1772639547358362000,3.191362060546875,-0.0019324264721944928,0.018418334424495697,0.012562992982566357
1772639547368407300,3.2014072265625,-0.0005532705690711737,0.01804707944393158,0.008290156722068787
1772639547378452200,3.2114521484375,-0.0013644694117829204,0.009834690019488335,0.007020362187176943
1772639547388497400,3.221497314453125,-0.007597691845148802,-0.004081799183040857,0.002423305297270417
1772639547398542000,3.2315419921875,-0.011611342430114746,-0.01413390040397644,-0.0004150918684899807
1772639547408587300,3.241587158203125,-0.012525979429483414,-0.01528414897620678,-0.0031313770450651646
1772639547418632200,3.251632080078125,-0.01033579558134079,-0.009300025179982185,-0.00472953962162137
1772639547428676400,3.26167626953125,-0.007440079934895039,-0.005257921759039164,-0.005286367144435644
1772639547438721300,3.27172119140625,-0.00501127727329731,-0.0037276698276400566,-0.002589383628219366
1772639547448766200,3.28176611328125,-0.0026626030448824167,0.001350760692730546,-0.0015052296221256256
1772639547458811400,3.291811279296875,-0.0005352699663490057,0.0038147172890603542,0.002783258678391576
1772639547468856300,3.301856201171875,0.0020834633614867926,0.0022041080519557,0.0037261047400534153
1772639547478901500,3.311901611328125,0.00032897270284593105,0.00030633946880698204,0.0005100714042782784
1772639547488946200,3.3219462890625,-0.000011614523828029633,0.0006090542301535606,-0.0011625634506344795
1772639547498991400,3.331991455078125,-0.0012646317481994629,-0.004063728265464306,-0.0033410293981432915
1772639547509036300,3.342036376953125,0.00028457597363740206,-0.006966236047446728,-0.005015004426240921
1772639547519081500,3.35208154296875,0.001091247540898621,-0.010546856559813023,-0.004027504473924637
1772639547529126100,3.362126220703125,0.004383526276797056,-0.012457557022571564,-0.0026484508998692036
1772639547539171300,3.37217138671875,0.0066200485453009605,-0.011057797819375992,0.003540469566360116
1772639547549215200,3.38221533203125,0.009819929488003254,-0.008428453467786312,0.008687582798302174
1772639547559260400,3.392260498046875,0.01076082419604063,-0.009400507435202599,0.011308666318655014
1772639547569305000,3.40230517578125,0.008668238297104836,-0.011973866261541843,0.014502067118883133
1772639547579350300,3.412350341796875,0.006953162606805563,-0.012353898026049137,0.017649125307798386
1772639547589395200,3.422395263671875,0.007267509587109089,-0.009422415867447853,0.01913720741868019
1772639547599440400,3.4324404296875,0.0077415527775883675,-0.008373396471142769,0.019628293812274933
1772639547609485300,3.4424853515625,0.007070937659591436,-0.009775996208190918,0.01871366798877716
1772639547619530200,3.4525302734375,0.004509509075433016,-0.009650295600295067,0.013972176238894463
1772639547629575200,3.4625751953125,0.0007854074938222766,-0.005380754359066486,0.010100550949573517
1772639547639620400,3.472620361328125,-0.002798408269882202,-0.002155133755877614,0.006139898207038641
1772639547649665300,3.482665283203125,-0.005229138769209385,0.001080645713955164,0.005316636525094509
1772639547659709200,3.492709228515625,-0.004294635262340307,0.00667008850723505,0.004815163556486368
1772639547669754400,3.50275439453125,-0.003129018470644951,0.0073631033301353455,0.005552355665713549
1772639547679799300,3.51279931640625,-0.001981462351977825,0.005507146008312702,0.009192630648612976
1772639547689844500,3.522844482421875,-0.000698617659509182,-0.002885806141421199,0.015347195789217949
1772639547699889200,3.53288916015625,-0.002385730156674981,-0.010862505994737148,0.01763192191720009
1772639547709934300,3.542934326171875,-0.003561138641089201,-0.012592729181051254,0.012279132381081581
1772639547719979300,3.552979248046875,-0.003975792787969112,-0.008279208093881607,0.007259871810674667
1772639547730024400,3.5630244140625,-0.005199876148253679,-0.006398358382284641,0.0026087535079568624
1772639547740069400,3.5730693359375,-0.0046800272539258,-0.003175932914018631,-0.0050379810854792595
1772639547750114300,3.5831142578125,-0.005352475214749575,-0.0060324398800730705,-0.007860398851335049
1772639547760159200,3.5931591796875,-0.00263125728815794,-0.005150667391717434,-0.008374655619263649
1772639547770204400,3.603204345703125,0.000817050808109343,-0.008090727031230927,-0.007382806856185198
1772639547780248000,3.613248046875,0.005571592599153519,-0.010687841102480888,-0.00255263177677989
1772639547790293200,3.623293212890625,0.006848092190921307,-0.013322168961167336,-0.0014257612638175488
1772639547800338200,3.633338134765625,0.003981998655945063,-0.012977022677659988,-0.00455124769359827
1772639547810383400,3.64338330078125,-0.0024569910019636154,-0.013487416319549084,-0.009939735755324364
1772639547820428300,3.65342822265625,-0.00518033979460597,-0.008209297433495522,-0.011938171461224556
1772639547830473200,3.66347314453125,-0.003406894626095891,0.0010453886352479458,-0.010807458311319351
1772639547840518100,3.67351806640625,0.002048057969659567,0.009556318633258343,-0.0008616163395345211
1772639547850563300,3.683563232421875,0.004726602230221033,0.008390425704419613,0.010521190240979195
1772639547860608300,3.693608154296875,0.003573985770344734,-0.003594065550714731,0.018285103142261505
1772639547870653400,3.7036533203125,-0.001155378995463252,-0.014854628592729568,0.01717044971883297
1772639547880698000,3.713697998046875,-0.005839080549776554,-0.018551362678408623,0.013156266883015633
1772639547890743300,3.723743408203125,-0.010149563662707806,-0.016950372606515884,0.0043161832727491856
1772639547900787500,3.733787353515625,-0.009764470160007477,-0.005058559589087963,-0.003194729331880808
1772639547910832000,3.74383203125,-0.008293450810015202,-0.0005352133885025978,-0.00986131839454174
1772639547920877300,3.753877197265625,-0.006736833602190018,0.00546728540211916,-0.00938168354332447
1772639547930922200,3.763922119140625,-0.0019642296247184277,0.011528835631906986,-0.006800102535635233
1772639547940967400,3.773967529296875,0.0037692897021770477,0.010627621784806252,-0.00032968632876873016
1772639547951012400,3.784012451171875,0.006572393234819174,0.004419184289872646,0.0063456823118031025
1772639547961057300,3.794057373046875,0.014190366491675377,-0.0011564097367227077,0.012247247621417046
1772639547971102200,3.804102294921875,0.011930735781788826,-0.0032817856408655643,0.013340401463210583
1772639547981147400,3.8141474609375,0.008843598887324333,-0.004106034059077501,0.01390073075890541
1772639547991192300,3.8241923828125,0.002155869035050273,-0.0036170780658721924,0.005382077302783728
1772639548001237500,3.834237548828125,0.00010070763528347015,-0.004722022917121649,0.002761260373517871
1772639548011281200,3.84428125,0.0017635705880820751,-0.007008635438978672,0.0010905535891652107
1772639548021326300,3.854326416015625,0.008559159003198147,-0.009049415588378906,0.006102622486650944
1772639548031371300,3.864371337890625,0.012299411930143833,-0.009571096859872341,0.010534555651247501
1772639548041416200,3.874416259765625,0.013778531923890114,-0.013305914588272572,0.014489615336060524
1772639548051461000,3.884461181640625,0.01064519677311182,-0.013927686028182507,0.017190435901284218
1772639548061506300,3.89450634765625,0.008719731122255325,-0.010500463657081127,0.01714702695608139
1772639548071551200,3.90455126953125,0.007043049670755863,-0.00730846356600523,0.014815900474786758
1772639548081596400,3.914596435546875,0.0060060154646635056,-0.012203087098896503,0.008849620819091797
1772639548091641000,3.92464111328125,0.002589401789009571,-0.02008770778775215,0.00020015472546219826
1772639548101686300,3.934686279296875,-0.002778732217848301,-0.0220698993653059,-0.00883355364203453
1772639548111731200,3.944731201171875,-0.006184836849570274,-0.01878810115158558,-0.014730408787727356
1772639548121776400,3.9547763671875,-0.0072327908128499985,-0.017450395971536636,-0.022745192050933838
1772639548131820500,3.964820556640625,-0.0059605548158288,-0.013323495164513588,-0.02279547229409218
1772639548141865500,3.974865478515625,-0.00553844403475523,-0.009242200292646885,-0.016929861158132553
1772639548151910400,3.984910400390625,-0.006514927837997675,-0.0033532739616930485,-0.005532919894903898
1772639548161955300,3.994955322265625,-0.00815330445766449,-0.00016280682757496834,0.002793719293549657
1772639548172000500,4.00500048828125,-0.012246035039424896,-0.0020861192606389523,0.014607872813940048
1772639548182045400,4.01504541015625,-0.010969050228595734,-0.005604421254247427,0.023235715925693512
1772639548192090600,4.025090576171875,-0.009857118129730225,-0.006635504309087992,0.02809937298297882
1772639548202135300,4.03513525390625,-0.009252579882740974,-0.007686654571443796,0.02887009270489216
1772639548212180500,4.045180419921875,-0.00864099245518446,-0.004440071526914835,0.028221236541867256
1772639548222225400,4.055225341796875,-0.009652459993958473,-0.001229364424943924,0.022252293303608894
1772639548232270600,4.0652705078125,-0.008511892519891262,-0.0012415761593729258,0.014155672863125801
1772639548242315300,4.075315185546875,-0.010858668945729733,0.002062074840068817,0.00900565180927515
1772639548252359400,4.085359375,-0.01059691235423088,-0.00031976960599422455,0.004780183546245098
1772639548262404400,4.095404296875,-0.010509826242923737,0.0014882504474371672,0.0037530025001615286
1772639548272449500,4.105449462890625,-0.009675318375229836,0.010036541149020195,0.009279705584049225
1772639548282494200,4.115494140625,-0.011948325671255589,0.009388593956828117,0.02038322389125824
1772639548292539400,4.125539306640625,-0.011657476425170898,0.004683902487158775,0.026151079684495926
1772639548302584300,4.135584228515625,-0.014813855290412903,-0.00039900653064250946,0.027787592262029648
1772639548312629500,4.14562939453125,-0.013466639444231987,-0.0048344857059419155,0.024365777149796486
1772639548322674400,4.15567431640625,-0.01324266754090786,-0.002047221176326275,0.015895327553153038
1772639548332719400,4.16571923828125,-0.010666358284652233,0.005951534956693649,0.010643325746059418
1772639548342764300,4.175764404296875,-0.0137455053627491,0.011587848886847496,0.0010471581481397152
1772639548352809500,4.1858095703125,-0.017259765416383743,0.004365160595625639,-0.0032170088961720467
1772639548362853400,4.195853271484375,-0.01988138072192669,-0.012411422096192837,-0.008898063562810421
1772639548372898300,4.205898193359375,-0.021872421726584435,-0.023158833384513855,-0.016102219000458717
1772639548382943500,4.215943603515625,-0.019694222137331963,-0.02625449188053608,-0.02201363816857338
1772639548392988400,4.225988525390625,-0.015456240624189377,-0.025777513161301613,-0.02641396038234234
1772639548403033600,4.23603369140625,-0.010864684358239174,-0.01805141568183899,-0.03110857866704464
1772639548413078300,4.246078369140625,-0.004460002761334181,-0.006840638350695372,-0.031015431508421898
1772639548423123500,4.25612353515625,0.0009360940894111991,0.0011938519310206175,-0.024441685527563095
1772639548433168400,4.26616845703125,0.0020469469018280506,0.006265249103307724,-0.012552563101053238
1772639548443213600,4.276213623046875,0.0028802501037716866,0.004467349033802748,-0.000785918440669775
1772639548453258500,4.286258544921875,0.001502722268924117,-0.0021779825910925865,0.009653943590819836
1772639548463303400,4.296303466796875,0.0024992770049721003,0.00017358874902129173,0.013561333529651165
1772639548473348400,4.306348388671875,0.0012266150442883372,0.0025701289996504784,0.01448153331875801
1772639548483392500,4.316392578125,0.0008766757091507316,-0.0007822578772902489,0.008602872490882874
1772639548493437200,4.326437255859375,0.00016938650514930487,-0.005035123787820339,0.005060270428657532
1772639548503482400,4.336482421875,0.002438932191580534,-0.004663080908358097,-0.0007930910214781761
1772639548513527300,4.34652734375,0.003754140343517065,-0.004235300235450268,-0.0037424294278025627
1772639548523572500,4.356572509765625,0.004035370424389839,0.0012755787465721369,-0.002174360677599907
1772639548533617400,4.366617431640625,0.001970496494323015,0.0009711252059787512,0.003481123596429825
1772639548543662300,4.376662353515625,0.0006785971345379949,0.0002291684504598379,0.011399766430258751
1772639548553707300,4.386707275390625,0.0017771676648408175,-0.0007027806714177132,0.015333510935306549
1772639548563752400,4.39675244140625,0.0040049017407000065,-0.0018679136410355568,0.017459247261285782
1772639548573797400,4.40679736328125,0.0077336570248007774,-0.0003092035185545683,0.013345539569854736
1772639548583842600,4.416842529296875,0.007792246527969837,-0.000714270630851388,0.010702085681259632
1772639548593887200,4.42688720703125,0.00795004703104496,-0.0035769566893577576,0.003758953884243965
1772639548603931400,4.436931396484375,0.007845118641853333,-0.006610030774027109,-0.00459271902218461
1772639548613976600,4.4469765625,0.006843816488981247,-0.004786760546267033,-0.00806512776762247
1772639548624021200,4.457021240234375,0.0074787139892578125,-0.0018865778110921383,-0.013444180600345135
1772639548634066400,4.46706640625,0.007829264737665653,-0.009738923981785774,-0.01696123369038105
1772639548644111400,4.477111328125,0.004934674594551325,-0.018837880343198776,-0.019581783562898636
1772639548654156500,4.487156494140625,0.004675469361245632,-0.0222761407494545,-0.018051065504550934
1772639548664201500,4.497201416015625,0.0056951940059661865,-0.01885025016963482,-0.01585742086172104
1772639548674246400,4.507246337890625,0.003931570798158646,-0.016884820535779,-0.008289966732263565
1772639548684291300,4.517291259765625,0.003075630636885762,-0.018552759662270546,0.002746971556916833
1772639548694336500,4.52733642578125,-0.002101036487147212,-0.013489846140146255,0.011904144659638405
1772639548704381400,4.53738134765625,-0.001282647019252181,-0.011877834796905518,0.020454755052924156
1772639548714426600,4.547426513671875,-0.0026020242366939783,-0.012208935804665089,0.019196856766939163
1772639548724470300,4.55747021484375,-0.007378669921308756,-0.011436618864536285,0.018305499106645584
1772639548734515500,4.567515380859375,-0.01149151474237442,-0.0113306799903512,0.01317704375833273
1772639548744560400,4.577560302734375,-0.013246005401015282,-0.008008652366697788,0.008944481611251831
1772639548754605300,4.587605224609375,-0.013259665109217167,-0.003971550613641739,0.01287326030433178
1772639548764650200,4.597650146484375,-0.013723854906857014,-0.0018167868256568909,0.01607091724872589
1772639548774695400,4.6076953125,-0.015720395371317863,-0.0014480254612863064,0.014546886086463928
1772639548784740400,4.617740234375,-0.01997133158147335,-0.0031215562485158443,0.01300065591931343
1772639548794785500,4.62778564453125,-0.01986466720700264,-0.002311346121132374,0.006001979112625122
1772639548804830200,4.637830322265625,-0.021709704771637917,0.007842754945158958,0.003956404980272055
1772639548814875400,4.64787548828125,-0.016821032389998436,0.011383822187781334,0.0029703667387366295
1772639548824920300,4.65792041015625,-0.011746378615498543,0.01196226105093956,0.0038334974087774754
1772639548834965500,4.667965576171875,-0.011911777779459953,0.00576053187251091,0.005054145120084286
1772639548845009400,4.678009521484375,-0.014642050489783287,-0.006083610467612743,0.005842973478138447
1772639548855054300,4.688054443359375,-0.017674967646598816,-0.017526844516396523,0.006375059485435486
1772639548865099500,4.698099609375,-0.02255973592400551,-0.017312726005911827,0.002859686966985464
1772639548875144400,4.70814453125,-0.02583124488592148,-0.008081797510385513,-0.005028930492699146
1772639548885189400,4.718189453125,-0.025866664946079254,-0.0030814458150416613,-0.0112234428524971
1772639548895234300,4.728234375,-0.022039245814085007,0.001657399581745267,-0.012238824740052223
1772639548905279500,4.738279541015625,-0.014758696779608727,-0.0006784591823816299,-0.010636134073138237
1772639548915324400,4.748324462890625,-0.00889759510755539,-0.002008149167522788,-0.006447901949286461
1772639548925369600,4.75836962890625,-0.006101009901612997,-0.003392194164916873,-0.0024635465815663338
1772639548935414300,4.768414306640625,-0.007087538484483957,-0.003008307423442602,0.0002673491835594177
1772639548945459500,4.77845947265625,-0.009111806750297546,-0.003294597379863262,-0.0023500057868659496
1772639548955503400,4.78850341796875,-0.012076345272362232,-0.0037276213988661766,-0.0012138797901570797
1772639548965548500,4.798548583984375,-0.015119538642466068,-0.005697295069694519,-0.0015771351754665375
1772639548975593200,4.80859326171875,-0.012985377572476864,-0.0029723586048930883,-0.003688014578074217
1772639548985638400,4.818638427734375,-0.010203439742326736,-0.0010908355470746756,0.002361622406169772
1772639548995683300,4.828683349609375,-0.001304015633650124,-0.0022328917402774096,0.008275243453681469
1772639549005728500,4.838728515625,0.00927006546407938,-0.00707185547798872,0.017373932525515556
1772639549015773200,4.848773193359375,0.015559774823486805,-0.009719118475914001,0.022256432101130486
1772639549025818400,4.858818359375,0.017154209315776825,-0.01488298736512661,0.023801330476999283
1772639549035863300,4.86886328125,0.011512761004269123,-0.01672867313027382,0.018061913549900055
1772639549045908500,4.878908447265625,0.005325437989085913,-0.01168038509786129,0.00894724577665329
1772639549055953400,4.888953369140625,-0.0007111489539965987,-0.002728169085457921,0.0038060136139392853
1772639549065998300,4.898998291015625,-0.005228402558714151,0.00047987489961087704,-0.00006755394861102104
1772639549076042500,4.90904248046875,-0.0045892586931586266,0.0002694625873118639,-0.0015819328837096691
1772639549086087400,4.91908740234375,-0.0006025066832080483,-0.002270926721394062,-0.0004362412728369236
1772639549096132600,4.929132568359375,0.0030263946391642094,-0.0035788207314908504,0.0033557512797415257
1772639549106177300,4.93917724609375,0.006094356067478657,-0.005872334819287062,0.0015200343914330006
1772639549116222500,4.949222412109375,0.008640088140964508,-0.004962176084518433,-0.0007252860814332962
1772639549126267400,4.959267333984375,0.010351435281336308,-0.004542462527751923,-0.0036582257598638535
1772639549136312600,4.9693125,0.00839206948876381,-0.0008190800435841084,-0.0034560076892375946
1772639549146357200,4.979357177734375,0.00782188680022955,-0.001150377094745636,-0.0000010891817510128021
1772639549156402400,4.98940234375,0.007712430786341429,-0.0013221511617302895,0.0049803536385297775
1772639549166447400,4.999447265625,0.007612562272697687,-0.0007088249549269676,0.00965739693492651
1772639549176492500,5.009492431640625,0.009308994747698307,-0.002976641757413745,0.0115992221981287
1772639549186537500,5.019537353515625,0.009104996919631958,-0.0023843550588935614,0.013065025210380554
1772639549196581400,5.029581298828125,0.012052144855260849,-0.0034132590517401695,0.008858471177518368
1772639549206626300,5.039626220703125,0.012589571066200733,-0.005034857429563999,0.002840259578078985
1772639549216671500,5.04967138671875,0.009109288454055786,-0.005077430047094822,-0.004327715374529362
1772639549226716400,5.05971630859375,0.007815791293978691,0.00040175742469727993,-0.007765856571495533
1772639549236761300,5.06976123046875,0.0059358347207307816,0.0035536952782422304,-0.007214945740997791
1772639549246806300,5.07980615234375,0.008045857772231102,-0.00193907436914742,-0.004176279529929161
1772639549256851500,5.0898515625,0.010787143371999264,-0.005078267306089401,-0.0023579648695886135
1772639549266896400,5.099896484375,0.01016423013061285,-0.007427974604070187,-0.0023499750532209873
1772639549276941300,5.10994140625,0.008035377599298954,-0.004371481016278267,-0.004824666306376457
1772639549286986200,5.119986328125,0.006221497897058725,-0.003899834817275405,-0.007683036848902702
1772639549297031400,5.130031494140625,0.00681627681478858,-0.004790386185050011,-0.00902361236512661
1772639549307075600,5.14007568359375,0.010466406121850014,-0.0021141753531992435,-0.006493875756859779
1772639549317120300,5.150120361328125,0.013026578351855278,0.004320669453591108,-0.005041355732828379
1772639549327165400,5.16016552734375,0.013536041602492332,0.00982515700161457,-0.0008844276890158653
1772639549337210400,5.17021044921875,0.005559264682233334,0.002536236774176359,0.002953421790152788
1772639549347255600,5.180255615234375,-0.0020587074104696512,-0.005211431533098221,0.0016940128989517689
1772639549357300200,5.19030029296875,-0.007179073989391327,-0.009018680080771446,-0.0020011006854474545
1772639549367345400,5.200345458984375,-0.007613968104124069,-0.007406402379274368,-0.004066115710884333
1772639549377390300,5.210390380859375,-0.005564524792134762,-0.000733374385163188,-0.004784109070897102
1772639549387435500,5.220435546875,-0.0012933468678966165,0.0036563139874488115,-0.004363329149782658
1772639549397480400,5.23048046875,0.0041500297375023365,0.00549424160271883,-0.0016073407605290413
1772639549407525400,5.240525390625,0.007121584843844175,0.008134233765304089,0.0030470658093690872
1772639549417570300,5.2505703125,0.012098154984414577,0.007011325564235449,0.00696556968614459
1772639549427615500,5.260615478515625,0.012977797538042068,0.006111177150160074,0.009708093479275703
1772639549437659400,5.270659423828125,0.01400001160800457,0.004003291018307209,0.007862279191613197
1772639549447704300,5.280704345703125,0.010055070742964745,0.0014003175310790539,0.0072548119351267815
1772639549457749200,5.290749267578125,0.006791790947318077,-0.00038283178582787514,0.0030810919124633074
1772639549467794400,5.30079443359375,0.0037086494266986847,0.004004992078989744,0.0013630865141749382
1772639549477839400,5.31083935546875,0.0002197980647906661,0.00252184527926147,0.002546963281929493
1772639549487884300,5.32088427734375,-0.0002648972440510988,-0.001504854066297412,0.006764078978449106
1772639549497929200,5.33092919921875,-0.0005209670634940267,-0.0051579889841377735,0.010687070898711681
1772639549507974400,5.340974365234375,0.004796566441655159,-0.008417963981628418,0.013386450707912445
1772639549518019300,5.351019287109375,0.004160979297012091,-0.008817008696496487,0.013713766820728779
1772639549528064500,5.361064453125,0.0016304434975609183,-0.008318996988236904,0.008509684354066849
1772639549538109200,5.371109130859375,-0.004054715391248465,-0.004136400762945414,0.005389777477830648
1772639549548153300,5.3811533203125,-0.004248593468219042,0.0016077717300504446,0.0005857013165950775
1772639549558198500,5.391198486328125,-0.006028058007359505,0.0030431735794991255,-0.0015109619125723839
1772639549568243500,5.401243408203125,-0.004256523214280605,0.0047782231122255325,0.00012421933934092522
1772639549578288400,5.411288330078125,0.0013351930538192391,0.0002570550423115492,0.0029518415685743093
1772639549588333300,5.421333251953125,0.0037163253873586655,-0.002825287403538823,0.00767309358343482
1772639549598378500,5.43137841796875,0.003684836905449629,-0.004454039037227631,0.01173859741538763
1772639549608423400,5.44142333984375,0.00067226926330477,-0.004353105090558529,0.014541308395564556
1772639549618468400,5.45146826171875,-0.006396637298166752,0.001868854509666562,0.017127320170402527
1772639549628513300,5.46151318359375,-0.009921863675117493,0.00607531750574708,0.015346197411417961
1772639549638558500,5.471558349609375,-0.010702262632548809,0.006498754024505615,0.01321378257125616
1772639549648603400,5.481603271484375,-0.009428739547729492,0.004332005977630615,0.007954305969178677
1772639549658648600,5.491648681640625,-0.009753050282597542,0.002164818812161684,0.002856674836948514
1772639549668692200,5.501692138671875,-0.00578307593241334,0.00021698256023228168,0.0009730211459100246
1772639549678737400,5.5117373046875,-0.004270964302122593,-0.001252729445695877,0.0030869420152157545
1772639549688782300,5.5217822265625,-0.005168981850147247,-0.0005384697578847408,0.007147730328142643
1772639549698827500,5.53182763671875,-0.006717140786349773,0.0010821025352925062,0.01273815892636776
1772639549708872200,5.5418720703125,-0.005714992992579937,0.008184220641851425,0.013351751491427422
1772639549718917400,5.55191748046875,-0.008917208760976791,0.01465312484651804,0.013572963885962963
1772639549728962300,5.56196240234375,-0.008145690895617008,0.01263950951397419,0.016362357884645462
1772639549739007500,5.572007568359375,-0.009018427692353725,0.0031732767820358276,0.01774280145764351
1772639549749052200,5.58205224609375,-0.010795287787914276,-0.0012025628238916397,0.015992838889360428
1772639549759097300,5.592097412109375,-0.007382649928331375,0.0038819056935608387,0.014983311295509338
1772639549769142300,5.602142333984375,-0.008940332569181919,0.0028142444789409637,0.012277806177735329
1772639549779187500,5.6121875,-0.006215417291969061,-0.0038472998421639204,0.009589513763785362
1772639549789231400,5.6222314453125,-0.009371529333293438,-0.008630869910120964,0.010241189040243626
1772639549799276300,5.6322763671875,-0.003778310725465417,-0.010327761992812157,0.010549446567893028
1772639549809321500,5.642321533203125,0.0017860981170088053,-0.006763387471437454,0.011612314730882645
1772639549819366400,5.652366455078125,0.0016777076525613666,-0.006491612643003464,0.014185037463903427
1772639549829411600,5.66241162109375,0.0007389433449134231,-0.009250914677977562,0.016158439218997955
1772639549839456300,5.672456298828125,-0.004588508512824774,-0.014804501086473465,0.013659898191690445
1772639549849501400,5.68250146484375,-0.009448776952922344,-0.018713222816586494,0.005991858895868063
1772639549859546400,5.69254638671875,-0.012806396931409836,-0.01846087910234928,-0.0020248806104063988
1772639549869591600,5.702591552734375,-0.01193314604461193,-0.015337524935603142,-0.005755170248448849
1772639549879636200,5.71263623046875,-0.010272976942360401,-0.007640924770385027,-0.0079205222427845
1772639549889681400,5.722681396484375,-0.007559215649962425,0.0011064941063523293,-0.0033824960701167583
1772639549899726300,5.732726318359375,0.0005352884763851762,0.0025917449966073036,0.006097048986703157
1772639549909770500,5.7427705078125,0.005794232711195946,0.0012322014663368464,0.018822431564331055
1772639549919815400,5.7528154296875,0.007327462546527386,-0.0006982495542615652,0.024368859827518463
1772639549929860400,5.7628603515625,0.010351481847465038,0.0072267851792275906,0.025342509150505066
1772639549939905300,5.7729052734375,0.009146448224782944,0.004679804667830467,0.025930583477020264
1772639549949950500,5.782950439453125,0.0056049758568406105,-0.003134176367893815,0.018707025796175003
1772639549959995400,5.792995361328125,0.0014232640387490392,-0.003271752502769232,0.013765006326138973
1772639549970040300,5.803040283203125,-0.0024849248584359884,-0.007304044906049967,0.001374649815261364
1772639549980085200,5.813085205078125,-0.002191319363191724,-0.007318370975553989,-0.0070963273756206036
1772639549990130400,5.82313037109375,-0.002331401687115431,0.00035978853702545166,-0.012459134683012962
1772639550000175400,5.83317529296875,-0.0039034169167280197,-0.000519647728651762,-0.013755591586232185
1772639550010220300,5.84322021484375,-0.00581343611702323,0.003155248239636421,-0.014013918116688728
1772639550020265200,5.85326513671875,-0.0020780880004167557,0.002726077800616622,-0.011536527425050735
1772639550030309400,5.863309326171875,0.0003619000781327486,-0.003975766710937023,-0.011089649051427841
1772639550040354600,5.8733544921875,0.0011939045507460833,-0.004063337109982967,-0.006254435051232576
1772639550050399200,5.883399169921875,0.0002668581437319517,-0.005389590747654438,-0.004971058573573828
1772639550060444400,5.8934443359375,-0.004086408764123917,-0.0075959814712405205,-0.005547177046537399
1772639550070489300,5.9034892578125,-0.006472866982221603,-0.0011748336255550385,-0.008455082774162292
1772639550080534500,5.913534423828125,-0.0015816889936104417,0.0020283071789890528,-0.011708942241966724
1772639550090579500,5.923579345703125,-0.00007354095578193665,0.006674990523606539,-0.012803501449525356
1772639550100624400,5.933624267578125,0.0016772061353549361,0.007357270456850529,-0.013268595561385155
1772639550110669300,5.94366943359375,-0.0004514585016295314,0.004420069977641106,-0.011883219704031944
1772639550120714500,5.953714599609375,0.0009637923212721944,-0.0011906072031706572,-0.006717931479215622
1772639550130759400,5.963759521484375,0.002652236260473728,-0.002808477496728301,-0.0011545876041054726
1772639550140803300,5.97380322265625,0.0017329591792076826,-0.00046149827539920807,-0.00047581177204847336
1772639550150848500,5.9838486328125,-0.0029733791016042233,0.003040025942027569,0.0017149043269455433
1772639550160893400,5.9938935546875,-0.004090309143066406,0.002332157688215375,0.0017133066430687904
1772639550170938400,6.0039384765625,-0.0014812099980190396,-0.004737203475087881,-0.0009991228580474854
1772639550180983300,6.0139833984375,0.001096620922908187,-0.008014652878046036,-0.0038966559804975986
1772639550191028500,6.024028564453125,0.004699078854173422,-0.006747254636138678,-0.005443953443318605
1772639550201073400,6.034073486328125,0.007775468751788139,-0.00388556276448071,-0.006415648385882378
1772639550211118300,6.044118408203125,0.007109678350389004,0.00349299143999815,-0.005960248410701752
1772639550221163500,6.05416357421875,0.0036376998759806156,0.006267184391617775,-0.006790460087358952
1772639550231208400,6.06420849609375,-0.00018366973381489515,0.004415754694491625,-0.008401673287153244
1772639550241253400,6.07425341796875,-0.005155212711542845,0.00023159757256507874,-0.00505893724039197
1772639550251298300,6.08429833984375,-0.004730705171823502,-0.006027364172041416,-0.004362521227449179
1772639550261342200,6.09434228515625,-0.008154151029884815,-0.004039243794977665,-0.0010191015899181366
1772639550271387400,6.104387451171875,-0.009305702522397041,-0.008161816745996475,-0.0006680968217551708
1772639550281432300,6.114432373046875,-0.00918208435177803,-0.003192287404090166,0.0013266978785395622
1772639550291477500,6.1244775390625,-0.011492377147078514,-0.0088246064260602,-0.003939703106880188
1772639550301522400,6.1345224609375,-0.007990038953721523,-0.003981359302997589,-0.006599560845643282
1772639550311567400,6.1445673828125,-0.0009662183001637459,0.004016113001853228,-0.007027264218777418
1772639550321612300,6.1546123046875,0.001110391691327095,0.002237337175756693,-0.0063012526370584965
1772639550331657500,6.164657470703125,0.0009061272721737623,0.0022927308455109596,-0.0041715227998793125
1772639550341702400,6.174702392578125,-0.00118525349535048,-0.0038060429506003857,-0.004273944068700075
1772639550351747600,6.18474755859375,-0.007580302190035582,-0.011987540870904922,-0.00240866607055068
1772639550361792300,6.194792236328125,-0.009399883449077606,-0.02011340856552124,-0.00025673024356365204
1772639550371837400,6.20483740234375,-0.010060880333185196,-0.02024230733513832,-0.00012863241136074066
1772639550381881600,6.214881591796875,-0.012356508523225784,-0.01613781601190567,0.001239844597876072
1772639550391926300,6.22492626953125,-0.015272669494152069,-0.006351764313876629,0.0027509224601089954
1772639550401971500,6.234971435546875,-0.01572948321700096,-0.002664872445166111,0.0033360628876835108
1772639550412016400,6.245016357421875,-0.010902768932282925,-0.0014877552166581154,0.0027341884560883045
1772639550422061600,6.2550615234375,-0.0078015015460550785,-0.0008021006360650063,-0.0018832096830010414
1772639550432106500,6.2651064453125,-0.0072603472508490086,-0.0004817219451069832,-0.004613216035068035
1772639550442151400,6.2751513671875,-0.010131782852113247,0.005083463154733181,-0.004565651062875986
1772639550452196400,6.2851962890625,-0.015004835091531277,0.0013784735929220915,-0.007306044455617666
1772639550462241500,6.295241455078125,-0.017291566357016563,0.0006315114442259073,-0.0053584701381623745
1772639550472286500,6.305286376953125,-0.016289152204990387,0.002314629266038537,-0.003694793675094843
1772639550482331400,6.315331298828125,-0.012658355757594109,0.0016924119554460049,-0.0016566622070968151
1772639550492376300,6.325376220703125,-0.009777613915503025,-0.004498905502259731,-0.0002869986928999424
1772639550502420500,6.33542041015625,-0.006250946316868067,-0.009836646728217602,0.0002889418974518776
1772639550512465400,6.34546533203125,-0.006180905271321535,-0.007736211642622948,-0.004425918683409691
1772639550522510300,6.35551025390625,-0.008925308473408222,-0.006786685436964035,-0.009308015927672386
1772639550532555300,6.36555517578125,-0.012472638860344887,-0.0009509003721177578,-0.013137375935912132
1772639550542600400,6.375600341796875,-0.012994008138775826,0.004021737724542618,-0.016296232119202614
1772639550552645400,6.385645263671875,-0.009732434526085854,0.004471012856811285,-0.018420103937387466
1772639550562690600,6.395690673828125,-0.0042690071277320385,0.004887993447482586,-0.018091557547450066
1772639550572735200,6.4057353515625,-0.0000729304738342762,0.0030291068833321333,-0.015684058889746666
1772639550582780400,6.415780517578125,0.000898385769687593,-0.0016073635779321194,-0.015257226303219795
1772639550592825300,6.425825439453125,0.0019620521925389767,-0.0028667724691331387,-0.01859949342906475
1772639550602870500,6.43587060546875,0.0038049453869462013,-0.002024969784542918,-0.023208200931549072
1772639550612914400,6.44591455078125,0.003119714092463255,0.0021545952185988426,-0.025821825489401817
1772639550622959400,6.45595947265625,0.003472724463790655,0.005260053090751171,-0.024724077433347702
1772639550633004500,6.466004638671875,0.004245041403919458,0.01027824729681015,-0.019743166863918304
1772639550643049500,6.476049560546875,0.0077919005416333675,0.008116653189063072,-0.012677607126533985
1772639550653094400,6.486094482421875,0.01143430545926094,0.0047197905369102955,-0.005484940484166145
1772639550663139300,6.496139404296875,0.008262482471764088,-0.0005699112080037594,0.0007989373989403248
1772639550673184500,6.5061845703125,0.005898927338421345,0.0011709972750395536,0.010433721356093884
1772639550683229400,6.5162294921875,0.0018576431320980191,0.002159790601581335,0.01557183638215065
1772639550693274600,6.526274658203125,0.0010573632316663861,-5.655456334352493e-7,0.017118867486715317
1772639550703319300,6.5363193359375,0.007655156776309013,0.004444234073162079,0.014854565262794495
1772639550713364500,6.546364501953125,0.012460298836231232,0.006365172099322081,0.010545836761593819
1772639550723409400,6.556409423828125,0.013023494742810726,0.005823658779263496,0.005631047300994396
1772639550733454600,6.56645458984375,0.011676734313368797,0.005348550621420145,0.0031244803685694933
1772639550743498200,6.576498291015625,0.010162130929529667,-0.0017434086184948683,-0.0004559531807899475
1772639550753543400,6.58654345703125,0.006499486044049263,-0.0036635480355471373,-0.0013102949596941471
1772639550763588400,6.59658837890625,0.004978131037205458,-0.0024963871110230684,0.0022567566484212875
1772639550773633500,6.606633544921875,0.004644170869141817,-0.000219384441152215,0.006346306763589382
1772639550783678200,6.61667822265625,0.0011898475931957364,0.005540461745113134,0.010374948382377625
1772639550793723400,6.626723388671875,-0.0008978043333627284,0.008459819480776787,0.009296368807554245
1772639550803768300,6.636768310546875,-0.002635721117258072,0.009649279527366161,0.01248063612729311
1772639550813813500,6.6468134765625,-0.004753200337290764,0.01755141094326973,0.009434246458113194
1772639550823858400,6.6568583984375,-0.0018025112804025412,0.0284850113093853,0.006423254497349262
1772639550833903400,6.6669033203125,0.005463657435029745,0.02782588079571724,0.006282106973230839
1772639550843948300,6.6769482421875,0.0037567592225968838,0.03152396157383919,0.012497209012508392
1772639550853992400,6.686992431640625,-0.0005666164215654135,0.025607217103242874,0.01760222390294075
1772639550864037600,6.69703759765625,-0.012425328604876995,0.006948426831513643,0.021422024816274643
1772639550874082300,6.707082275390625,-0.024309685453772545,-0.009792204014956951,0.018861662596464157
1772639550884127500,6.71712744140625,-0.02900911308825016,-0.005620384123176336,0.013164788484573364
1772639550894172400,6.72717236328125,-0.02413260005414486,-0.005508264992386103,-0.0002628695219755173
1772639550904217600,6.737217529296875,-0.012077944353222847,-0.004002328030765057,-0.012410757131874561
1772639550914262300,6.74726220703125,-0.002686040475964546,-0.001215596217662096,-0.016817491501569748
1772639550924307500,6.757307373046875,0.00637417659163475,0.0009893151000142097,-0.01868901588022709
1772639550934352400,6.767352294921875,0.008973155170679092,0.0009664117824286222,-0.014854328706860542
1772639550944397600,6.7773974609375,0.007760162930935621,0.00024281535297632217,-0.010343017056584358
1772639550954442500,6.7874423828125,0.0011906775180250406,0.00026225647889077663,-0.0050814091227948666
1772639550964487400,6.7974873046875,-0.006365007720887661,0.0016189571470022202,-0.0007392214611172676
1772639550974531300,6.80753125,-0.014828267507255077,-0.000777355395257473,0.00417883787304163
1772639550984576500,6.817576416015625,-0.017713144421577454,-0.004731828346848488,0.007384755183011293
1772639550994621400,6.827621337890625,-0.018513157963752747,-0.004445538856089115,0.007723775692284107
1772639551004666400,6.837666259765625,-0.0147174671292305,-0.0044076223857700825,0.010768520645797253
1772639551014711300,6.847711181640625,-0.010814604349434376,0.0005921956617385149,0.013196790590882301
1772639551024756500,6.857756591796875,-0.009529078379273415,0.005345432087779045,0.012990002520382404
1772639551034801400,6.867801513671875,-0.009243054315447807,0.005718008149415255,0.011287976056337357
1772639551044846300,6.877846435546875,-0.00985385850071907,0.0017012166790664196,0.008055170066654682
1772639551054891300,6.887891357421875,-0.0089790103957057,0.00021810224279761314,0.0047081089578568935
1772639551064936400,6.8979365234375,-0.010471198707818985,-0.006215321831405163,-0.005565972067415714
1772639551074981400,6.9079814453125,-0.018165603280067444,-0.014364061877131462,-0.013608451932668686
1772639551085026600,6.918026611328125,-0.016335055232048035,0.0061354567296803,-0.013889165595173836
1772639551095070500,6.928070556640625,-0.009758112020790577,0.003455251222476363,-0.010608682408928871
1772639551105115400,6.938115478515625,-0.004335475619882345,0.001125245587900281,-0.00792743731290102
1772639551115160000,6.94816015625,0.00031360459979623556,-0.0043656593188643456,-0.0033470671623945236
1772639551125204700,6.958204833984375,0.002018902450799942,-0.004403627943247557,-0.004146778956055641
1772639551135250000,6.96825,0.006560124456882477,-0.0052204192616045475,-0.006764932535588741
1772639551145294800,6.978294921875,0.00760170491412282,-0.007570100482553244,-0.011671401560306549
1772639551155340000,6.988340087890625,0.004543597344309092,-0.005994574632495642,-0.012320678681135178
1772639551165385000,6.998385009765625,-0.00004009425174444914,-0.006510483101010323,-0.012727882713079453
1772639551175430000,7.008429931640625,-0.0041437591426074505,-0.003953582141548395,-0.010359533131122589
1772639551185474800,7.018474853515625,-0.004159566015005112,-0.0034368042834103107,-0.007546610198915005
1772639551195520000,7.02852001953125,-0.006989973597228527,-0.003361436538398266,0.0019001546315848827
1772639551205564000,7.03856396484375,-0.007886315695941448,-0.0029539887327700853,0.011247234418988228
1772639551215608800,7.04860888671875,-0.007703888695687056,-0.00251616514287889,0.012117289006710052
1772639551225653800,7.05865380859375,-0.008551903069019318,-0.0010945317335426807,0.012940927408635616
1772639551235699000,7.068698974609375,-0.005273285321891308,0.000713221961632371,0.008309956640005112
1772639551245743900,7.078743896484375,-0.0040765381418168545,0.0035090246237814426,0.007922548800706863
1772639551255788800,7.088788818359375,-0.008234265260398388,0.004677619785070419,0.004686009604483843
1772639551265833700,7.098833740234375,-0.008218348026275635,0.0011030321475118399,0.0032383883371949196
1772639551275879000,7.10887890625,-0.007664411328732967,-0.007354635279625654,-0.0012785992585122585
1772639551285923800,7.118923828125,-0.005238992162048817,-0.011645268648862839,-0.005568501073867083
1772639551295969000,7.128968994140625,-0.003256002441048622,-0.014795789495110512,-0.012926548719406128
1772639551306013700,7.139013671875,-0.006452609784901142,-0.008586384356021881,-0.0177640188485384
1772639551316059000,7.149058837890625,-0.007391640450805426,-0.0015764124691486359,-0.01854912005364895
1772639551326103800,7.159103759765625,-0.00513543002307415,0.0020517169032245874,-0.014092609286308289
1772639551336147700,7.169147705078125,0.00011099700350314379,0.002309777308255434,-0.0007211440242826939
1772639551346193000,7.17919287109375,0.003568065818399191,0.003401166759431362,0.01602734625339508
1772639551356237800,7.18923779296875,0.0061057922430336475,-0.00048624956980347633,0.02781103551387787
1772639551366283000,7.199282958984375,0.0023699565790593624,-0.007014918141067028,0.030635671690106392
1772639551376328000,7.209327880859375,-0.005555344745516777,-0.016160212457180023,0.021011807024478912
1772639551386372900,7.219372802734375,-0.016858410090208054,-0.023867249488830566,0.010577511042356491
1772639551396417800,7.229417724609375,-0.02484363131225109,-0.017728131264448166,-0.00602064048871398
1772639551406463000,7.239462890625,-0.022482629865407944,-0.008016484789550304,-0.010832693427801132
1772639551416508000,7.2495078125,-0.017964577302336693,0.000541050685569644,-0.009104035794734955
1772639551426553000,7.259552978515625,-0.010826006531715393,-0.0013021714985370636,0.0011811102740466595
1772639551436597800,7.26959765625,-0.006679198704659939,-0.006829296238720417,0.014105962589383125
1772639551446642000,7.279641845703125,-0.0017167263431474566,-0.0052426778711378574,0.020778054371476173
1772639551456686800,7.289686767578125,-0.0025439041201025248,-0.005019504111260176,0.023138413205742836
1772639551466731800,7.299731689453125,-0.0023737906012684107,-0.0009433629456907511,0.015168447047472
1772639551476777000,7.30977685546875,-0.004789277911186218,0.0006446801126003265,0.00603513652458787
1772639551486822000,7.31982177734375,-0.0021453071385622025,-0.0025776359252631664,-0.0039335996843874454
1772639551496866800,7.32986669921875,-0.004118176642805338,-0.0010718847624957561,-0.01297476515173912
1772639551506912000,7.339912109375,-0.008653901517391205,0.002707130741328001,-0.016043586656451225
1772639551516957000,7.34995703125,-0.01388781238347292,0.003326315665617585,-0.012667497619986534
1772639551527001900,7.360001953125,-0.016738882288336754,0.005177511367946863,-0.0049897050485014915
1772639551537046800,7.370046875,-0.01648055575788021,-0.00010593375191092491,0.003605381352826953
1772639551547092000,7.380092041015625,-0.013068278320133686,-0.0020861737430095673,0.007321991957724094
1772639551557137000,7.390136962890625,-0.007478303276002407,0.0005042832344770432,0.006037549581378698
1772639551567180800,7.400180908203125,-0.006539695896208286,0.0036283342633396387,0.003055622335523367
1772639551577226000,7.41022607421875,-0.00926996860653162,0.006229709833860397,-0.0017945263534784317
1772639551587271000,7.42027099609375,-0.010168550536036491,0.003005774226039648,-0.0013040690682828426
1772639551597315800,7.43031591796875,-0.011297198012471199,-0.0018097534775733948,-0.004917179699987173
1772639551607360800,7.44036083984375,-0.011079507879912853,-0.003742111148312688,-0.013114489614963531
1772639551617406000,7.450406005859375,-0.010960730724036694,-0.005230552516877651,-0.019891168922185898
1772639551627451000,7.460450927734375,-0.010680174455046654,0.001052165636792779,-0.022281352430582047
1772639551637496000,7.47049609375,-0.00834458228200674,0.0013847944792360067,-0.026371169835329056
1772639551647540700,7.480540771484375,-0.002453434746712446,-0.000833265483379364,-0.02680189721286297
1772639551657586000,7.4905859375,0.00187952839769423,-0.0017736274749040604,-0.02662905864417553
1772639551667630800,7.500630859375,0.0015703649260103703,-0.0041145021095871925,-0.019642576575279236
1772639551677676000,7.510676025390625,0.0003208096604794264,-0.008502059616148472,-0.017036406323313713
1772639551687720000,7.520719970703125,0.004903263878077269,-0.007489063777029514,0.0029958027880638838
1772639551697764900,7.530764892578125,0.0062630739994347095,-0.028812462463974953,0.020398229360580444
1772639551707810000,7.54081005859375,0.013954565860331059,-0.0448426716029644,0.028374386951327324
1772639551717855000,7.55085498046875,0.016798289492726326,-0.048710912466049194,0.03404718637466431
1772639551727900000,7.56089990234375,0.020589986816048622,-0.04013289883732796,0.03362011909484863
1772639551737944800,7.57094482421875,0.021043788641691208,-0.03803566098213196,0.023533396422863007
1772639551747990000,7.580989990234375,0.019848376512527466,-0.012888243421912193,-0.00033629732206463814
1772639551758035000,7.591034912109375,0.021938160061836243,0.02136879600584507,-0.026759382337331772
1772639551768080000,7.601079833984375,0.011591652408242226,0.04531415179371834,-0.05548306554555893
1772639551778124800,7.611124755859375,-0.0009108227677643299,0.05567518249154091,-0.06981060653924942
1772639551788170000,7.621169921875,-0.012566538527607918,0.051432445645332336,-0.07014457136392593
1772639551798214000,7.6312138671875,-0.019039351493120193,0.04033345729112625,-0.044626958668231964
