time,seconds_elapsed,z,y,x
1772642863699591000,0.0525908203125,-0.7083892822265625,-0.191162109375,0.0377044677734375
1772642863709635000,0.062635009765625,-0.6971282958984375,-0.189849853515625,0.0448455810546875
1772642863719679700,0.0726796875,-0.697021484375,-0.1873321533203125,0.0361480712890625
1772642863729725000,0.082724853515625,-0.7152252197265625,-0.183135986328125,0.021728515625
1772642863739769000,0.09276904296875,-0.734954833984375,-0.17535400390625,0.0091400146484375
1772642863749813800,0.102813720703125,-0.74371337890625,-0.1601104736328125,-0.00921630859375
1772642863759859000,0.11285888671875,-0.7579498291015625,-0.1431884765625,-0.0278472900390625
1772642863769902800,0.12290283203125,-0.768768310546875,-0.1285858154296875,-0.0436553955078125
1772642863779948000,0.132947998046875,-0.7651824951171875,-0.1180572509765625,-0.0498504638671875
1772642863789992700,0.14299267578125,-0.7480010986328125,-0.11834716796875,-0.0579376220703125
1772642863800036900,0.153036865234375,-0.7348480224609375,-0.13092041015625,-0.0618438720703125
1772642863810082000,0.16308203125,-0.730743408203125,-0.14154052734375,-0.062347412109375
1772642863820127000,0.173126953125,-0.7467041015625,-0.1491851806640625,-0.0580596923828125
1772642863830171000,0.1831708984375,-0.7608489990234375,-0.1511077880859375,-0.0481719970703125
1772642863840215800,0.1932158203125,-0.7778167724609375,-0.1617584228515625,-0.035308837890625
1772642863850261000,0.203260986328125,-0.8142852783203125,-0.186279296875,-0.0085601806640625
1772642863860305000,0.213304931640625,-0.8550872802734375,-0.2156219482421875,0.0222625732421875
1772642863870349800,0.223349853515625,-0.8588714599609375,-0.249420166015625,0.0321044921875
1772642863880395000,0.23339501953125,-0.8670654296875,-0.2900848388671875,0.0108642578125
1772642863890439000,0.24343896484375,-0.9044342041015625,-0.3297882080078125,-0.0460205078125
1772642863900483800,0.25348388671875,-1.0008087158203125,-0.3560333251953125,-0.137908935546875
1772642863910529000,0.263529052734375,-1.2005767822265625,-0.359130859375,-0.233978271484375
1772642863920574000,0.273573974609375,-1.40960693359375,-0.2879638671875,-0.279632568359375
1772642863930617900,0.283617919921875,-1.705413818359375,-0.2683258056640625,-0.2744903564453125
1772642863940662800,0.293662841796875,-2.107147216796875,-0.370330810546875,-0.2180328369140625
1772642863950708000,0.3037080078125,-2.147613525390625,-0.2498626708984375,-0.2447967529296875
1772642863960752000,0.313752197265625,-2.1053924560546875,-0.2143096923828125,-0.2303009033203125
1772642863970796800,0.323796875,-1.9873504638671875,-0.2676239013671875,-0.1524658203125
1772642863980842000,0.333842041015625,-1.8954010009765625,-0.4044036865234375,-0.0766448974609375
1772642863990886000,0.343885986328125,-1.8275604248046875,-0.53497314453125,-0.0626678466796875
1772642864000930800,0.353930908203125,-1.75421142578125,-0.61309814453125,-0.0894622802734375
1772642864010975700,0.363975830078125,-1.6627655029296875,-0.6552276611328125,-0.0972747802734375
1772642864021020000,0.37402001953125,-1.621673583984375,-0.6986846923828125,-0.0553741455078125
1772642864031065000,0.384065185546875,-1.5911407470703125,-0.6956787109375,0.00830078125
1772642864041109800,0.39410986328125,-1.5473175048828125,-0.6570587158203125,0.0624542236328125
1772642864051154000,0.40415380859375,-1.4688262939453125,-0.613494873046875,0.1004791259765625
1772642864061198800,0.41419873046875,-1.34588623046875,-0.5551605224609375,0.120452880859375
1772642864071244000,0.424244140625,-1.22821044921875,-0.4733428955078125,0.1188812255859375
1772642864081288000,0.434287841796875,-1.183197021484375,-0.3915863037109375,0.14013671875
1772642864091332900,0.444332763671875,-1.16070556640625,-0.2974853515625,0.184478759765625
1772642864101378000,0.4543779296875,-1.11614990234375,-0.2115020751953125,0.2076263427734375
1772642864111421700,0.464421630859375,-1.0427703857421875,-0.143035888671875,0.1945953369140625
1772642864121467000,0.474466796875,-0.958282470703125,-0.0880126953125,0.1602630615234375
1772642864131511800,0.48451171875,-0.8528289794921875,-0.05718994140625,0.1217498779296875
1772642864141557000,0.494556884765625,-0.7193756103515625,-0.0435028076171875,0.0876312255859375
1772642864151601000,0.504600830078125,-0.5784454345703125,-0.0466766357421875,0.0663604736328125
1772642864161645800,0.514645751953125,-0.4702911376953125,-0.0549468994140625,0.06304931640625
1772642864171691000,0.52469091796875,-0.42401123046875,-0.053314208984375,0.0548248291015625
1772642864181735000,0.53473486328125,-0.4254150390625,-0.030181884765625,0.0390777587890625
1772642864191779800,0.54477978515625,-0.4442138671875,-0.0260009765625,0.0080108642578125
1772642864201825000,0.554824951171875,-0.4627838134765625,-0.0227203369140625,-0.03106689453125
1772642864211869000,0.564868896484375,-0.4728851318359375,-0.013671875,-0.0566864013671875
1772642864221913900,0.574913818359375,-0.470123291015625,-0.006439208984375,-0.0566253662109375
1772642864231958800,0.584958740234375,-0.4579925537109375,-0.0049285888671875,-0.0473785400390625
1772642864242003000,0.5950029296875,-0.435760498046875,-0.004547119140625,-0.0396575927734375
1772642864252048100,0.605048095703125,-0.39801025390625,-0.00787353515625,-0.0348968505859375
1772642864262092800,0.6150927734375,-0.337127685546875,-0.0074310302734375,-0.038665771484375
1772642864272137000,0.625136962890625,-0.24945068359375,0.000885009765625,-0.059600830078125
1772642864282182000,0.635181884765625,-0.1610107421875,0.011932373046875,-0.086090087890625
1772642864292227300,0.645227294921875,-0.097412109375,0.0272064208984375,-0.10205078125
1772642864302271500,0.655271484375,-0.0869598388671875,0.0422210693359375,-0.1100616455078125
1772642864312316200,0.665316162109375,-0.116363525390625,0.05419921875,-0.1256256103515625
1772642864322361300,0.675361328125,-0.1675262451171875,0.0631866455078125,-0.160552978515625
1772642864332405200,0.6854052734375,-0.22845458984375,0.0808868408203125,-0.200469970703125
1772642864342450400,0.695450439453125,-0.2973175048828125,0.0914459228515625,-0.2120513916015625
1772642864352495000,0.7054951171875,-0.354766845703125,0.0714874267578125,-0.20965576171875
1772642864362540300,0.715540283203125,-0.3940582275390625,0.055023193359375,-0.2081298828125
1772642864372584400,0.72558447265625,-0.4209747314453125,0.0556640625,-0.2175750732421875
1772642864382629000,0.735629150390625,-0.4603729248046875,0.0359039306640625,-0.2205810546875
1772642864392674300,0.74567431640625,-0.509918212890625,-0.0247955322265625,-0.2036590576171875
1772642864402718200,0.75571826171875,-0.5350494384765625,-0.0753173828125,-0.1958160400390625
1772642864412763400,0.765763427734375,-0.5347747802734375,-0.0766143798828125,-0.1948089599609375
1772642864422808000,0.77580810546875,-0.55230712890625,-0.0923309326171875,-0.1854705810546875
1772642864432852200,0.785852294921875,-0.613067626953125,-0.1298370361328125,-0.173919677734375
1772642864442897400,0.7958974609375,-0.7054901123046875,-0.1602630615234375,-0.1685943603515625
1772642864452942300,0.8059423828125,-0.7977294921875,-0.1951904296875,-0.1675567626953125
1772642864462986200,0.815986328125,-0.8724822998046875,-0.2221527099609375,-0.182373046875
1772642864473031200,0.82603125,-0.897613525390625,-0.2180023193359375,-0.2163238525390625
1772642864483076400,0.836076416015625,-0.8976287841796875,-0.2079925537109375,-0.26318359375
1772642864493120300,0.846120361328125,-0.9228363037109375,-0.2303466796875,-0.31842041015625
1772642864503165200,0.856165283203125,-1.004791259765625,-0.2617034912109375,-0.363372802734375
1772642864513210400,0.86621044921875,-1.1151275634765625,-0.282806396484375,-0.4019927978515625
1772642864523254300,0.876254150390625,-1.217010498046875,-0.3089599609375,-0.415130615234375
1772642864533299200,0.88629931640625,-1.3282623291015625,-0.3410797119140625,-0.4089813232421875
1772642864543344400,0.896344482421875,-1.3935699462890625,-0.3844146728515625,-0.374420166015625
1772642864553389300,0.906389404296875,-1.4034423828125,-0.428253173828125,-0.3276214599609375
1772642864563433200,0.91643310546875,-1.38092041015625,-0.4491729736328125,-0.30133056640625
1772642864573478100,0.92647802734375,-1.3756103515625,-0.448394775390625,-0.3063812255859375
1772642864583523300,0.9365234375,-1.419921875,-0.4344482421875,-0.3362884521484375
1772642864593567500,0.9465673828125,-1.5140380859375,-0.41961669921875,-0.3799591064453125
1772642864603612200,0.956612060546875,-1.6319580078125,-0.392364501953125,-0.42120361328125
1772642864613657300,0.9666572265625,-1.751190185546875,-0.3752593994140625,-0.4485931396484375
1772642864623701200,0.976701171875,-1.8657989501953125,-0.3903045654296875,-0.4778289794921875
1772642864633746400,0.986746337890625,-1.9839630126953125,-0.412506103515625,-0.52288818359375
1772642864643791000,0.996791015625,-2.0711212158203125,-0.4200439453125,-0.5758056640625
1772642864653835300,1.006835205078125,-2.139373779296875,-0.4158172607421875,-0.6179351806640625
1772642864663880400,1.01688037109375,-2.1980133056640625,-0.4040679931640625,-0.6222686767578125
1772642864673925000,1.026925048828125,-2.2226409912109375,-0.38385009765625,-0.5790557861328125
1772642864683969300,1.03696923828125,-2.20501708984375,-0.3667755126953125,-0.50946044921875
1772642864694014200,1.04701416015625,-2.130096435546875,-0.34912109375,-0.451324462890625
1772642864704059400,1.057059326171875,-2.0042724609375,-0.3472900390625,-0.4136199951171875
1772642864714103300,1.067103271484375,-1.8492889404296875,-0.3700408935546875,-0.3918914794921875
1772642864724148200,1.077148193359375,-1.67962646484375,-0.3971405029296875,-0.377410888671875
1772642864734193400,1.087193359375,-1.5343017578125,-0.41845703125,-0.3656158447265625
1772642864744238300,1.09723828125,-1.4126739501953125,-0.43353271484375,-0.344390869140625
1772642864754282200,1.1072822265625,-1.2880859375,-0.4386138916015625,-0.3057708740234375
1772642864764327200,1.1173271484375,-1.149688720703125,-0.4397430419921875,-0.258087158203125
1772642864774372400,1.127372314453125,-1.000396728515625,-0.43572998046875,-0.2048187255859375
1772642864784416300,1.137416259765625,-0.8859710693359375,-0.419464111328125,-0.136871337890625
1772642864794461200,1.147461181640625,-0.8182373046875,-0.37493896484375,-0.06109619140625
1772642864804506400,1.15750634765625,-0.7561798095703125,-0.3119354248046875,-0.0026397705078125
1772642864814550300,1.16755029296875,-0.710723876953125,-0.232879638671875,0.030029296875
1772642864824595200,1.17759521484375,-0.6700439453125,-0.1537322998046875,0.035247802734375
1772642864834640400,1.187640380859375,-0.62890625,-0.0802154541015625,0.00592041015625
1772642864844684300,1.197684326171875,-0.6188812255859375,-0.0323638916015625,-0.06719970703125
1772642864854729200,1.207729248046875,-0.6397247314453125,-0.00274658203125,-0.163055419921875
1772642864864774100,1.217774169921875,-0.6468048095703125,0.02362060546875,-0.2290802001953125
1772642864874818300,1.227818359375,-0.6466827392578125,0.0466461181640625,-0.23797607421875
1772642864884863500,1.237863525390625,-0.6308135986328125,0.056793212890625,-0.1979827880859375
1772642864894908200,1.247908203125,-0.5965728759765625,0.05694580078125,-0.1352691650390625
1772642864904952300,1.257952392578125,-0.5520782470703125,0.0619964599609375,-0.07171630859375
1772642864914997200,1.267997314453125,-0.5070343017578125,0.055145263671875,-0.0281829833984375
1772642864925042400,1.27804248046875,-0.4662322998046875,0.04986572265625,-0.008544921875
1772642864935087000,1.288087158203125,-0.426055908203125,0.057891845703125,-0.0039215087890625
1772642864945131300,1.29813134765625,-0.4094696044921875,0.0615234375,-0.023651123046875
1772642864955176400,1.308176513671875,-0.4046478271484375,0.054412841796875,-0.0699920654296875
1772642864965221000,1.31822119140625,-0.3981781005859375,0.034088134765625,-0.126922607421875
1772642864975265300,1.328265380859375,-0.3773040771484375,0.0170745849609375,-0.1707000732421875
1772642864985310200,1.338310302734375,-0.3388671875,0.010528564453125,-0.17864990234375
1772642864995355400,1.34835546875,-0.2828216552734375,0.017791748046875,-0.1488037109375
1772642865005399300,1.3583994140625,-0.2336273193359375,0.031158447265625,-0.124298095703125
1772642865015444200,1.3684443359375,-0.226837158203125,0.03717041015625,-0.1126556396484375
1772642865025489400,1.378489501953125,-0.23931884765625,0.045501708984375,-0.1049041748046875
1772642865035533300,1.388533203125,-0.2478485107421875,0.0495147705078125,-0.1018829345703125
1772642865045578200,1.398578125,-0.2587127685546875,0.0363616943359375,-0.1336212158203125
1772642865055623200,1.408623046875,-0.266448974609375,0.0205078125,-0.182220458984375
1772642865065667300,1.418667236328125,-0.2835845947265625,0.0235595703125,-0.214080810546875
1772642865075712300,1.428712158203125,-0.3286895751953125,0.02032470703125,-0.2091064453125
1772642865085757200,1.438757080078125,-0.38543701171875,-0.0135498046875,-0.1686553955078125
1772642865095801300,1.44880126953125,-0.4336395263671875,-0.070037841796875,-0.1036376953125
1772642865105846300,1.45884619140625,-0.4414520263671875,-0.1173248291015625,-0.0484771728515625
1772642865115891200,1.46889111328125,-0.4139404296875,-0.156646728515625,-0.0212554931640625
1772642865125936400,1.478936279296875,-0.408966064453125,-0.2052459716796875,-0.0357208251953125
1772642865135980300,1.488980224609375,-0.486968994140625,-0.2539215087890625,-0.078460693359375
1772642865146025200,1.499025146484375,-0.640899658203125,-0.26934814453125,-0.1292724609375
1772642865156070100,1.509070068359375,-0.8290252685546875,-0.2763519287109375,-0.174163818359375
1772642865166114300,1.5191142578125,-1.006072998046875,-0.3086090087890625,-0.2063751220703125
1772642865176159500,1.529159423828125,-1.12066650390625,-0.34515380859375,-0.2231597900390625
1772642865186204200,1.5392041015625,-1.1783447265625,-0.36663818359375,-0.233551025390625
1772642865196248300,1.549248291015625,-1.2044830322265625,-0.358489990234375,-0.227508544921875
1772642865206293200,1.559293212890625,-1.2344818115234375,-0.333343505859375,-0.2104034423828125
1772642865216338200,1.569338134765625,-1.3029327392578125,-0.307281494140625,-0.20379638671875
1772642865226382300,1.57938232421875,-1.4069671630859375,-0.280120849609375,-0.2210845947265625
1772642865236427300,1.58942724609375,-1.5059661865234375,-0.2549285888671875,-0.238250732421875
1772642865246472400,1.599472412109375,-1.56329345703125,-0.235443115234375,-0.2266082763671875
1772642865256516000,1.60951611328125,-1.570526123046875,-0.225494384765625,-0.1935882568359375
1772642865266561300,1.619561279296875,-1.547393798828125,-0.2381591796875,-0.1676177978515625
1772642865276606200,1.629606201171875,-1.546539306640625,-0.274871826171875,-0.1441802978515625
1772642865286650000,1.639650146484375,-1.5652008056640625,-0.312225341796875,-0.1246185302734375
1772642865296695600,1.649695556640625,-1.6318511962890625,-0.342742919921875,-0.0944366455078125
1772642865306740500,1.659740478515625,-1.7259979248046875,-0.3808746337890625,-0.0547332763671875
1772642865316785700,1.66978564453125,-1.784820556640625,-0.41986083984375,-0.034393310546875
1772642865326829300,1.679829345703125,-1.814422607421875,-0.4420166015625,-0.0680999755859375
1772642865336874500,1.68987451171875,-1.81903076171875,-0.448211669921875,-0.1241912841796875
1772642865346919400,1.69991943359375,-1.7903900146484375,-0.442657470703125,-0.1707916259765625
1772642865356963600,1.709963623046875,-1.7732696533203125,-0.429718017578125,-0.202392578125
1772642865367008500,1.720008544921875,-1.779998779296875,-0.424530029296875,-0.2059478759765625
1772642865377053400,1.730053466796875,-1.7888336181640625,-0.4204254150390625,-0.1797943115234375
1772642865387097600,1.74009765625,-1.8209991455078125,-0.4149017333984375,-0.15875244140625
1772642865397142500,1.750142578125,-1.86505126953125,-0.4141845703125,-0.1402587890625
1772642865407187500,1.7601875,-1.8556365966796875,-0.4306488037109375,-0.105438232421875
1772642865417231600,1.770231689453125,-1.76031494140625,-0.4568023681640625,-0.057830810546875
1772642865427276500,1.780276611328125,-1.622711181640625,-0.48211669921875,-0.0001983642578125
1772642865437321500,1.790321533203125,-1.4654998779296875,-0.4741363525390625,0.027923583984375
1772642865447365600,1.80036572265625,-1.3350677490234375,-0.4393768310546875,0.03118896484375
1772642865457410600,1.81041064453125,-1.24615478515625,-0.4150848388671875,0.02581787109375
1772642865467455700,1.820455810546875,-1.20611572265625,-0.3956146240234375,0.009674072265625
1772642865477500400,1.83050048828125,-1.1937713623046875,-0.360382080078125,-0.001220703125
1772642865487544600,1.840544677734375,-1.1685791015625,-0.3228912353515625,0.0078887939453125
1772642865497589500,1.850589599609375,-1.0968780517578125,-0.2801666259765625,0.0244140625
1772642865507634700,1.860634765625,-0.9931488037109375,-0.216278076171875,0.046142578125
1772642865517678600,1.8706787109375,-0.8836822509765625,-0.1644287109375,0.06280517578125
1772642865527723500,1.8807236328125,-0.8076629638671875,-0.1119384765625,0.070068359375
1772642865537768700,1.890768798828125,-0.7451629638671875,-0.0378265380859375,0.0633392333984375
1772642865547812400,1.900812255859375,-0.6968841552734375,0.02093505859375,0.045562744140625
1772642865557857500,1.910857421875,-0.6719512939453125,0.046417236328125,0.01983642578125
1772642865567902500,1.92090234375,-0.6554718017578125,0.0609588623046875,-0.010040283203125
1772642865577946400,1.9309462890625,-0.629241943359375,0.073516845703125,-0.046905517578125
1772642865587991600,1.940991455078125,-0.5864410400390625,0.086029052734375,-0.0742645263671875
1772642865598036500,1.951036376953125,-0.5272216796875,0.09136962890625,-0.098419189453125
1772642865608080600,1.96108056640625,-0.45721435546875,0.0846710205078125,-0.1277008056640625
1772642865618125300,1.971125244140625,-0.374359130859375,0.084808349609375,-0.1571502685546875
1772642865628170500,1.98117041015625,-0.286529541015625,0.0953369140625,-0.17578125
1772642865638214700,1.991214599609375,-0.2126312255859375,0.0997772216796875,-0.1720123291015625
1772642865648259600,2.001259521484375,-0.1663970947265625,0.08935546875,-0.1385650634765625
1772642865658304500,2.011304443359375,-0.1577606201171875,0.0759735107421875,-0.0915374755859375
1772642865668349400,2.021349365234375,-0.1891632080078125,0.082916259765625,-0.050140380859375
1772642865678393600,2.0313935546875,-0.2116546630859375,0.099151611328125,-0.0101165771484375
1772642865688438500,2.0414384765625,-0.209442138671875,0.10626220703125,0.01904296875
1772642865698483500,2.0514833984375,-0.2060089111328125,0.107696533203125,0.031494140625
1772642865708527600,2.061527587890625,-0.2226104736328125,0.1132354736328125,0.031707763671875
1772642865718572500,2.071572509765625,-0.24530029296875,0.11895751953125,0.0143585205078125
1772642865728617500,2.081617431640625,-0.258148193359375,0.1241455078125,-0.016326904296875
1772642865738661600,2.09166162109375,-0.2673797607421875,0.130340576171875,-0.05126953125
1772642865748706600,2.10170654296875,-0.261962890625,0.13275146484375,-0.083740234375
1772642865758751700,2.111751708984375,-0.2573699951171875,0.1314239501953125,-0.1065826416015625
1772642865768795400,2.12179541015625,-0.2697906494140625,0.1351776123046875,-0.10845947265625
1772642865778840600,2.131840576171875,-0.3126220703125,0.14361572265625,-0.0953216552734375
1772642865788885500,2.141885498046875,-0.3750457763671875,0.138763427734375,-0.068878173828125
1772642865798929400,2.151929443359375,-0.4337310791015625,0.1201934814453125,-0.031829833984375
1772642865808974600,2.161974609375,-0.46661376953125,0.080810546875,0.0045318603515625
1772642865819019500,2.17201953125,-0.4734039306640625,0.024322509765625,0.02581787109375
1772642865829064700,2.182064697265625,-0.4805450439453125,-0.0452880859375,0.028076171875
1772642865839108400,2.1921083984375,-0.5050048828125,-0.09832763671875,0.0090484619140625
1772642865849153500,2.202153564453125,-0.5720367431640625,-0.1215362548828125,-0.0340423583984375
1772642865859198500,2.212198486328125,-0.7255859375,-0.1432037353515625,-0.0607757568359375
1772642865869242400,2.222242431640625,-0.940826416015625,-0.1835174560546875,-0.0537261962890625
1772642865879287600,2.23228759765625,-1.1486053466796875,-0.214324951171875,-0.0272064208984375
1772642865889332500,2.24233251953125,-1.2840576171875,-0.2165069580078125,-0.01361083984375
1772642865899376600,2.252376708984375,-1.34405517578125,-0.2044525146484375,-0.00836181640625
1772642865909421600,2.262421630859375,-1.4228973388671875,-0.20062255859375,0.01397705078125
1772642865919466500,2.272466552734375,-1.519134521484375,-0.1985015869140625,0.01318359375
1772642865929510700,2.2825107421875,-1.5879669189453125,-0.2219696044921875,-0.007659912109375
1772642865939555300,2.292555419921875,-1.6211395263671875,-0.2724151611328125,-0.036285400390625
1772642865949600500,2.3026005859375,-1.580291748046875,-0.344635009765625,-0.057769775390625
1772642865959644700,2.312644775390625,-1.5027008056640625,-0.43121337890625,-0.0836639404296875
1772642865969689600,2.322689697265625,-1.4609222412109375,-0.510223388671875,-0.1287841796875
1772642865979734500,2.332734619140625,-1.4742584228515625,-0.54974365234375,-0.1652374267578125
1772642865989779500,2.342779541015625,-1.5451202392578125,-0.5555267333984375,-0.1728668212890625
1772642865999823600,2.35282373046875,-1.6527557373046875,-0.5420989990234375,-0.138641357421875
1772642866009868500,2.36286865234375,-1.79339599609375,-0.50286865234375,-0.07415771484375
1772642866019913500,2.37291357421875,-1.9633941650390625,-0.4566650390625,0.0044708251953125
1772642866029957600,2.38295751953125,-2.116851806640625,-0.4306793212890625,0.042694091796875
1772642866040002600,2.39300244140625,-2.228057861328125,-0.4041595458984375,-0.0015716552734375
1772642866050047700,2.4030478515625,-2.3094635009765625,-0.38623046875,-0.0787353515625
1772642866060091400,2.41309130859375,-2.3307647705078125,-0.379058837890625,-0.1378021240234375
1772642866070136600,2.423136474609375,-2.28692626953125,-0.386505126953125,-0.1602325439453125
1772642866080181500,2.433181396484375,-2.1946868896484375,-0.3956756591796875,-0.1450347900390625
1772642866090225400,2.443225341796875,-2.0561981201171875,-0.392822265625,-0.10125732421875
1772642866100270600,2.4532705078125,-1.9085845947265625,-0.3927764892578125,-0.0421600341796875
1772642866110315500,2.4633154296875,-1.7575225830078125,-0.392791748046875,0.0158843994140625
1772642866120359400,2.473359375,-1.6141204833984375,-0.4039306640625,0.067169189453125
1772642866130404400,2.483404296875,-1.4765777587890625,-0.42120361328125,0.0919647216796875
1772642866140449500,2.493449462890625,-1.357818603515625,-0.4284820556640625,0.08447265625
1772642866150494500,2.503494384765625,-1.25067138671875,-0.42669677734375,0.0694732666015625
1772642866160538400,2.513538330078125,-1.1409912109375,-0.4264984130859375,0.0631866455078125
1772642866170583600,2.52358349609375,-1.012786865234375,-0.4223175048828125,0.0558013916015625
1772642866180628500,2.53362841796875,-0.8728485107421875,-0.4046783447265625,0.048736572265625
1772642866190672600,2.543672607421875,-0.7444915771484375,-0.380279541015625,0.0583038330078125
1772642866200717600,2.553717529296875,-0.6221160888671875,-0.3531951904296875,0.0898284912109375
1772642866210762500,2.563762451171875,-0.53729248046875,-0.3182220458984375,0.1039886474609375
1772642866220806700,2.573806640625,-0.486297607421875,-0.2861480712890625,0.0963897705078125
1772642866230851300,2.583851318359375,-0.449981689453125,-0.2637939453125,0.0742645263671875
1772642866240896500,2.593896484375,-0.4375152587890625,-0.2373199462890625,0.0293426513671875
1772642866250940700,2.603940673828125,-0.4395904541015625,-0.203704833984375,-0.025634765625
1772642866260985600,2.613985595703125,-0.426055908203125,-0.16644287109375,-0.079315185546875
1772642866271030500,2.624030517578125,-0.4067535400390625,-0.1357421875,-0.1222381591796875
1772642866281075500,2.634075439453125,-0.383209228515625,-0.1064910888671875,-0.1607818603515625
1772642866291119400,2.644119384765625,-0.3589324951171875,-0.073150634765625,-0.2051849365234375
1772642866301164300,2.654164306640625,-0.358367919921875,-0.0464935302734375,-0.2528228759765625
1772642866311209500,2.66420947265625,-0.3890380859375,-0.024505615234375,-0.2991485595703125
1772642866321253600,2.674253662109375,-0.4604949951171875,-0.0055999755859375,-0.33160400390625
1772642866331298300,2.68429833984375,-0.5262908935546875,0.0096435546875,-0.3288116455078125
1772642866341343500,2.694343505859375,-0.5556488037109375,0.0107879638671875,-0.2861785888671875
1772642866351387400,2.704387451171875,-0.5593109130859375,0.0020904541015625,-0.224578857421875
1772642866361432600,2.7144326171875,-0.5421295166015625,-0.0060272216796875,-0.1736297607421875
1772642866371477200,2.724477294921875,-0.5126495361328125,-0.00042724609375,-0.1385498046875
1772642866381521400,2.734521484375,-0.4795989990234375,0.011444091796875,-0.12066650390625
1772642866391566600,2.744566650390625,-0.4528656005859375,0.02215576171875,-0.1085052490234375
1772642866401611300,2.754611328125,-0.429779052734375,0.030487060546875,-0.102386474609375
1772642866411655400,2.764655517578125,-0.3869171142578125,0.0382080078125,-0.108856201171875
1772642866421700400,2.774700439453125,-0.3364410400390625,0.0386962890625,-0.13592529296875
1772642866431745500,2.78474560546875,-0.292388916015625,0.0323333740234375,-0.173583984375
1772642866441790500,2.79479052734375,-0.2501068115234375,0.02880859375,-0.209197998046875
1772642866451834400,2.80483447265625,-0.20867919921875,0.03033447265625,-0.2273101806640625
1772642866461879600,2.814879638671875,-0.17425537109375,0.0356597900390625,-0.23193359375
1772642866471924500,2.824924560546875,-0.1602935791015625,0.0364227294921875,-0.225860595703125
1772642866481968400,2.834968505859375,-0.1666717529296875,0.034210205078125,-0.207916259765625
1772642866492013600,2.845013671875,-0.1829376220703125,0.031890869140625,-0.1852874755859375
1772642866502058500,2.85505859375,-0.2280426025390625,0.022705078125,-0.1563568115234375
1772642866512102400,2.865102294921875,-0.311279296875,-0.0091400146484375,-0.116668701171875
1772642866522147300,2.875147216796875,-0.4112548828125,-0.0691986083984375,-0.0865936279296875
1772642866532192500,2.885192626953125,-0.4766998291015625,-0.1280364990234375,-0.0874786376953125
1772642866542236400,2.895236328125,-0.4666748046875,-0.171295166015625,-0.102691650390625
1772642866552281300,2.90528125,-0.3945770263671875,-0.196868896484375,-0.124847412109375
1772642866562326500,2.915326416015625,-0.38482666015625,-0.2307891845703125,-0.1538543701171875
1772642866572371500,2.925371337890625,-0.52728271484375,-0.2834625244140625,-0.174468994140625
1772642866582415400,2.935415283203125,-0.7691497802734375,-0.3541259765625,-0.18402099609375
1772642866592460300,2.945460205078125,-1.0289306640625,-0.3863525390625,-0.2145538330078125
1772642866602505500,2.95550537109375,-1.2085418701171875,-0.34375,-0.2634735107421875
1772642866612549600,2.965549560546875,-1.267059326171875,-0.2897186279296875,-0.298583984375
1772642866622594300,2.97559423828125,-1.2628173828125,-0.293121337890625,-0.3311614990234375
1772642866632639500,2.985639404296875,-1.2481231689453125,-0.339324951171875,-0.3710174560546875
1772642866642683400,2.995683349609375,-1.2519073486328125,-0.3676910400390625,-0.41912841796875
1772642866652728600,3.005728515625,-1.29315185546875,-0.3730926513671875,-0.4518280029296875
1772642866662773200,3.015773193359375,-1.359710693359375,-0.3673553466796875,-0.443084716796875
1772642866672817400,3.0258173828125,-1.4088134765625,-0.3504791259765625,-0.405303955078125
1772642866682862600,3.035862548828125,-1.40240478515625,-0.3458251953125,-0.3572540283203125
1772642866692907300,3.0459072265625,-1.34771728515625,-0.3712921142578125,-0.3076019287109375
1772642866702951400,3.055951416015625,-1.2982025146484375,-0.3978271484375,-0.2712860107421875
1772642866712996600,3.06599658203125,-1.2794952392578125,-0.409423828125,-0.2626495361328125
1772642866723041500,3.07604150390625,-1.317657470703125,-0.416778564453125,-0.268829345703125
1772642866733086500,3.08608642578125,-1.4290313720703125,-0.4061431884765625,-0.287353515625
1772642866743130400,3.09613037109375,-1.572174072265625,-0.37689208984375,-0.3262481689453125
1772642866753175600,3.106175537109375,-1.7299041748046875,-0.3485565185546875,-0.362701416015625
1772642866763220500,3.116220458984375,-1.8256683349609375,-0.3221282958984375,-0.3999176025390625
1772642866773264400,3.126264404296875,-1.8444671630859375,-0.300018310546875,-0.4273223876953125
1772642866783309600,3.1363095703125,-1.796112060546875,-0.3047943115234375,-0.4533538818359375
1772642866793354500,3.1463544921875,-1.7700042724609375,-0.308990478515625,-0.493194580078125
1772642866803398400,3.1563984375,-1.822113037109375,-0.2866973876953125,-0.5484619140625
1772642866813443300,3.166443359375,-1.925811767578125,-0.270751953125,-0.583526611328125
1772642866823488500,3.176488525390625,-2.0030059814453125,-0.2649993896484375,-0.5748443603515625
1772642866833532400,3.186532470703125,-2.00408935546875,-0.29302978515625,-0.5343017578125
1772642866843577300,3.196577392578125,-1.8885650634765625,-0.32769775390625,-0.4911956787109375
1772642866853622500,3.20662255859375,-1.717193603515625,-0.3411865234375,-0.455047607421875
1772642866863667500,3.21666748046875,-1.5751495361328125,-0.374053955078125,-0.4060516357421875
1772642866873711400,3.22671142578125,-1.478118896484375,-0.40264892578125,-0.35546875
1772642866883756300,3.23675634765625,-1.4094390869140625,-0.4027862548828125,-0.310211181640625
1772642866893801500,3.246801513671875,-1.3418426513671875,-0.3970947265625,-0.2785186767578125
1772642866903845600,3.256845703125,-1.262664794921875,-0.387725830078125,-0.2634735107421875
1772642866913890300,3.266890380859375,-1.181671142578125,-0.3834686279296875,-0.254913330078125
1772642866923935500,3.276935546875,-1.0991058349609375,-0.3798370361328125,-0.2545318603515625
1772642866933979400,3.2869794921875,-1.018646240234375,-0.362884521484375,-0.254180908203125
1772642866944024300,3.2970244140625,-0.9554290771484375,-0.3392333984375,-0.2508087158203125
1772642866954069200,3.3070693359375,-0.8941650390625,-0.298370361328125,-0.2386016845703125
1772642866964113400,3.317113525390625,-0.8278961181640625,-0.257537841796875,-0.2046661376953125
1772642866974158600,3.32715869140625,-0.7357330322265625,-0.2287445068359375,-0.1552581787109375
1772642866984203300,3.337203369140625,-0.6223602294921875,-0.2213134765625,-0.1107177734375
1772642866994248400,3.34724853515625,-0.5163726806640625,-0.24755859375,-0.07421875
1772642867004292600,3.357292724609375,-0.436065673828125,-0.2735748291015625,-0.0459442138671875
1772642867014337500,3.367337646484375,-0.4021453857421875,-0.2711944580078125,-0.0577850341796875
1772642867024382500,3.377382568359375,-0.436309814453125,-0.2509918212890625,-0.12628173828125
1772642867034426400,3.38742626953125,-0.5049591064453125,-0.2277069091796875,-0.222991943359375
1772642867044471600,3.397471435546875,-0.5726318359375,-0.1939239501953125,-0.31622314453125
1772642867054516500,3.4075166015625,-0.62469482421875,-0.1501922607421875,-0.3914031982421875
1772642867064560400,3.417560302734375,-0.6512908935546875,-0.0985107421875,-0.43450927734375
1772642867074605600,3.42760546875,-0.6521759033203125,-0.0511322021484375,-0.432037353515625
1772642867084650500,3.437650390625,-0.6162567138671875,-0.0058441162109375,-0.3742828369140625
1772642867094694400,3.4476943359375,-0.55810546875,0.0248260498046875,-0.2789764404296875
1772642867104739300,3.4577392578125,-0.5039215087890625,0.0533294677734375,-0.1858978271484375
1772642867114784500,3.467784423828125,-0.4468841552734375,0.079132080078125,-0.1138763427734375
1772642867124829400,3.477829345703125,-0.3814697265625,0.102569580078125,-0.066864013671875
1772642867134873300,3.487873291015625,-0.31512451171875,0.1129913330078125,-0.0500335693359375
1772642867144918500,3.49791845703125,-0.2624359130859375,0.1138916015625,-0.0635986328125
1772642867154963500,3.50796337890625,-0.229888916015625,0.10491943359375,-0.105865478515625
1772642867165007400,3.51800732421875,-0.2106475830078125,0.0938720703125,-0.168243408203125
1772642867175052300,3.52805224609375,-0.2010345458984375,0.079132080078125,-0.2299957275390625
1772642867185097500,3.538097412109375,-0.1970367431640625,0.06488037109375,-0.2772064208984375
1772642867195141600,3.5481416015625,-0.200103759765625,0.0562591552734375,-0.303924560546875
1772642867205186300,3.558186279296875,-0.208038330078125,0.046844482421875,-0.3094482421875
1772642867215231500,3.5682314453125,-0.2169342041015625,0.0373687744140625,-0.3086700439453125
1772642867225275400,3.578275390625,-0.242279052734375,0.0375213623046875,-0.30816650390625
1772642867235320300,3.5883203125,-0.314697265625,0.0472564697265625,-0.2946319580078125
1772642867245365500,3.598365478515625,-0.435302734375,0.061492919921875,-0.25543212890625
1772642867255410400,3.608410400390625,-0.575042724609375,0.0618438720703125,-0.19677734375
1772642867265454600,3.61845458984375,-0.6765594482421875,0.064208984375,-0.1543426513671875
1772642867275499300,3.628499267578125,-0.6678619384765625,0.072998046875,-0.1230316162109375
1772642867285544400,3.63854443359375,-0.59613037109375,0.042205810546875,-0.0650787353515625
1772642867295588600,3.648588623046875,-0.48211669921875,-0.0440826416015625,-0.0128021240234375
1772642867305633800,3.6586337890625,-0.383575439453125,-0.1247406005859375,-0.007598876953125
1772642867315678700,3.6686787109375,-0.40618896484375,-0.211761474609375,-0.04522705078125
1772642867325722600,3.67872265625,-0.5380706787109375,-0.2899169921875,-0.12603759765625
1772642867335767800,3.688767822265625,-0.683258056640625,-0.317474365234375,-0.2339019775390625
1772642867345812700,3.698812744140625,-0.7613525390625,-0.3075714111328125,-0.3393096923828125
1772642867355856600,3.708856689453125,-0.7960052490234375,-0.3143157958984375,-0.4013519287109375
1772642867365901800,3.71890185546875,-0.802337646484375,-0.3769683837890625,-0.397308349609375
1772642867375946800,3.72894677734375,-0.805816650390625,-0.4521331787109375,-0.3642425537109375
1772642867385990700,3.73899072265625,-0.8285064697265625,-0.5101470947265625,-0.3555145263671875
1772642867396035600,3.74903564453125,-0.8856353759765625,-0.5733184814453125,-0.38372802734375
1772642867406080800,3.759080810546875,-0.9962310791015625,-0.612335205078125,-0.446746826171875
1772642867416125700,3.769125732421875,-1.124847412109375,-0.6212615966796875,-0.526702880859375
1772642867426169600,3.779169677734375,-1.2353363037109375,-0.6145782470703125,-0.5909881591796875
1772642867436214800,3.78921484375,-1.313568115234375,-0.62017822265625,-0.6295013427734375
1772642867446259700,3.799259765625,-1.3466339111328125,-0.645111083984375,-0.6473541259765625
1772642867456303600,3.8093037109375,-1.3286895751953125,-0.6763763427734375,-0.66497802734375
1772642867466348500,3.8193486328125,-1.2871246337890625,-0.70831298828125,-0.6812896728515625
1772642867476393700,3.829393798828125,-1.2528839111328125,-0.7337188720703125,-0.695159912109375
1772642867486438000,3.83943798828125,-1.240509033203125,-0.7406158447265625,-0.7209320068359375
1772642867496482600,3.849482666015625,-1.255218505859375,-0.736724853515625,-0.7619476318359375
1772642867506527700,3.85952783203125,-1.312408447265625,-0.7139129638671875,-0.790557861328125
1772642867516572700,3.86957275390625,-1.3936920166015625,-0.6643218994140625,-0.7855224609375
1772642867526616600,3.879616455078125,-1.4960479736328125,-0.607940673828125,-0.7601165771484375
1772642867536661500,3.88966162109375,-1.6254425048828125,-0.5569915771484375,-0.7448272705078125
1772642867546706700,3.899706787109375,-1.7338104248046875,-0.51947021484375,-0.7312469482421875
1772642867556750800,3.909750732421875,-1.7943878173828125,-0.4871368408203125,-0.7048797607421875
1772642867566795500,3.91979541015625,-1.789154052734375,-0.4673919677734375,-0.659637451171875
1772642867576840700,3.9298408203125,-1.762969970703125,-0.4708251953125,-0.5955047607421875
1772642867586884900,3.939884765625,-1.7445831298828125,-0.4687347412109375,-0.54931640625
1772642867596929800,3.9499296875,-1.743438720703125,-0.4610443115234375,-0.5222320556640625
1772642867606974700,3.959974609375,-1.724853515625,-0.43994140625,-0.507171630859375
1772642867617018600,3.9700185546875,-1.6701507568359375,-0.4149627685546875,-0.49481201171875
1772642867627063800,3.980063720703125,-1.6008148193359375,-0.400238037109375,-0.4732208251953125
1772642867637108700,3.990108642578125,-1.544921875,-0.381072998046875,-0.4465179443359375
1772642867647152600,4.000152587890625,-1.4899749755859375,-0.3602752685546875,-0.4075775146484375
1772642867657197800,4.01019775390625,-1.4296112060546875,-0.337493896484375,-0.3844451904296875
1772642867667242800,4.02024267578125,-1.3877105712890625,-0.30096435546875,-0.384857177734375
1772642867677287700,4.03028759765625,-1.356414794921875,-0.2574615478515625,-0.377197265625
1772642867687331600,4.04033154296875,-1.341217041015625,-0.2253570556640625,-0.367218017578125
1772642867697376800,4.050376708984375,-1.3448333740234375,-0.1957550048828125,-0.3569793701171875
1772642867707421700,4.060421630859375,-1.32952880859375,-0.171600341796875,-0.3466949462890625
1772642867717465600,4.070465576171875,-1.26959228515625,-0.1566925048828125,-0.3300323486328125
1772642867727510800,4.0805107421875,-1.1800994873046875,-0.1565093994140625,-0.3102569580078125
1772642867737555700,4.0905556640625,-1.070281982421875,-0.1626434326171875,-0.285858154296875
1772642867747599600,4.100599609375,-0.9508819580078125,-0.1596527099609375,-0.263824462890625
1772642867757644500,4.11064453125,-0.837646484375,-0.16033935546875,-0.2223663330078125
1772642867767689700,4.120689697265625,-0.7382354736328125,-0.153472900390625,-0.177276611328125
1772642867777734000,4.13073388671875,-0.658660888671875,-0.1353607177734375,-0.137481689453125
1772642867787778600,4.140778564453125,-0.5980224609375,-0.1139373779296875,-0.1060028076171875
1772642867797823700,4.15082373046875,-0.545654296875,-0.0908355712890625,-0.086883544921875
1772642867807868700,4.16086865234375,-0.5004730224609375,-0.0750732421875,-0.0778350830078125
1772642867817912600,4.17091259765625,-0.4651947021484375,-0.070556640625,-0.0925140380859375
1772642867827957500,4.18095751953125,-0.4425048828125,-0.0722808837890625,-0.1250762939453125
1772642867838002700,4.191002685546875,-0.4187774658203125,-0.0784912109375,-0.1593475341796875
1772642867848046800,4.201046875,-0.3876495361328125,-0.086944580078125,-0.1851806640625
1772642867858091500,4.211091552734375,-0.35357666015625,-0.0996551513671875,-0.2012176513671875
1772642867868136700,4.22113671875,-0.32806396484375,-0.1173095703125,-0.214996337890625
1772642867878180900,4.231180908203125,-0.303802490234375,-0.134063720703125,-0.2197723388671875
1772642867888225800,4.241225830078125,-0.2784423828125,-0.1506500244140625,-0.220123291015625
1772642867898270700,4.251270751953125,-0.2568511962890625,-0.1598663330078125,-0.2225799560546875
1772642867908315600,4.261315673828125,-0.2315826416015625,-0.1606597900390625,-0.22314453125
1772642867918359800,4.27135986328125,-0.220733642578125,-0.1554718017578125,-0.243927001953125
1772642867928404700,4.28140478515625,-0.247528076171875,-0.1586456298828125,-0.29522705078125
1772642867938449700,4.29144970703125,-0.2843475341796875,-0.160614013671875,-0.329559326171875
1772642867948493800,4.301493896484375,-0.3178253173828125,-0.1489715576171875,-0.297637939453125
1772642867958538800,4.311538818359375,-0.378997802734375,-0.1435546875,-0.2193603515625
1772642867968583700,4.321583740234375,-0.4533233642578125,-0.1535491943359375,-0.12506103515625
1772642867978627600,4.331627685546875,-0.476409912109375,-0.1737823486328125,-0.0539093017578125
1772642867988672800,4.3416728515625,-0.42095947265625,-0.2056121826171875,-0.03411865234375
1772642867998717700,4.3517177734375,-0.34161376953125,-0.2380523681640625,-0.0620269775390625
1772642868008761600,4.36176171875,-0.2847900390625,-0.258636474609375,-0.113861083984375
1772642868018806800,4.371806884765625,-0.3077850341796875,-0.2774505615234375,-0.1685791015625
1772642868028851700,4.381851806640625,-0.39581298828125,-0.3058013916015625,-0.17230224609375
1772642868038897000,4.39189697265625,-0.485382080078125,-0.339599609375,-0.1227569580078125
1772642868048940500,4.4019404296875,-0.51983642578125,-0.3639068603515625,-0.0714111328125
1772642868058985700,4.41198583984375,-0.502532958984375,-0.3542327880859375,-0.0550537109375
1772642868069030700,4.42203076171875,-0.5384368896484375,-0.3052520751953125,-0.0527496337890625
1772642868079074600,4.432074462890625,-0.64312744140625,-0.2405548095703125,-0.0570220947265625
1772642868089119700,4.44211962890625,-0.750701904296875,-0.180633544921875,-0.0567779541015625
1772642868099164700,4.45216455078125,-0.833648681640625,-0.1766510009765625,-0.0372314453125
1772642868109208600,4.46220849609375,-0.87359619140625,-0.2349090576171875,-0.0076904296875
1772642868119253800,4.472253662109375,-0.8470611572265625,-0.3085174560546875,0.011810302734375
1772642868129298700,4.482298583984375,-0.7906036376953125,-0.382965087890625,0.0333404541015625
1772642868139342800,4.4923427734375,-0.7301025390625,-0.457550048828125,0.0643310546875
1772642868149387500,4.502387451171875,-0.649932861328125,-0.4798583984375,0.0282745361328125
1772642868159432700,4.5124326171875,-0.61907958984375,-0.4434356689453125,-0.0727081298828125
1772642868169477600,4.5224775390625,-0.6908721923828125,-0.426116943359375,-0.1410064697265625
1772642868179521800,4.532521728515625,-0.8165130615234375,-0.44091796875,-0.1292877197265625
1772642868189566700,4.542566650390625,-0.9132537841796875,-0.428497314453125,-0.073211669921875
1772642868199611600,4.552611572265625,-0.96087646484375,-0.3780975341796875,-0.0204010009765625
1772642868209655800,4.56265576171875,-1.0355224609375,-0.349578857421875,0.016845703125
1772642868219700500,4.572700439453125,-1.1539154052734375,-0.3355712890625,0.047637939453125
1772642868229745700,4.58274560546875,-1.2677154541015625,-0.316497802734375,0.0572357177734375
1772642868239789800,4.592789794921875,-1.3677215576171875,-0.2848052978515625,0.0423736572265625
1772642868249834800,4.602834716796875,-1.45458984375,-0.2554473876953125,0.019805908203125
1772642868259879700,4.612879638671875,-1.515350341796875,-0.25506591796875,0.0013885498046875
1772642868269923600,4.622923583984375,-1.5413818359375,-0.2807769775390625,-0.0216217041015625
1772642868279968800,4.63296875,-1.5104827880859375,-0.3137664794921875,-0.0466766357421875
1772642868290013700,4.643013671875,-1.45831298828125,-0.3530426025390625,-0.0569305419921875
1772642868300058600,4.65305859375,-1.423980712890625,-0.364593505859375,-0.074981689453125
1772642868310102800,4.663102783203125,-1.4422149658203125,-0.3451385498046875,-0.1082305908203125
1772642868320147700,4.673147705078125,-1.507537841796875,-0.325897216796875,-0.1243743896484375
1772642868330192600,4.683192626953125,-1.5755615234375,-0.327789306640625,-0.113677978515625
1772642868340236500,4.693236572265625,-1.6103515625,-0.3311920166015625,-0.095001220703125
1772642868350281700,4.70328173828125,-1.583251953125,-0.3583984375,-0.082275390625
1772642868360326700,4.71332666015625,-1.5077667236328125,-0.4237213134765625,-0.06768798828125
1772642868370370600,4.72337060546875,-1.4384002685546875,-0.4690093994140625,-0.0648956298828125
1772642868380415700,4.733415771484375,-1.3953094482421875,-0.483489990234375,-0.080352783203125
1772642868390460700,4.743460693359375,-1.4395599365234375,-0.4922332763671875,-0.10052490234375
1772642868400504600,4.753504638671875,-1.5552520751953125,-0.46685791015625,-0.1021728515625
1772642868410549800,4.7635498046875,-1.6505279541015625,-0.4300384521484375,-0.085723876953125
1772642868420594700,4.7735947265625,-1.7047882080078125,-0.4134063720703125,-0.0625762939453125
1772642868430638600,4.783638671875,-1.715576171875,-0.389617919921875,-0.040985107421875
1772642868440683500,4.79368359375,-1.637359619140625,-0.3822174072265625,-0.012908935546875
1772642868450728700,4.803728759765625,-1.511871337890625,-0.3932037353515625,0.0076446533203125
1772642868460773600,4.813773681640625,-1.35015869140625,-0.3743133544921875,-0.017669677734375
1772642868470817500,4.823817626953125,-1.2113037109375,-0.3460540771484375,-0.096649169921875
1772642868480862700,4.83386279296875,-1.195648193359375,-0.3105316162109375,-0.1741790771484375
1772642868490907600,4.84390771484375,-1.2869720458984375,-0.269317626953125,-0.2003936767578125
1772642868500951800,4.853951904296875,-1.309539794921875,-0.21533203125,-0.2115936279296875
1772642868510996500,4.86399658203125,-1.2510528564453125,-0.183807373046875,-0.199676513671875
1772642868521041700,4.874041748046875,-1.1382293701171875,-0.191497802734375,-0.15362548828125
1772642868531085800,4.8840859375,-0.9952392578125,-0.2095489501953125,-0.11114501953125
1772642868541130500,4.894130615234375,-0.8341217041015625,-0.2573394775390625,-0.0727081298828125
1772642868551175700,4.90417578125,-0.649444580078125,-0.31927490234375,-0.041107177734375
1772642868561219600,4.914219482421875,-0.4691009521484375,-0.3398284912109375,-0.02532958984375
1772642868571264800,4.9242646484375,-0.3510589599609375,-0.31329345703125,-0.0282745361328125
1772642868581309400,4.934309326171875,-0.3342742919921875,-0.261016845703125,-0.051300048828125
1772642868591354600,4.944354736328125,-0.3905029296875,-0.1991119384765625,-0.1035308837890625
1772642868601398800,4.954398681640625,-0.4693756103515625,-0.14141845703125,-0.1816864013671875
1772642868611443700,4.964443603515625,-0.522064208984375,-0.0955352783203125,-0.2332000732421875
1772642868621488600,4.974488525390625,-0.5420379638671875,-0.0489044189453125,-0.23663330078125
1772642868631532500,4.984532470703125,-0.539886474609375,-0.0132293701171875,-0.2023468017578125
1772642868641577700,4.99457763671875,-0.5294036865234375,0.010040283203125,-0.1608734130859375
1772642868651622700,5.00462255859375,-0.5092926025390625,0.03521728515625,-0.1285858154296875
1772642868661666600,5.01466650390625,-0.49786376953125,0.0579986572265625,-0.1126861572265625
1772642868671711700,5.024711669921875,-0.50396728515625,0.0697784423828125,-0.0993194580078125
1772642868681756700,5.034756591796875,-0.493316650390625,0.0726776123046875,-0.087371826171875
1772642868691800600,5.044800537109375,-0.463592529296875,0.0618896484375,-0.0843963623046875
1772642868701845800,5.054845703125,-0.4226531982421875,0.0442352294921875,-0.0949859619140625
1772642868711890700,5.064890625,-0.3628997802734375,0.02838134765625,-0.1082611083984375
1772642868721936000,5.074935791015625,-0.30279541015625,0.0154876708984375,-0.1104888916015625
1772642868731979500,5.0849794921875,-0.2578277587890625,0.010528564453125,-0.1063385009765625
1772642868742024700,5.095024658203125,-0.228485107421875,0.00543212890625,-0.107757568359375
1772642868752069600,5.105069580078125,-0.21380615234375,0.005706787109375,-0.113250732421875
1772642868762113500,5.115113525390625,-0.204833984375,0.0157623291015625,-0.1110992431640625
1772642868772158700,5.12515869140625,-0.206939697265625,0.0283203125,-0.101409912109375
1772642868782203600,5.13520361328125,-0.2001190185546875,0.0253753662109375,-0.085693359375
1772642868792247600,5.14524755859375,-0.17279052734375,0.013153076171875,-0.07757568359375
1772642868802292500,5.15529248046875,-0.1702117919921875,0.0046844482421875,-0.090789794921875
1772642868812337700,5.165337646484375,-0.2265167236328125,0.0051422119140625,-0.10333251953125
1772642868822382600,5.175382568359375,-0.35797119140625,-0.0005950927734375,-0.096893310546875
1772642868832426500,5.185426513671875,-0.5105133056640625,-0.0399932861328125,-0.094024658203125
1772642868842471700,5.1954716796875,-0.6034088134765625,-0.0980377197265625,-0.0932464599609375
1772642868852516600,5.2055166015625,-0.6076812744140625,-0.1512298583984375,-0.082855224609375
1772642868862560800,5.215560791015625,-0.5680999755859375,-0.1999053955078125,-0.0670623779296875
1772642868872605400,5.22560546875,-0.5848846435546875,-0.232818603515625,-0.0646514892578125
1772642868882650600,5.235650634765625,-0.7148895263671875,-0.2354888916015625,-0.0677947998046875
1772642868892694800,5.24569482421875,-0.9124755859375,-0.220550537109375,-0.0452423095703125
1772642868902739700,5.25573974609375,-1.1158447265625,-0.2156982421875,-0.0061492919921875
1772642868912784600,5.26578466796875,-1.2644805908203125,-0.23822021484375,0.034027099609375
1772642868922828800,5.275828857421875,-1.2814788818359375,-0.2912139892578125,0.0516510009765625
1772642868932873700,5.285873779296875,-1.17022705078125,-0.3154296875,0.013763427734375
1772642868942918700,5.295918701171875,-1.103424072265625,-0.315460205078125,-0.0200347900390625
1772642868952963600,5.305963623046875,-1.1349334716796875,-0.3400421142578125,-0.0340423583984375
1772642868963007700,5.3160078125,-1.2585601806640625,-0.345245361328125,-0.0327911376953125
1772642868973052700,5.326052734375,-1.374114990234375,-0.2931060791015625,-0.0336151123046875
1772642868983097600,5.33609765625,-1.46783447265625,-0.23681640625,-0.036651611328125
1772642868993141800,5.346141845703125,-1.5472259521484375,-0.209228515625,-0.0269317626953125
1772642869003186700,5.356186767578125,-1.5764007568359375,-0.2075653076171875,-0.0081329345703125
1772642869013231900,5.36623193359375,-1.54327392578125,-0.225067138671875,-0.00616455078125
1772642869023275500,5.376275634765625,-1.48052978515625,-0.2496795654296875,-0.0244598388671875
1772642869033320700,5.38632080078125,-1.42724609375,-0.274139404296875,-0.0535125732421875
1772642869043365600,5.39636572265625,-1.4074554443359375,-0.2985382080078125,-0.07855224609375
1772642869053409500,5.406409423828125,-1.4188385009765625,-0.307891845703125,-0.0792694091796875
1772642869063454700,5.416454833984375,-1.4270477294921875,-0.27337646484375,-0.0624847412109375
1772642869073499600,5.426499755859375,-1.4507293701171875,-0.2227325439453125,-0.0494232177734375
1772642869083544800,5.436544921875,-1.4793243408203125,-0.182464599609375,-0.047515869140625
1772642869093588500,5.44658837890625,-1.5275115966796875,-0.15924072265625,-0.0565948486328125
1772642869103633700,5.456633544921875,-1.58050537109375,-0.1508941650390625,-0.0760498046875
1772642869113678600,5.4666787109375,-1.603118896484375,-0.1620330810546875,-0.1068267822265625
1772642869123722500,5.476722412109375,-1.617889404296875,-0.1851654052734375,-0.14459228515625
1772642869133767700,5.486767578125,-1.6445159912109375,-0.203277587890625,-0.1713104248046875
1772642869143812600,5.4968125,-1.6742706298828125,-0.21551513671875,-0.1831817626953125
1772642869153856800,5.506856689453125,-1.6751556396484375,-0.22833251953125,-0.16290283203125
1772642869163901400,5.5169013671875,-1.6477508544921875,-0.233123779296875,-0.1275177001953125
1772642869173946600,5.526946533203125,-1.6226043701171875,-0.225067138671875,-0.0949554443359375
1772642869183990800,5.53699072265625,-1.6054840087890625,-0.2191619873046875,-0.0650177001953125
1772642869194035700,5.54703564453125,-1.5853729248046875,-0.213653564453125,-0.0339202880859375
1772642869204080600,5.55708056640625,-1.559906005859375,-0.212005615234375,-0.0083160400390625
1772642869214125600,5.56712548828125,-1.5404510498046875,-0.21319580078125,0.0084381103515625
1772642869224169700,5.577169677734375,-1.5295257568359375,-0.2088165283203125,0.0095977783203125
1772642869234214700,5.587214599609375,-1.5445098876953125,-0.1946868896484375,0.0004425048828125
1772642869244259600,5.597259521484375,-1.5733795166015625,-0.161834716796875,-0.0066986083984375
1772642869254303700,5.6073037109375,-1.5866241455078125,-0.147186279296875,-0.017242431640625
1772642869264348700,5.6173486328125,-1.5617828369140625,-0.157318115234375,-0.0309600830078125
1772642869274393600,5.6273935546875,-1.499359130859375,-0.1719207763671875,-0.03643798828125
1772642869284437800,5.637437744140625,-1.42034912109375,-0.1920928955078125,-0.0272979736328125
1772642869294482400,5.647482421875,-1.340728759765625,-0.1993408203125,0.00018310546875
1772642869304527600,5.657527587890625,-1.2603607177734375,-0.193145751953125,0.0475616455078125
1772642869314571300,5.6675712890625,-1.1817779541015625,-0.181640625,0.111663818359375
1772642869324616400,5.677616455078125,-1.1031646728515625,-0.14111328125,0.171234130859375
1772642869334661400,5.687661376953125,-1.0523681640625,-0.0817718505859375,0.1895751953125
1772642869344706600,5.69770654296875,-1.04046630859375,-0.0412139892578125,0.184326171875
1772642869354750500,5.70775048828125,-1.0095977783203125,-0.025238037109375,0.1601104736328125
1772642869364795400,5.71779541015625,-0.955657958984375,-0.0264892578125,0.0659942626953125
1772642869374840600,5.727840576171875,-0.8846588134765625,-0.04095458984375,-0.0639495849609375
1772642869384884500,5.737884521484375,-0.805999755859375,-0.062591552734375,-0.1674652099609375
1772642869394929400,5.747929443359375,-0.708282470703125,-0.0838470458984375,-0.2250823974609375
1772642869404974300,5.757974365234375,-0.5769500732421875,-0.09185791015625,-0.2426910400390625
1772642869415018500,5.7680185546875,-0.4550933837890625,-0.07171630859375,-0.22930908203125
1772642869425063400,5.7780634765625,-0.41217041015625,-0.0355224609375,-0.1927337646484375
1772642869435108400,5.7881083984375,-0.421661376953125,-0.0047149658203125,-0.1469573974609375
1772642869445152500,5.798152587890625,-0.4282989501953125,0.0162353515625,-0.1186676025390625
1772642869455197400,5.808197509765625,-0.406829833984375,0.03802490234375,-0.108489990234375
1772642869465242400,5.818242431640625,-0.373321533203125,0.0542144775390625,-0.0980377197265625
1772642869475287600,5.82828759765625,-0.3422393798828125,0.065948486328125,-0.0695648193359375
1772642869485331500,5.83833154296875,-0.3276214599609375,0.081939697265625,-0.00927734375
1772642869495376400,5.84837646484375,-0.300079345703125,0.0856781005859375,0.05322265625
1772642869505421300,5.85842138671875,-0.242431640625,0.062957763671875,0.074951171875
1772642869515465500,5.868465576171875,-0.164703369140625,0.0260467529296875,0.05120849609375
1772642869525510700,5.8785107421875,-0.07891845703125,-0.0106353759765625,0.0065155029296875
1772642869535555300,5.888555419921875,-0.00872802734375,-0.044677734375,-0.0445556640625
1772642869545599500,5.898599609375,0.025390625,-0.0661468505859375,-0.0770111083984375
1772642869555644400,5.90864453125,0.0333099365234375,-0.075775146484375,-0.0862579345703125
1772642869565689300,5.918689453125,0.0184173583984375,-0.0789337158203125,-0.08587646484375
1772642869575733500,5.9287333984375,-0.0179443359375,-0.07623291015625,-0.081207275390625
1772642869585778400,5.9387783203125,-0.0683441162109375,-0.0769805908203125,-0.0730743408203125
1772642869595823600,5.94882373046875,-0.1341094970703125,-0.0697784423828125,-0.07635498046875
1772642869605868300,5.958868408203125,-0.1981048583984375,-0.06634521484375,-0.087982177734375
1772642869615912400,5.968912353515625,-0.2484283447265625,-0.0717010498046875,-0.10076904296875
1772642869625957400,5.978957275390625,-0.292816162109375,-0.0633392333984375,-0.0999908447265625
1772642869636002600,5.98900244140625,-0.3561553955078125,-0.0392608642578125,-0.073822021484375
1772642869646046500,5.99904638671875,-0.46832275390625,-0.02667236328125,-0.0277862548828125
1772642869656091400,6.00909130859375,-0.582366943359375,-0.0325469970703125,0.023651123046875
1772642869666136600,6.019136474609375,-0.638641357421875,-0.061614990234375,0.064971923828125
1772642869676180500,6.029180419921875,-0.5810089111328125,-0.1002044677734375,0.0818634033203125
1772642869686225400,6.039225341796875,-0.486968994140625,-0.1331329345703125,0.0623016357421875
1772642869696270600,6.0492705078125,-0.50384521484375,-0.1377410888671875,0.0182037353515625
1772642869706314200,6.059314208984375,-0.71099853515625,-0.1457366943359375,-0.0065460205078125
1772642869716359400,6.069359375,-0.95068359375,-0.1725311279296875,0.000640869140625
1772642869726404400,6.079404296875,-1.102447509765625,-0.2006683349609375,-0.00384521484375
1772642869736449500,6.089449462890625,-1.153106689453125,-0.2241058349609375,-0.0367279052734375
1772642869746493400,6.099493408203125,-1.0932769775390625,-0.2449493408203125,-0.0728607177734375
1772642869756538400,6.109538330078125,-1.0317535400390625,-0.2334747314453125,-0.1327972412109375
1772642869766583600,6.11958349609375,-1.0746612548828125,-0.19403076171875,-0.186279296875
1772642869776627500,6.12962744140625,-1.23089599609375,-0.161865234375,-0.160369873046875
1772642869786672400,6.13967236328125,-1.382843017578125,-0.1511993408203125,-0.1059722900390625
1772642869796717300,6.14971728515625,-1.4647369384765625,-0.129974365234375,-0.09027099609375
1772642869806761500,6.159761474609375,-1.5303192138671875,-0.1151123046875,-0.0860748291015625
1772642869816806700,6.169806640625,-1.6081085205078125,-0.1162872314453125,-0.0674285888671875
1772642869826851300,6.179851318359375,-1.6416015625,-0.1305694580078125,-0.0330047607421875
1772642869836895500,6.1898955078125,-1.610321044921875,-0.1616363525390625,0.00347900390625
1772642869846940400,6.1999404296875,-1.5514068603515625,-0.18853759765625,0.02532958984375
1772642869856985300,6.2099853515625,-1.5025634765625,-0.199493408203125,0.033294677734375
1772642869867030300,6.2200302734375,-1.498077392578125,-0.1983795166015625,0.0236053466796875
1772642869877074400,6.230074462890625,-1.537628173828125,-0.191925048828125,-0.0276031494140625
1772642869887119600,6.24011962890625,-1.614471435546875,-0.1617431640625,-0.1024627685546875
1772642869897164300,6.250164306640625,-1.7354736328125,-0.1110382080078125,-0.1559295654296875
1772642869907208400,6.26020849609375,-1.881195068359375,-0.0505523681640625,-0.18328857421875
1772642869917253400,6.27025341796875,-1.9898681640625,-0.0118865966796875,-0.186370849609375
1772642869927298600,6.280298583984375,-1.9951629638671875,-0.008270263671875,-0.176422119140625
1772642869937342500,6.290342529296875,-1.90045166015625,-0.031524658203125,-0.1419219970703125
1772642869947387400,6.300387451171875,-1.773834228515625,-0.047119140625,-0.07916259765625
1772642869957432600,6.3104326171875,-1.6866912841796875,-0.0577239990234375,-0.0264129638671875
1772642869967476500,6.3204765625,-1.68829345703125,-0.0641937255859375,-0.0059661865234375
1772642869977521400,6.330521484375,-1.7516937255859375,-0.0603485107421875,-0.013153076171875
1772642869987566600,6.340566650390625,-1.80499267578125,-0.0604400634765625,-0.0359039306640625
1772642869997611500,6.350611572265625,-1.8374786376953125,-0.0566253662109375,-0.05560302734375
1772642870007655400,6.360655517578125,-1.8535003662109375,-0.0463714599609375,-0.0666351318359375
1772642870017700400,6.370700439453125,-1.8763885498046875,-0.0342864990234375,-0.0732269287109375
1772642870027745500,6.38074560546875,-1.937652587890625,-0.0117950439453125,-0.0653076171875
1772642870037789400,6.39078955078125,-2.0322418212890625,0.0129852294921875,-0.04351806640625
1772642870047834400,6.40083447265625,-2.0907745361328125,0.026214599609375,-0.020538330078125
1772642870057879600,6.410879638671875,-2.0672607421875,0.0237884521484375,0.0099029541015625
1772642870067923500,6.42092333984375,-1.947174072265625,0.0268402099609375,0.05999755859375
1772642870077968400,6.430968505859375,-1.77752685546875,0.019134521484375,0.11309814453125
1772642870088013300,6.441013427734375,-1.6300811767578125,-0.00213623046875,0.113067626953125
1772642870098057500,6.451057373046875,-1.5033111572265625,-0.0355377197265625,0.0540771484375
1772642870108102700,6.4611025390625,-1.39794921875,-0.081573486328125,-0.01434326171875
1772642870118147300,6.471147216796875,-1.283050537109375,-0.1320343017578125,-0.057891845703125
1772642870128192500,6.481192626953125,-1.1680908203125,-0.1798248291015625,-0.0679931640625
1772642870138236400,6.491236328125,-1.1002960205078125,-0.2153472900390625,-0.044464111328125
1772642870148281300,6.50128125,-1.0416107177734375,-0.2411651611328125,-0.0120086669921875
1772642870158326300,6.511326171875,-0.962615966796875,-0.253265380859375,-0.0028076171875
1772642870168370400,6.521370361328125,-0.858001708984375,-0.2713165283203125,-0.0025787353515625
1772642870178415600,6.53141552734375,-0.689422607421875,-0.251739501953125,-0.0137939453125
1772642870188460300,6.541460205078125,-0.5522918701171875,-0.204742431640625,-0.0242919921875
1772642870198504400,6.55150439453125,-0.4918212890625,-0.181182861328125,-0.01483154296875
1772642870208549400,6.56154931640625,-0.4240875244140625,-0.1859893798828125,-0.0176544189453125
1772642870218594600,6.571594482421875,-0.3416900634765625,-0.2068328857421875,-0.0549468994140625
1772642870228638500,6.581638427734375,-0.30987548828125,-0.2140655517578125,-0.0820465087890625
1772642870238683400,6.591683349609375,-0.2578125,-0.178741455078125,-0.1148681640625
1772642870248728600,6.601728515625,-0.2197265625,-0.1559600830078125,-0.142608642578125
1772642870258773200,6.611773193359375,-0.1451873779296875,-0.0326995849609375,-0.06488037109375
1772642870268817400,6.6218173828125,-0.1253662109375,-0.220916748046875,-0.0608062744140625
1772642870278862600,6.631862548828125,-0.09088134765625,-0.2252349853515625,-0.132171630859375
1772642870288907500,6.641907470703125,-0.0576324462890625,-0.131988525390625,-0.1481170654296875
1772642870298951400,6.651951416015625,-0.0595703125,-0.1397247314453125,-0.1223907470703125
1772642870308996000,6.66199609375,-0.053680419921875,-0.1260528564453125,-0.04718017578125
1772642870319041300,6.672041259765625,-0.0298614501953125,-0.08551025390625,0.0267791748046875
1772642870329085400,6.68208544921875,0.0028533935546875,-0.059783935546875,0.0895843505859375
1772642870339130000,6.692130126953125,0.0335845947265625,-0.0374603271484375,0.1335296630859375
1772642870349175300,6.70217529296875,0.055694580078125,-0.004547119140625,0.1638946533203125
1772642870359219200,6.71221923828125,0.0628662109375,0.034027099609375,0.1689453125
1772642870369264400,6.722264404296875,0.0362091064453125,0.0704803466796875,0.13916015625
1772642870379309000,6.73230908203125,-0.0063323974609375,0.089080810546875,0.0673980712890625
1772642870389354200,6.742354248046875,-0.0605316162109375,0.114044189453125,-0.04461669921875
1772642870399398400,6.7523984375,-0.1587677001953125,0.167755126953125,-0.16131591796875
1772642870409443300,6.762443359375,-0.294647216796875,0.188446044921875,-0.2136077880859375
1772642870419488300,6.77248828125,-0.39617919921875,0.191864013671875,-0.2024993896484375
1772642870429532400,6.782532470703125,-0.438720703125,0.2285003662109375,-0.1751556396484375
1772642870439577300,6.792577392578125,-0.4532470703125,0.2559051513671875,-0.136688232421875
1772642870449622300,6.802622314453125,-0.4822540283203125,0.247802734375,-0.090118408203125
1772642870459666200,6.812666259765625,-0.490447998046875,0.2040252685546875,-0.038299560546875
1772642870469711400,6.82271142578125,-0.403076171875,0.146240234375,-0.02001953125
1772642870479756300,6.83275634765625,-0.283447265625,0.0669403076171875,-0.0170745849609375
1772642870489800200,6.84280029296875,-0.2183074951171875,-0.0414276123046875,0.0018768310546875
1772642870499845400,6.852845458984375,-0.191619873046875,-0.146728515625,0.016265869140625
1772642870509890300,6.862890380859375,-0.217132568359375,-0.2203826904296875,-0.000762939453125
1772642870519935500,6.872935546875,-0.339569091796875,-0.2467041015625,-0.0491943359375
1772642870529979100,6.882979248046875,-0.5684051513671875,-0.25341796875,-0.0848388671875
1772642870540024300,6.8930244140625,-0.799163818359375,-0.2436676025390625,-0.09326171875
1772642870550069200,6.9030693359375,-0.9745635986328125,-0.1850433349609375,-0.102691650390625
1772642870560113200,6.913113037109375,-1.0816497802734375,-0.1390228271484375,-0.102508544921875
1772642870570158300,6.923158447265625,-1.1732635498046875,-0.132415771484375,-0.0874786376953125
1772642870580203300,6.933203369140625,-1.2644500732421875,-0.1283111572265625,-0.0923309326171875
1772642870590247400,6.943247314453125,-1.3859710693359375,-0.1173858642578125,-0.1214141845703125
1772642870600292000,6.9532919921875,-1.5763702392578125,-0.0997772216796875,-0.153350830078125
1772642870610337300,6.963337158203125,-1.75921630859375,-0.0923919677734375,-0.1711578369140625
1772642870620381400,6.97338134765625,-1.8673248291015625,-0.107666015625,-0.179595947265625
1772642870630426000,6.983426025390625,-1.884246826171875,-0.142730712890625,-0.1837310791015625
1772642870640471300,6.99347119140625,-1.8443145751953125,-0.186737060546875,-0.18426513671875
1772642870650516200,7.00351611328125,-1.8279571533203125,-0.2151947021484375,-0.166107177734375
1772642870660560400,7.013560302734375,-1.90325927734375,-0.226959228515625,-0.127593994140625
1772642870670605000,7.02360498046875,-2.039794921875,-0.22705078125,-0.085968017578125
1772642870680650200,7.033650146484375,-2.1689605712890625,-0.2206878662109375,-0.0709991455078125
1772642870690694400,7.0436943359375,-2.2610321044921875,-0.2056732177734375,-0.108062744140625
1772642870700739300,7.0537392578125,-2.3573760986328125,-0.1786651611328125,-0.1697998046875
1772642870710784300,7.0637841796875,-2.514862060546875,-0.1528472900390625,-0.2420501708984375
1772642870720828400,7.073828369140625,-2.6800537109375,-0.1273345947265625,-0.3181915283203125
1772642870730873300,7.083873291015625,-2.75628662109375,-0.094085693359375,-0.348236083984375
1772642870740918300,7.093918212890625,-2.7073211669921875,-0.0838775634765625,-0.2987518310546875
1772642870750962200,7.103962158203125,-2.55615234375,-0.1114044189453125,-0.186187744140625
1772642870761007400,7.11400732421875,-2.325653076171875,-0.1550140380859375,-0.0880584716796875
1772642870771052300,7.12405224609375,-2.0587158203125,-0.2251129150390625,-0.0552520751953125
1772642870781097200,7.13409716796875,-1.829193115234375,-0.3024444580078125,-0.08209228515625
1772642870791141400,7.144141357421875,-1.6619720458984375,-0.35516357421875,-0.1009979248046875
1772642870801186300,7.154186279296875,-1.5441741943359375,-0.37823486328125,-0.103546142578125
1772642870811231500,7.1642314453125,-1.478515625,-0.3839111328125,-0.0943603515625
1772642870821275100,7.174275146484375,-1.4317169189453125,-0.382110595703125,-0.07598876953125
1772642870831320300,7.1843203125,-1.378326416015625,-0.37664794921875,-0.0561981201171875
1772642870841365200,7.194365234375,-1.3416748046875,-0.36663818359375,-0.0517425537109375
1772642870851409200,7.2044091796875,-1.3338775634765625,-0.333038330078125,-0.0497894287109375
1772642870861454300,7.214454345703125,-1.3427734375,-0.2761688232421875,-0.0050048828125
1772642870871499300,7.224499267578125,-1.2944488525390625,-0.1945953369140625,0.094390869140625
1772642870881543200,7.234543212890625,-1.1854705810546875,-0.1537628173828125,0.20074462890625
1772642870891588000,7.244588134765625,-1.0604095458984375,-0.15863037109375,0.24212646484375
1772642870901633300,7.25463330078125,-0.953155517578125,-0.183441162109375,0.1900787353515625
1772642870911678200,7.26467822265625,-0.82806396484375,-0.20709228515625,0.096710205078125
1772642870921722000,7.27472216796875,-0.6792144775390625,-0.2106170654296875,0.035003662109375
1772642870931767300,7.284767333984375,-0.5349273681640625,-0.1941680908203125,0.00933837890625
1772642870941812200,7.294812255859375,-0.4023590087890625,-0.168792724609375,-0.0153961181640625
1772642870951856400,7.3048564453125,-0.29132080078125,-0.1241607666015625,-0.0295562744140625
1772642870961901300,7.3149013671875,-0.2280426025390625,-0.076751708984375,-0.04779052734375
1772642870971946200,7.3249462890625,-0.220367431640625,-0.04180908203125,-0.0729522705078125
1772642870981990400,7.334990478515625,-0.2306365966796875,-0.024749755859375,-0.093719482421875
1772642870992035300,7.345035400390625,-0.2665557861328125,-0.0052337646484375,-0.0940399169921875
1772642871002080300,7.355080322265625,-0.3077392578125,0.0205841064453125,-0.0754241943359375
1772642871012124400,7.36512451171875,-0.31341552734375,0.0330657958984375,-0.0550537109375
1772642871022169300,7.37516943359375,-0.2846832275390625,0.037994384765625,-0.0381011962890625
1772642871032214300,7.38521435546875,-0.2207794189453125,0.0331573486328125,-0.0129852294921875
1772642871042259200,7.39525927734375,-0.1288299560546875,0.0157318115234375,0.0104827880859375
1772642871052303400,7.405303466796875,-0.0225677490234375,0.017791748046875,0.0174713134765625
1772642871062348300,7.415348388671875,0.056915283203125,0.0050201416015625,0.044281005859375
1772642871072393200,7.425393310546875,0.0999298095703125,-0.0048980712890625,0.0850372314453125
1772642871082437400,7.435437255859375,0.12811279296875,-0.0175933837890625,0.103546142578125
1772642871092482300,7.445482421875,0.1171875,-0.0382080078125,0.107025146484375
1772642871102527500,7.455527587890625,0.1426544189453125,-0.04803466796875,0.04241943359375
1772642871112571100,7.465571044921875,0.1678924560546875,-0.034332275390625,-0.040008544921875
1772642871122616300,7.4756162109375,0.122833251953125,-0.0357208251953125,-0.094329833984375
1772642871132661200,7.4856611328125,0.043914794921875,-0.0380706787109375,-0.133087158203125
1772642871142705200,7.495705078125,-0.159027099609375,-0.0431060791015625,-0.156280517578125
1772642871152750300,7.505750244140625,-0.4267730712890625,-0.0471343994140625,-0.1601715087890625
1772642871162795300,7.515795166015625,-0.49072265625,0.0028228759765625,-0.1604156494140625
1772642871172840400,7.52584033203125,-0.4339752197265625,0.019683837890625,-0.12872314453125
1772642871182884000,7.535884033203125,-0.3758392333984375,0.0092926025390625,-0.0738983154296875
1772642871192929300,7.54592919921875,-0.326690673828125,0.0001068115234375,-0.04034423828125
1772642871202974200,7.55597412109375,-0.301910400390625,-0.011932373046875,-0.0096282958984375
1772642871213018000,7.56601806640625,-0.300811767578125,-0.037200927734375,0.032562255859375
1772642871223063300,7.576063232421875,-0.32818603515625,-0.090606689453125,0.0677032470703125
1772642871233108200,7.586108154296875,-0.36334228515625,-0.165924072265625,0.0804595947265625
1772642871243152400,7.59615234375,-0.3709259033203125,-0.25042724609375,0.0757904052734375
1772642871253197300,7.606197265625,-0.3836669921875,-0.3261260986328125,0.0588836669921875
1772642871263242200,7.6162421875,-0.4525146484375,-0.3856658935546875,0.035736083984375
1772642871273286400,7.626286376953125,-0.588897705078125,-0.426300048828125,0.02197265625
1772642871283331300,7.636331298828125,-0.729644775390625,-0.469757080078125,0.0312957763671875
1772642871293376300,7.646376220703125,-0.7905731201171875,-0.4856414794921875,0.0095977783203125
1772642871303421400,7.65642138671875,-0.863250732421875,-0.4351806640625,-0.0525665283203125
1772642871313465600,7.666465576171875,-1.063568115234375,-0.363372802734375,-0.0559844970703125
1772642871323510500,7.676510498046875,-1.3134765625,-0.350738525390625,0.0089569091796875
1772642871333555500,7.686555419921875,-1.5022735595703125,-0.31097412109375,0.0335845947265625
1772642871343599600,7.696599609375,-1.6229705810546875,-0.2311248779296875,-0.0142974853515625
1772642871353644500,7.70664453125,-1.75738525390625,-0.2071075439453125,-0.0966033935546875
1772642871363689700,7.716689697265625,-1.86651611328125,-0.2338409423828125,-0.1765289306640625
1772642871373733600,7.726733642578125,-1.89093017578125,-0.2605743408203125,-0.23028564453125
1772642871383778600,7.736778564453125,-1.848358154296875,-0.2675018310546875,-0.230224609375
1772642871393823700,7.74682373046875,-1.788665771484375,-0.2694549560546875,-0.170989990234375
1772642871403867400,7.756867431640625,-1.727813720703125,-0.289459228515625,-0.084869384765625
1772642871413912600,7.76691259765625,-1.635162353515625,-0.3283843994140625,-0.0317840576171875
1772642871423957500,7.77695751953125,-1.5279998779296875,-0.37640380859375,-0.0211639404296875
1772642871434002700,7.787002685546875,-1.4300689697265625,-0.4197845458984375,-0.0215606689453125
1772642871444046600,7.797046630859375,-1.3695526123046875,-0.4530181884765625,-0.0228729248046875
1772642871454091500,7.807091552734375,-1.3696136474609375,-0.467041015625,-0.03765869140625
1772642871464136700,7.81713671875,-1.4503021240234375,-0.455535888671875,-0.082183837890625
1772642871474180400,7.827180419921875,-1.582000732421875,-0.4363555908203125,-0.1324005126953125
1772642871484225500,7.8372255859375,-1.7261505126953125,-0.4075469970703125,-0.1702880859375
1772642871494270500,7.8472705078125,-1.8377838134765625,-0.3587799072265625,-0.191864013671875
1772642871504314600,7.857314697265625,-1.8776702880859375,-0.3092041015625,-0.1634674072265625
1772642871514359600,7.867359619140625,-1.8629150390625,-0.2707977294921875,-0.0950469970703125
1772642871524404500,7.877404541015625,-1.8245849609375,-0.250762939453125,-0.03759765625
1772642871534448600,7.88744873046875,-1.7704620361328125,-0.2479400634765625,-0.025604248046875
1772642871544493600,7.89749365234375,-1.7207489013671875,-0.2637786865234375,-0.0406951904296875
1772642871554538500,7.90753857421875,-1.67388916015625,-0.288330078125,-0.059478759765625
1772642871564583400,7.91758349609375,-1.6113739013671875,-0.303375244140625,-0.0619964599609375
1772642871574627600,7.927627685546875,-1.5363616943359375,-0.32598876953125,-0.04534912109375
1772642871584672500,7.937672607421875,-1.4698333740234375,-0.3489227294921875,-0.0147247314453125
1772642871594717400,7.947717529296875,-1.397857666015625,-0.354705810546875,0.0094757080078125
1772642871604761600,7.95776171875,-1.325042724609375,-0.3407135009765625,0.0175323486328125
1772642871614806500,7.967806640625,-1.278289794921875,-0.3138580322265625,0.002227783203125
1772642871624851500,7.9778515625,-1.26922607421875,-0.27685546875,-0.0268096923828125
1772642871634895600,7.9878955078125,-1.272552490234375,-0.2515869140625,-0.054779052734375
1772642871644940500,7.9979404296875,-1.26947021484375,-0.242218017578125,-0.066314697265625
1772642871654985700,8.00798583984375,-1.2227630615234375,-0.2474212646484375,-0.058013916015625
1772642871665029600,8.018029541015625,-1.112335205078125,-0.261260986328125,-0.0391693115234375
1772642871675074600,8.028074462890626,-0.9613189697265625,-0.2798004150390625,0.0192108154296875
1772642871685119700,8.03811962890625,-0.8224029541015625,-0.299774169921875,0.110076904296875
1772642871695164700,8.04816455078125,-0.717132568359375,-0.2912445068359375,0.191436767578125
1772642871705208600,8.05820849609375,-0.6268310546875,-0.2555999755859375,0.220855712890625
1772642871715253500,8.06825341796875,-0.55438232421875,-0.19873046875,0.2101593017578125
1772642871725298700,8.078298583984376,-0.495025634765625,-0.125,0.169342041015625
1772642871735342600,8.088342529296876,-0.4784393310546875,-0.0506439208984375,0.0832977294921875
1772642871745387500,8.098387451171876,-0.50799560546875,-0.005462646484375,-0.024139404296875
1772642871755432700,8.1084326171875,-0.551055908203125,0.0119476318359375,-0.09954833984375
1772642871765476400,8.118476318359376,-0.586639404296875,0.0305023193359375,-0.131072998046875
1772642871775521500,8.128521484375,-0.640625,0.05059814453125,-0.1333160400390625
1772642871785566500,8.13856640625,-0.6971893310546875,0.070465087890625,-0.1353607177734375
1772642871795610600,8.148610595703126,-0.7617340087890625,0.0938873291015625,-0.13385009765625
1772642871805655600,8.158655517578126,-0.809906005859375,0.116241455078125,-0.111968994140625
1772642871815700500,8.168700439453126,-0.818450927734375,0.117828369140625,-0.0794525146484375
1772642871825745700,8.17874560546875,-0.7707977294921875,0.111114501953125,-0.0647735595703125
1772642871835789600,8.18878955078125,-0.6492919921875,0.0845489501953125,-0.0630645751953125
1772642871845834500,8.19883447265625,-0.5032196044921875,0.04730224609375,-0.06561279296875
1772642871855879400,8.20887939453125,-0.36798095703125,0.0154571533203125,-0.0769805908203125
1772642871865923600,8.218923583984376,-0.279571533203125,-0.01434326171875,-0.1041259765625
1772642871875968500,8.228968505859376,-0.2294464111328125,-0.0479736328125,-0.133392333984375
1772642871886013400,8.239013427734376,-0.204620361328125,-0.0651702880859375,-0.159149169921875
1772642871896057600,8.2490576171875,-0.22528076171875,-0.0722808837890625,-0.1754150390625
1772642871906102800,8.259102783203126,-0.2630462646484375,-0.0720367431640625,-0.180267333984375
1772642871916147500,8.2691474609375,-0.289642333984375,-0.06500244140625,-0.178497314453125
1772642871926191600,8.279191650390626,-0.311798095703125,-0.0478057861328125,-0.157073974609375
1772642871936236500,8.289236572265626,-0.339141845703125,-0.0254669189453125,-0.0980987548828125
1772642871946281700,8.29928173828125,-0.37493896484375,-0.018646240234375,-0.032623291015625
1772642871956326400,8.309326416015624,-0.42431640625,-0.02764892578125,0.0050201416015625
1772642871966370600,8.31937060546875,-0.47882080078125,-0.02764892578125,0.00579833984375
1772642871976415700,8.329415771484374,-0.543853759765625,-0.04302978515625,-0.02056884765625
1772642871986460700,8.339460693359374,-0.615692138671875,-0.087005615234375,-0.060791015625
1772642871996504600,8.349504638671876,-0.656707763671875,-0.117401123046875,-0.084869384765625
1772642872006549500,8.359549560546874,-0.6728057861328125,-0.12530517578125,-0.0757293701171875
1772642872016594700,8.3695947265625,-0.69036865234375,-0.1360931396484375,-0.0224151611328125
1772642872026638600,8.379638671875,-0.6960296630859375,-0.1512908935546875,0.0426025390625
1772642872036683500,8.38968359375,-0.6997528076171875,-0.1722564697265625,0.098663330078125
1772642872046728700,8.399728759765624,-0.6634674072265625,-0.2906646728515625,0.162384033203125
1772642872056772400,8.4097724609375,-0.512664794921875,-0.2327880859375,0.1184844970703125
1772642872066817500,8.419817626953124,-0.479644775390625,-0.026458740234375,0.01416015625
1772642872076862500,8.429862548828124,-0.6831512451171875,-0.0367431640625,0.0423583984375
1772642872086907600,8.43990771484375,-0.9043426513671875,-0.205810546875,0.1684417724609375
1772642872096951600,8.44995166015625,-0.8976593017578125,-0.3259735107421875,0.1876983642578125
1772642872106996500,8.45999658203125,-0.71051025390625,-0.3122406005859375,0.064208984375
1772642872117041700,8.470041748046874,-0.61846923828125,-0.255889892578125,-0.0576629638671875
1772642872127085600,8.48008544921875,-0.668212890625,-0.2328643798828125,-0.083343505859375
1772642872137130500,8.490130615234374,-0.8513031005859375,-0.2397613525390625,-0.0405120849609375
