time,seconds_elapsed,z,y,x
1772642863704612900,0.05761279296875,-0.04088582098484039,-0.10935129970312119,-0.231344074010849
1772642863714657800,0.06765771484375,0.006913924589753151,-0.20402826368808746,-0.23554040491580963
1772642863724702000,0.077701904296875,0.0477021224796772,-0.26011723279953003,-0.22046825289726257
1772642863734747000,0.087746826171875,0.08222761005163193,-0.2733507752418518,-0.17751386761665344
1772642863744792000,0.0977919921875,0.11039464920759201,-0.2755405008792877,-0.11257512122392654
1772642863754836000,0.1078359375,0.12486786395311356,-0.25328418612480164,-0.02138156071305275
1772642863764881000,0.117880859375,0.13456763327121735,-0.19263899326324463,0.09015891700983047
1772642863774925800,0.12792578125,0.14233367145061493,-0.1321769803762436,0.20039434731006622
1772642863784969700,0.1379697265625,0.1325525939464569,-0.09999395161867142,0.2961598038673401
1772642863795015000,0.148014892578125,0.10093661397695541,-0.09313338249921799,0.3635827898979187
1772642863805059800,0.158059814453125,0.059048786759376526,-0.10471514612436295,0.4049476981163025
1772642863815104000,0.16810400390625,0.008431414142251015,-0.0867910087108612,0.42946794629096985
1772642863825149000,0.17814892578125,-0.03869463875889778,-0.07226397842168808,0.4355904459953308
1772642863835193900,0.18819384765625,-0.08420726656913757,-0.0797562524676323,0.4259119927883148
1772642863845238000,0.198238037109375,-0.12198930978775024,-0.0493493489921093,0.40758028626441956
1772642863855282700,0.20828271484375,-0.13443772494792938,0.020531468093395233,0.37897926568984985
1772642863865327900,0.218327880859375,-0.13007113337516785,-0.01394807267934084,0.28733426332473755
1772642863875372000,0.2283720703125,-0.13237902522087097,-0.16322970390319824,0.10652852803468704
1772642863885417000,0.2384169921875,-0.1416940987110138,-0.4022313058376312,-0.18112888932228088
1772642863895462000,0.2484619140625,-0.19017933309078217,-0.6654189825057983,-0.5529192090034485
1772642863905505800,0.258505859375,-0.3309292793273926,-0.8175961971282959,-0.9241520166397095
1772642863915551000,0.268551025390625,-0.5533357262611389,-0.9565154314041138,-1.2470061779022217
1772642863925596000,0.278595947265625,-0.7025393843650818,-0.9278209805488586,-1.37322998046875
1772642863935640800,0.288640869140625,-0.7693711519241333,-0.44758379459381104,-1.176658272743225
1772642863945685000,0.29868505859375,-0.7534076571464539,-0.0028356369584798813,-0.9791514277458191
1772642863955730000,0.30872998046875,-0.6464868187904358,0.4104651212692261,-0.7716507315635681
1772642863965775000,0.318775146484375,-0.4640727639198303,0.6103070974349976,-0.6058230996131897
1772642863975818800,0.32881884765625,-0.24993783235549927,0.5962985754013062,-0.4421340525150299
1772642863985864000,0.338864013671875,-0.09128908812999725,0.4526680111885071,-0.2659838795661926
1772642863995908900,0.348908935546875,-0.05780170485377312,0.22698669135570526,-0.1230885311961174
1772642864005952800,0.358952880859375,-0.13026010990142822,-0.10970164090394974,-0.04990146681666374
1772642864015998000,0.368998046875,-0.22402095794677734,-0.44763627648353577,0.03291565179824829
1772642864026043000,0.37904296875,-0.27598142623901367,-0.7273474335670471,0.1251560002565384
1772642864036086800,0.389086669921875,-0.25253576040267944,-0.9165980815887451,0.2222825437784195
1772642864046132000,0.399132080078125,-0.18700110912322998,-1.057185411453247,0.2746458053588867
1772642864056177000,0.409177001953125,-0.10755794495344162,-1.2382564544677734,0.20889398455619812
1772642864066221000,0.419220947265625,-0.045480068773031235,-1.4348869323730469,0.023982401937246323
1772642864076265700,0.429265625,0.03646380081772804,-1.5330816507339478,-0.1688688099384308
1772642864086311000,0.439310791015625,0.18779227137565613,-1.5480215549468994,-0.27809369564056396
1772642864096355000,0.44935498046875,0.3649452030658722,-1.5171995162963867,-0.3119560480117798
1772642864106400000,0.45939990234375,0.5262923836708069,-1.4463329315185547,-0.2985588014125824
1772642864116445000,0.46944482421875,0.6573779582977295,-1.291556715965271,-0.24959391355514526
1772642864126488800,0.47948876953125,0.7347750663757324,-1.0833193063735962,-0.1820024996995926
1772642864136534000,0.489533935546875,0.7567314505577087,-0.943101704120636,-0.10765929520130157
1772642864146578700,0.49957861328125,0.7309483885765076,-0.9531398415565491,-0.046476371586322784
1772642864156624000,0.509623779296875,0.6800265908241272,-1.1054478883743286,0.007669156417250633
1772642864166668000,0.51966796875,0.6231582164764404,-1.2573859691619873,0.07019873708486557
1772642864176713000,0.529712890625,0.5765957832336426,-1.3306186199188232,0.16418568789958954
1772642864186758000,0.5397578125,0.5229958891868591,-1.3073348999023438,0.29283756017684937
1772642864196801800,0.5498017578125,0.4308830201625824,-1.1859277486801147,0.43099117279052734
1772642864206847000,0.559846923828125,0.3177017271518707,-0.9962456226348877,0.5834934115409851
1772642864216892000,0.569891845703125,0.204245463013649,-0.7932575941085815,0.759601891040802
1772642864226935800,0.579935791015625,0.10423115640878677,-0.6092743277549744,0.9524893760681152
1772642864236981000,0.58998095703125,0.018610527738928795,-0.4527219831943512,1.1587319374084473
1772642864247026000,0.60002587890625,-0.05979427695274353,-0.34909793734550476,1.3736701011657715
1772642864257069800,0.61006982421875,-0.13125114142894745,-0.330066442489624,1.5729507207870483
1772642864267114800,0.62011474609375,-0.2027331441640854,-0.4122811257839203,1.6997871398925781
1772642864277160000,0.630159912109375,-0.2805251479148865,-0.5502904057502747,1.7049243450164795
1772642864287203800,0.640203857421875,-0.32995596528053284,-0.6604191064834595,1.5679723024368286
1772642864297249300,0.650249267578125,-0.3243694603443146,-0.6182490587234497,1.3137283325195312
1772642864307294500,0.66029443359375,-0.26196902990341187,-0.36347705125808716,0.9716172814369202
1772642864317339100,0.670339111328125,-0.18176314234733582,0.08518781512975693,0.5797480344772339
1772642864327383300,0.68038330078125,-0.1144164651632309,0.6581117510795593,0.1866755485534668
1772642864337428200,0.69042822265625,-0.047867003828287125,1.250443696975708,-0.14543981850147247
1772642864347472100,0.70047216796875,0.0043726698495447636,1.715101718902588,-0.37348052859306335
1772642864357517300,0.710517333984375,0.033065564930438995,1.9605873823165894,-0.4740374982357025
1772642864367562200,0.720562255859375,0.038746386766433716,1.9733924865722656,-0.46854540705680847
1772642864377607400,0.730607421875,0.014250101521611214,1.8308367729187012,-0.3696574568748474
1772642864387651300,0.7406513671875,-0.02497589960694313,1.5886143445968628,-0.1867375522851944
1772642864397696300,0.7506962890625,-0.07374024391174316,1.2255349159240723,0.02948901802301407
1772642864407741200,0.7607412109375,-0.1186322420835495,0.7775987386703491,0.20920856297016144
1772642864417785000,0.77078515625,-0.13960649073123932,0.28110456466674805,0.30147242546081543
1772642864427830300,0.780830322265625,-0.12834815680980682,-0.09620168805122375,0.30868956446647644
1772642864437875200,0.790875244140625,-0.05674534663558006,-0.26684319972991943,0.24286127090454102
1772642864447919400,0.80091943359375,0.05273225158452988,-0.2045043259859085,0.12703821063041687
1772642864457964300,0.81096435546875,0.18905946612358093,0.03417003154754639,-0.011884518899023533
1772642864468009200,0.82100927734375,0.34389880299568176,0.34059011936187744,-0.2070617377758026
1772642864478053400,0.831053466796875,0.4863254725933075,0.5716965198516846,-0.45906680822372437
1772642864488098300,0.841098388671875,0.5638816356658936,0.6287676095962524,-0.7103687524795532
1772642864498143200,0.851143310546875,0.5705360770225525,0.5307648777961731,-0.8704007863998413
1772642864508187400,0.8611875,0.524989128112793,0.31448233127593994,-0.9004257917404175
1772642864518232300,0.871232421875,0.444470077753067,0.053109049797058105,-0.8375653028488159
1772642864528277200,0.88127734375,0.3520280122756958,-0.1194022074341774,-0.7010533213615417
1772642864538322200,0.891322265625,0.27246981859207153,-0.23612135648727417,-0.5703032612800598
1772642864548366300,0.901366455078125,0.24567988514900208,-0.358081579208374,-0.508955180644989
1772642864558411300,0.911411376953125,0.25718340277671814,-0.5062081813812256,-0.5750231742858887
1772642864568456200,0.921456298828125,0.2936122417449951,-0.624620258808136,-0.7661426067352295
1772642864578500400,0.931500244140625,0.3482445776462555,-0.6323372721672058,-1.0525200366973877
1772642864588545300,0.941545166015625,0.39675527811050415,-0.5280405879020691,-1.3468315601348877
1772642864598590500,0.951590576171875,0.42245638370513916,-0.3829425573348999,-1.5552446842193604
1772642864608634000,0.961634033203125,0.42375293374061584,-0.27796587347984314,-1.6398578882217407
1772642864618679300,0.97167919921875,0.3853740990161896,-0.23878811299800873,-1.6149474382400513
1772642864628724200,0.98172412109375,0.2900896370410919,-0.24395160377025604,-1.4795489311218262
1772642864638768000,0.99176806640625,0.13593441247940063,-0.34531471133232117,-1.2646907567977905
1772642864648813300,1.001813232421875,-0.05679674446582794,-0.526447057723999,-0.9985290765762329
1772642864658858200,1.011858154296875,-0.2502671480178833,-0.7045068144798279,-0.6943969130516052
1772642864668902100,1.021902099609375,-0.38861221075057983,-0.8245583176612854,-0.3691616356372833
1772642864678947300,1.031947265625,-0.43165794014930725,-0.8238542079925537,-0.04167857766151428
1772642864688992300,1.0419921875,-0.396964430809021,-0.6956322193145752,0.22652393579483032
1772642864699036400,1.052036376953125,-0.3277571201324463,-0.49185168743133545,0.41015344858169556
1772642864709081000,1.0620810546875,-0.27168071269989014,-0.2899034917354584,0.4921693205833435
1772642864719126300,1.072126220703125,-0.2441985160112381,-0.17810985445976257,0.48566240072250366
1772642864729171200,1.082171142578125,-0.2579273581504822,-0.14791721105575562,0.42878687381744385
1772642864739215400,1.09221533203125,-0.306919127702713,-0.1319156140089035,0.3516702651977539
1772642864749260300,1.10226025390625,-0.35777440667152405,-0.10793916136026382,0.2509291470050812
1772642864759305200,1.11230517578125,-0.3938163220882416,-0.07067035138607025,0.09834201633930206
1772642864769349400,1.122349365234375,-0.42155593633651733,-0.07784657180309296,-0.13357862830162048
1772642864779394300,1.132394287109375,-0.442462295293808,-0.11913089454174042,-0.39898446202278137
1772642864789439200,1.142439208984375,-0.39912354946136475,-0.15138258039951324,-0.6295984387397766
1772642864799483400,1.1524833984375,-0.28940078616142273,-0.1889864057302475,-0.8377583026885986
1772642864809528300,1.1625283203125,-0.1319919377565384,-0.20540301501750946,-1.0075912475585938
1772642864819573200,1.1725732421875,0.03851774334907532,-0.2211897075176239,-1.1327252388000488
1772642864829617200,1.1826171875,0.2033330500125885,-0.28146862983703613,-1.2178802490234375
1772642864839662300,1.192662353515625,0.31332504749298096,-0.3601706326007843,-1.248914122581482
1772642864849707300,1.202707275390625,0.3106146454811096,-0.36747926473617554,-1.2061457633972168
1772642864859751200,1.212751220703125,0.2283187061548233,-0.2836304306983948,-1.1174324750900269
1772642864869796400,1.22279638671875,0.126413956284523,-0.10637815296649933,-0.9926427006721497
1772642864879841300,1.23284130859375,0.06954242289066315,0.1169702485203743,-0.8357186317443848
1772642864889885200,1.24288525390625,0.07817535847425461,0.32693731784820557,-0.6492070555686951
1772642864899930000,1.25293017578125,0.1529550701379776,0.45858827233314514,-0.424187570810318
1772642864909975300,1.262975341796875,0.23373942077159882,0.4608140289783478,-0.1725863814353943
1772642864920019500,1.27301953125,0.28722473978996277,0.3186768591403961,0.10575177520513535
1772642864930064100,1.283064208984375,0.3429493308067322,0.050690699368715286,0.42845919728279114
1772642864940109300,1.293109375,0.38188233971595764,-0.18934985995292664,0.7516766786575317
1772642864950154200,1.303154296875,0.36930739879608154,-0.2826448380947113,1.0330349206924438
1772642864960198100,1.3131982421875,0.293169230222702,-0.24593345820903778,1.2725380659103394
1772642864970243300,1.323243408203125,0.15418502688407898,-0.13936685025691986,1.4783341884613037
1772642864980288300,1.333288330078125,-0.011256934143602848,-0.0192074254155159,1.6376242637634277
1772642864990332400,1.34333251953125,-0.13913866877555847,0.0673622190952301,1.7148207426071167
1772642865000377000,1.353377197265625,-0.22396887838840485,0.11282344162464142,1.7004354000091553
1772642865010422300,1.36342236328125,-0.3049439489841461,0.19615596532821655,1.630344271659851
1772642865020466400,1.373466552734375,-0.3506070673465729,0.29551929235458374,1.5460906028747559
1772642865030511400,1.383511474609375,-0.3574639856815338,0.3969619572162628,1.471747875213623
1772642865040556300,1.393556396484375,-0.36694324016571045,0.5353866815567017,1.3644927740097046
1772642865050600200,1.40360009765625,-0.4187297821044922,0.7268820405006409,1.198032259941101
1772642865060645400,1.413645263671875,-0.48618313670158386,0.9612764716148376,0.9778648018836975
1772642865070690300,1.423690185546875,-0.5309376120567322,1.2204004526138306,0.7696641683578491
1772642865080734200,1.433734130859375,-0.5472497344017029,1.4170879125595093,0.6409083008766174
1772642865090779400,1.443779296875,-0.5272377133369446,1.462173581123352,0.6416622996330261
1772642865100824300,1.45382421875,-0.4831450879573822,1.2709299325942993,0.7177541255950928
1772642865110869200,1.463869140625,-0.42538732290267944,0.8432791829109192,0.7621099948883057
1772642865120913200,1.4739130859375,-0.39168819785118103,0.30803629755973816,0.6921657919883728
1772642865130958300,1.483958251953125,-0.38264161348342896,-0.07173933833837509,0.5018317699432373
1772642865141003300,1.494003173828125,-0.3656133711338043,-0.13862623274326324,0.2518792152404785
1772642865151047200,1.504047119140625,-0.3272196650505066,0.08836064487695694,0.02194337546825409
1772642865161092400,1.51409228515625,-0.3009856641292572,0.48723241686820984,-0.14204369485378265
1772642865171137300,1.52413720703125,-0.30518531799316406,0.8890717625617981,-0.26921623945236206
1772642865181181200,1.53418115234375,-0.36102914810180664,1.181755542755127,-0.37924447655677795
1772642865191226400,1.544226318359375,-0.42787423729896545,1.225219964981079,-0.48582524061203003
1772642865201271300,1.554271240234375,-0.4755600094795227,1.0271981954574585,-0.5697020292282104
1772642865211315500,1.5643154296875,-0.5091819763183594,0.7542775273323059,-0.6151905059814453
1772642865221360000,1.574360107421875,-0.5380299091339111,0.58131343126297,-0.6197485327720642
1772642865231405300,1.5844052734375,-0.572396457195282,0.6025092005729675,-0.5926607847213745
1772642865241449500,1.594449462890625,-0.57493656873703,0.7737858891487122,-0.5609965920448303
1772642865251494100,1.604494140625,-0.5226293206214905,0.9493811130523682,-0.5419140458106995
1772642865261539300,1.614539306640625,-0.4723217189311981,1.006919503211975,-0.5521288514137268
1772642865271583200,1.624583251953125,-0.4509498178958893,0.8970041871070862,-0.5608689188957214
1772642865281628400,1.63462841796875,-0.4562566876411438,0.5916493535041809,-0.5620785355567932
1772642865291673300,1.64467333984375,-0.4576064646244049,0.2298518717288971,-0.5267934799194336
1772642865301718500,1.654718505859375,-0.41284406185150146,-0.11356274783611298,-0.42119890451431274
1772642865311762700,1.6647626953125,-0.3228934705257416,-0.42872679233551025,-0.2999424636363983
1772642865321807600,1.6748076171875,-0.2627803385257721,-0.6288116574287415,-0.21881751716136932
1772642865331852500,1.6848525390625,-0.24884644150733948,-0.6540687084197998,-0.22708022594451904
1772642865341896400,1.694896484375,-0.25017884373664856,-0.5671346187591553,-0.3543601632118225
1772642865351941600,1.704941650390625,-0.2583092153072357,-0.3842184841632843,-0.5674520134925842
1772642865361986600,1.714986572265625,-0.2569286525249481,-0.15148484706878662,-0.7970106601715088
1772642865372030500,1.725030517578125,-0.23003940284252167,0.012895788066089153,-0.985427737236023
1772642865382075600,1.73507568359375,-0.20809149742126465,0.08445598930120468,-1.0631659030914307
1772642865392120600,1.74512060546875,-0.21150299906730652,0.10749213397502899,-1.011780858039856
1772642865402164500,1.75516455078125,-0.22167335450649261,0.06915140151977539,-0.8823155164718628
1772642865412209400,1.76520947265625,-0.23463495075702667,-0.052739083766937256,-0.7696653604507446
1772642865422254600,1.775254638671875,-0.2096281349658966,-0.2631775438785553,-0.7147060036659241
1772642865432298500,1.785298583984375,-0.15911376476287842,-0.5708955526351929,-0.7186259031295776
1772642865442343400,1.795343505859375,-0.10141877830028534,-0.9050762057304382,-0.7509154081344604
1772642865452388600,1.805388671875,-0.04803161323070526,-1.1761400699615479,-0.7913905382156372
1772642865462432500,1.8154326171875,-0.026448292657732964,-1.2897167205810547,-0.8319669961929321
1772642865472477400,1.8254775390625,-0.011892986483871937,-1.1940348148345947,-0.8300119042396545
1772642865482522400,1.8355224609375,0.031045423820614815,-0.9210235476493835,-0.8040676712989807
1772642865492567600,1.845567626953125,0.11313345283269882,-0.5492053031921387,-0.807625949382782
1772642865502611700,1.85561181640625,0.22963981330394745,-0.17025212943553925,-0.8415535688400269
1772642865512656400,1.865656494140625,0.3378114104270935,0.08936052769422531,-0.8771347999572754
1772642865522701600,1.87570166015625,0.4368594288825989,0.19609175622463226,-0.8447962999343872
1772642865532745500,1.885745361328125,0.5427414178848267,0.13181698322296143,-0.7200740575790405
1772642865542790400,1.895790283203125,0.6377166509628296,-0.030886447057127953,-0.521129310131073
1772642865552835600,1.905835693359375,0.6974611878395081,-0.20082621276378632,-0.2482231855392456
1772642865562879500,1.91587939453125,0.7256752252578735,-0.3424115777015686,0.0835433080792427
1772642865572924700,1.925924560546875,0.7169589996337891,-0.44075971841812134,0.44717636704444885
1772642865582969300,1.93596923828125,0.684392511844635,-0.4847857654094696,0.8075284361839294
1772642865593013500,1.946013427734375,0.6278490424156189,-0.49285435676574707,1.1389073133468628
1772642865603058700,1.95605859375,0.534136950969696,-0.4835149049758911,1.4218770265579224
1772642865613103600,1.966103515625,0.40058061480522156,-0.49193859100341797,1.6347383260726929
1772642865623147500,1.9761474609375,0.235307514667511,-0.5403329730033875,1.7545392513275146
1772642865633192400,1.9861923828125,0.061131320893764496,-0.6158676743507385,1.7778620719909668
1772642865643237600,1.996237548828125,-0.09547027200460434,-0.6994097232818604,1.7199748754501343
1772642865653282600,2.006282470703125,-0.19959938526153564,-0.74852055311203,1.616782546043396
1772642865663326500,2.016326416015625,-0.24337083101272583,-0.6747869253158569,1.5207053422927856
1772642865673371600,2.02637158203125,-0.22776179015636444,-0.5205673575401306,1.4441988468170166
1772642865683416600,2.03641650390625,-0.1672249436378479,-0.3616544008255005,1.3585143089294434
1772642865693460500,2.04646044921875,-0.0997203141450882,-0.22557099163532257,1.2542070150375366
1772642865703505400,2.05650537109375,-0.028895938768982887,-0.07426881790161133,1.1621856689453125
1772642865713550600,2.066550537109375,0.024316370487213135,0.08475837856531143,1.1061023473739624
1772642865723594500,2.076594482421875,0.053685709834098816,0.21216879785060883,1.0788254737854004
1772642865733639400,2.086639404296875,0.04692957177758217,0.3268393874168396,1.055063247680664
1772642865743684600,2.0966845703125,0.00905862357467413,0.4023192226886749,1.0239770412445068
1772642865753728500,2.106728515625,-0.0664735734462738,0.4285438060760498,0.956275999546051
1772642865763773400,2.1167734375,-0.14760836958885193,0.41041111946105957,0.876701831817627
1772642865773818400,2.126818359375,-0.20116442441940308,0.40414854884147644,0.8027580380439758
1772642865783862500,2.136862548828125,-0.21193239092826843,0.4815320372581482,0.7380983829498291
1772642865793907700,2.14690771484375,-0.16153527796268463,0.6401026844978333,0.6669743061065674
1772642865803952400,2.156952392578125,-0.07067114859819412,0.839175820350647,0.5572195649147034
1772642865813997600,2.16699755859375,0.03922702372074127,0.9897536039352417,0.379605770111084
1772642865824041700,2.177041748046875,0.13527578115463257,1.0806845426559448,0.11845219880342484
1772642865834086400,2.18708642578125,0.20876862108707428,1.1326013803482056,-0.2454875111579895
1772642865844131600,2.197131591796875,0.2410019189119339,1.1529755592346191,-0.6767846345901489
1772642865854175500,2.207175537109375,0.22988533973693848,1.2199934720993042,-1.0654867887496948
1772642865864220700,2.217220703125,0.20746605098247528,1.3773247003555298,-1.2955738306045532
1772642865874265300,2.227265380859375,0.20389972627162933,1.5834550857543945,-1.315463900566101
1772642865884309500,2.2373095703125,0.21890345215797424,1.6787391901016235,-1.172669768333435
1772642865894354700,2.247354736328125,0.24344223737716675,1.5533868074417114,-0.9614351391792297
1772642865904399600,2.257399658203125,0.2906979024410248,1.3116333484649658,-0.6947089433670044
1772642865914443500,2.267443603515625,0.3673418164253235,1.002975344657898,-0.3683382272720337
1772642865924488400,2.277488525390625,0.4284626841545105,0.7159395813941956,-0.024879414588212967
1772642865934533600,2.28753369140625,0.4564359188079834,0.5601584911346436,0.26378530263900757
1772642865944577500,2.29757763671875,0.4607696831226349,0.514785647392273,0.3934924304485321
1772642865954622500,2.30762255859375,0.4453478753566742,0.49861249327659607,0.3084332048892975
1772642865964667600,2.317667724609375,0.37723273038864136,0.5415953993797302,0.031915053725242615
1772642865974712600,2.327712646484375,0.2650640606880188,0.6207568645477295,-0.34529370069503784
1772642865984756500,2.337756591796875,0.14218872785568237,0.689606249332428,-0.7274013757705688
1772642865994801400,2.347801513671875,0.049080006778240204,0.6555628180503845,-1.0360701084136963
1772642866004846600,2.3578466796875,0.030505258589982986,0.5515480041503906,-1.2326668500900269
1772642866014890500,2.367890380859375,0.1588091403245926,0.5072810649871826,-1.2729865312576294
1772642866024935400,2.377935302734375,0.4006534516811371,0.5510857701301575,-1.190374493598938
1772642866034980600,2.387980712890625,0.6256071925163269,0.619583249092102,-1.030145525932312
1772642866045024500,2.3980244140625,0.741041898727417,0.6900520920753479,-0.772991955280304
1772642866055069400,2.4080693359375,0.7348921298980713,0.6718987226486206,-0.4327692985534668
1772642866065114600,2.418114501953125,0.6368643641471863,0.5153908729553223,-0.042560018599033356
1772642866075158500,2.428158447265625,0.4888003170490265,0.2320084422826767,0.3444317877292633
1772642866085203500,2.438203369140625,0.33363255858421326,-0.1422618329524994,0.6784811615943909
1772642866095248400,2.448248291015625,0.21769319474697113,-0.4957822263240814,0.9232788681983948
1772642866105292500,2.45829248046875,0.14935515820980072,-0.777693510055542,1.0633134841918945
1772642866115337700,2.468337646484375,0.1323123425245285,-1.0223314762115479,1.1287097930908203
1772642866125382400,2.47838232421875,0.12911096215248108,-1.2593108415603638,1.1258928775787354
1772642866135426600,2.488426513671875,0.11154522001743317,-1.3896428346633911,1.043576717376709
1772642866145471500,2.498471435546875,0.08662468940019608,-1.3991748094558716,0.9006738662719727
1772642866155516700,2.5085166015625,0.06280826777219772,-1.3549777269363403,0.7357467412948608
1772642866165561300,2.518561279296875,0.025280334055423737,-1.3682125806808472,0.5714696645736694
1772642866175605500,2.52860546875,-0.03263210877776146,-1.4895761013031006,0.415606826543808
1772642866185650700,2.538650634765625,-0.0737699568271637,-1.687019944190979,0.25749441981315613
1772642866195695600,2.548695556640625,-0.06696076691150665,-1.9453959465026855,0.09433332830667496
1772642866205739500,2.558739501953125,-0.02000870369374752,-2.208838701248169,-0.03953658789396286
1772642866215784400,2.568784423828125,0.05431973189115524,-2.477750062942505,-0.11959433555603027
1772642866225829600,2.57882958984375,0.13819065690040588,-2.7368381023406982,-0.16541801393032074
1772642866235873500,2.58887353515625,0.21952886879444122,-2.9304463863372803,-0.1720651090145111
1772642866245918500,2.59891845703125,0.2827131748199463,-2.9800543785095215,-0.15250766277313232
1772642866255963600,2.608963623046875,0.316409707069397,-2.879770040512085,-0.1517547070980072
1772642866266007300,2.61900732421875,0.33743536472320557,-2.620973587036133,-0.20486000180244446
1772642866276052500,2.629052490234375,0.34393614530563354,-2.226019859313965,-0.32570385932922363
1772642866286097400,2.639097412109375,0.33551284670829773,-1.757749319076538,-0.5108817219734192
1772642866296142300,2.649142333984375,0.29451942443847656,-1.2780120372772217,-0.7145342230796814
1772642866306186500,2.6591865234375,0.20727264881134033,-0.8077334761619568,-0.8895800709724426
1772642866316231400,2.6692314453125,0.07957737147808075,-0.3329721987247467,-0.9733684659004211
1772642866326276600,2.679276611328125,-0.05915467441082001,0.10219631344079971,-0.9266926050186157
1772642866336320500,2.689320556640625,-0.17328394949436188,0.4040576219558716,-0.7663232684135437
1772642866346365400,2.699365478515625,-0.24485667049884796,0.5123476386070251,-0.504044771194458
1772642866356410600,2.70941064453125,-0.2930311858654022,0.4092194736003876,-0.17186519503593445
1772642866366454300,2.719454345703125,-0.3139367401599884,0.13247737288475037,0.221283420920372
1772642866376499500,2.72949951171875,-0.3150796890258789,-0.22617603838443756,0.6222057938575745
1772642866386544400,2.73954443359375,-0.295910507440567,-0.5703784227371216,1.002955436706543
1772642866396588300,2.74958837890625,-0.2596459984779358,-0.8134105801582336,1.340808629989624
1772642866406633500,2.759633544921875,-0.22844146192073822,-0.9448977708816528,1.5898000001907349
1772642866416678400,2.769678466796875,-0.21968427300453186,-0.955781877040863,1.7122435569763184
1772642866426722600,2.77972265625,-0.24750152230262756,-0.8225201964378357,1.704656720161438
1772642866436767200,2.789767333984375,-0.3060683012008667,-0.5612530708312988,1.5885310173034668
1772642866446812400,2.7998125,-0.3861796259880066,-0.24448049068450928,1.3834481239318848
1772642866456857300,2.809857421875,-0.46979695558547974,0.05753449723124504,1.1200288534164429
1772642866466901500,2.819901611328125,-0.5440120697021484,0.3439825177192688,0.8245238065719604
1772642866476946400,2.829946533203125,-0.5999167561531067,0.6512284874916077,0.5132991075515747
1772642866486991400,2.839991455078125,-0.6260077357292175,0.9380663633346558,0.19494834542274475
1772642866497035500,2.850035400390625,-0.6201453804969788,1.1450622081756592,-0.07982318848371506
1772642866507080400,2.86008056640625,-0.5835356712341309,1.2864909172058105,-0.25065669417381287
1772642866517125400,2.87012548828125,-0.5158993601799011,1.3451340198516846,-0.2737923860549927
1772642866527169500,2.88016943359375,-0.45904192328453064,1.2634344100952148,-0.18173730373382568
1772642866537214500,2.89021435546875,-0.4368237555027008,0.9431160092353821,-0.09117607772350311
1772642866547259400,2.90025927734375,-0.4257279634475708,0.2999921441078186,-0.14338868856430054
1772642866557303600,2.910303466796875,-0.44459864497184753,-0.49824270606040955,-0.3646487295627594
1772642866567348500,2.920348388671875,-0.46705469489097595,-1.0644885301589966,-0.6389575004577637
1772642866577393400,2.930393310546875,-0.4682040512561798,-1.1834763288497925,-0.8575238585472107
1772642866587438300,2.940438232421875,-0.4349936246871948,-0.8642421960830688,-0.9617894887924194
1772642866597482500,2.950482421875,-0.3595739006996155,-0.33859193325042725,-0.9568251967430115
1772642866607527400,2.96052734375,-0.24388349056243896,0.10620363056659698,-0.9246347546577454
1772642866617572600,2.970572509765625,-0.12850871682167053,0.3079580068588257,-0.9018620848655701
1772642866627616500,2.980616455078125,-0.07751930505037308,0.2595023214817047,-0.8909875750541687
1772642866637661400,2.990661376953125,-0.10488132387399673,0.02863367646932602,-0.8835579752922058
1772642866647706600,3.00070654296875,-0.18426164984703064,-0.2067575454711914,-0.8588515520095825
1772642866657750300,3.010750244140625,-0.2360239326953888,-0.27331066131591797,-0.806786060333252
1772642866667795500,3.02079541015625,-0.21580281853675842,-0.1082838922739029,-0.752166211605072
1772642866677840400,3.03084033203125,-0.1494867354631424,0.1835618019104004,-0.7259857058525085
1772642866687884300,3.04088427734375,-0.06776497513055801,0.4167327284812927,-0.7668982744216919
1772642866697929500,3.050929443359375,0.018494758754968643,0.5167836546897888,-0.8609313368797302
1772642866707974400,3.060974365234375,0.10189564526081085,0.4969204366207123,-1.0001113414764404
1772642866718019600,3.07101953125,0.17721514403820038,0.41027703881263733,-1.1556912660598755
1772642866728063200,3.081063232421875,0.24714522063732147,0.3567799925804138,-1.2524490356445312
1772642866738108400,3.0911083984375,0.3118434548377991,0.39490485191345215,-1.2500077486038208
1772642866748153300,3.1011533203125,0.3836585283279419,0.5918735861778259,-1.122705101966858
1772642866758197500,3.111197509765625,0.4454982578754425,0.871264636516571,-0.9326692223548889
1772642866768242400,3.121242431640625,0.4894116520881653,1.1065146923065186,-0.734139084815979
1772642866778287400,3.131287353515625,0.4979289770126343,1.0427191257476807,-0.5660660266876221
1772642866788331500,3.14133154296875,0.4508320391178131,0.6668800115585327,-0.39333340525627136
1772642866798376400,3.15137646484375,0.3589363694190979,0.2300654500722885,-0.18492941558361053
1772642866808421400,3.16142138671875,0.25992751121520996,-0.02536950632929802,0.08314037322998047
1772642866818465500,3.171465576171875,0.17892029881477356,-0.05082274228334427,0.3948013186454773
1772642866828510500,3.181510498046875,0.13216876983642578,0.06884027272462845,0.7057445645332336
1772642866838555400,3.191555419921875,0.08302456885576248,0.11985252797603607,0.9249672293663025
1772642866848600300,3.201600341796875,0.03392839804291725,0.04329170286655426,1.0216392278671265
1772642866858644500,3.21164453125,-0.005592945497483015,-0.15117624402046204,1.0184961557388306
1772642866868689700,3.221689697265625,-0.043223679065704346,-0.397405207157135,0.978809654712677
1772642866878734300,3.231734375,-0.05689973384141922,-0.6833469867706299,0.9405070543289185
1772642866888778500,3.241778564453125,-0.05401206761598587,-1.024499773979187,0.9379338622093201
1772642866898823400,3.251823486328125,-0.05888636037707329,-1.433370590209961,0.9616339802742004
1772642866908868600,3.26186865234375,-0.07118936628103256,-1.8552334308624268,1.0026586055755615
1772642866918912500,3.27191259765625,-0.09705904126167297,-2.2328338623046875,1.0354570150375366
1772642866928957400,3.28195751953125,-0.1057119220495224,-2.4999661445617676,1.0221872329711914
1772642866939002600,3.292002685546875,-0.09046807885169983,-2.5121400356292725,0.921120285987854
1772642866949046300,3.30204638671875,-0.025530623272061348,-2.2569684982299805,0.7404218912124634
1772642866959091500,3.312091552734375,0.10528209060430527,-1.813149333000183,0.5255224108695984
1772642866969136400,3.322136474609375,0.2644994556903839,-1.2940994501113892,0.29693931341171265
1772642866979180300,3.33218017578125,0.4287622570991516,-0.8490142822265625,0.0574389211833477
1772642866989225500,3.3422255859375,0.5688543915748596,-0.6081539988517761,-0.16550973057746887
1772642866999270400,3.3522705078125,0.6985710263252258,-0.6214473843574524,-0.34325921535491943
1772642867009315600,3.362315673828125,0.803763747215271,-0.8318589925765991,-0.4619711935520172
1772642867019359200,3.372359130859375,0.854110598564148,-1.0309373140335083,-0.5069074034690857
1772642867029404400,3.382404296875,0.8171049356460571,-1.0712153911590576,-0.4903702437877655
1772642867039449300,3.392449462890625,0.7003386616706848,-0.9236385822296143,-0.4399603307247162
1772642867049493500,3.402493408203125,0.5128641128540039,-0.61515212059021,-0.3359183669090271
1772642867059538400,3.412538330078125,0.2779799997806549,-0.19123850762844086,-0.19781191647052765
1772642867069583400,3.422583251953125,0.023534655570983887,0.2645551264286041,-0.021418239921331406
1772642867079627500,3.43262744140625,-0.17020009458065033,0.6121927499771118,0.18670016527175903
1772642867089672400,3.44267236328125,-0.2641540467739105,0.8007684946060181,0.40439119935035706
1772642867099717400,3.45271728515625,-0.25723734498023987,0.8642381429672241,0.6242473125457764
1772642867109761500,3.462761474609375,-0.1826789379119873,0.8445046544075012,0.8351787328720093
1772642867119806500,3.472806396484375,-0.061793480068445206,0.7496674060821533,1.0228488445281982
1772642867129851400,3.482851318359375,0.076982781291008,0.6125308275222778,1.1673215627670288
1772642867139896300,3.492896240234375,0.2045874297618866,0.4981665015220642,1.2516337633132935
1772642867149940500,3.5029404296875,0.2908112704753876,0.45219048857688904,1.276004672050476
1772642867159985700,3.512985595703125,0.3247593343257904,0.481506884098053,1.2413493394851685
1772642867170030300,3.5230302734375,0.30672070384025574,0.5837711691856384,1.150830864906311
1772642867180074500,3.533074462890625,0.23994803428649902,0.7316561341285706,1.0236098766326904
1772642867190119400,3.543119384765625,0.15335588157176971,0.8936421275138855,0.8855525851249695
1772642867200164600,3.55316455078125,0.06522864103317261,1.056028962135315,0.7400326132774353
1772642867210208500,3.56320849609375,-0.01797250658273697,1.1829400062561035,0.5876486897468567
1772642867220253400,3.57325341796875,-0.10641322284936905,1.2496616840362549,0.4305822253227234
1772642867230298600,3.583298583984375,-0.19507278501987457,1.2561222314834595,0.3044903576374054
1772642867240342300,3.59334228515625,-0.2482021600008011,1.2388290166854858,0.28475797176361084
1772642867250387500,3.603387451171875,-0.2403559535741806,1.2102413177490234,0.4336206912994385
1772642867260432400,3.613432373046875,-0.1783524602651596,1.1500253677368164,0.7750467658042908
1772642867270477600,3.6234775390625,-0.12144363671541214,1.0277785062789917,1.1382336616516113
1772642867280521500,3.633521484375,0.007580135948956013,0.6822689175605774,1.5078800916671753
1772642867290566700,3.643566650390625,0.14326339960098267,0.15233184397220612,1.6685092449188232
1772642867300611800,3.65361181640625,0.29537680745124817,-0.45848578214645386,1.557584524154663
1772642867310655500,3.663655517578125,0.45892685651779175,-0.8625467419624329,1.252303123474121
1772642867320700700,3.67370068359375,0.6266180276870728,-0.8360342383384705,0.8840591907501221
1772642867330745600,3.68374560546875,0.7710061073303223,-0.352379709482193,0.49691686034202576
1772642867340789800,3.693789794921875,0.8581279516220093,0.36432886123657227,0.11119858920574188
1772642867350834700,3.703834716796875,0.8971280455589294,1.0546815395355225,-0.2210661768913269
1772642867360879600,3.713879638671875,0.9169226884841919,1.4459292888641357,-0.49940523505210876
1772642867370923800,3.723923828125,0.9538719654083252,1.4900959730148315,-0.708639919757843
1772642867380968700,3.73396875,0.997574508190155,1.2170475721359253,-0.8378885984420776
1772642867391013600,3.744013671875,1.0225716829299927,0.7328003644943237,-0.900915801525116
1772642867401058600,3.75405859375,1.0081394910812378,0.27147915959358215,-0.8740048408508301
1772642867411102700,3.764102783203125,0.959607720375061,-0.026666535064578056,-0.7640266418457031
1772642867421147600,3.774147705078125,0.900217592716217,-0.1399056762456894,-0.6044620275497437
1772642867431192600,3.784192626953125,0.8474268317222595,-0.07920664548873901,-0.4261455535888672
1772642867441236700,3.79423681640625,0.8203757405281067,0.07049403339624405,-0.2739931344985962
1772642867451281700,3.80428173828125,0.7924988269805908,0.208060160279274,-0.19960573315620422
1772642867461326600,3.81432666015625,0.7331797480583191,0.29436901211738586,-0.2209482491016388
1772642867471370800,3.824370849609375,0.6427600979804993,0.3078294098377228,-0.31186163425445557
1772642867481415700,3.834415771484375,0.5212250351905823,0.22752459347248077,-0.45300716161727905
1772642867491460900,3.8444609375,0.34691953659057617,0.13324230909347534,-0.6322245597839355
1772642867501504800,3.8545048828125,0.1327252984046936,0.07485689222812653,-0.8089420199394226
1772642867511549700,3.8645498046875,-0.04044222831726074,-0.0038653460796922445,-0.935046911239624
1772642867521595000,3.874594970703125,-0.15200798213481903,-0.031668953597545624,-0.9920073747634888
1772642867531639600,3.8846396484375,-0.2182929962873459,0.12749993801116943,-0.9687670469284058
1772642867541683700,3.89468359375,-0.2622464895248413,0.42261481285095215,-0.8897368311882019
1772642867551728600,3.904728759765625,-0.2887856960296631,0.6990532875061035,-0.7416514754295349
1772642867561773800,3.91477392578125,-0.32100245356559753,0.7536759972572327,-0.562529981136322
1772642867571817700,3.924817626953125,-0.3475978374481201,0.5928943157196045,-0.3610277473926544
1772642867581862700,3.934862548828125,-0.3690430819988251,0.3177396059036255,-0.15749958157539368
1772642867591907800,3.944907958984375,-0.38590142130851746,0.09787752479314804,0.03450368344783783
1772642867601951500,3.954951416015625,-0.3973552882671356,-0.0014541861601173878,0.1958574801683426
1772642867611996700,3.96499658203125,-0.4127262532711029,-0.02575419843196869,0.3022267818450928
1772642867622041600,3.97504150390625,-0.42179930210113525,-0.05750720202922821,0.34785324335098267
1772642867632085800,3.985085693359375,-0.4278859496116638,-0.1017841175198555,0.35497504472732544
1772642867642130700,3.995130615234375,-0.394987016916275,-0.16301637887954712,0.32949623465538025
1772642867652175600,4.005175537109375,-0.3424715995788574,-0.26977720856666565,0.27118927240371704
1772642867662220800,4.015220703125,-0.3084458112716675,-0.42026636004447937,0.206492081284523
1772642867672264400,4.025264404296875,-0.2831851840019226,-0.6554034948348999,0.17595574259757996
1772642867682309600,4.0353095703125,-0.2619430422782898,-0.922306478023529,0.1978398859500885
1772642867692354600,4.0453544921875,-0.22533737123012543,-1.1000789403915405,0.2751027047634125
1772642867702398700,4.055398681640625,-0.16296230256557465,-1.1177808046340942,0.36025911569595337
1772642867712443600,4.065443603515625,-0.07712782919406891,-1.0254300832748413,0.4185895323753357
1772642867722488600,4.075488525390625,0.01476398017257452,-0.8663316965103149,0.42977988719940186
1772642867732532700,4.08553271484375,0.09384894371032715,-0.6691762804985046,0.3882220685482025
1772642867742577700,4.09557763671875,0.15903446078300476,-0.49035289883613586,0.29893073439598083
1772642867752622600,4.10562255859375,0.2243088036775589,-0.3516634404659271,0.18327683210372925
1772642867762666800,4.115666748046875,0.2872990071773529,-0.2552083134651184,0.05387421324849129
1772642867772711700,4.125711669921875,0.36420202255249023,-0.18217776715755463,-0.07475007325410843
1772642867782756900,4.1357568359375,0.4518352150917053,-0.10572952032089233,-0.1886492222547531
1772642867792801500,4.145801513671875,0.5508373975753784,-0.017619377002120018,-0.2841171324253082
1772642867802845700,4.155845703125,0.6533132195472717,0.08809533715248108,-0.37042689323425293
1772642867812891000,4.165890869140625,0.7370749711990356,0.24224017560482025,-0.4423242509365082
1772642867822935600,4.175935546875,0.7710837125778198,0.45657309889793396,-0.4965091347694397
1772642867832979700,4.185979736328125,0.7421689629554749,0.6958842277526855,-0.5275189876556396
1772642867843024600,4.196024658203125,0.6585206985473633,0.9238869547843933,-0.5396248698234558
1772642867853069800,4.20606982421875,0.5387492775917053,1.1039917469024658,-0.5190847516059875
1772642867863113700,4.21611376953125,0.3931340277194977,1.2514123916625977,-0.46143290400505066
1772642867873158700,4.22615869140625,0.22321103513240814,1.3850330114364624,-0.37789538502693176
1772642867883203800,4.236203857421875,0.05044799670577049,1.4803777933120728,-0.27506980299949646
1772642867893247500,4.24624755859375,-0.13509789109230042,1.557775855064392,-0.16144578158855438
1772642867903292700,4.256292724609375,-0.3078230917453766,1.622084617614746,-0.07469940930604935
1772642867913337600,4.266337646484375,-0.4461170434951782,1.646664023399353,-0.023906800895929337
1772642867923382800,4.2763828125,-0.6056795716285706,1.6715080738067627,0.02040010504424572
1772642867933426700,4.2864267578125,-0.8134040236473083,1.6455714702606201,0.07855928689241409
1772642867943471600,4.2964716796875,-1.0053315162658691,1.5285295248031616,0.15692667663097382
1772642867953516800,4.306516845703125,-1.0928027629852295,1.4050800800323486,0.28567346930503845
1772642867963560700,4.316560791015625,-1.0530036687850952,1.4100021123886108,0.48370271921157837
1772642867973605600,4.326605712890625,-0.9160922169685364,1.5186513662338257,0.6829811930656433
1772642867983650600,4.336650634765625,-0.7664236426353455,1.5707321166992188,0.7999283671379089
1772642867993694700,4.34669482421875,-0.6665911078453064,1.4684696197509766,0.822038471698761
1772642868003739600,4.35673974609375,-0.6516761183738708,1.2095465660095215,0.7457332015037537
1772642868013784600,4.36678466796875,-0.7285304069519043,0.9744198322296143,0.6288254857063293
1772642868023828700,4.376828857421875,-0.840923011302948,0.8755210638046265,0.5523366928100586
1772642868033874000,4.3868740234375,-0.8990491628646851,0.8462361097335815,0.5561127662658691
1772642868043918600,4.396918701171875,-0.9141199588775635,0.7784125208854675,0.5749302506446838
1772642868053963800,4.4069638671875,-0.9128954410552979,0.5479627847671509,0.5168531537055969
1772642868064007700,4.417007568359375,-0.9001842737197876,0.29227250814437866,0.42864927649497986
1772642868074052900,4.427052978515625,-0.8543957471847534,0.12749740481376648,0.42447611689567566
1772642868084097500,4.43709765625,-0.738797664642334,0.07379269599914551,0.5098176598548889
1772642868094141700,4.4471416015625,-0.5852280855178833,0.14303702116012573,0.636301577091217
1772642868104187000,4.457186767578125,-0.40243932604789734,0.2677203416824341,0.749224841594696
1772642868114231600,4.4672314453125,-0.25666162371635437,0.2989879846572876,0.8120858073234558
1772642868124275700,4.477275634765625,-0.17790086567401886,0.17971986532211304,0.8122125267982483
1772642868134320600,4.487320556640625,-0.12207434326410294,-0.1314055323600769,0.7562531232833862
1772642868144365800,4.49736572265625,-0.11345775425434113,-0.6235346794128418,0.593000054359436
1772642868154409700,4.50740966796875,-0.19601626694202423,-0.9828888177871704,0.26767438650131226
1772642868164454700,4.51745458984375,-0.3327990770339966,-0.9412185549736023,-0.16671611368656158
1772642868174499800,4.527499755859375,-0.44640395045280457,-0.5718282461166382,-0.5872790813446045
1772642868184544800,4.537544677734375,-0.5019389986991882,-0.17938730120658875,-0.9227850437164307
1772642868194588700,4.547588623046875,-0.5041531920433044,-0.009396402165293694,-1.1788184642791748
1772642868204633600,4.557633544921875,-0.47308969497680664,0.011931590735912323,-1.3460074663162231
1772642868214678800,4.5676787109375,-0.4260726571083069,-0.021980568766593933,-1.389575481414795
1772642868224722700,4.57772265625,-0.3720492422580719,-0.1405474841594696,-1.3060407638549805
1772642868234767600,4.587767578125,-0.32598161697387695,-0.30385518074035645,-1.1263420581817627
1772642868244812800,4.597812744140625,-0.2747803032398224,-0.4075799882411957,-0.9039973616600037
1772642868254856700,4.607856689453125,-0.21302956342697144,-0.40727826952934265,-0.6846961379051208
1772642868264901600,4.617901611328125,-0.1693117618560791,-0.30513718724250793,-0.4955386817455292
1772642868274946800,4.62794677734375,-0.1591603308916092,-0.19211208820343018,-0.388781875371933
1772642868284990700,4.63799072265625,-0.17744192481040955,-0.16901348531246185,-0.3692598044872284
1772642868295035600,4.64803564453125,-0.2064506709575653,-0.25819131731987,-0.4176899194717407
1772642868305080600,4.65808056640625,-0.23710277676582336,-0.3319087326526642,-0.4934912323951721
1772642868315125800,4.668125732421875,-0.2354271113872528,-0.26102951169013977,-0.5567055940628052
1772642868325169700,4.678169677734375,-0.19741520285606384,-0.029186217114329338,-0.5764222741127014
1772642868335214600,4.688214599609375,-0.10622138530015945,0.29295292496681213,-0.5395952463150024
1772642868345259800,4.698259765625,-0.023118142038583755,0.5487864017486572,-0.4674752950668335
1772642868355303700,4.7083037109375,0.01633179560303688,0.6029558777809143,-0.40359699726104736
1772642868365348600,4.7183486328125,0.006422438193112612,0.4597291946411133,-0.36344876885414124
1772642868375393500,4.7283935546875,-0.055370353162288666,0.07986710220575333,-0.3608314096927643
1772642868385437700,4.738437744140625,-0.14791135489940643,-0.32545703649520874,-0.34949731826782227
1772642868395482600,4.748482666015625,-0.20837309956550598,-0.5572479367256165,-0.2896864414215088
1772642868405527600,4.758527587890625,-0.20405778288841248,-0.6284376382827759,-0.16911089420318604
1772642868415571700,4.76857177734375,-0.16011056303977966,-0.5406076312065125,-0.024108152836561203
1772642868425616600,4.77861669921875,-0.07135414332151413,-0.3530815839767456,0.14959457516670227
1772642868435661600,4.78866162109375,0.03706446662545204,-0.2574344277381897,0.3052233159542084
1772642868445706500,4.79870654296875,0.12234953045845032,-0.359348326921463,0.4534914791584015
1772642868455750700,4.808750732421875,0.1759248822927475,-0.8026938438415527,0.5482715368270874
1772642868465795800,4.8187958984375,0.14631561934947968,-1.4388149976730347,0.525484025478363
1772642868475840500,4.828840576171875,0.07880394905805588,-1.892269492149353,0.4402540922164917
1772642868485884700,4.838884765625,0.07956839352846146,-1.8590441942214966,0.37889930605888367
1772642868495929600,4.8489296875,0.1318419873714447,-1.5080143213272095,0.34322601556777954
1772642868505974500,4.858974609375,0.22443759441375732,-1.0178828239440918,0.31178370118141174
1772642868516018700,4.869018798828125,0.342921644449234,-0.5587207674980164,0.2806958258152008
1772642868526063600,4.879063720703125,0.46476253867149353,-0.18450890481472015,0.24421708285808563
1772642868536108800,4.88910888671875,0.5604022741317749,0.023094363510608673,0.19847729802131653
1772642868546152700,4.899152587890625,0.6006572246551514,-0.06122610345482826,0.1421569138765335
1772642868556197600,4.90919775390625,0.5930230021476746,-0.45101168751716614,0.0516243502497673
1772642868566242800,4.919242919921875,0.5645765066146851,-0.9354606866836548,-0.09694597870111465
1772642868576287700,4.929287841796875,0.5420932769775391,-1.234590768814087,-0.2778124213218689
1772642868586331600,4.93933154296875,0.5372565984725952,-1.2327044010162354,-0.4580177962779999
1772642868596376600,4.94937646484375,0.48487168550491333,-0.9936087131500244,-0.596778392791748
1772642868606421800,4.959421875,0.3714452385902405,-0.6530123949050903,-0.6796485781669617
1772642868616465700,4.969465576171875,0.2495609074831009,-0.3201521337032318,-0.7063116431236267
1772642868626510600,4.979510498046875,0.1522861123085022,-0.07345087826251984,-0.6808968782424927
1772642868636555800,4.9895556640625,0.08613692224025726,0.08552731573581696,-0.614900529384613
1772642868646599400,4.999599365234375,0.047207463532686234,0.182430237531662,-0.5288815498352051
1772642868656644600,5.00964453125,0.02450481429696083,0.25541043281555176,-0.43387436866760254
1772642868666689500,5.019689453125,0.010664254426956177,0.35455021262168884,-0.3044537305831909
1772642868676733700,5.029733642578125,0.011135101318359375,0.43973246216773987,-0.13396695256233215
1772642868686778600,5.039778564453125,0.014269673265516758,0.4962438642978668,0.05849369615316391
1772642868696823600,5.049823486328125,-0.017290916293859482,0.5475358366966248,0.24424970149993896
1772642868706868700,5.05986865234375,-0.07425663620233536,0.5684973001480103,0.3857736587524414
1772642868716912600,5.06991259765625,-0.14272412657737732,0.5866168737411499,0.46341967582702637
1772642868726957600,5.07995751953125,-0.19887377321720123,0.610916256904602,0.4830682873725891
1772642868737002500,5.09000244140625,-0.24943655729293823,0.6522935032844543,0.46060264110565186
1772642868747046700,5.100046630859375,-0.3039014935493469,0.7335381507873535,0.4141698181629181
1772642868757091800,5.110091796875,-0.351749449968338,0.8434843420982361,0.34754204750061035
1772642868767136500,5.120136474609375,-0.3752997815608978,0.990165650844574,0.28664782643318176
1772642868777180700,5.1301806640625,-0.37995123863220215,1.1208442449569702,0.2244883030653
1772642868787225600,5.1402255859375,-0.37131407856941223,1.1370857954025269,0.11995218694210052
1772642868797270500,5.1502705078125,-0.3771469295024872,1.0359677076339722,-0.0386505126953125
1772642868807314700,5.160314697265625,-0.3922363519668579,0.8806772232055664,-0.21315070986747742
1772642868817359600,5.170359619140625,-0.38349905610084534,0.8059811592102051,-0.3208100497722626
1772642868827404800,5.18040478515625,-0.3567458689212799,0.8736453652381897,-0.32583311200141907
1772642868837449500,5.190449462890625,-0.35696399211883545,0.9810035228729248,-0.26214441657066345
1772642868847493600,5.20049365234375,-0.382772833108902,0.9272823333740234,-0.21145811676979065
1772642868857538800,5.210538818359375,-0.4279190003871918,0.6504800319671631,-0.2536231577396393
1772642868867583700,5.220583740234375,-0.47582656145095825,0.28337541222572327,-0.42153802514076233
1772642868877627600,5.230627685546875,-0.5108804106712341,0.07351592928171158,-0.6420019268989563
1772642868887672600,5.240672607421875,-0.48640716075897217,0.0913415178656578,-0.8043477535247803
1772642868897717800,5.2507177734375,-0.38347572088241577,0.31670355796813965,-0.8285212516784668
1772642868907761700,5.26076171875,-0.21719129383563995,0.6199642419815063,-0.7068907022476196
1772642868917806600,5.270806640625,-0.06572427600622177,0.7111849784851074,-0.5382236242294312
1772642868927851800,5.280851806640625,0.014102140441536903,0.48794692754745483,-0.5078915357589722
1772642868937895400,5.2908955078125,0.05487114191055298,0.2002754658460617,-0.6429468393325806
1772642868947940600,5.300940673828125,0.07760245352983475,0.004168742801994085,-0.8743610978126526
1772642868957985500,5.310985595703125,0.11012177914381027,0.005791140720248222,-1.0507532358169556
1772642868968030700,5.32103076171875,0.1793939173221588,0.06858634948730469,-1.1197612285614014
1772642868978074600,5.33107470703125,0.27434042096138,0.15656280517578125,-1.07720947265625
1772642868988119600,5.34111962890625,0.381969690322876,0.23384501039981842,-0.9204158782958984
1772642868998164700,5.351164794921875,0.48304465413093567,0.2558392584323883,-0.6699948310852051
1772642869008208600,5.361208740234375,0.5596809387207031,0.1698271483182907,-0.40056467056274414
1772642869018253600,5.371253662109375,0.5771337151527405,0.031210681423544884,-0.19627171754837036
1772642869028298500,5.381298583984375,0.5344089865684509,-0.08438203483819962,-0.08595017343759537
1772642869038342700,5.3913427734375,0.4380667209625244,-0.1301250159740448,-0.0638270229101181
1772642869048387800,5.401387939453125,0.3162658214569092,-0.11735382676124573,-0.07163785398006439
1772642869058432500,5.4114326171875,0.23366814851760864,-0.07767778635025024,-0.12421450763940811
1772642869068476700,5.4214765625,0.206567645072937,0.03017651103436947,-0.19933460652828217
1772642869078521900,5.43152197265625,0.21753481030464172,0.14142712950706482,-0.27354732155799866
1772642869088566500,5.44156640625,0.24821507930755615,0.23110315203666687,-0.2900376617908478
1772642869098611700,5.45161181640625,0.27490076422691345,0.3106381893157959,-0.22714313864707947
1772642869108655600,5.461655517578125,0.26039043068885803,0.29903626441955566,-0.10579176247119904
1772642869118700800,5.47170068359375,0.18604618310928345,0.18513420224189758,0.04906385764479637
1772642869128745500,5.481745361328125,0.05962471663951874,0.04338337853550911,0.2235095053911209
1772642869138789600,5.49178955078125,-0.0927581638097763,0.005378737114369869,0.36482271552085876
1772642869148834800,5.501834716796875,-0.21267151832580566,0.07614532858133316,0.4462588131427765
1772642869158879700,5.511879638671875,-0.28197550773620605,0.21593652665615082,0.44875606894493103
1772642869168923600,5.521923583984375,-0.30390238761901855,0.37315836548805237,0.41443100571632385
1772642869178968600,5.531968505859375,-0.3034435510635376,0.4926128387451172,0.3823676109313965
1772642869189013800,5.542013671875,-0.28658658266067505,0.522678792476654,0.3703891336917877
1772642869199057700,5.5520576171875,-0.2648506760597229,0.41046759486198425,0.3933200240135193
1772642869209102600,5.5621025390625,-0.25180622935295105,0.1592375487089157,0.43088579177856445
1772642869219147800,5.572147705078125,-0.2463238388299942,-0.17471858859062195,0.45871636271476746
1772642869229192700,5.582192626953125,-0.23343738913536072,-0.4240325391292572,0.4597073495388031
1772642869239236600,5.592236572265625,-0.18725177645683289,-0.5214613676071167,0.44724321365356445
1772642869249281500,5.602281494140625,-0.11634690314531326,-0.44544655084609985,0.40152135491371155
1772642869259326700,5.61232666015625,-0.055399928241968155,-0.25173112750053406,0.30655595660209656
1772642869269370600,5.62237060546875,-0.015294463373720646,-0.040777694433927536,0.1623755395412445
1772642869279415600,5.63241552734375,0.019050726667046547,0.1221718117594719,-0.008671573363244534
1772642869289460700,5.642460693359375,0.04670976474881172,0.19405944645404816,-0.17700357735157013
1772642869299504600,5.652504638671875,0.0792999342083931,0.10691336542367935,-0.282014399766922
1772642869309549300,5.66254931640625,0.1169968843460083,-0.1939585953950882,-0.2809094190597534
1772642869319594500,5.672594482421875,0.18823938071727753,-0.6918442845344543,-0.2144925892353058
1772642869329638400,5.682638427734375,0.30265143513679504,-1.1970828771591187,-0.12052414566278458
1772642869339683600,5.69268359375,0.46121737360954285,-1.4953500032424927,-0.018818553537130356
1772642869349728300,5.702728271484375,0.6552515029907227,-1.5895708799362183,0.04670550674200058
1772642869359773400,5.7127734375,0.7915903925895691,-1.5274627208709717,0.07560665905475616
1772642869369817600,5.722817626953125,0.8193001747131348,-1.3935474157333374,0.09747970104217529
1772642869379862500,5.732862548828125,0.7354622483253479,-1.2523974180221558,0.12714119255542755
1772642869389907500,5.742907470703125,0.590079128742218,-1.0705931186676025,0.11561586707830429
1772642869399951400,5.752951416015625,0.4508599638938904,-0.8248613476753235,-0.005249566398561001
1772642869409996500,5.76299658203125,0.34891757369041443,-0.5492274165153503,-0.23496276140213013
1772642869420041200,5.773041259765625,0.29978063702583313,-0.22126497328281403,-0.46323826909065247
1772642869430085400,5.78308544921875,0.3129177987575531,0.144380122423172,-0.5942110419273376
1772642869440130600,5.793130615234375,0.3387509882450104,0.5105764865875244,-0.6268302798271179
1772642869450175500,5.803175537109375,0.35034018754959106,0.7997479438781738,-0.5734948515892029
1772642869460220400,5.813220458984375,0.3450287878513336,0.9629896283149719,-0.4535689949989319
1772642869470264300,5.823264404296875,0.3146878182888031,0.9698047041893005,-0.2664470970630646
1772642869480309500,5.8333095703125,0.32485416531562805,0.8968250751495361,-0.00805895496159792
1772642869490354400,5.8433544921875,0.3959973454475403,0.7627120614051819,0.3000229597091675
1772642869500398300,5.8533984375,0.48552507162094116,0.5743181705474854,0.6105890870094299
1772642869510443500,5.863443603515625,0.5375564098358154,0.3891449272632599,0.8564960360527039
1772642869520488400,5.873488525390625,0.5379063487052917,0.22683191299438477,0.9892610311508179
1772642869530532400,5.883532470703125,0.4804345369338989,0.12009420990943909,0.9863798022270203
1772642869540577500,5.89357763671875,0.38841700553894043,0.10590115934610367,0.8767702579498291
1772642869550622500,5.90362255859375,0.29296910762786865,0.17959682643413544,0.6846802830696106
1772642869560666400,5.913666259765625,0.2048823982477188,0.3120581805706024,0.45764288306236267
1772642869570711300,5.923711181640625,0.12247202545404434,0.46515265107154846,0.2339567244052887
1772642869580756500,5.933756591796875,0.04932244494557381,0.6176055669784546,0.04214414954185486
1772642869590800600,5.943800537109375,-0.020614515990018845,0.7612459063529968,-0.09921712428331375
1772642869600845300,5.95384521484375,-0.10048858076334,0.851732075214386,-0.17568553984165192
1772642869610890500,5.963890380859375,-0.2027200162410736,0.8364976048469543,-0.19807212054729462
1772642869620935400,5.973935302734375,-0.31473979353904724,0.6915561556816101,-0.19590936601161957
1772642869630979600,5.9839794921875,-0.39505434036254883,0.4603543281555176,-0.16375301778316498
1772642869641024300,5.994024169921875,-0.4128226637840271,0.31706589460372925,-0.08263154327869415
1772642869651069400,6.0040693359375,-0.3475549519062042,0.32762980461120605,0.03216879442334175
1772642869661113600,6.014113525390625,-0.22539439797401428,0.43733981251716614,0.14849354326725006
1772642869671158500,6.024158447265625,-0.1089550256729126,0.4174288809299469,0.14861279726028442
1772642869681203500,6.034203369140625,-0.03285865858197212,0.18970705568790436,-0.058017075061798096
1772642869691247400,6.044247314453125,0.0021850038319826126,-0.05552288144826889,-0.42823052406311035
1772642869701292500,6.05429248046875,0.03074580803513527,-0.03893565014004707,-0.7337100505828857
1772642869711337200,6.064337158203125,0.0928947925567627,0.13627445697784424,-0.853829026222229
1772642869721381400,6.07438134765625,0.14771702885627747,0.25987282395362854,-0.7991247773170471
1772642869731426600,6.084426513671875,0.14809468388557434,0.2017611712217331,-0.6463150978088379
1772642869741471500,6.094471435546875,0.10683698952198029,-0.10817217826843262,-0.5673606395721436
1772642869751516400,6.104516357421875,0.029031876474618912,-0.4349254071712494,-0.683066189289093
1772642869761560300,6.114560302734375,-0.06796418130397797,-0.5316564440727234,-0.9705568552017212
1772642869771605500,6.12460546875,-0.09649938344955444,-0.2931603193283081,-1.253180742263794
1772642869781650400,6.134650390625,-0.035904478281736374,0.0599423311650753,-1.42435622215271
1772642869791694300,6.1446943359375,0.03905101865530014,0.27667829394340515,-1.4649691581726074
1772642869801739500,6.154739501953125,0.08284830302000046,0.3003402054309845,-1.3804548978805542
1772642869811784400,6.164784423828125,0.11659994721412659,0.2831222712993622,-1.1860378980636597
1772642869821828400,6.174828369140625,0.15921346843242645,0.22193562984466553,-0.9369652271270752
1772642869831873500,6.18487353515625,0.19135504961013794,0.03345140069723129,-0.6939957141876221
1772642869841918500,6.19491845703125,0.20178799331188202,-0.2755733132362366,-0.4904942512512207
1772642869851962400,6.20496240234375,0.21268753707408905,-0.6258272528648376,-0.35000014305114746
1772642869862007300,6.21500732421875,0.23210251331329346,-0.9031398296356201,-0.29257145524024963
1772642869872052500,6.225052490234375,0.23208943009376526,-1.0463088750839233,-0.32289406657218933
1772642869882097400,6.235097412109375,0.19308024644851685,-1.0465312004089355,-0.40912240743637085
1772642869892141300,6.245141357421875,0.1419496387243271,-0.8941853642463684,-0.5014607310295105
1772642869902186500,6.2551865234375,0.11954259872436523,-0.5563862919807434,-0.5301458835601807
1772642869912231400,6.2652314453125,0.12524652481079102,-0.09901729971170425,-0.4625178277492523
1772642869922275600,6.275275634765625,0.11512945592403412,0.2551477253437042,-0.31143882870674133
1772642869932320300,6.2853203125,0.07718870788812637,0.35324618220329285,-0.13600173592567444
1772642869942365400,6.295365478515625,0.05521256476640701,0.25774550437927246,-0.013461178168654442
1772642869952409600,6.30540966796875,0.06255292147397995,0.039822280406951904,0.03430625796318054
1772642869962454500,6.31545458984375,0.07962404936552048,-0.13763080537319183,0.06896863877773285
1772642869972499500,6.32549951171875,0.102647565305233,-0.17606259882450104,0.1277886927127838
1772642869982544400,6.33554443359375,0.11341312527656555,-0.11426369100809097,0.1980428844690323
1772642869992588500,6.345588623046875,0.10818560421466827,0.02186192013323307,0.2407352179288864
1772642870002633200,6.35563330078125,0.11361020058393478,0.22861430048942566,0.20468826591968536
1772642870012678400,6.365678466796875,0.11314083635807037,0.44568735361099243,0.08641521632671356
1772642870022722600,6.37572265625,0.11584075540304184,0.648199737071991,-0.0257123913615942
1772642870032767500,6.385767578125,0.12912818789482117,0.8367722034454346,-0.012972811236977577
1772642870042812400,6.3958125,0.13795256614685059,0.8835368156433105,0.17444050312042236
1772642870052856300,6.405856201171875,0.13308247923851013,0.6980987191200256,0.5143860578536987
1772642870062901500,6.415901611328125,0.15267589688301086,0.26974043250083923,0.8962322473526001
1772642870072946400,6.425946533203125,0.23440469801425934,-0.25037920475006104,1.188947081565857
1772642870082990300,6.435990234375,0.34661993384361267,-0.6589144468307495,1.3475961685180664
1772642870093035500,6.446035400390625,0.43374162912368774,-0.8059673309326172,1.3441306352615356
1772642870103080400,6.45608056640625,0.4804500341415405,-0.6883445382118225,1.198562502861023
1772642870113124400,6.466124267578125,0.4951196312904358,-0.4474753439426422,0.9455475211143494
1772642870123169500,6.47616943359375,0.48528429865837097,-0.2120969146490097,0.632644772529602
1772642870133214500,6.48621435546875,0.4874640107154846,-0.032683949917554855,0.35710081458091736
1772642870143259600,6.496259765625,0.4983779191970825,0.08657452464103699,0.1287267655134201
1772642870153303300,6.50630322265625,0.4971178472042084,0.13287712633609772,-0.03207191824913025
1772642870163348500,6.516348388671875,0.47739288210868835,0.1057237982749939,-0.09217893332242966
1772642870173393400,6.526393310546875,0.4209890067577362,-0.08931766450405121,-0.10073284804821014
1772642870183437300,6.536437255859375,0.30824434757232666,-0.3701826333999634,-0.07541604340076447
1772642870193482500,6.546482421875,0.25546368956565857,-0.6341440081596375,0.055950090289115906
1772642870203527400,6.55652734375,0.2405366599559784,-0.8067362904548645,0.23265083134174347
1772642870213571600,6.566571533203125,0.23141105473041534,-0.8749561905860901,0.35894832015037537
1772642870223616300,6.5766162109375,0.19332943856716156,-0.7263044118881226,0.49743321537971497
1772642870233661400,6.586661376953125,0.17600315809249878,-0.5133934020996094,0.6060892939567566
1772642870243706400,6.596706298828125,0.10886939615011215,-0.23503738641738892,0.6894643306732178
1772642870253750300,6.606750244140625,0.11659307032823563,0.05482146888971329,0.7330469489097595
1772642870263795500,6.61679541015625,0.14336903393268585,0.16422706842422485,0.8469530344009399
1772642870273840400,6.62684033203125,-0.05792714282870293,0.2246268093585968,0.9446141123771667
1772642870283884500,6.636884521484375,-0.19433505833148956,0.20470796525478363,1.049646258354187
1772642870293929200,6.64692919921875,-0.3761611580848694,0.20363731682300568,1.1600452661514282
1772642870303974400,6.656974365234375,-0.4597090482711792,0.24450059235095978,1.2437124252319336
1772642870314018300,6.667018310546875,-0.45990291237831116,0.2862529754638672,1.2996302843093872
1772642870324063200,6.677063232421875,-0.39912185072898865,0.2900106906890869,1.3186167478561401
1772642870334108400,6.6871083984375,-0.30627673864364624,0.2192421704530716,1.289325475692749
1772642870344152300,6.69715234375,-0.18363550305366516,0.10225323587656021,1.19920015335083
1772642870354197200,6.707197265625,-0.02690131962299347,-0.014271249994635582,1.0310821533203125
1772642870364242400,6.717242431640625,0.14134015142917633,-0.04983111098408699,0.8207153677940369
1772642870374286000,6.7272861328125,0.2660926878452301,-0.0016234321519732475,0.5971351265907288
1772642870384331300,6.737331298828125,0.29021933674812317,0.09202449768781662,0.3789690136909485
1772642870394376200,6.747376220703125,0.20537638664245605,0.2639895975589752,0.22543242573738098
1772642870404421400,6.75742138671875,0.07658777385950089,0.49752405285835266,0.21134988963603973
1772642870414465300,6.76746533203125,-0.03371867910027504,0.6954538822174072,0.3035876154899597
1772642870424510200,6.77751025390625,-0.11525508016347885,0.7708636522293091,0.47220033407211304
1772642870434555400,6.787555419921875,-0.15541580319404602,0.6557248830795288,0.6787644028663635
1772642870444599300,6.797599365234375,-0.16254162788391113,0.4834878444671631,0.9240362048149109
1772642870454644200,6.807644287109375,-0.11828530579805374,0.34469059109687805,1.177620530128479
1772642870464689200,6.817689208984375,-0.07455886155366898,0.17892929911613464,1.3011994361877441
1772642870474733300,6.8277333984375,-0.05755104869604111,-0.01054755225777626,1.2104445695877075
1772642870484778200,6.8377783203125,-0.03691527992486954,-0.12761397659778595,0.9308645725250244
1772642870494823200,6.8478232421875,-0.007702514063566923,-0.17940540611743927,0.49121466279029846
1772642870504868400,6.857868408203125,0.011935901828110218,-0.18003123998641968,-0.07874230295419693
1772642870514912300,6.867912353515625,-0.01097303070127964,-0.09512580931186676,-0.6841744780540466
1772642870524957200,6.877957275390625,-0.07086752355098724,0.12114576995372772,-1.1677422523498535
1772642870535002000,6.888002197265625,-0.13631469011306763,0.3469505310058594,-1.458310842514038
1772642870545046300,6.89804638671875,-0.201272651553154,0.4608518183231354,-1.576733112335205
1772642870555091500,6.908091552734375,-0.26602935791015625,0.3526294529438019,-1.5964531898498535
1772642870565136100,6.91813623046875,-0.30118149518966675,0.08557911217212677,-1.581865668296814
1772642870575180300,6.92818017578125,-0.3124891221523285,-0.2793475091457367,-1.5737779140472412
1772642870585225200,6.93822509765625,-0.299410879611969,-0.5927762985229492,-1.587303638458252
1772642870595270100,6.948270263671875,-0.24426449835300446,-0.6443243622779846,-1.5752522945404053
1772642870605314300,6.958314208984375,-0.15406163036823273,-0.44096457958221436,-1.5136607885360718
1772642870615359200,6.968359130859375,-0.06144166365265846,-0.08433469384908676,-1.4262971878051758
1772642870625404400,6.978404296875,0.00097830465529114,0.22054532170295715,-1.3427979946136475
1772642870635449000,6.988448974609375,0.01180075854063034,0.3301346004009247,-1.2936266660690308
1772642870645493200,6.9984931640625,-0.014832183718681335,0.18753109872341156,-1.2547849416732788
1772642870655538400,7.008538330078125,-0.0410858653485775,-0.12603433430194855,-1.1505448818206787
1772642870665583400,7.018583251953125,-0.03146626055240631,-0.46787264943122864,-0.9608747959136963
1772642870675627300,7.028627197265625,0.017229877412319183,-0.7262763977050781,-0.7454317808151245
1772642870685672200,7.038672119140625,0.07274133712053299,-0.8457929491996765,-0.6025323867797852
1772642870695717400,7.04871728515625,0.13241083920001984,-0.7341159582138062,-0.5898231267929077
1772642870705761300,7.05876123046875,0.18909674882888794,-0.31822556257247925,-0.6272853016853333
1772642870715806200,7.06880615234375,0.19383025169372559,0.33791816234588623,-0.5887399911880493
1772642870725851400,7.078851318359375,0.14727367460727692,0.8967609405517578,-0.3714556097984314
1772642870735895000,7.08889501953125,0.08625584840774536,1.0702153444290161,0.07107439637184143
1772642870745940200,7.098940185546875,0.04683014750480652,0.8367876410484314,0.6826064586639404
1772642870755985200,7.108985107421875,0.03518521040678024,0.35194024443626404,1.2951902151107788
1772642870766030300,7.1190302734375,0.018767088651657104,-0.1285366415977478,1.7070872783660889
1772642870776074200,7.12907421875,-0.05980433151125908,-0.40585774183273315,1.8419893980026245
1772642870786119200,7.139119140625,-0.15742675960063934,-0.460637629032135,1.7555056810379028
1772642870796164400,7.149164306640625,-0.24695879220962524,-0.36768704652786255,1.5354348421096802
1772642870806208300,7.159208251953125,-0.31662097573280334,-0.13438613712787628,1.2506721019744873
1772642870816253200,7.169253173828125,-0.3742906451225281,0.19418276846408844,0.9528363347053528
1772642870826298000,7.179298095703125,-0.44588997960090637,0.42390385270118713,0.7045908570289612
1772642870836342300,7.18934228515625,-0.553886353969574,0.5172281861305237,0.5329950451850891
1772642870846387500,7.199387451171875,-0.6993668675422668,0.5703872442245483,0.45901429653167725
1772642870856432000,7.20943212890625,-0.8250060677528381,0.5986073613166809,0.49384260177612305
1772642870866476300,7.219476318359375,-0.8485449552536011,0.4196503460407257,0.6425750851631165
1772642870876521500,7.229521484375,-0.7752773761749268,-0.009522839449346066,0.8495870232582092
1772642870886566100,7.239566162109375,-0.6432551741600037,-0.49913889169692993,1.0207322835922241
1772642870896610300,7.2496103515625,-0.5241116881370544,-0.786051869392395,1.1031221151351929
1772642870906655200,7.2596552734375,-0.46170395612716675,-0.8501267433166504,1.0898001194000244
1772642870916700400,7.269700439453125,-0.42439764738082886,-0.7905685901641846,1.002039909362793
1772642870926745000,7.2797451171875,-0.3759819269180298,-0.6701346039772034,0.8483449220657349
1772642870936789200,7.289789306640625,-0.33940163254737854,-0.5183365941047668,0.6267375349998474
1772642870946834400,7.29983447265625,-0.2929494380950928,-0.36462000012397766,0.36289742588996887
1772642870956879400,7.30987939453125,-0.24493978917598724,-0.21916933357715607,0.1003817617893219
1772642870966923300,7.31992333984375,-0.22971156239509583,-0.08588824421167374,-0.09872867912054062
1772642870976968200,7.32996826171875,-0.2580593228340149,-0.05133805796504021,-0.1903599351644516
1772642870987013400,7.340013427734375,-0.2938506305217743,-0.07675740122795105,-0.15947632491588593
1772642870997057300,7.350057373046875,-0.2967999577522278,-0.08878389745950699,-0.014696547761559486
1772642871007102200,7.360102294921875,-0.2839962840080261,-0.038711678236722946,0.1633850336074829
1772642871017147400,7.3701474609375,-0.2541320025920868,0.05740819871425629,0.35850587487220764
1772642871027191000,7.38019091796875,-0.2053561955690384,0.12742802500724792,0.5442296266555786
1772642871037236200,7.390236328125,-0.16030092537403107,0.15037281811237335,0.7032036185264587
1772642871047281200,7.40028125,-0.14370623230934143,0.10846292227506638,0.7919345498085022
1772642871057326300,7.410326416015625,-0.1060103178024292,0.012470217421650887,0.8437944650650024
1772642871067370200,7.420370361328125,-0.030347783118486404,-0.10753581672906876,0.8709245920181274
1772642871077415200,7.430415283203125,0.06035689637064934,-0.252847820520401,0.8706222772598267
1772642871087460400,7.44046044921875,0.17488427460193634,-0.3670995533466339,0.8259261846542358
1772642871097504300,7.450504150390625,0.2356988936662674,-0.5087605714797974,0.6702331304550171
1772642871107549200,7.460549072265625,0.1960476189851761,-0.6729212403297424,0.3892821967601776
1772642871117594400,7.470594482421875,0.13241849839687347,-0.6956818699836731,0.057957690209150314
1772642871127638300,7.48063818359375,0.04487426578998566,-0.6315149068832397,-0.287802129983902
1772642871137683500,7.490683349609375,-0.04994644224643707,-0.379604697227478,-0.48703986406326294
1772642871147728100,7.50072802734375,-0.13220590353012085,0.1885727494955063,-0.43765875697135925
1772642871157772300,7.510772216796875,-0.21136491000652313,0.5954695343971252,-0.26254165172576904
1772642871167817500,7.5208173828125,-0.2904222011566162,0.6673147082328796,-0.04147558659315109
1772642871177862100,7.530862060546875,-0.3368408977985382,0.5493935346603394,0.16575674712657928
1772642871187907300,7.5409072265625,-0.3744189143180847,0.35912370681762695,0.3086928725242615
1772642871197951200,7.550951171875,-0.39632245898246765,0.1913282573223114,0.3759300112724304
1772642871207996400,7.560996337890625,-0.3629685044288635,0.07676119357347488,0.3702862560749054
1772642871218041000,7.571041015625,-0.2963957190513611,0.03932353854179382,0.30823758244514465
1772642871228085200,7.581085205078125,-0.2243092954158783,0.059857841581106186,0.22091174125671387
1772642871238130400,7.59113037109375,-0.18852482736110687,0.0351424403488636,0.08464279770851135
1772642871248175400,7.60117529296875,-0.18230554461479187,-0.039140842854976654,-0.12590432167053223
1772642871258219300,7.61121923828125,-0.21516352891921997,-0.0906045064330101,-0.38490185141563416
1772642871268264200,7.62126416015625,-0.27888789772987366,-0.05616530030965805,-0.6104228496551514
1772642871278309400,7.631309326171875,-0.3427183926105499,0.01417456939816475,-0.7556901574134827
1772642871288353300,7.641353271484375,-0.42274531722068787,-0.03384222462773323,-0.9393763542175293
1772642871298398500,7.6513984375,-0.5373399257659912,-0.14490967988967896,-1.2087490558624268
1772642871308443600,7.661443603515625,-0.6041098833084106,-0.11718270927667618,-1.4134029150009155
1772642871318488600,7.671488525390625,-0.5542787909507751,-0.02865571714937687,-1.456453800201416
1772642871328532500,7.681532470703125,-0.4337491989135742,-0.08870787173509598,-1.3248955011367798
1772642871338577400,7.691577392578125,-0.2988974153995514,-0.29591184854507446,-1.1287360191345215
1772642871348622600,7.70162255859375,-0.20225819945335388,-0.38724949955940247,-0.9148921370506287
1772642871358666800,7.711666748046875,-0.17324404418468475,-0.3025474548339844,-0.704713761806488
1772642871368711400,7.72171142578125,-0.19466093182563782,-0.09618362784385681,-0.5603041648864746
1772642871378756600,7.731756591796875,-0.20456674695014954,0.13555020093917847,-0.48664966225624084
1772642871388800500,7.741800537109375,-0.16033031046390533,0.33817121386528015,-0.428022563457489
1772642871398845700,7.751845703125,-0.05127454549074173,0.4755835235118866,-0.34749436378479004
1772642871408890400,7.761890380859375,0.06796902418136597,0.5029813051223755,-0.256299763917923
1772642871418934500,7.7719345703125,0.14689747989177704,0.44148072600364685,-0.20350702106952667
1772642871428979700,7.781979736328125,0.18201152980327606,0.28456807136535645,-0.2110925018787384
1772642871439024400,7.7920244140625,0.19186854362487793,0.0411478728055954,-0.2742598354816437
1772642871449069600,7.802069580078125,0.17538489401340485,-0.252297043800354,-0.3834313154220581
1772642871459113500,7.812113525390625,0.13764773309230804,-0.4534834325313568,-0.5102109909057617
1772642871469158700,7.82215869140625,0.06595756858587265,-0.48195716738700867,-0.6156625747680664
1772642871479203600,7.83220361328125,-0.006800934672355652,-0.2765340209007263,-0.6587242484092712
1772642871489247500,7.84224755859375,-0.07336504757404327,0.08107631653547287,-0.624230682849884
1772642871499292700,7.852292724609375,-0.1020108088850975,0.41443002223968506,-0.5237032771110535
1772642871509337600,7.862337646484375,-0.05680977180600166,0.5807625651359558,-0.3548940420150757
1772642871519381500,7.872381591796875,0.031793560832738876,0.5748195648193359,-0.11967580020427704
1772642871529426700,7.8824267578125,0.10433567315340042,0.42832913994789124,0.14664191007614136
1772642871539471600,7.8924716796875,0.12110400199890137,0.21492072939872742,0.422443151473999
1772642871549516800,7.902516845703125,0.07870807498693466,-0.014276509173214436,0.668569803237915
1772642871559560400,7.912560546875,0.004820591304451227,-0.20551563799381256,0.8329069018363953
1772642871569605600,7.922605712890625,-0.06867173314094543,-0.3515823185443878,0.8931593298912048
1772642871579650600,7.932650634765625,-0.115324005484581,-0.4186669886112213,0.8576405644416809
1772642871589694500,7.942694580078125,-0.10812574625015259,-0.36245352029800415,0.703870952129364
1772642871599739600,7.95273974609375,-0.05089312791824341,-0.22164127230644226,0.4379889965057373
1772642871609784600,7.96278466796875,0.028373731300234795,-0.02632611244916916,0.11519760638475418
1772642871619828500,7.972828369140625,0.0953454077243805,0.19283026456832886,-0.18522578477859497
1772642871629873400,7.982873291015625,0.11585015058517456,0.35991618037223816,-0.39877453446388245
1772642871639918600,7.992918701171875,0.0814863070845604,0.4241028428077698,-0.4794693887233734
1772642871649962800,8.002962646484375,0.0036863177083432674,0.35767826437950134,-0.4454749524593353
1772642871660007400,8.01300732421875,-0.10140538960695267,0.18944266438484192,-0.3924490511417389
1772642871670052600,8.023052490234376,-0.17337171733379364,-0.09377279877662659,-0.3853845000267029
1772642871680097500,8.03309765625,-0.1666778028011322,-0.4540323317050934,-0.42163294553756714
1772642871690141700,8.0431416015625,-0.05553051084280014,-0.777625560760498,-0.49400728940963745
1772642871700186400,8.053186279296876,0.132991760969162,-0.9905286431312561,-0.6328505277633667
1772642871710231600,8.0632314453125,0.3769322335720062,-0.9659454822540283,-0.8794267773628235
1772642871720275700,8.073275634765626,0.6464175581932068,-0.7347185611724854,-1.222090244293213
1772642871730320400,8.0833203125,0.8750597834587097,-0.36550989747047424,-1.5862985849380493
1772642871740365600,8.093365478515626,0.9934701919555664,0.04756049066781998,-1.8774583339691162
1772642871750409700,8.10340966796875,0.9793197512626648,0.38817664980888367,-2.0383059978485107
1772642871760454700,8.11345458984375,0.9009200930595398,0.5439756512641907,-2.0474231243133545
1772642871770499600,8.12349951171875,0.8241472840309143,0.550689160823822,-1.9004384279251099
1772642871780543500,8.13354345703125,0.7386259436607361,0.4256122410297394,-1.6097990274429321
1772642871790588700,8.143588623046876,0.6491040587425232,0.21017369627952576,-1.1725447177886963
1772642871800633600,8.153633544921876,0.6020329594612122,-0.044227484613657,-0.6277511119842529
1772642871810677500,8.163677490234376,0.6130067706108093,-0.26658546924591064,-0.0393887534737587
1772642871820722700,8.17372265625,0.6491933465003967,-0.3936133086681366,0.5051494836807251
1772642871830767600,8.183767578125,0.6846725344657898,-0.4575456976890564,0.9170017242431641
1772642871840812800,8.193812744140626,0.7107004523277283,-0.49399131536483765,1.165153980255127
1772642871850856400,8.2038564453125,0.7218050360679626,-0.48866552114486694,1.2496083974838257
1772642871860901600,8.213901611328126,0.7108789682388306,-0.399129718542099,1.2040866613388062
1772642871870946600,8.223946533203126,0.6656257510185242,-0.2022225260734558,1.0639097690582275
1772642871880990500,8.233990478515626,0.5919234156608582,0.07146276533603668,0.852147102355957
1772642871891035600,8.24403564453125,0.4830970764160156,0.4204077124595642,0.627913236618042
1772642871901080600,8.25408056640625,0.3656214475631714,0.781987726688385,0.44877031445503235
1772642871911124500,8.26412451171875,0.22661881148815155,1.070357084274292,0.31942909955978394
1772642871921169400,8.27416943359375,0.07779231667518616,1.1918060779571533,0.2665533721446991
1772642871931214600,8.284214599609374,-0.021810444071888924,1.123998761177063,0.30780571699142456
1772642871941259500,8.294259521484374,-0.05030469968914986,0.9223653674125671,0.4169861674308777
1772642871951303400,8.304303466796876,-0.041206810623407364,0.7004971504211426,0.5504749417304993
1772642871961348600,8.3143486328125,-0.018555626273155212,0.5320534110069275,0.678133487701416
1772642871971393500,8.3243935546875,-0.005358332302421331,0.5139415264129639,0.7849954962730408
1772642871981437700,8.334437744140626,-0.04907063767313957,0.615135133266449,0.8706166744232178
1772642871991482600,8.344482666015624,-0.12657982110977173,0.6788565516471863,0.96033775806427
1772642872001527600,8.354527587890624,-0.20882970094680786,0.636310875415802,1.0599807500839233
1772642872011571700,8.36457177734375,-0.264858603477478,0.5046268701553345,1.1659364700317383
1772642872021616400,8.374616455078124,-0.27593475580215454,0.2873091697692871,1.2633726596832275
1772642872031661600,8.38466162109375,-0.27313920855522156,0.050393830984830856,1.354068398475647
1772642872041705700,8.394705810546874,-0.30005601048469543,-0.3050712049007416,1.3953930139541626
1772642872051750700,8.404750732421874,-0.26830950379371643,-0.8066738247871399,1.1937741041183472
1772642872061795600,8.414795654296874,-0.2362646609544754,-0.8733354210853577,0.6651366949081421
1772642872071839500,8.424839599609374,-0.1683247685432434,-0.27893704175949097,0.11755827069282532
1772642872081884700,8.434884765625,0.021932221949100494,0.48912930488586426,-0.14575150609016418
1772642872091929600,8.4449296875,0.18060629069805145,0.8176595568656921,-0.23350532352924347
1772642872101974500,8.454974609375,0.1434962898492813,0.4770905375480652,-0.3871230185031891
1772642872112018700,8.465018798828124,-0.049494728446006775,-0.20288395881652832,-0.6275702714920044
1772642872122063600,8.475063720703124,-0.2748165726661682,-0.9392024278640747,-0.9303306341171265
1772642872132108500,8.485108642578124,-0.42688360810279846,-1.4574673175811768,-1.2580227851867676
