time,seconds_elapsed,z,y,x
1772641305411302700,0.068302734375,-1.0094451904296875,-0.099578857421875,-0.0372314453125
1772641305421347600,0.07834765625,-1.0023956298828125,-0.099029541015625,-0.0373992919921875
1772641305431392800,0.088392822265625,-0.99365234375,-0.0967864990234375,-0.03717041015625
1772641305441438700,0.098438720703125,-0.9882354736328125,-0.096588134765625,-0.0377197265625
1772641305451483600,0.108483642578125,-0.9883575439453125,-0.0962066650390625,-0.040374755859375
1772641305461528600,0.118528564453125,-0.9888153076171875,-0.095489501953125,-0.0449371337890625
1772641305471574500,0.128574462890625,-0.991912841796875,-0.0952301025390625,-0.0478515625
1772641305481619700,0.13861962890625,-0.993682861328125,-0.0961761474609375,-0.049896240234375
1772641305491664600,0.14866455078125,-0.9979248046875,-0.0985565185546875,-0.0516510009765625
1772641305501710600,0.158710693359375,-1.0013427734375,-0.1053924560546875,-0.0538177490234375
1772641305511755800,0.168755859375,-1.00079345703125,-0.10943603515625,-0.058807373046875
1772641305521800400,0.178800537109375,-1.0007781982421875,-0.1121063232421875,-0.064453125
1772641305531845600,0.188845703125,-0.9989471435546875,-0.1142425537109375,-0.068603515625
1772641305541891600,0.1988916015625,-0.993377685546875,-0.1182861328125,-0.071929931640625
1772641305551936500,0.2089365234375,-0.985015869140625,-0.11798095703125,-0.0771636962890625
1772641305561981700,0.218981689453125,-0.9769439697265625,-0.1164703369140625,-0.0799407958984375
1772641305572027600,0.229027587890625,-0.9714813232421875,-0.11328125,-0.0841217041015625
1772641305582072600,0.239072509765625,-0.9686126708984375,-0.1079559326171875,-0.0843353271484375
1772641305592117500,0.249117431640625,-0.9686737060546875,-0.1039581298828125,-0.082672119140625
1772641305602163500,0.25916357421875,-0.9748687744140625,-0.1011199951171875,-0.0790863037109375
1772641305612208600,0.269208740234375,-0.9822235107421875,-0.0956878662109375,-0.0745849609375
1772641305622253600,0.279253662109375,-0.9884033203125,-0.09381103515625,-0.070037841796875
1772641305632299800,0.2892998046875,-0.996673583984375,-0.0941314697265625,-0.0672149658203125
1772641305642344700,0.2993447265625,-0.9925537109375,-0.0948028564453125,-0.0636138916015625
1772641305652389600,0.3093896484375,-0.9825439453125,-0.102386474609375,-0.0550537109375
1772641305662435600,0.319435546875,-0.9723358154296875,-0.1098480224609375,-0.0411224365234375
1772641305672480500,0.32948046875,-0.9665374755859375,-0.1182098388671875,-0.030609130859375
1772641305682525700,0.339525634765625,-0.9642486572265625,-0.12640380859375,-0.02130126953125
1772641305692571600,0.349571533203125,-0.9575347900390625,-0.1346893310546875,-0.01690673828125
1772641305702616600,0.359616455078125,-0.9500732421875,-0.1449127197265625,-0.0124664306640625
1772641305712661500,0.36966162109375,-0.947296142578125,-0.1539459228515625,-0.0143890380859375
1772641305722706400,0.37970654296875,-0.9466705322265625,-0.1612091064453125,-0.019195556640625
1772641305732752600,0.389752685546875,-0.9538421630859375,-0.16790771484375,-0.0222320556640625
1772641305742797600,0.399797607421875,-0.95037841796875,-0.175750732421875,-0.022918701171875
1772641305752841700,0.409841796875,-0.94171142578125,-0.181732177734375,-0.0197601318359375
1772641305762887700,0.4198876953125,-0.932525634765625,-0.1873016357421875,-0.0151519775390625
1772641305772932900,0.429932861328125,-0.9268798828125,-0.18585205078125,-0.0065155029296875
1772641305782977800,0.439977783203125,-0.936126708984375,-0.190277099609375,0.0037841796875
1772641305793023700,0.450023681640625,-0.945648193359375,-0.1888885498046875,0.012298583984375
1772641305803068700,0.460068603515625,-0.9574432373046875,-0.182403564453125,0.0174407958984375
1772641305813113600,0.470113525390625,-0.9661407470703125,-0.1761627197265625,0.019134521484375
1772641305823159800,0.480159912109375,-0.972076416015625,-0.16888427734375,0.021331787109375
1772641305833204700,0.490204833984375,-0.9781646728515625,-0.1638641357421875,0.0230865478515625
1772641305843250000,0.50025,-0.9894256591796875,-0.160125732421875,0.0230865478515625
1772641305853294800,0.510294921875,-0.994049072265625,-0.155914306640625,0.0234222412109375
1772641305863340800,0.5203408203125,-0.9951934814453125,-0.1533203125,0.02618408203125
1772641305873385700,0.5303857421875,-0.995849609375,-0.1494293212890625,0.030853271484375
1772641305883430700,0.5404306640625,-1.0014495849609375,-0.146942138671875,0.0337371826171875
1772641305893476600,0.5504765625,-1.0085296630859375,-0.1481475830078125,0.0322723388671875
1772641305903521800,0.560521728515625,-1.0151519775390625,-0.1536712646484375,0.0285186767578125
1772641305913566700,0.570566650390625,-1.0147705078125,-0.159454345703125,0.0286407470703125
1772641305923613000,0.580613037109375,-1.002410888671875,-0.161102294921875,0.022003173828125
1772641305933657600,0.59065771484375,-0.9954986572265625,-0.16693115234375,0.0172271728515625
1772641305943702800,0.600702880859375,-0.984405517578125,-0.1753692626953125,0.017547607421875
1772641305953748700,0.610748779296875,-0.973724365234375,-0.1798553466796875,0.0197601318359375
1772641305963793700,0.620793701171875,-0.9622650146484375,-0.183746337890625,0.020111083984375
1772641305973838800,0.6308388671875,-0.952392578125,-0.18951416015625,0.021026611328125
1772641305983883500,0.640883544921875,-0.9466552734375,-0.194976806640625,0.019287109375
1772641305993929700,0.6509296875,-0.9425811767578125,-0.19818115234375,0.013702392578125
1772641306003974700,0.660974609375,-0.940826416015625,-0.2013397216796875,0.0059661865234375
1772641306014019800,0.671019775390625,-0.9475555419921875,-0.2052154541015625,-0.001312255859375
1772641306024065800,0.681065673828125,-0.95501708984375,-0.2054443359375,-0.003662109375
1772641306034110700,0.69111083984375,-0.9594268798828125,-0.2035980224609375,-0.0039825439453125
1772641306044156000,0.701156005859375,-0.963775634765625,-0.1982421875,-0.0072479248046875
1772641306054201900,0.711201904296875,-0.9738616943359375,-0.1942596435546875,-0.0035858154296875
1772641306064246500,0.72124658203125,-0.9869842529296875,-0.1903839111328125,0.0015716552734375
1772641306074291700,0.731291748046875,-1.0039215087890625,-0.186126708984375,0.0068511962890625
1772641306084337700,0.741337646484375,-1.0221099853515625,-0.178619384765625,0.0125732421875
1772641306094382800,0.7513828125,-1.0451507568359375,-0.1843414306640625,0.0218505859375
1772641306104427800,0.761427734375,-1.064544677734375,-0.200531005859375,0.0334320068359375
1772641306114472700,0.77147265625,-1.0583343505859375,-0.2146759033203125,0.0386199951171875
1772641306124518700,0.7815185546875,-1.0366973876953125,-0.2305755615234375,0.0373077392578125
1772641306134563600,0.7915634765625,-1.018768310546875,-0.2461395263671875,0.034881591796875
1772641306144608800,0.80160888671875,-0.9959259033203125,-0.2459564208984375,0.0208587646484375
1772641306154654700,0.81165478515625,-0.9846649169921875,-0.237762451171875,0.0003662109375
1772641306164700000,0.821699951171875,-0.998504638671875,-0.2238311767578125,-0.0206756591796875
1772641306174744800,0.831744873046875,-1.0211181640625,-0.2120361328125,-0.0388946533203125
1772641306184790800,0.841790771484375,-1.0527191162109375,-0.1895904541015625,-0.0578460693359375
1772641306194835700,0.851835693359375,-1.0850982666015625,-0.1648101806640625,-0.0734710693359375
1772641306204880600,0.861880615234375,-1.1285247802734375,-0.134918212890625,-0.0849761962890625
1772641306214926600,0.871926513671875,-1.1521453857421875,-0.1062774658203125,-0.0919189453125
1772641306224971800,0.8819716796875,-1.1600799560546875,-0.0841827392578125,-0.0936279296875
1772641306235016700,0.8920166015625,-1.1626739501953125,-0.0694732666015625,-0.095367431640625
1772641306245061600,0.9020615234375,-1.1466064453125,-0.062225341796875,-0.100921630859375
1772641306255107600,0.912107666015625,-1.123809814453125,-0.064483642578125,-0.1001129150390625
1772641306265152800,0.92215283203125,-1.0855865478515625,-0.07464599609375,-0.0990447998046875
1772641306275197700,0.93219775390625,-1.03973388671875,-0.098419189453125,-0.09381103515625
1772641306285243600,0.94224365234375,-0.9918060302734375,-0.12298583984375,-0.0859222412109375
1772641306295288800,0.952288818359375,-0.944915771484375,-0.135345458984375,-0.0817108154296875
1772641306305333800,0.962333740234375,-0.9114837646484375,-0.1426239013671875,-0.077301025390625
1772641306315379700,0.972379638671875,-0.887298583984375,-0.1478118896484375,-0.0687408447265625
1772641306325424600,0.982424560546875,-0.8643646240234375,-0.14947509765625,-0.0579986572265625
1772641306335469800,0.9924697265625,-0.848358154296875,-0.1565093994140625,-0.034881591796875
1772641306345515800,1.002515869140625,-0.8264617919921875,-0.15509033203125,-0.019012451171875
1772641306355560700,1.012560791015625,-0.8049774169921875,-0.1529388427734375,-0.0062255859375
1772641306365606000,1.02260595703125,-0.7917327880859375,-0.1525421142578125,0.00689697265625
1772641306375650600,1.032650634765625,-0.789764404296875,-0.150146484375,0.022186279296875
1772641306385696800,1.04269677734375,-0.8004913330078125,-0.1470947265625,0.0334625244140625
1772641306395741700,1.05274169921875,-0.816680908203125,-0.138427734375,0.0377349853515625
1772641306405787000,1.062786865234375,-0.8340301513671875,-0.13006591796875,0.0420074462890625
1772641306415832800,1.072832763671875,-0.8477630615234375,-0.1238861083984375,0.0485076904296875
1772641306425877800,1.082877685546875,-0.866943359375,-0.116058349609375,0.0577392578125
1772641306435922700,1.092922607421875,-0.900177001953125,-0.104248046875,0.065887451171875
1772641306445968600,1.10296875,-0.9443206787109375,-0.089935302734375,0.0720977783203125
1772641306456013600,1.113013671875,-0.983154296875,-0.0712738037109375,0.0705413818359375
1772641306466058800,1.123058837890625,-1.02301025390625,-0.049560546875,0.0657806396484375
1772641306476104700,1.133104736328125,-1.04705810546875,-0.0263214111328125,0.0577392578125
1772641306486150000,1.14314990234375,-1.0559539794921875,-0.005706787109375,0.0606689453125
1772641306496194800,1.15319482421875,-1.070587158203125,0.009765625,0.079132080078125
1772641306506239700,1.16323974609375,-1.0796051025390625,0.023651123046875,0.096771240234375
1772641306516285700,1.17328564453125,-1.07513427734375,0.0365447998046875,0.0916900634765625
1772641306526330600,1.18333056640625,-1.070068359375,0.02557373046875,0.08123779296875
1772641306536375800,1.193375732421875,-1.0645904541015625,-0.0072479248046875,0.075653076171875
1772641306546421800,1.203421875,-1.058990478515625,-0.027679443359375,0.059722900390625
1772641306556467000,1.213467041015625,-1.0438995361328125,-0.037445068359375,0.03033447265625
1772641306566511600,1.22351171875,-1.0263824462890625,-0.0474700927734375,0.0067901611328125
1772641306576557600,1.2335576171875,-1.0066375732421875,-0.065673828125,-0.0038604736328125
1772641306586602800,1.243602783203125,-0.987579345703125,-0.091827392578125,-0.01141357421875
1772641306596647700,1.253647705078125,-0.968414306640625,-0.1153106689453125,-0.013824462890625
1772641306606693600,1.263693603515625,-0.95123291015625,-0.135406494140625,-0.0144500732421875
1772641306616738800,1.27373876953125,-0.942291259765625,-0.1463470458984375,-0.0199737548828125
1772641306626783700,1.28378369140625,-0.93572998046875,-0.1515960693359375,-0.022613525390625
1772641306636828700,1.29382861328125,-0.9283447265625,-0.15576171875,-0.0208587646484375
1772641306646874600,1.30387451171875,-0.92047119140625,-0.15692138671875,-0.0149993896484375
1772641306656919800,1.313919921875,-0.9162139892578125,-0.158172607421875,-0.00640869140625
1772641306666964700,1.32396484375,-0.90972900390625,-0.154327392578125,0.0043792724609375
1772641306677010700,1.3340107421875,-0.9051361083984375,-0.1513824462890625,0.014068603515625
1772641306687056000,1.344055908203125,-0.908782958984375,-0.1482391357421875,0.01873779296875
1772641306697100500,1.3541005859375,-0.921600341796875,-0.1442108154296875,0.0268096923828125
1772641306707146800,1.364146728515625,-0.93670654296875,-0.1440887451171875,0.0362396240234375
1772641306717191700,1.374191650390625,-0.9509124755859375,-0.14111328125,0.0402069091796875
1772641306727236900,1.38423681640625,-0.9648895263671875,-0.1363525390625,0.0392608642578125
1772641306737281800,1.39428173828125,-0.9811553955078125,-0.130706787109375,0.0351409912109375
1772641306747328300,1.404328369140625,-1.001922607421875,-0.12481689453125,0.0296783447265625
1772641306757373400,1.41437353515625,-1.021697998046875,-0.121826171875,0.0259246826171875
1772641306767418400,1.42441845703125,-1.0359954833984375,-0.1178131103515625,0.0249176025390625
1772641306777464300,1.43446435546875,-1.045013427734375,-0.1176910400390625,0.0261077880859375
1772641306787509500,1.444509521484375,-1.0413055419921875,-0.119598388671875,0.0253753662109375
1772641306797554200,1.45455419921875,-1.0297393798828125,-0.1226654052734375,0.023223876953125
1772641306807600400,1.464600341796875,-1.0156707763671875,-0.1292266845703125,0.026275634765625
1772641306817645300,1.474645263671875,-0.9944610595703125,-0.1408233642578125,0.0223541259765625
1772641306827690200,1.484690185546875,-0.9744110107421875,-0.1536407470703125,0.0163421630859375
1772641306837736400,1.494736328125,-0.95611572265625,-0.1604461669921875,0.0084381103515625
1772641306847781400,1.504781494140625,-0.940460205078125,-0.1634674072265625,0.0030975341796875
1772641306857826600,1.51482666015625,-0.9293670654296875,-0.1656646728515625,0.004241943359375
1772641306867871200,1.524871337890625,-0.9253082275390625,-0.1661224365234375,0.00933837890625
1772641306877917200,1.534917236328125,-0.9190673828125,-0.167388916015625,0.016571044921875
1772641306887962400,1.54496240234375,-0.911590576171875,-0.1691436767578125,0.0257415771484375
1772641306898007300,1.55500732421875,-0.90582275390625,-0.16729736328125,0.0298309326171875
1772641306908053500,1.565053466796875,-0.909759521484375,-0.1625518798828125,0.0328521728515625
1772641306918098400,1.575098388671875,-0.9250640869140625,-0.1541900634765625,0.03619384765625
1772641306928143400,1.585143310546875,-0.9415740966796875,-0.1407623291015625,0.0407562255859375
1772641306938189300,1.595189208984375,-0.9607086181640625,-0.1312103271484375,0.0439453125
1772641306948234200,1.605234130859375,-0.9817657470703125,-0.1226959228515625,0.052947998046875
1772641306958279400,1.615279541015625,-1.005645751953125,-0.1159210205078125,0.06304931640625
1772641306968324400,1.625324462890625,-1.0320281982421875,-0.1178436279296875,0.074737548828125
1772641306978370300,1.635370361328125,-1.0490264892578125,-0.1337127685546875,0.0908660888671875
1772641306988415500,1.64541552734375,-1.0553741455078125,-0.1482391357421875,0.0998992919921875
1772641306998460400,1.65546044921875,-1.05950927734375,-0.152557373046875,0.097412109375
1772641307008506400,1.66550634765625,-1.0811004638671875,-0.155426025390625,0.091278076171875
1772641307018551300,1.67555126953125,-1.1125030517578125,-0.1616363525390625,0.083831787109375
1772641307028596500,1.685596435546875,-1.1316070556640625,-0.162200927734375,0.07647705078125
1772641307038642400,1.695642333984375,-1.1374053955078125,-0.1480712890625,0.0672454833984375
1772641307048687400,1.705687255859375,-1.1390533447265625,-0.1244354248046875,0.0543212890625
1772641307058732300,1.715732177734375,-1.136322021484375,-0.0924072265625,0.0386199951171875
1772641307068778200,1.7257783203125,-1.1399993896484375,-0.0513458251953125,0.0157012939453125
1772641307078823400,1.735823486328125,-1.1603546142578125,-0.0055694580078125,-0.0013427734375
1772641307088868400,1.745868408203125,-1.1904449462890625,0.03277587890625,-0.0050048828125
1772641307098913500,1.75591357421875,-1.221893310546875,0.0605926513671875,0.0007476806640625
1772641307108959500,1.76595947265625,-1.25689697265625,0.0874176025390625,0.007415771484375
1772641307119004200,1.776004150390625,-1.2820587158203125,0.1077880859375,0.0088958740234375
1772641307129049300,1.78604931640625,-1.2826385498046875,0.1203460693359375,0.0069427490234375
1772641307139095300,1.79609521484375,-1.2501220703125,0.124664306640625,-0.0051116943359375
1772641307149140500,1.806140380859375,-1.1934356689453125,0.1229248046875,-0.01263427734375
1772641307159185400,1.816185302734375,-1.1426239013671875,0.1037750244140625,-0.0046844482421875
1772641307169231400,1.8262314453125,-1.0780487060546875,0.079833984375,0.0034637451171875
1772641307179276500,1.836276611328125,-1.009857177734375,0.059173583984375,0.005279541015625
1772641307189321200,1.8463212890625,-0.9334716796875,0.0367584228515625,0.0074920654296875
1772641307199366400,1.856366455078125,-0.859405517578125,0.0154571533203125,0.007415771484375
1772641307209412400,1.866412353515625,-0.805267333984375,-0.0025482177734375,0.004669189453125
1772641307219457300,1.876457275390625,-0.77239990234375,-0.0154571533203125,0.0018463134765625
1772641307229502500,1.88650244140625,-0.7547149658203125,-0.0274658203125,0
1772641307239548400,1.89654833984375,-0.7542724609375,-0.0387420654296875,-0.000091552734375
1772641307249593300,1.90659326171875,-0.76165771484375,-0.045196533203125,-0.003173828125
1772641307259638300,1.91663818359375,-0.7674560546875,-0.048095703125,-0.011199951171875
1772641307269684200,1.926684326171875,-0.772308349609375,-0.0540771484375,-0.01806640625
1772641307279729400,1.9367294921875,-0.77459716796875,-0.0625762939453125,-0.02349853515625
1772641307289774300,1.9467744140625,-0.783233642578125,-0.0628204345703125,-0.02471923828125
1772641307299820500,1.956820556640625,-0.794708251953125,-0.0595855712890625,-0.0160369873046875
1772641307309865500,1.966865478515625,-0.812652587890625,-0.057098388671875,0.000335693359375
1772641307319910400,1.976910400390625,-0.8385467529296875,-0.0546417236328125,0.0210723876953125
1772641307329955300,1.986955322265625,-0.86279296875,-0.0454254150390625,0.03704833984375
1772641307340001300,1.997001220703125,-0.8900604248046875,-0.0325469970703125,0.0493927001953125
1772641307350046500,2.00704638671875,-0.926483154296875,-0.015533447265625,0.061981201171875
1772641307360091400,2.01709130859375,-0.957977294921875,-0.0012969970703125,0.07562255859375
1772641307370137300,2.027137451171875,-0.986602783203125,0.0125885009765625,0.089813232421875
1772641307380182300,2.037182373046875,-1.00994873046875,0.021881103515625,0.097503662109375
1772641307390227200,2.047227294921875,-1.022125244140625,0.0252532958984375,0.1010894775390625
1772641307400273400,2.0572734375,-1.0281524658203125,0.0212860107421875,0.099273681640625
1772641307410318300,2.067318359375,-1.030364990234375,0.0113525390625,0.0965423583984375
1772641307420363500,2.077363525390625,-1.02264404296875,-0.002777099609375,0.08782958984375
1772641307430408400,2.087408447265625,-1.0060882568359375,-0.021331787109375,0.07568359375
1772641307440454100,2.0974541015625,-0.9839630126953125,-0.040802001953125,0.0632781982421875
1772641307450499300,2.107499267578125,-0.96630859375,-0.0573272705078125,0.050567626953125
1772641307460544300,2.117544189453125,-0.9525909423828125,-0.0693817138671875,0.044189453125
1772641307470590500,2.127590576171875,-0.9333648681640625,-0.081573486328125,0.0411529541015625
1772641307480635400,2.137635498046875,-0.91851806640625,-0.0893707275390625,0.0406036376953125
1772641307490680600,2.1476806640625,-0.909271240234375,-0.096221923828125,0.03814697265625
1772641307500726500,2.1577265625,-0.9089508056640625,-0.0990142822265625,0.0352020263671875
1772641307510771200,2.167771240234375,-0.9203033447265625,-0.10003662109375,0.0338134765625
1772641307520816400,2.17781640625,-0.93194580078125,-0.10137939453125,0.0346527099609375
1772641307530862300,2.1878623046875,-0.9451446533203125,-0.099700927734375,0.03240966796875
1772641307540907300,2.1979072265625,-0.9581146240234375,-0.099822998046875,0.031219482421875
1772641307550952400,2.207952392578125,-0.9717864990234375,-0.1008453369140625,0.0315093994140625
1772641307560997000,2.2179970703125,-0.9814605712890625,-0.096282958984375,0.028167724609375
1772641307571043300,2.228043212890625,-0.9909820556640625,-0.0984649658203125,0.025787353515625
1772641307581088300,2.238088134765625,-0.995330810546875,-0.1056365966796875,0.0257110595703125
1772641307591133400,2.248133544921875,-0.99261474609375,-0.11065673828125,0.023712158203125
1772641307601179400,2.258179443359375,-0.9891510009765625,-0.1162567138671875,0.0211944580078125
1772641307611224300,2.268224365234375,-0.9927520751953125,-0.119354248046875,0.01953125
1772641307621269500,2.27826953125,-0.9954833984375,-0.1227264404296875,0.015380859375
1772641307631315500,2.2883154296875,-0.998321533203125,-0.1249542236328125,0.011871337890625
1772641307641360400,2.2983603515625,-1.000335693359375,-0.131561279296875,0.0128173828125
1772641307651405300,2.3084052734375,-0.9966278076171875,-0.135040283203125,0.0177001953125
1772641307661450500,2.318450439453125,-0.9901885986328125,-0.13848876953125,0.0206298828125
1772641307671496400,2.328496337890625,-0.985015869140625,-0.1461334228515625,0.0246734619140625
1772641307681541400,2.338541259765625,-0.9754486083984375,-0.1576080322265625,0.0243682861328125
1772641307691586300,2.34858642578125,-0.969940185546875,-0.1667938232421875,0.0225677490234375
1772641307701632300,2.35863232421875,-0.9698028564453125,-0.169342041015625,0.0203399658203125
1772641307711677400,2.368677490234375,-0.971466064453125,-0.168243408203125,0.02276611328125
1772641307721722400,2.378722412109375,-0.97412109375,-0.1646728515625,0.0287933349609375
1772641307731768300,2.388768310546875,-0.978973388671875,-0.1609039306640625,0.0343017578125
1772641307741813500,2.3988134765625,-0.9889068603515625,-0.1573333740234375,0.0416259765625
1772641307751858200,2.408858154296875,-0.9925079345703125,-0.1532440185546875,0.045135498046875
1772641307761904000,2.418904052734375,-1.0028228759765625,-0.1498565673828125,0.0518951416015625
1772641307771949300,2.42894921875,-1.010223388671875,-0.1413116455078125,0.0569000244140625
1772641307781994200,2.438994140625,-1.01416015625,-0.13140869140625,0.060516357421875
1772641307792039200,2.4490390625,-1.0279083251953125,-0.117828369140625,0.06292724609375
1772641307802085000,2.459085205078125,-1.046356201171875,-0.108001708984375,0.0671234130859375
1772641307812130300,2.46913037109375,-1.067291259765625,-0.10382080078125,0.0770416259765625
1772641307822175200,2.47917529296875,-1.073089599609375,-0.1042327880859375,0.0872039794921875
1772641307832221200,2.48922119140625,-1.0554962158203125,-0.106689453125,0.0939483642578125
1772641307842266400,2.499266357421875,-1.0418548583984375,-0.1019287109375,0.0934295654296875
1772641307852311000,2.50931103515625,-1.0409393310546875,-0.0950927734375,0.08984375
1772641307862357200,2.519357177734375,-1.04449462890625,-0.0926055908203125,0.0817718505859375
1772641307872402200,2.529402099609375,-1.0545806884765625,-0.0869293212890625,0.0674591064453125
1772641307882447400,2.539447265625,-1.074615478515625,-0.0653076171875,0.0465087890625
1772641307892493300,2.549493408203125,-1.0892486572265625,-0.0401458740234375,0.029296875
1772641307902538200,2.559538330078125,-1.104461669921875,-0.0223541259765625,0.018585205078125
1772641307912583400,2.56958349609375,-1.1218109130859375,-0.0137176513671875,0.010955810546875
1772641307922628000,2.579628173828125,-1.1370391845703125,-0.0059814453125,0.0045318603515625
1772641307932674000,2.589674072265625,-1.1442108154296875,-0.0021209716796875,-0.0036468505859375
1772641307942719200,2.59971923828125,-1.14752197265625,0.0000457763671875,-0.0073089599609375
1772641307952764200,2.60976416015625,-1.1385040283203125,-0.00531005859375,-0.0093231201171875
1772641307962810400,2.619810302734375,-1.117706298828125,-0.0152130126953125,-0.0081024169921875
1772641307972855300,2.629855224609375,-1.098785400390625,-0.0293426513671875,-0.003265380859375
1772641307982900200,2.639900146484375,-1.0713043212890625,-0.0451507568359375,-0.00048828125
1772641307992946200,2.6499462890625,-1.032196044921875,-0.06060791015625,-0.0048370361328125
1772641308002991000,2.6599912109375,-0.998138427734375,-0.0709991455078125,-0.010223388671875
1772641308013036300,2.670036376953125,-0.97845458984375,-0.0760650634765625,-0.0134124755859375
1772641308023081200,2.680081298828125,-0.96624755859375,-0.0782928466796875,-0.0127410888671875
1772641308033127400,2.69012744140625,-0.956817626953125,-0.0792388916015625,-0.006103515625
1772641308043172000,2.700172119140625,-0.9543914794921875,-0.0774688720703125,0.0054473876953125
1772641308053217300,2.71021728515625,-0.94146728515625,-0.07269287109375,0.01763916015625
1772641308063263200,2.72026318359375,-0.9233551025390625,-0.0672149658203125,0.0255126953125
1772641308073308200,2.73030810546875,-0.9083099365234375,-0.0634002685546875,0.0358428955078125
1772641308083353300,2.740353271484375,-0.899505615234375,-0.05621337890625,0.04705810546875
1772641308093399300,2.7503994140625,-0.8913726806640625,-0.046630859375,0.0605316162109375
1772641308103444200,2.7604443359375,-0.8865203857421875,-0.0381011962890625,0.0758514404296875
1772641308113489200,2.7704892578125,-0.881866455078125,-0.0277557373046875,0.0854644775390625
1772641308123534000,2.7805341796875,-0.88226318359375,-0.024139404296875,0.0955810546875
1772641308133580300,2.790580322265625,-0.884613037109375,-0.0201568603515625,0.1006927490234375
1772641308143625200,2.800625244140625,-0.8848419189453125,-0.012115478515625,0.1012725830078125
1772641308153670400,2.81067041015625,-0.8878631591796875,-0.0104217529296875,0.103607177734375
1772641308163716400,2.82071630859375,-0.8932342529296875,-0.0117645263671875,0.1058197021484375
1772641308173761000,2.830760986328125,-0.8999176025390625,-0.0104827880859375,0.1076202392578125
1772641308183806200,2.84080615234375,-0.9061279296875,-0.0052947998046875,0.11083984375
1772641308193852200,2.85085205078125,-0.911376953125,0.00152587890625,0.1086883544921875
1772641308203897300,2.8608974609375,-0.9243316650390625,0.0058746337890625,0.1105804443359375
1772641308213942300,2.8709423828125,-0.941070556640625,0.0110015869140625,0.1098785400390625
1772641308223988200,2.88098828125,-0.9625701904296875,0.0171966552734375,0.11077880859375
1772641308234033400,2.891033447265625,-0.9819183349609375,0.017333984375,0.112274169921875
1772641308244078000,2.901078125,-0.991363525390625,0.01727294921875,0.110931396484375
1772641308254123300,2.911123291015625,-0.9994659423828125,0.0100250244140625,0.1068267822265625
1772641308264169200,2.921169189453125,-1.00390625,0.001678466796875,0.09552001953125
1772641308274214100,2.931214111328125,-1.0067291259765625,-0.010467529296875,0.0799102783203125
1772641308284259300,2.94125927734375,-1.0107574462890625,-0.022430419921875,0.0650482177734375
1772641308294305300,2.95130517578125,-1.00384521484375,-0.033111572265625,0.0565643310546875
1772641308304350200,2.96135009765625,-0.9956207275390625,-0.0465240478515625,0.05316162109375
1772641308314395100,2.97139501953125,-0.9896697998046875,-0.05694580078125,0.0506439208984375
1772641308324441000,2.981441162109375,-0.9832763671875,-0.0682373046875,0.0484466552734375
1772641308334486300,2.991486328125,-0.9782257080078125,-0.077972412109375,0.0467071533203125
1772641308344531200,3.00153125,-0.974090576171875,-0.0874481201171875,0.0434417724609375
1772641308354577400,3.011577392578125,-0.969696044921875,-0.0926055908203125,0.0398101806640625
1772641308364622300,3.021622314453125,-0.9641571044921875,-0.095550537109375,0.0383148193359375
1772641308374667300,3.031667236328125,-0.9683380126953125,-0.0971527099609375,0.0360260009765625
1772641308384712200,3.041712158203125,-0.983062744140625,-0.0966033935546875,0.03399658203125
1772641308394758100,3.051758056640625,-0.998382568359375,-0.0906524658203125,0.035308837890625
1772641308404803300,3.06180322265625,-1.0119476318359375,-0.08502197265625,0.037384033203125
1772641308414848300,3.07184814453125,-1.0166778564453125,-0.0816497802734375,0.043426513671875
1772641308424894200,3.081894287109375,-1.0095672607421875,-0.081085205078125,0.0497283935546875
1772641308434939100,3.091939208984375,-0.9998321533203125,-0.0839691162109375,0.05462646484375
1772641308444984300,3.101984375,-0.995452880859375,-0.084442138671875,0.0577392578125
1772641308455030300,3.1120302734375,-0.9917144775390625,-0.087158203125,0.0567169189453125
1772641308465075200,3.1220751953125,-0.9868316650390625,-0.0899200439453125,0.05340576171875
1772641308475120400,3.132120361328125,-0.9796295166015625,-0.0932159423828125,0.05218505859375
1772641308485165000,3.1421650390625,-0.9686279296875,-0.097991943359375,0.0554962158203125
1772641308495211000,3.1522109375,-0.9605560302734375,-0.1085357666015625,0.0587310791015625
1772641308505256200,3.162256103515625,-0.9476776123046875,-0.1212615966796875,0.0611114501953125
1772641308515301000,3.172301025390625,-0.931732177734375,-0.1325225830078125,0.0600128173828125
1772641308525347300,3.182347412109375,-0.919769287109375,-0.1396942138671875,0.0546417236328125
1772641308535392300,3.192392333984375,-0.9084625244140625,-0.1453399658203125,0.04534912109375
1772641308545437400,3.2024375,-0.902801513671875,-0.1507568359375,0.04443359375
1772641308555483400,3.2124833984375,-0.9013671875,-0.1526641845703125,0.0500335693359375
1772641308565528000,3.222528076171875,-0.9090728759765625,-0.152618408203125,0.0563507080078125
1772641308575573200,3.2325732421875,-0.92132568359375,-0.152252197265625,0.0625762939453125
1772641308585619200,3.242619140625,-0.9345245361328125,-0.1493072509765625,0.0677490234375
1772641308595664400,3.252664306640625,-0.95281982421875,-0.14910888671875,0.0699462890625
1772641308605709300,3.262709228515625,-0.9653167724609375,-0.1519775390625,0.0702667236328125
1772641308615754200,3.272754150390625,-0.9772796630859375,-0.1579437255859375,0.0688323974609375
1772641308625800200,3.28280029296875,-0.9879302978515625,-0.1624603271484375,0.0646820068359375
1772641308635845000,3.29284521484375,-0.997955322265625,-0.164398193359375,0.0595855712890625
1772641308645890300,3.302890380859375,-1.0064849853515625,-0.1606903076171875,0.05401611328125
1772641308655936300,3.312936279296875,-1.0147247314453125,-0.1562652587890625,0.0549163818359375
1772641308665981200,3.322981201171875,-1.0191192626953125,-0.152130126953125,0.0568084716796875
1772641308676026400,3.3330263671875,-1.0231170654296875,-0.1458892822265625,0.062835693359375
1772641308686072300,3.343072265625,-1.0219879150390625,-0.1431121826171875,0.06903076171875
1772641308696117200,3.3531171875,-1.0114898681640625,-0.14056396484375,0.068145751953125
1772641308706162200,3.363162109375,-1.001708984375,-0.13787841796875,0.066864013671875
1772641308716207400,3.373207275390625,-0.9948272705078125,-0.1361083984375,0.0631866455078125
1772641308726253300,3.38325341796875,-0.9924163818359375,-0.136505126953125,0.0588531494140625
1772641308736298200,3.39329833984375,-0.994659423828125,-0.13470458984375,0.051788330078125
1772641308746343200,3.40334326171875,-1.00115966796875,-0.1339874267578125,0.0476226806640625
1772641308756388600,3.413388671875,-1.009307861328125,-0.1338348388671875,0.0430450439453125
1772641308766433800,3.423433837890625,-1.0168609619140625,-0.1357879638671875,0.03814697265625
1772641308776478700,3.433478759765625,-1.024688720703125,-0.1382904052734375,0.0289764404296875
1772641308786524700,3.443524658203125,-1.0318450927734375,-0.1410369873046875,0.0219268798828125
1772641308796569600,3.453569580078125,-1.0453338623046875,-0.155853271484375,0.02496337890625
1772641308806614500,3.463614501953125,-1.04498291015625,-0.180328369140625,0.03192138671875
1772641308816660700,3.47366064453125,-1.035186767578125,-0.1903228759765625,0.0316925048828125
1772641308826705700,3.48370556640625,-1.03045654296875,-0.1974639892578125,0.01470947265625
1772641308836750800,3.493750732421875,-1.03570556640625,-0.200164794921875,0.006256103515625
1772641308846795500,3.50379541015625,-1.038818359375,-0.205596923828125,0.0003814697265625
1772641308856841500,3.513841552734375,-1.0362396240234375,-0.1987152099609375,-0.0199127197265625
1772641308866886700,3.52388671875,-1.03375244140625,-0.1702728271484375,-0.05377197265625
1772641308876931600,3.533931640625,-1.057861328125,-0.1409912109375,-0.0838623046875
1772641308886977800,3.543977783203125,-1.0983428955078125,-0.109344482421875,-0.1006317138671875
1772641308897022700,3.554022705078125,-1.1429901123046875,-0.0754852294921875,-0.1025238037109375
1772641308907067600,3.564067626953125,-1.1759033203125,-0.0450897216796875,-0.09075927734375
1772641308917113600,3.574113525390625,-1.1869964599609375,-0.0212554931640625,-0.0743560791015625
1772641308927158500,3.584158447265625,-1.1786041259765625,-0.00347900390625,-0.064849853515625
1772641308937203700,3.59420361328125,-1.1583404541015625,0.009185791015625,-0.0586395263671875
1772641308947248600,3.60424853515625,-1.131805419921875,0.0123138427734375,-0.0540008544921875
1772641308957294600,3.614294677734375,-1.10076904296875,0.0072479248046875,-0.0483856201171875
1772641308967339800,3.62433984375,-1.0647125244140625,0.0030517578125,-0.0420684814453125
1772641308977384400,3.634384521484375,-1.031097412109375,-0.0003814697265625,-0.0356903076171875
1772641308987430700,3.6444306640625,-0.9971466064453125,-0.004302978515625,-0.0284576416015625
1772641308997475600,3.6544755859375,-0.9586639404296875,-0.0098114013671875,-0.0164031982421875
1772641309007520800,3.664520751953125,-0.9136199951171875,-0.0159454345703125,-0.00238037109375
1772641309017566700,3.674566650390625,-0.86810302734375,-0.0213470458984375,0.0057830810546875
1772641309027611600,3.684611572265625,-0.8340301513671875,-0.0257568359375,0.005340576171875
1772641309037656600,3.694656494140625,-0.8136138916015625,-0.0257415771484375,-0.0004119873046875
1772641309047701500,3.704701416015625,-0.8109130859375,-0.02490234375,-0.011749267578125
1772641309057747700,3.714747802734375,-0.822845458984375,-0.024810791015625,-0.031829833984375
1772641309067792600,3.724792724609375,-0.840179443359375,-0.0207061767578125,-0.0558013916015625
1772641309077837800,3.734837890625,-0.8541717529296875,-0.016876220703125,-0.0749359130859375
1772641309087883800,3.7448837890625,-0.8702392578125,-0.0179290771484375,-0.08709716796875
1772641309097928700,3.7549287109375,-0.883026123046875,-0.02069091796875,-0.0927581787109375
1772641309107973600,3.7649736328125,-0.8938140869140625,-0.0227508544921875,-0.097625732421875
1772641309118019600,3.77501953125,-0.904998779296875,-0.0247802734375,-0.0928192138671875
1772641309128064500,3.785064453125,-0.9170379638671875,-0.022979736328125,-0.08197021484375
1772641309138109700,3.795109619140625,-0.9315338134765625,-0.0206146240234375,-0.070159912109375
1772641309148155600,3.80515576171875,-0.95355224609375,-0.0118408203125,-0.057708740234375
1772641309158200800,3.815200927734375,-0.9843292236328125,-0.003173828125,-0.0482177734375
1772641309168245500,3.82524560546875,-1.0248870849609375,0,-0.04168701171875
1772641309178290700,3.835290771484375,-1.0667266845703125,-0.0033416748046875,-0.0371856689453125
1772641309188336600,3.845336669921875,-1.095947265625,-0.0152587890625,-0.0389862060546875
1772641309198381600,3.855381591796875,-1.0953521728515625,-0.0285491943359375,-0.0559539794921875
1772641309208426800,3.8654267578125,-1.0715789794921875,-0.04229736328125,-0.0806884765625
1772641309218472700,3.87547265625,-1.0421600341796875,-0.0611419677734375,-0.0989990234375
1772641309228518000,3.885517822265625,-1.0090789794921875,-0.08135986328125,-0.1025390625
1772641309238562600,3.8955625,-0.9785003662109375,-0.0976715087890625,-0.097625732421875
1772641309248608500,3.9056083984375,-0.9505157470703125,-0.107391357421875,-0.087066650390625
1772641309258653700,3.91565380859375,-0.9301605224609375,-0.11651611328125,-0.0755157470703125
1772641309268698600,3.92569873046875,-0.908599853515625,-0.1256103515625,-0.064788818359375
1772641309278743800,3.935743896484375,-0.9073028564453125,-0.11669921875,-0.0503997802734375
1772641309288789800,3.945789794921875,-0.915618896484375,-0.103668212890625,-0.0391387939453125
1772641309298834700,3.955834716796875,-0.9153289794921875,-0.0981903076171875,-0.0358428955078125
1772641309308879600,3.965879638671875,-0.9278564453125,-0.0923614501953125,-0.03643798828125
1772641309318925600,3.975925537109375,-0.93511962890625,-0.082366943359375,-0.0375518798828125
1772641309328970800,3.985970703125,-0.938751220703125,-0.0738372802734375,-0.0397796630859375
1772641309339015700,3.996015625,-0.9477691650390625,-0.0682830810546875,-0.0395660400390625
1772641309349061600,4.0060615234375,-0.9570465087890625,-0.065338134765625,-0.0333404541015625
1772641309359106600,4.0161064453125,-0.9664154052734375,-0.05853271484375,-0.024139404296875
1772641309369151500,4.0261513671875,-0.9801025390625,-0.056121826171875,-0.0163421630859375
1772641309379197700,4.03619775390625,-0.993072509765625,-0.0557098388671875,-0.009796142578125
1772641309389242600,4.04624267578125,-0.9997406005859375,-0.0598602294921875,-0.0059356689453125
1772641309399287800,4.056287841796875,-1.0047607421875,-0.062896728515625,-0.0032501220703125
1772641309409332700,4.066332763671875,-1.0068817138671875,-0.067779541015625,-0.003265380859375
1772641309419378700,4.076378662109375,-1.0109710693359375,-0.0780792236328125,-0.0057830810546875
1772641309429423600,4.086423583984375,-1.0145263671875,-0.0915374755859375,-0.008209228515625
1772641309439468500,4.096468505859375,-1.010589599609375,-0.105682373046875,-0.0085906982421875
1772641309449514800,4.1065146484375,-1.002410888671875,-0.115264892578125,-0.0110015869140625
1772641309459559700,4.1165595703125,-1.0019378662109375,-0.1267547607421875,-0.020172119140625
1772641309469604600,4.1266044921875,-0.9973297119140625,-0.1360626220703125,-0.0320892333984375
1772641309479650800,4.13665087890625,-0.9926910400390625,-0.144622802734375,-0.0417022705078125
1772641309489695500,4.146695556640625,-0.981048583984375,-0.15570068359375,-0.046234130859375
1772641309499740700,4.15674072265625,-0.9703826904296875,-0.1643524169921875,-0.0465545654296875
1772641309509785600,4.16678564453125,-0.961669921875,-0.17132568359375,-0.0453948974609375
1772641309519831600,4.17683154296875,-0.962371826171875,-0.175933837890625,-0.0424346923828125
1772641309529876700,4.186876708984375,-0.9661102294921875,-0.1776275634765625,-0.0398101806640625
1772641309539921700,4.196921630859375,-0.971343994140625,-0.177032470703125,-0.0402374267578125
1772641309549968000,4.2069677734375,-0.972747802734375,-0.17388916015625,-0.0401153564453125
1772641309560012500,4.217012451171875,-0.9775543212890625,-0.1660919189453125,-0.038055419921875
1772641309570057700,4.2270576171875,-0.9861297607421875,-0.158660888671875,-0.034759521484375
1772641309580103700,4.237103759765625,-0.9924774169921875,-0.1521148681640625,-0.0286102294921875
1772641309590148600,4.247148681640625,-0.9993438720703125,-0.1429901123046875,-0.0209503173828125
1772641309600193800,4.25719384765625,-1.001800537109375,-0.133392333984375,-0.0160980224609375
1772641309610239700,4.26723974609375,-1.0021209716796875,-0.123626708984375,-0.011810302734375
1772641309620284700,4.27728466796875,-1.00030517578125,-0.11322021484375,-0.0053558349609375
1772641309630329600,4.28732958984375,-0.998565673828125,-0.1077117919921875,-0.000885009765625
1772641309640374800,4.297374755859375,-0.9951629638671875,-0.1050872802734375,-0.001068115234375
1772641309650420700,4.307420654296875,-0.9951019287109375,-0.1033935546875,-0.0048980712890625
1772641309660465700,4.317465576171875,-0.99560546875,-0.104583740234375,-0.0061798095703125
1772641309670510800,4.3275107421875,-0.9963836669921875,-0.1121978759765625,-0.0039215087890625
1772641309680556500,4.337556640625,-1.0013580322265625,-0.1258392333984375,0.0030670166015625
1772641309690601500,4.3476015625,-0.9996185302734375,-0.1446075439453125,0.004730224609375
1772641309700646700,4.357646728515625,-0.996368408203125,-0.1578826904296875,0.0012359619140625
1772641309710692600,4.367692626953125,-1.0020294189453125,-0.1578216552734375,-0.00537109375
1772641309720737800,4.37773779296875,-1.0199432373046875,-0.1610260009765625,-0.011383056640625
1772641309730782700,4.38778271484375,-1.0428009033203125,-0.162384033203125,-0.0160369873046875
1772641309740828700,4.39782861328125,-1.0604248046875,-0.1533050537109375,-0.023193359375
1772641309750874000,4.4078740234375,-1.069915771484375,-0.13812255859375,-0.02947998046875
1772641309760919000,4.4179189453125,-1.079132080078125,-0.1153564453125,-0.030426025390625
1772641309770964200,4.427964111328125,-1.091278076171875,-0.089813232421875,-0.0268402099609375
1772641309781010000,4.438010009765625,-1.104522705078125,-0.07086181640625,-0.0155792236328125
1772641309791054800,4.448054931640625,-1.1115875244140625,-0.0432281494140625,-0.0133209228515625
1772641309801100000,4.45810009765625,-1.116455078125,-0.0220794677734375,-0.008697509765625
1772641309811146000,4.46814599609375,-1.1197967529296875,-0.0140838623046875,0.0013580322265625
1772641309821191200,4.478191162109375,-1.1136016845703125,-0.0048980712890625,0.0092315673828125
1772641309831236000,4.488236083984375,-1.0966644287109375,-0.0013427734375,0.013427734375
1772641309841282000,4.498281982421875,-1.0773162841796875,-0.0001373291015625,0.01666259765625
1772641309851327000,4.508326904296875,-1.0619354248046875,0.0013275146484375,0.017364501953125
1772641309861372000,4.518371826171875,-1.04779052734375,0.003448486328125,0.0147705078125
1772641309871417000,4.5284169921875,-1.0355987548828125,0.003509521484375,0.014068603515625
1772641309881463000,4.538463134765625,-1.0247955322265625,-0.0015411376953125,0.013916015625
1772641309891508200,4.54850830078125,-1.009124755859375,-0.0095977783203125,0.0110015869140625
1772641309901553000,4.558552978515625,-0.98809814453125,-0.0173797607421875,0.0071563720703125
1772641309911598800,4.568598876953125,-0.9652862548828125,-0.0236053466796875,0.0005035400390625
1772641309921644000,4.57864404296875,-0.9413909912109375,-0.0293426513671875,-0.0044708251953125
1772641309931689000,4.58868896484375,-0.9204254150390625,-0.035003662109375,-0.0057525634765625
1772641309941735000,4.59873486328125,-0.9006500244140625,-0.044677734375,-0.001678466796875
1772641309951780000,4.608780029296875,-0.882720947265625,-0.0552215576171875,0.004852294921875
1772641309961825000,4.618824951171875,-0.8652191162109375,-0.06298828125,0.0087432861328125
1772641309971870000,4.628869873046875,-0.8475799560546875,-0.069732666015625,0.007965087890625
1772641309981916000,4.638916015625,-0.829803466796875,-0.0756683349609375,0.0036773681640625
1772641309991961000,4.648961181640625,-0.8217620849609375,-0.0808868408203125,0.0012054443359375
1772641310002006000,4.659006103515625,-0.8189544677734375,-0.0820770263671875,-0.0040283203125
1772641310012052000,4.669052001953125,-0.8261260986328125,-0.0810546875,-0.0057830810546875
1772641310022097200,4.67909716796875,-0.837158203125,-0.0775604248046875,-0.0019073486328125
1772641310032141800,4.689141845703125,-0.845550537109375,-0.0716094970703125,0.007049560546875
1772641310042188000,4.69918798828125,-0.8530426025390625,-0.063690185546875,0.014007568359375
1772641310052233000,4.70923291015625,-0.856353759765625,-0.055877685546875,0.023223876953125
1772641310062278100,4.719278076171875,-0.8569183349609375,-0.0461578369140625,0.0323486328125
1772641310072324000,4.729323974609375,-0.8683013916015625,-0.037811279296875,0.0389862060546875
1772641310082369000,4.739369140625,-0.89215087890625,-0.0330963134765625,0.04345703125
1772641310092414200,4.749414306640625,-0.9214019775390625,-0.0301666259765625,0.0406036376953125
1772641310102459000,4.759458984375,-0.9503326416015625,-0.030975341796875,0.03643798828125
1772641310112504800,4.7695048828125,-0.97113037109375,-0.0320892333984375,0.03167724609375
1772641310122550000,4.779550048828125,-0.991912841796875,-0.0391082763671875,0.0265960693359375
1772641310132595000,4.789594970703125,-1.010162353515625,-0.03460693359375,0.010040283203125
1772641310142641200,4.79964111328125,-1.028411865234375,-0.0384674072265625,-0.0023345947265625
1772641310152686000,4.80968603515625,-1.04095458984375,-0.0413818359375,-0.01422119140625
1772641310162731000,4.81973095703125,-1.0538482666015625,-0.0454254150390625,-0.02166748046875
1772641310172777000,4.82977685546875,-1.0648193359375,-0.0504302978515625,-0.0239715576171875
1772641310182822000,4.83982177734375,-1.0718536376953125,-0.055511474609375,-0.0256500244140625
1772641310192867000,4.8498671875,-1.0709686279296875,-0.0621795654296875,-0.0230560302734375
1772641310202912000,4.859912109375,-1.0599517822265625,-0.06658935546875,-0.0209808349609375
1772641310212958200,4.869958251953125,-1.0464630126953125,-0.0716552734375,-0.0209808349609375
1772641310223003000,4.8800029296875,-1.0305023193359375,-0.07745361328125,-0.01904296875
1772641310233048000,4.890048095703125,-1.014312744140625,-0.0828094482421875,-0.015380859375
1772641310243094000,4.900093994140625,-1.0012359619140625,-0.08807373046875,-0.013458251953125
1772641310253139000,4.910138916015625,-0.987152099609375,-0.089874267578125,-0.0074615478515625
1772641310263184100,4.92018408203125,-0.9755096435546875,-0.0941925048828125,-0.0013427734375
1772641310273230000,4.93022998046875,-0.9668426513671875,-0.0945281982421875,0.0048065185546875
1772641310283275000,4.94027490234375,-0.9593658447265625,-0.0935821533203125,0.011077880859375
1772641310293320000,4.95031982421875,-0.9576263427734375,-0.0948333740234375,0.016357421875
1772641310303366000,4.960365966796875,-0.9575653076171875,-0.0947113037109375,0.0204010009765625
1772641310313411000,4.9704111328125,-0.96923828125,-0.0945587158203125,0.0240478515625
1772641310323456000,4.9804560546875,-0.982452392578125,-0.0955810546875,0.02264404296875
1772641310333501200,4.990501220703125,-0.99481201171875,-0.0952301025390625,0.0170440673828125
1772641310343547100,5.000547119140625,-1.005523681640625,-0.092742919921875,0.009033203125
1772641310353591800,5.010591796875,-1.005462646484375,-0.090057373046875,0.0045166015625
1772641310363637000,5.020636962890625,-1.0101776123046875,-0.0892486572265625,0.0058135986328125
1772641310373683000,5.030682861328125,-1.0142364501953125,-0.0898895263671875,0.0113525390625
1772641310383728000,5.04072802734375,-1.0095062255859375,-0.094482421875,0.027740478515625
1772641310393773000,5.05077294921875,-1.0016937255859375,-0.1025390625,0.04931640625
1772641310403819000,5.060819091796875,-0.985321044921875,-0.1085968017578125,0.068756103515625
1772641310413864200,5.0708642578125,-0.9747161865234375,-0.1128082275390625,0.0769805908203125
1772641310423908900,5.080908935546875,-0.9696502685546875,-0.11431884765625,0.08282470703125
1772641310433955000,5.090955078125,-0.968292236328125,-0.1183319091796875,0.0823822021484375
1772641310444000000,5.101,-0.9681549072265625,-0.1183319091796875,0.0798187255859375
1772641310454045200,5.111045166015625,-0.9714202880859375,-0.1178131103515625,0.075164794921875
1772641310464090000,5.121090087890625,-0.9745330810546875,-0.114959716796875,0.0719757080078125
1772641310474136000,5.131135986328125,-0.973602294921875,-0.1134033203125,0.0692596435546875
1772641310484181000,5.141180908203125,-0.970550537109375,-0.1113433837890625,0.0653228759765625
1772641310494226000,5.151225830078125,-0.9704132080078125,-0.11126708984375,0.0603790283203125
1772641310504272000,5.16127197265625,-0.9733428955078125,-0.1104888916015625,0.05377197265625
1772641310514317000,5.171317138671875,-0.9819793701171875,-0.110260009765625,0.048583984375
1772641310524362000,5.181362060546875,-0.999053955078125,-0.1064605712890625,0.04449462890625
1772641310534408200,5.191408203125,-1.02276611328125,-0.1018829345703125,0.038330078125
1772641310544453000,5.201453125,-1.048004150390625,-0.1009063720703125,0.0347747802734375
1772641310554498000,5.211498046875,-1.06591796875,-0.10235595703125,0.0299072265625
1772641310564543000,5.22154296875,-1.075286865234375,-0.103851318359375,0.01983642578125
1772641310574589000,5.2315888671875,-1.0685272216796875,-0.1055908203125,0.0106964111328125
1772641310584634000,5.241634033203125,-1.057769775390625,-0.114044189453125,0.005279541015625
1772641310594679000,5.251678955078125,-1.053558349609375,-0.1275482177734375,0.0053253173828125
1772641310604725200,5.261725341796875,-1.0562896728515625,-0.1473236083984375,0.009552001953125
1772641310614770000,5.27177001953125,-1.0560150146484375,-0.168914794921875,0.0024261474609375
1772641310624815000,5.281815185546875,-1.0549163818359375,-0.1751861572265625,-0.010772705078125
1772641310634861000,5.291861083984375,-1.057098388671875,-0.1814727783203125,-0.0120849609375
1772641310644906000,5.301906005859375,-1.0614166259765625,-0.1941070556640625,-0.0012969970703125
1772641310654951200,5.311951171875,-1.0527191162109375,-0.186370849609375,-0.003143310546875
1772641310664996000,5.32199609375,-1.0360870361328125,-0.1556396484375,-0.02105712890625
1772641310675041800,5.332041748046875,-1.030029296875,-0.1281890869140625,-0.035858154296875
1772641310685087000,5.3420869140625,-1.036651611328125,-0.105133056640625,-0.0471038818359375
1772641310695132000,5.3521318359375,-1.0525360107421875,-0.08087158203125,-0.0511322021484375
1772641310705178000,5.36217822265625,-1.0719757080078125,-0.0536041259765625,-0.03955078125
1772641310715223000,5.37222314453125,-1.0870361328125,-0.033050537109375,-0.0257720947265625
1772641310725268200,5.382268310546875,-1.1071014404296875,-0.02081298828125,-0.0184783935546875
1772641310735314200,5.392314208984375,-1.118743896484375,-0.011962890625,-0.0240478515625
1772641310745358800,5.40235888671875,-1.1268768310546875,-0.0151214599609375,-0.0331573486328125
1772641310755404500,5.412404541015625,-1.117706298828125,-0.0197296142578125,-0.05621337890625
1772641310765450500,5.422450439453125,-1.104766845703125,-0.0354156494140625,-0.0738677978515625
1772641310775495400,5.432495361328125,-1.07659912109375,-0.05499267578125,-0.0815887451171875
1772641310785540600,5.44254052734375,-1.0360565185546875,-0.066741943359375,-0.0807647705078125
1772641310795585300,5.452585205078125,-0.988677978515625,-0.075958251953125,-0.066650390625
1772641310805631500,5.462631591796875,-0.9347991943359375,-0.0821685791015625,-0.0543060302734375
1772641310815676400,5.472676513671875,-0.88983154296875,-0.089263916015625,-0.043212890625
1772641310825721600,5.4827216796875,-0.8499908447265625,-0.09613037109375,-0.03192138671875
1772641310835767600,5.492767578125,-0.8143157958984375,-0.09454345703125,-0.0240631103515625
1772641310845812500,5.5028125,-0.7950286865234375,-0.090789794921875,-0.024658203125
1772641310855857400,5.512857421875,-0.7933807373046875,-0.0905609130859375,-0.02825927734375
1772641310865903400,5.5229033203125,-0.7923126220703125,-0.09735107421875,-0.034423828125
1772641310875948500,5.532948486328125,-0.8011932373046875,-0.1043853759765625,-0.0455322265625
1772641310885993500,5.542993408203125,-0.8121490478515625,-0.1077423095703125,-0.0599517822265625
1772641310896038700,5.55303857421875,-0.812255859375,-0.11090087890625,-0.071685791015625
1772641310906084600,5.563084716796875,-0.8124237060546875,-0.111541748046875,-0.080841064453125
1772641310916129500,5.573129638671875,-0.8191375732421875,-0.1076202392578125,-0.0872650146484375
1772641310926174500,5.583174560546875,-0.83160400390625,-0.0983123779296875,-0.0888671875
1772641310936220400,5.593220458984375,-0.8497467041015625,-0.080108642578125,-0.0830078125
1772641310946265300,5.603265380859375,-0.875213623046875,-0.0550689697265625,-0.0724639892578125
1772641310956310500,5.613310546875,-0.910736083984375,-0.031707763671875,-0.06231689453125
1772641310966356500,5.6233564453125,-0.9526519775390625,-0.0135345458984375,-0.04949951171875
1772641310976401700,5.633401611328125,-1.0084991455078125,-0.0014801025390625,-0.0370025634765625
1772641310986446300,5.6434462890625,-1.0528106689453125,0.0074005126953125,-0.0256805419921875
1772641310996491500,5.653491455078125,-1.0792694091796875,0.0099029541015625,-0.0146636962890625
1772641311006537500,5.663537353515625,-1.0917510986328125,0.0036163330078125,-0.0149688720703125
1772641311016582400,5.67358251953125,-1.0833282470703125,-0.0111236572265625,-0.0246429443359375
1772641311026627600,5.683627685546875,-1.063323974609375,-0.02960205078125,-0.032928466796875
1772641311036673500,5.693673583984375,-1.035675048828125,-0.0490570068359375,-0.0367584228515625
1772641311046718700,5.70371875,-1.00079345703125,-0.073883056640625,-0.0336456298828125
1772641311056763400,5.713763427734375,-0.9721221923828125,-0.095733642578125,-0.0298004150390625
1772641311066809300,5.723809326171875,-0.9337921142578125,-0.1123504638671875,-0.0264739990234375
1772641311076854500,5.7338544921875,-0.904266357421875,-0.120025634765625,-0.025238037109375
1772641311086899500,5.7438994140625,-0.90069580078125,-0.1211700439453125,-0.02764892578125
1772641311096945400,5.7539453125,-0.912994384765625,-0.115081787109375,-0.0281829833984375
1772641311106990600,5.763990478515625,-0.937591552734375,-0.108856201171875,-0.0251922607421875
1772641311117035300,5.77403515625,-0.95965576171875,-0.1001129150390625,-0.0227203369140625
1772641311127080400,5.78408056640625,-0.9748077392578125,-0.0877227783203125,-0.020660400390625
1772641311137126400,5.79412646484375,-0.9794464111328125,-0.0793304443359375,-0.0118408203125
1772641311147171600,5.804171630859375,-0.986175537109375,-0.0726470947265625,-0.004913330078125
1772641311157216500,5.814216552734375,-0.9963226318359375,-0.06591796875,0.004486083984375
1772641311167262500,5.824262451171875,-0.9998779296875,-0.06317138671875,0.016082763671875
1772641311177307600,5.8343076171875,-1.00537109375,-0.0618743896484375,0.0277252197265625
1772641311187352300,5.844352294921875,-1.005645751953125,-0.06219482421875,0.0364837646484375
1772641311197398500,5.8543984375,-1.002716064453125,-0.0666656494140625,0.0431976318359375
1772641311207443500,5.864443359375,-1.0020751953125,-0.073577880859375,0.0441436767578125
1772641311217488600,5.874488525390625,-1.000579833984375,-0.08111572265625,0.0394744873046875
1772641311227533600,5.884533447265625,-1.00054931640625,-0.091278076171875,0.034881591796875
1772641311237579500,5.89457958984375,-1.0005645751953125,-0.1019134521484375,0.0313262939453125
1772641311247624400,5.90462451171875,-1.001953125,-0.111968994140625,0.0298004150390625
1772641311257669400,5.91466943359375,-1.004791259765625,-0.1185302734375,0.028564453125
1772641311267715300,5.92471533203125,-1.005950927734375,-0.1236419677734375,0.0284576416015625
1772641311277760500,5.934760498046875,-1.001617431640625,-0.1304779052734375,0.0277252197265625
1772641311287805400,5.944805419921875,-1.00091552734375,-0.137451171875,0.0223541259765625
1772641311297851600,5.9548515625,-0.9978790283203125,-0.1400299072265625,0.0173492431640625
1772641311307896300,5.964896240234375,-0.996917724609375,-0.1407623291015625,0.012420654296875
1772641311317941500,5.97494140625,-0.998687744140625,-0.140289306640625,0.0115814208984375
1772641311327987500,5.984987548828125,-0.9997100830078125,-0.1383514404296875,0.0137939453125
1772641311338032400,5.995032470703125,-1.0011138916015625,-0.134796142578125,0.0157470703125
1772641311348077600,6.00507763671875,-1.00677490234375,-0.12921142578125,0.01904296875
1772641311358122500,6.01512255859375,-1.0136566162109375,-0.1218719482421875,0.0216522216796875
1772641311368168700,6.025168701171875,-1.0177154541015625,-0.11761474609375,0.02423095703125
1772641311378213400,6.03521337890625,-1.017120361328125,-0.1161956787109375,0.02728271484375
1772641311388258600,6.045258544921875,-1.0167694091796875,-0.11407470703125,0.025726318359375
1772641311398304500,6.055304443359375,-1.020721435546875,-0.111328125,0.0179290771484375
1772641311408349400,6.065349365234375,-1.030487060546875,-0.1102142333984375,0.0153350830078125
1772641311418394600,6.07539453125,-1.0362548828125,-0.111419677734375,0.0126953125
1772641311428440600,6.085440673828125,-1.0401611328125,-0.1126556396484375,0.016021728515625
1772641311438485500,6.095485595703125,-1.0347442626953125,-0.1187744140625,0.0257720947265625
1772641311448530400,6.105530517578125,-1.0303802490234375,-0.130767822265625,0.0347900390625
1772641311458575400,6.115575439453125,-1.027679443359375,-0.1440277099609375,0.043487548828125
1772641311468621600,6.12562158203125,-1.027557373046875,-0.1536407470703125,0.039459228515625
1772641311478666500,6.13566650390625,-1.03753662109375,-0.1539154052734375,0.0330810546875
1772641311488711700,6.145711669921875,-1.05316162109375,-0.1483612060546875,0.0323486328125
1772641311498757600,6.155757568359375,-1.0716705322265625,-0.1468658447265625,0.0391387939453125
1772641311508802300,6.16580224609375,-1.08465576171875,-0.1418609619140625,0.0467987060546875
1772641311518847500,6.175847412109375,-1.085723876953125,-0.1343841552734375,0.054107666015625
1772641311528893400,6.1858935546875,-1.0778961181640625,-0.1257171630859375,0.0582733154296875
1772641311538938600,6.195938720703125,-1.0675201416015625,-0.1196136474609375,0.0623016357421875
1772641311548983600,6.205983642578125,-1.0534820556640625,-0.1141357421875,0.064666748046875
1772641311559028500,6.216028564453125,-1.0368194580078125,-0.1006317138671875,0.057861328125
1772641311569074400,6.226074462890625,-1.02899169921875,-0.0832977294921875,0.04656982421875
1772641311579119400,6.236119384765625,-1.03619384765625,-0.06793212890625,0.0372314453125
1772641311589164500,6.24616455078125,-1.051513671875,-0.0417633056640625,0.028839111328125
1772641311599210500,6.25621044921875,-1.077423095703125,-0.0165557861328125,0.0277252197265625
1772641311609255700,6.266255615234375,-1.1012115478515625,0.004180908203125,0.0330963134765625
1772641311619300600,6.276300537109375,-1.1129150390625,0.01580810546875,0.044342041015625
1772641311629346300,6.28634619140625,-1.1149749755859375,0.0204620361328125,0.055572509765625
1772641311639391500,6.2963916015625,-1.1024169921875,0.0226898193359375,0.063201904296875
1772641311649436400,6.3064365234375,-1.0749359130859375,0.02239990234375,0.063720703125
1772641311659482400,6.316482421875,-1.0420684814453125,0.0214996337890625,0.058563232421875
1772641311669527600,6.326527587890625,-1.0075836181640625,0.01177978515625,0.049713134765625
1772641311679572500,6.336572509765625,-0.976409912109375,-0.0021820068359375,0.0442657470703125
1772641311689617400,6.346617431640625,-0.9436187744140625,-0.0174713134765625,0.043182373046875
1772641311699663400,6.356663330078125,-0.912261962890625,-0.0326385498046875,0.0457611083984375
1772641311709708500,6.36670849609375,-0.8704681396484375,-0.0464935302734375,0.0516510009765625
1772641311719753500,6.37675341796875,-0.838104248046875,-0.061187744140625,0.0605926513671875
1772641311729799400,6.38679931640625,-0.813140869140625,-0.07269287109375,0.0699310302734375
1772641311739844600,6.3968447265625,-0.7897186279296875,-0.0834197998046875,0.079559326171875
1772641311749889300,6.40688916015625,-0.775543212890625,-0.09405517578125,0.0901947021484375
1772641311759935200,6.416935302734375,-0.771453857421875,-0.1047515869140625,0.09228515625
1772641311769980200,6.426980224609375,-0.774444580078125,-0.11248779296875,0.0891571044921875
1772641311780025000,6.437025146484375,-0.7856292724609375,-0.1151885986328125,0.084625244140625
1772641311790070000,6.447070068359375,-0.8072509765625,-0.107513427734375,0.0703277587890625
1772641311800116000,6.457115966796875,-0.8310394287109375,-0.09686279296875,0.0612030029296875
1772641311810161200,6.4671611328125,-0.8518829345703125,-0.0857696533203125,0.05792236328125
1772641311820206000,6.4772060546875,-0.8721466064453125,-0.0699920654296875,0.058074951171875
1772641311830252300,6.487252197265625,-0.8905792236328125,-0.0523681640625,0.060546875
1772641311840297200,6.497297119140625,-0.9156036376953125,-0.039337158203125,0.0679931640625
1772641311850342100,6.507342041015625,-0.9407501220703125,-0.0310821533203125,0.07977294921875
1772641311860388000,6.51738818359375,-0.9633941650390625,-0.0256500244140625,0.0878753662109375
1772641311870433000,6.52743310546875,-0.9836883544921875,-0.0212249755859375,0.0912322998046875
1772641311880478200,6.537478271484375,-1.003509521484375,-0.018341064453125,0.09088134765625
1772641311890523100,6.547523193359375,-1.0337371826171875,-0.0235137939453125,0.088653564453125
1772641311900569000,6.557569091796875,-1.0592041015625,-0.0327911376953125,0.0785675048828125
1772641311910614000,6.567614013671875,-1.0730438232421875,-0.0445556640625,0.0656890869140625
1772641311920659000,6.577658935546875,-1.060791015625,-0.06060791015625,0.0474090576171875
1772641311930705200,6.587705078125,-1.035919189453125,-0.0750885009765625,0.0294952392578125
1772641311940750000,6.59775,-1.020294189453125,-0.08917236328125,0.018280029296875
1772641311950795300,6.607795166015625,-1.0134735107421875,-0.1014862060546875,0.0121612548828125
1772641311960841200,6.61784130859375,-1.0098419189453125,-0.110137939453125,0.007568359375
1772641311970886100,6.62788623046875,-1.00726318359375,-0.1162872314453125,0.0017242431640625
1772641311980931000,6.63793115234375,-1.000946044921875,-0.122650146484375,-0.0037841796875
1772641311990976000,6.64797607421875,-0.9925689697265625,-0.1279449462890625,-0.0042877197265625
1772641312001022200,6.658022216796875,-0.9855194091796875,-0.1324310302734375,-0.0040740966796875
1772641312011067100,6.668067138671875,-0.9791259765625,-0.1360321044921875,-0.000091552734375
1772641312021112300,6.6781123046875,-0.97381591796875,-0.1405029296875,0.00494384765625
1772641312031158300,6.688158203125,-0.96722412109375,-0.1432952880859375,0.0097198486328125
1772641312041203000,6.698202880859375,-0.96368408203125,-0.1431732177734375,0.01416015625
1772641312051248000,6.708248046875,-0.955657958984375,-0.1443939208984375,0.01934814453125
1772641312061294000,6.718294189453125,-0.956390380859375,-0.1446533203125,0.0309906005859375
1772641312071339000,6.728339111328125,-0.95556640625,-0.1383819580078125,0.038299560546875
1772641312081384200,6.73838427734375,-0.959625244140625,-0.1303253173828125,0.04010009765625
1772641312091430100,6.74843017578125,-0.9676666259765625,-0.126007080078125,0.0433807373046875
1772641312101475000,6.75847509765625,-0.972137451171875,-0.1236724853515625,0.046051025390625
1772641312111520000,6.76852001953125,-0.975799560546875,-0.1228790283203125,0.054656982421875
1772641312121565200,6.778565185546875,-0.9850921630859375,-0.1221466064453125,0.057861328125
1772641312131611100,6.788611083984375,-0.9998321533203125,-0.1214141845703125,0.053863525390625
1772641312141656000,6.798656005859375,-1.00970458984375,-0.1240692138671875,0.049530029296875
1772641312151701200,6.808701171875,-1.0089111328125,-0.1311798095703125,0.0495758056640625
1772641312161747200,6.818747314453125,-0.99615478515625,-0.1414794921875,0.0494842529296875
1772641312171792100,6.828792236328125,-0.9873504638671875,-0.15582275390625,0.0460052490234375
1772641312181837000,6.838837158203125,-0.986907958984375,-0.1688385009765625,0.0432891845703125
1772641312191883000,6.848883056640625,-0.9861297607421875,-0.176849365234375,0.042236328125
1772641312201928200,6.85892822265625,-0.98486328125,-0.1813507080078125,0.0412139892578125
1772641312211973000,6.86897314453125,-0.985687255859375,-0.18408203125,0.04290771484375
1772641312222018000,6.87901806640625,-0.9840087890625,-0.181396484375,0.048980712890625
1772641312232064000,6.88906396484375,-0.983184814453125,-0.17779541015625,0.0579681396484375
1772641312242109200,6.899109130859375,-0.9892578125,-0.17083740234375,0.066619873046875
1772641312252154000,6.909154052734375,-0.996337890625,-0.1645355224609375,0.0734405517578125
1772641312262200000,6.919199951171875,-0.998992919921875,-0.1570892333984375,0.0770416259765625
1772641312272245200,6.929245361328125,-0.99713134765625,-0.152679443359375,0.0791015625
1772641312282290200,6.939290283203125,-0.995208740234375,-0.1534881591796875,0.0755462646484375
1772641312292336000,6.949336181640625,-0.996124267578125,-0.154144287109375,0.069732666015625
1772641312302381000,6.959381103515625,-1.000335693359375,-0.152984619140625,0.061248779296875
1772641312312426000,6.969426025390625,-1.0066070556640625,-0.1507568359375,0.0533905029296875
1772641312322471200,6.97947119140625,-1.019622802734375,-0.1514129638671875,0.0451202392578125
1772641312332517000,6.98951708984375,-1.043121337890625,-0.1544342041015625,0.039276123046875
1772641312342562300,6.999562255859375,-1.0541534423828125,-0.1683502197265625,0.0453033447265625
1772641312352607000,7.00960693359375,-1.053131103515625,-0.1879730224609375,0.047821044921875
1772641312362653000,7.01965283203125,-1.0440673828125,-0.1942596435546875,0.0382232666015625
1772641312372698000,7.029697998046875,-1.0453033447265625,-0.1949310302734375,0.0255584716796875
1772641312382743000,7.039742919921875,-1.058502197265625,-0.1903839111328125,0.0127410888671875
1772641312392789200,7.049789306640625,-1.075927734375,-0.1837921142578125,0.003936767578125
1772641312402834200,7.059834228515625,-1.0850830078125,-0.1641998291015625,-0.0063629150390625
1772641312412879000,7.069879150390625,-1.09722900390625,-0.1327056884765625,-0.0183258056640625
1772641312422924000,7.079924072265625,-1.1052398681640625,-0.1028289794921875,-0.0195770263671875
1772641312432970000,7.089969970703125,-1.1048431396484375,-0.0846405029296875,-0.0055694580078125
1772641312443015200,7.10001513671875,-1.0943603515625,-0.0711669921875,0.0154876708984375
1772641312453060000,7.11006005859375,-1.0709991455078125,-0.0622711181640625,0.0254669189453125
1772641312463106000,7.12010595703125,-1.048309326171875,-0.057220458984375,0.02288818359375
1772641312473151200,7.130151123046875,-1.02392578125,-0.0564727783203125,0.014434814453125
1772641312483196000,7.14019580078125,-1.0140838623046875,-0.060089111328125,0.0028228759765625
1772641312493242000,7.1502421875,-1.013153076171875,-0.06243896484375,-0.0110931396484375
1772641312503287000,7.160287109375,-1.0081329345703125,-0.0582427978515625,-0.0235595703125
1772641312513332200,7.170332275390625,-1.00201416015625,-0.050048828125,-0.030548095703125
1772641312523378200,7.180378173828125,-0.9867401123046875,-0.0455474853515625,-0.0278778076171875
1772641312533423000,7.190423095703125,-0.9672698974609375,-0.041656494140625,-0.017333984375
1772641312543468000,7.200468017578125,-0.9506683349609375,-0.038055419921875,-0.00677490234375
1772641312553513000,7.210512939453125,-0.9303131103515625,-0.036041259765625,0.000244140625
1772641312563559200,7.22055908203125,-0.909393310546875,-0.034454345703125,0.005828857421875
1772641312573604000,7.23060400390625,-0.8973541259765625,-0.0254058837890625,0.018829345703125
1772641312583649300,7.240649169921875,-0.8907318115234375,-0.029510498046875,0.0251312255859375
1772641312593695200,7.2506953125,-0.885833740234375,-0.0324859619140625,0.02740478515625
1772641312603740200,7.260740234375,-0.882598876953125,-0.034698486328125,0.02679443359375
1772641312613785000,7.27078515625,-0.87994384765625,-0.0393218994140625,0.0247650146484375
1772641312623831000,7.2808310546875,-0.8814239501953125,-0.044708251953125,0.0280303955078125
1772641312633876000,7.2908759765625,-0.8889617919921875,-0.046295166015625,0.031158447265625
1772641312643921200,7.300921142578125,-0.8950653076171875,-0.0433349609375,0.0334014892578125
1772641312653966000,7.310966064453125,-0.9019012451171875,-0.0374908447265625,0.029754638671875
1772641312664012300,7.32101220703125,-0.9089202880859375,-0.0333709716796875,0.0236358642578125
1772641312674057000,7.331056884765625,-0.918060302734375,-0.0292205810546875,0.0218658447265625
1772641312684102100,7.34110205078125,-0.9189910888671875,-0.022552490234375,0.019256591796875
1772641312694148000,7.351148193359375,-0.91900634765625,-0.016082763671875,0.0158233642578125
1772641312704193000,7.361193115234375,-0.92413330078125,-0.009552001953125,0.010772705078125
1772641312714238200,7.37123828125,-0.9360504150390625,-0.0059814453125,0.0089874267578125
1772641312724284200,7.3812841796875,-0.9554595947265625,0.012725830078125,-0.0141754150390625
1772641312734329300,7.391329345703125,-0.9875030517578125,0.0099945068359375,-0.0188751220703125
1772641312744374000,7.4013740234375,-1.011810302734375,0.0028228759765625,-0.0234375
1772641312754419000,7.4114189453125,-1.0283355712890625,-0.00042724609375,-0.0304107666015625
1772641312764465000,7.42146484375,-1.0415802001953125,-0.004058837890625,-0.0304718017578125
1772641312774509800,7.431509765625,-1.049713134765625,-0.011199951171875,-0.020233154296875
1772641312784555000,7.441554931640625,-1.0558624267578125,-0.01971435546875,-0.0089569091796875
1772641312794601000,7.45160107421875,-1.0489044189453125,-0.026824951171875,-0.0061492919921875
1772641312804646000,7.46164599609375,-1.0278778076171875,-0.0351104736328125,-0.0032958984375
1772641312814690800,7.47169091796875,-1.010162353515625,-0.0479736328125,0.005767822265625
1772641312824736800,7.48173681640625,-0.9912567138671875,-0.06719970703125,0.0133514404296875
1772641312834782000,7.491781982421875,-0.9757232666015625,-0.0792694091796875,0.0143280029296875
1772641312844827000,7.501826904296875,-0.9649810791015625,-0.08416748046875,0.0139617919921875
1772641312854871800,7.511871826171875,-0.956939697265625,-0.0904693603515625,0.0141143798828125
1772641312864917800,7.521917724609375,-0.957244873046875,-0.0927276611328125,0.0126190185546875
1772641312874962700,7.531962646484375,-0.95404052734375,-0.0920257568359375,0.0179595947265625
1772641312885008000,7.5420078125,-0.9500732421875,-0.0931243896484375,0.0202178955078125
1772641312895053800,7.5520537109375,-0.94879150390625,-0.091827392578125,0.0211029052734375
1772641312905099000,7.56209912109375,-0.95123291015625,-0.0880279541015625,0.0228424072265625
1772641312915144000,7.57214404296875,-0.9525909423828125,-0.0824432373046875,0.0225372314453125
1772641312925190000,7.58218994140625,-0.959197998046875,-0.079254150390625,0.024658203125
1772641312935234800,7.59223486328125,-0.9673309326171875,-0.0750885009765625,0.02685546875
1772641312945279700,7.60227978515625,-0.970428466796875,-0.067840576171875,0.0296783447265625
1772641312955325000,7.612324951171875,-0.9727020263671875,-0.0626678466796875,0.025543212890625
1772641312965371000,7.622370849609375,-0.98126220703125,-0.0612945556640625,0.017242431640625
1772641312975416000,7.632416015625,-0.996246337890625,-0.0665740966796875,0.0139617919921875
1772641312985460700,7.642460693359375,-1.0012664794921875,-0.0701904296875,0.009979248046875
1772641312995506700,7.652506591796875,-0.994415283203125,-0.072479248046875,0.0092315673828125
1772641313005551900,7.6625517578125,-0.97979736328125,-0.07464599609375,0.00897216796875
1772641313015596800,7.6725966796875,-0.9739227294921875,-0.082244873046875,0.0015869140625
1772641313025642800,7.682642822265625,-0.9705047607421875,-0.08404541015625,-0.0035400390625
1772641313035688000,7.69268798828125,-0.9740753173828125,-0.0870361328125,0.00390625
1772641313045732900,7.70273291015625,-0.9840087890625,-0.0811767578125,-0.0025634765625
1772641313055777800,7.71277783203125,-0.985748291015625,-0.0857696533203125,-0.0047607421875
1772641313065823700,7.72282373046875,-0.9877471923828125,-0.09210205078125,-0.001220703125
1772641313075869000,7.732868896484375,-0.979248046875,-0.09747314453125,-0.0010223388671875
1772641313085913900,7.742913818359375,-0.977386474609375,-0.1027374267578125,-0.00311279296875
1772641313095959800,7.752959716796875,-0.99267578125,-0.106201171875,-0.0073699951171875
1772641313106005000,7.7630048828125,-1.0016632080078125,-0.110321044921875,-0.0111846923828125
1772641313116049700,7.773049560546875,-1.007354736328125,-0.1172027587890625,-0.015960693359375
1772641313126096000,7.783095947265625,-1.0149078369140625,-0.1221160888671875,-0.0153961181640625
1772641313136140800,7.793140869140625,-1.0217742919921875,-0.114990234375,-0.0085296630859375
1772641313146186000,7.80318603515625,-1.016448974609375,-0.115997314453125,-0.0020751953125
