time,seconds_elapsed,z,y,x
1772641317411483600,0.061483642578125,-0.21817571793496607,0.0438902143266052,-0.1662446012981236
1772641317421528600,0.071528564453125,-0.06242986042797565,-0.024570523763448,-0.24911336557753383
1772641317431573500,0.081573486328125,0.0824006353110075,-0.0654883712157607,-0.3184755825519562
1772641317441618700,0.09161865234375,0.20834756688177583,-0.12037651102729141,-0.31390498670078815
1772641317451664400,0.101664306640625,0.31517887909412384,-0.15356639457605778,-0.3085089728761464
1772641317461709600,0.11170947265625,0.3835784615814686,-0.16880838737152515,-0.26533655143007634
1772641317471754500,0.12175439453125,0.4525467838674783,-0.19497750543802975,-0.2425418782327324
1772641317481800400,0.131800537109375,0.48679158329665656,-0.2764684785582125,-0.20119674527905881
1772641317491845600,0.141845703125,0.5889034657716751,-0.29292934562414885,-0.19721958527639508
1772641317501890600,0.151890625,0.7220838557273149,-0.2872510807920247,-0.1927939508538693
1772641317511936800,0.161936767578125,0.846975725287199,-0.3054275926694274,-0.15018457011803985
1772641317521981400,0.1719814453125,0.8761784388959407,-0.31664734421148893,-0.0828205412235111
1772641317532026600,0.182026611328125,0.9078764764517545,-0.3425644602783024,0.010597527990490197
1772641317542071600,0.192071533203125,0.9233446792185306,-0.3841151988066733,0.10386815155781805
1772641317552117500,0.202117431640625,0.8940519492387771,-0.43518480324335396,0.18944990112297236
1772641317562162700,0.21216259765625,0.8512690385669469,-0.4590135687287897,0.2564100984569639
1772641317572207400,0.222207275390625,0.8176724739134311,-0.49774070120379327,0.2939937599852681
1772641317582253600,0.232253662109375,0.7721604305386542,-0.5448016545210034,0.2893256220437586
1772641317592298500,0.242298583984375,0.7311293319702148,-0.5555350838508457,0.3110916828457266
1772641317602343700,0.25234375,0.6441676723539829,-0.5960255727365613,0.31111893617883324
1772641317612389600,0.2623896484375,0.4844412207782268,-0.6072572339121252,0.31987090936787427
1772641317622434600,0.2724345703125,0.3574421498060226,-0.6488057804834098,0.30989786995127794
1772641317632479700,0.282479736328125,0.3071417031109333,-0.6270005567148328,0.20750044853314756
1772641317642525700,0.292525634765625,0.2980611555546522,-0.5021561064932495,0.09617357846722006
1772641317652570400,0.3025703125,0.17575988700985906,-0.4336830934435129,-0.02444200201295316
1772641317662615600,0.312615478515625,0.06614800416827202,-0.4402594030939042,-0.09356946038343011
1772641317672660500,0.322660400390625,-0.06398585769832134,-0.4437826818492263,-0.11758213106840848
1772641317682706700,0.332706787109375,-0.1884463501036167,-0.42482108400873836,-0.17076836233288048
1772641317692751600,0.342751708984375,-0.3194827137678861,-0.4416046071577817,-0.2164254402015358
1772641317702796500,0.352796630859375,-0.4203197540014982,-0.45347515075877304,-0.23810031558871267
1772641317712842500,0.362842529296875,-0.4675543833851814,-0.4644939729012549,-0.25045338200964035
1772641317722887400,0.372887451171875,-0.4157791879624128,-0.5443131403516978,-0.25133644845448433
1772641317732932600,0.3829326171875,-0.33030396751165386,-0.6405016241271049,-0.28807145726419986
1772641317742977500,0.3929775390625,-0.27115912010371684,-0.6962153280425817,-0.3515688007932156
1772641317753023700,0.403023681640625,-0.21118542065620421,-0.7566351638223976,-0.4005763581335544
1772641317763068700,0.413068603515625,-0.12944529508054256,-0.8002077635671943,-0.42345381424352524
1772641317773113600,0.423113525390625,-0.03350537923872471,-0.8816703873757272,-0.42501938305981457
1772641317783159600,0.43315966796875,0.08215747420489787,-0.936915523931384,-0.4182474047068506
1772641317793204500,0.44320458984375,0.1710445489257574,-0.9692193453606217,-0.4073325543954968
1772641317803249700,0.453249755859375,0.2334638879597187,-0.9927418213758618,-0.4219932401716709
1772641317813295600,0.463295654296875,0.2741191389530897,-1.0273551618564873,-0.43975992913916706
1772641317823340500,0.473340576171875,0.2387438741892576,-1.0623618855688721,-0.4778486906453967
1772641317833385500,0.483385498046875,0.18784721516668795,-1.1055752966124563,-0.5229421432819217
1772641317843431400,0.493431396484375,0.12991291259229182,-1.191267301619053,-0.4756993305917829
1772641317853476600,0.5034765625,0.0765180070132017,-1.2091495797902345,-0.48114349440708754
1772641317863521500,0.513521484375,0.05126373876929283,-1.1624626474171875,-0.5363443168969825
1772641317873566700,0.523566650390625,0.049717093849182124,-1.1671139072891323,-0.5368506589839235
1772641317883612700,0.53361279296875,0.04749766423404216,-1.176710295413062,-0.5084561930181458
1772641317893657600,0.54365771484375,0.04220072686970234,-1.1764592432614416,-0.45337852198388423
1772641317903702500,0.55370263671875,0.03274550078213215,-1.1814476991984992,-0.3753959953760728
1772641317913748500,0.56374853515625,0.06407178241610527,-1.1873297429744154,-0.28346966255716977
1772641317923793700,0.573793701171875,0.039325463694334026,-1.1720319283384828,-0.18319632062092422
1772641317933838600,0.583838623046875,-0.01762333497405052,-1.145776739423722,-0.1317734457671642
1772641317943884500,0.593884521484375,-0.0005225625693798065,-1.1127022989481687,-0.0765841675845906
1772641317953929700,0.6039296875,0.06506254701912403,-1.0692268759675323,-0.04066142500583082
1772641317963974400,0.613974365234375,0.10359773711860179,-1.103064263639599,0.015270890096388757
1772641317974019600,0.62401953125,0.1248076984077692,-1.118246562137082,0.06944200421236454
1772641317984065500,0.6340654296875,0.16266718120276927,-1.1026377087906003,0.09961688732150942
1772641317994110500,0.6441103515625,0.21842004808485507,-1.0914837159611284,0.10827022244166583
1772641318004155600,0.65415576171875,0.27891923271119595,-1.0872334381055087,0.1588498514043167
1772641318014201600,0.66420166015625,0.2929933507710695,-1.0746830224815755,0.2466707216657698
1772641318024246500,0.67424658203125,0.29327041414678096,-1.0478614318557082,0.38426070822458713
1772641318034291500,0.68429150390625,0.24620178897976874,-1.0203728286884723,0.4943826229475438
1772641318044337400,0.69433740234375,0.1773579698562622,-0.9953375369574874,0.5915868961693719
1772641318054382600,0.704382568359375,0.07711363481879234,-0.9805831084832548,0.6480924445822834
1772641318064427500,0.714427490234375,0.0027507600128650663,-0.9236403011642396,0.670098524685204
1772641318074472700,0.72447265625,-0.03840133458673954,-0.8808971379809081,0.6594434212885797
1772641318084518700,0.7345185546875,-0.14908756866157055,-0.8370943096768111,0.6375959658134728
1772641318094563600,0.7445634765625,-0.283342894372344,-0.814503050097078,0.6203233439732343
1772641318104608500,0.7546083984375,-0.4914835405051708,-0.8611510386992245,0.716786918362975
1772641318114654500,0.764654541015625,-0.5838181253314018,-0.9991110641468316,0.8595837163172662
1772641318124699600,0.77469970703125,-0.5034399357587099,-1.0963996181186288,0.9009395167954266
1772641318134744600,0.78474462890625,-0.38719372946918007,-1.0770251286283135,0.8352022853851317
1772641318144790500,0.79479052734375,-0.2535217566043138,-1.028803022577241,0.7145448385246098
1772641318154835500,0.80483544921875,-0.19779811581671236,-1.0681769285231828,0.6604318478040396
1772641318164880600,0.814880615234375,-0.14699614934027194,-1.0283121703203766,0.606677716991119
1772641318174925600,0.824925537109375,-0.04971417123973369,-0.8551196495804935,0.44292270401902495
1772641318184971500,0.834971435546875,-0.018128946408629415,-0.6307453692663461,0.22963908724086357
1772641318195016700,0.8450166015625,-0.049123804131150244,-0.37945232156217096,-0.04398567405771464
1772641318205061600,0.8550615234375,-0.20808862368464467,-0.09470452882796525,-0.2997051051030867
1772641318215107600,0.865107666015625,-0.49719607293307777,0.2078092952866107,-0.4160443051720038
1772641318225152500,0.875152587890625,-0.8193938908785581,0.4609176487844437,-0.376166504824534
1772641318235197400,0.885197509765625,-1.04472006509006,0.6509704111713915,-0.24341546446317805
1772641318245243600,0.89524365234375,-1.204545885387063,0.8200419795237481,-0.1166225470549427
1772641318255288600,0.90528857421875,-1.399362355044484,0.9510434180051088,0.008672094619553535
1772641318265333800,0.915333740234375,-1.5324556512385605,1.1071412307549267,0.07103393131261691
1772641318275378400,0.92537841796875,-1.4423136080205439,1.1698341260332614,0.05705229557547718
1772641318285424400,0.93542431640625,-1.2729010442107915,1.1899241433817893,0.03141896488610655
1772641318295469600,0.945469482421875,-0.9737538469851016,1.1950362256985156,-0.005061630771122872
1772641318305514500,0.955514404296875,-0.6436708287477493,1.1717349912185222,0.03145228263381868
1772641318315560700,0.965560791015625,-0.26580782220363613,1.1227271416172384,0.10755257569160312
1772641318325605600,0.975605712890625,0.08320435290932655,1.095307950424403,0.13929657128099351
1772641318335650600,0.985650634765625,0.41741175760030746,1.0657745435565709,0.13999818021170793
1772641318345696500,0.995696533203125,0.7417787362784147,1.0240645228132605,0.09603692820919676
1772641318355741400,1.005741455078125,1.0621727196723223,0.989589494824782,0.001427219791524112
1772641318365786600,1.01578662109375,1.31604168227911,0.932550460589677,-0.06793052193718031
1772641318375831600,1.02583154296875,1.5450105969071388,0.9002997575871646,-0.10317794080395251
1772641318385877500,1.03587744140625,1.686428069332242,0.8615233060777187,-0.12622671662652865
1772641318395922700,1.045922607421875,1.7381383828252552,0.8290262270987033,-0.14671987141584977
1772641318405967400,1.05596728515625,1.7524556619912386,0.8070581409186124,-0.12215281825112179
1772641318416013600,1.066013671875,1.8012410279482602,0.8037317729748785,-0.12642603859091175
1772641318426058500,1.07605859375,1.7878262505799531,0.7996203921332955,-0.13341463710293172
1772641318436103700,1.086103759765625,1.7061194427520037,0.8483711251683532,-0.15030739278011024
1772641318446149600,1.096149658203125,1.5516414132237433,0.8801700658153742,-0.13888735115928574
1772641318456194600,1.106194580078125,1.267976447290182,0.8880812773313372,-0.1408842788638547
1772641318466239500,1.116239501953125,0.9330892436414957,0.9402712641000747,-0.08854100122954696
1772641318476284400,1.126284423828125,0.6507084722995757,0.9988434261865913,-0.0021970351202413438
1772641318486330600,1.13633056640625,0.41594343861341476,1.0625204371314496,0.13785839170403777
1772641318496375600,1.14637548828125,0.214641698589921,1.0617419270396231,0.24223109525050968
1772641318506420700,1.156420654296875,0.01876665979027748,1.0225773529954254,0.2864473631937057
1772641318516466700,1.166466796875,-0.16929449038803576,0.9428450601108371,0.26834661996625364
1772641318526511600,1.17651171875,-0.22399697143435476,0.7951652393553406,0.16868245943691582
1772641318536556500,1.186556640625,-0.17833996663093565,0.5834119556833058,-0.014341536824405192
1772641318546602500,1.1966025390625,-0.02941606409847736,0.37596542929448185,-0.22872458447813987
1772641318556647400,1.2066474609375,0.12251871068775654,0.15947934494689106,-0.40836496618315576
1772641318566692600,1.216692626953125,0.27610475981235505,-0.028835049340128895,-0.5308624879524111
1772641318576737500,1.226737548828125,0.41486382668316363,-0.21316300433948634,-0.6010984190214425
1772641318586783700,1.23678369140625,0.5511556266576051,-0.3334062443759292,-0.6350229735203087
1772641318596828400,1.246828369140625,0.6458294680863619,-0.4476973710749298,-0.6742732530865818
1772641318606873600,1.25687353515625,0.6636871963381767,-0.5543303842362016,-0.7466285143971443
1772641318616919600,1.26691943359375,0.6698088940888642,-0.6275473769426345,-0.8045623055148869
1772641318626964500,1.276964599609375,0.7007043830901384,-0.658105085356906,-0.8541418175242841
1772641318637009700,1.287009765625,0.6873913125306368,-0.6555978517763317,-0.8830564349066465
1772641318647055600,1.2970556640625,0.6055442194491625,-0.6197387490183115,-0.8922629469301551
1772641318657100800,1.307100830078125,0.4939408705294132,-0.5745407034961506,-0.8962043780323118
1772641318667145500,1.3171455078125,0.38574528422653676,-0.5404339608307928,-0.8900411061622202
1772641318677191400,1.32719140625,0.3114297556936741,-0.4804335560394451,-0.8726918388891964
1772641318687236600,1.337236572265625,0.2073684927165508,-0.4156361627625301,-0.8258839104849844
1772641318697281500,1.347281494140625,0.12515490441024302,-0.3566955326898023,-0.7392652921527624
1772641318707326700,1.35732666015625,0.052824996736645695,-0.3240001546597108,-0.6111928928606212
1772641318717372700,1.36737255859375,0.01631049880981445,-0.3354618982641026,-0.5129189080480486
1772641318727417300,1.377417236328125,-0.003336450946331024,-0.329781733735837,-0.46300658388771115
1772641318737462500,1.387462646484375,-0.020323826104402542,-0.3286684387316927,-0.4259282050004229
1772641318747508500,1.397508544921875,-0.06894844854176044,-0.36358890893273055,-0.3991361692626029
1772641318757553700,1.4075537109375,-0.08529752579629421,-0.4149506647164002,-0.36366928069256244
1772641318767599000,1.41759912109375,-0.09866612593531608,-0.43139275401663035,-0.3531883282864466
1772641318777644000,1.42764404296875,-0.1332908645927906,-0.4406063168354332,-0.3433411437392235
1772641318787690200,1.437690185546875,-0.19640461563169956,-0.44501890911329534,-0.3290086304714903
1772641318797735200,1.447735107421875,-0.2664040345311165,-0.43538496545795347,-0.3300338453333825
1772641318807780400,1.4577802734375,-0.3000684037238359,-0.45722047476693983,-0.31823249451108276
1772641318817826000,1.467825927734375,-0.278051802226901,-0.4823055969890207,-0.33589349461439993
1772641318827871000,1.47787109375,-0.2807879491925239,-0.5618841606166214,-0.3498628371255472
1772641318837916200,1.487916259765625,-0.2576239312261343,-0.6403088049687444,-0.3641686450494453
1772641318847962000,1.497962158203125,-0.24632278501093385,-0.7036673245489596,-0.35890243161693214
1772641318858007300,1.50800732421875,-0.1470546015292406,-0.7580939112633466,-0.3136888962646946
1772641318868052200,1.51805224609375,-0.018370353949069974,-0.7832910424925387,-0.24823610781896857
1772641318878097200,1.52809716796875,0.05230535677671432,-0.7718798600316047,-0.20042733180914074
1772641318888143000,1.53814306640625,0.08541092304289341,-0.7774114829346537,-0.18787191121652722
1772641318898188000,1.54818798828125,0.04282207363843918,-0.8419599429517984,-0.12333221902772784
1772641318908233200,1.558233154296875,-0.002104278802871704,-0.9021484541937709,-0.05670008460432291
1772641318918279200,1.568279052734375,-0.04424713800549507,-0.8235694960627704,-0.21987360789403318
1772641318928324000,1.578323974609375,-0.09076046737730503,-0.8573195707775652,-0.4034094626676291
1772641318938369000,1.588369140625,-0.18044892160892487,-0.9580654986616224,-0.5201601844131947
1772641318948415000,1.5984150390625,-0.3203086431980133,-1.0104505696110426,-0.6017843554589897
1772641318958460200,1.608460205078125,-0.42480479046106334,-1.004536377131194,-0.6918748146202415
1772641318968505000,1.618505126953125,-0.5387234305858611,-1.1101840325169265,-0.656713265672326
1772641318978551000,1.628551025390625,-0.5763029273957013,-1.2828555981226264,-0.5112771321903914
1772641318988596200,1.63859619140625,-0.5196306075811385,-1.3793068244874476,-0.3964032371673733
1772641318998641200,1.64864111328125,-0.5507873778671026,-1.349598499444127,-0.3586032294746488
1772641319008686000,1.65868603515625,-0.7474573664367199,-1.2964014545246958,-0.3023190321948379
1772641319018732000,1.66873193359375,-0.907821531394124,-1.3054343635469674,-0.3102262981880456
1772641319028777200,1.678777099609375,-0.9857032279759644,-1.2754890148773788,-0.3363873060133308
1772641319038822100,1.688822265625,-1.2458698294222355,-1.1090175460208207,-0.49428062387779353
1772641319048868000,1.6988681640625,-1.3907733903974293,-0.8753259137198328,-0.7140284865003079
1772641319058913300,1.708913330078125,-1.588009780678153,-0.6331086643315851,-0.8848679413080215
1772641319068958000,1.7189580078125,-1.8470318882644174,-0.4040529482029378,-0.9858332840964198
1772641319079003100,1.729003173828125,-2.016563694539666,-0.1438771405369043,-1.0671335569500922
1772641319089049000,1.739049072265625,-2.1427029338121413,0.20556619253493844,-1.0279890027806162
1772641319099094300,1.74909423828125,-2.062283827707171,0.5203944315604865,-0.9029905310411006
1772641319109139200,1.75913916015625,-1.838828708064556,0.7551380571324378,-0.7278139968771487
1772641319119185200,1.76918505859375,-1.5248907689422369,0.8986447569217533,-0.5526913117922843
1772641319129230300,1.779230224609375,-1.1180126803159713,0.9451335363741964,-0.4269240476373583
1772641319139275000,1.78927490234375,-0.6894184344440698,0.9016623511772602,-0.36651970168761905
1772641319149321000,1.799321044921875,-0.32131226728260515,0.8479805184155702,-0.3586195230223238
1772641319159366100,1.8093662109375,-0.03866320039331913,0.7630683386750519,-0.4157588758267462
1772641319169411000,1.8194111328125,0.16070201860964298,0.7158581861454993,-0.46815139943026
1772641319179457300,1.829457275390625,0.33075521841049194,0.6658068919058889,-0.5058779034953564
1772641319189502200,1.839502197265625,0.5063105227589607,0.6709965695034712,-0.49241965231150386
1772641319199547100,1.849547119140625,0.7054916173666715,0.7031911584045738,-0.41598596258088943
1772641319209592000,1.859592041015625,0.9461158984750508,0.7754794188935309,-0.30024266431219876
1772641319219638000,1.869637939453125,1.114294536575675,0.8714259106066078,-0.16553674528971313
1772641319229683200,1.87968310546875,1.1447674162507055,1.0072356992177665,-0.039035906163230535
1772641319239728000,1.88972802734375,1.1420073038876055,1.1277579753912985,0.11713248760476708
1772641319249774300,1.8997744140625,1.1357266161829231,1.2074481826998293,0.2534478876505047
1772641319259819000,1.909819091796875,1.1280670413404703,1.2503607111006974,0.34971747383810575
1772641319269864200,1.9198642578125,1.2267360898852349,1.2495518789358437,0.43418658598624166
1772641319279909000,1.9299091796875,1.2943261095553635,1.2205639771215617,0.47783429679386313
1772641319289955000,1.939955078125,1.3412556185126303,1.1392184038214386,0.5134865518681705
1772641319300000300,1.950000244140625,1.4045400499433278,1.057899426267296,0.5233600399004296
1772641319310045200,1.960045166015625,1.4265899691879749,0.9828735575079918,0.48992513208203015
1772641319320091100,1.970091064453125,1.4329104043811558,0.945477892832458,0.4371814569532871
1772641319330136000,1.980135986328125,1.410142107734084,0.9424152903914451,0.38527025059331205
1772641319340181000,1.990180908203125,1.3588660940051078,0.9458822358496487,0.3744162270911038
1772641319350227200,2.000227294921875,1.3230495152145623,1.002203696399927,0.38278037000633774
1772641319360272100,2.010272216796875,1.242109015583992,1.0553269454307854,0.39101785433460023
1772641319370317300,2.0203173828125,1.0739531738370656,1.1105074192523956,0.4496608166350051
1772641319380362000,2.030362060546875,0.8839116634964942,1.1668218655399978,0.5174219185557216
1772641319390408000,2.040407958984375,0.6401636974096298,1.2164458742782474,0.574215745858103
1772641319400453000,2.050453125,0.30786592573225496,1.223802447586134,0.6593490210033953
1772641319410498000,2.060498046875,0.15391805755794047,1.2280275910004972,0.6909273777022957
1772641319420544300,2.070544189453125,-0.012647300127148627,1.1574752143934368,0.6528630199849605
1772641319430589200,2.080589111328125,-0.031952889099717136,1.0502390477072447,0.48652613729350264
1772641319440634400,2.09063427734375,-0.01696457880437374,0.9202432060718536,0.27389249059036375
1772641319450680300,2.100680419921875,0.027630349725484848,0.7499968217864632,0.054782816273532806
1772641319460725000,2.11072509765625,0.10988543908596038,0.5700269158661365,-0.09788261087480932
1772641319470770200,2.120770263671875,0.2237994030356407,0.41674949429929253,-0.22179624651968477
1772641319480816000,2.130816162109375,0.318011472171545,0.2768418419152498,-0.28406477890610693
1772641319490861000,2.140861083984375,0.37347441619634625,0.14350611526742577,-0.30643388363514096
1772641319500906200,2.15090625,0.3845136966049671,0.028552725267410276,-0.3446804295189678
1772641319510951200,2.160951171875,0.3789928873568773,-0.03642294718585908,-0.40961785232108083
1772641319520997000,2.1709970703125,0.388825714585185,-0.11805084455870091,-0.48401053774338215
1772641319531042000,2.1810419921875,0.3333089945465326,-0.16572065048925577,-0.5837077237594872
1772641319541087200,2.191087158203125,0.27358137881457806,-0.17692834626734255,-0.6635806672237813
1772641319551133200,2.20113330078125,0.2543131992429495,-0.1986798670873046,-0.7317231331449001
1772641319561178000,2.21117822265625,0.2372147649258375,-0.22475290436819195,-0.8376448562316596
1772641319571223300,2.221223388671875,0.06266951440274715,-0.2334294011682272,-0.9677034609049558
1772641319581268000,2.23126806640625,-0.08959025455415248,-0.24828096987400203,-0.9934769307173787
1772641319591314200,2.241314208984375,-0.12815525527000426,-0.26922829817160965,-0.914417130266875
1772641319601359000,2.251359130859375,-0.08962941752076148,-0.25909495362676677,-0.761139708700031
1772641319611404300,2.261404296875,0.018334113591909406,-0.2617191646505147,-0.6328530090700835
1772641319621450200,2.2714501953125,0.12124854462146759,-0.28034049768596886,-0.513493675728701
1772641319631495200,2.2814951171875,0.1345329736083746,-0.2864417006378993,-0.4440949626687914
1772641319641540000,2.2915400390625,0.1391208859205246,-0.29132483303695916,-0.3682590196356177
1772641319651586000,2.3015859375,0.17380992198586462,-0.2993440349720418,-0.3213235558615997
1772641319661631200,2.31163134765625,0.21109131263196468,-0.3596366276429966,-0.29497564716208724
1772641319671676200,2.32167626953125,0.2102577844172716,-0.4321605600513518,-0.26525059017967434
1772641319681722000,2.33172216796875,0.25348960790038105,-0.5008029748512431,-0.22530188002046198
1772641319691767300,2.341767333984375,0.32096915293335915,-0.6207968067038804,-0.1918475003166124
1772641319701812200,2.351812255859375,0.36306174325346946,-0.7398723181352019,-0.19362802705783397
1772641319711857200,2.361857177734375,0.38095746542811393,-0.8102358211066574,-0.2392162774739787
1772641319721903000,2.371903076171875,0.3271802825331688,-0.9070038583356886,-0.24235833835937082
1772641319731948000,2.381947998046875,0.2911865936100483,-0.9870746624596416,-0.22214447543546556
1772641319741993200,2.3919931640625,0.28973288767039773,-1.0665113333985208,-0.21127938254997133
1772641319752039200,2.4020390625,0.2924444847166538,-1.0904370564524084,-0.19921923466101288
1772641319762083600,2.41208349609375,0.29900457388460633,-1.1011928437445313,-0.1773396670145914
1772641319772128500,2.42212841796875,0.26795886275768277,-1.1312043895181267,-0.10390822783987969
1772641319782174500,2.432174560546875,0.21547990297973155,-1.1592919084265827,0.010577252387441694
1772641319792219600,2.4422197265625,0.22770050212740897,-1.1718910585630684,0.13066866286303847
1772641319802264600,2.4522646484375,0.23913375028967856,-1.1362595540158449,0.1634409420542419
1772641319812309500,2.4623095703125,0.16655542081296443,-1.0843145549841224,0.14601586959864943
1772641319822355500,2.47235546875,0.01407937875688076,-1.027729328931123,0.1598975338263437
1772641319832400600,2.482400634765625,-0.16509002443552015,-1.000515158791095,0.1657559044657275
1772641319842445600,2.492445556640625,-0.2960077301561832,-0.9309427331320941,0.1608948925669305
1772641319852491500,2.502491455078125,-0.41473756995499134,-0.8523552263684571,0.16880239602215588
1772641319862536700,2.51253662109375,-0.5600643247783184,-0.7502887904703617,0.18623486633291467
1772641319872581400,2.522581298828125,-0.7446013924837112,-0.6800405113764106,0.24010805694824083
1772641319882627600,2.532627685546875,-0.8908511073708534,-0.6409263523451983,0.32977793434355407
1772641319892672500,2.542672607421875,-0.9696224462687969,-0.6259136382609606,0.3626981706380844
1772641319902717700,2.5527177734375,-1.0707453177064656,-0.6614595834165811,0.39805845702849324
1772641319912762600,2.5627626953125,-1.1166624347507954,-0.783836985937506,0.4455233149714768
1772641319922808600,2.57280859375,-1.0715437746077776,-0.9235302649185061,0.5151768065100536
1772641319932853500,2.582853515625,-1.0204472090989352,-0.9518931667022407,0.4849133683346212
1772641319942898400,2.5928984375,-1.1007611012637615,-0.89389493204616,0.4810986688846722
1772641319952944600,2.602944580078125,-1.2559072393119335,-0.8855908487550914,0.5330990513654426
1772641319962989600,2.612989501953125,-1.2976970472931861,-0.8214319725774228,0.469169965355657
1772641319973034500,2.623034423828125,-1.3132605271279811,-0.6395972956985235,0.24401231611147522
1772641319983080700,2.633080810546875,-1.2744511962622402,-0.4766362826483324,-0.08912670129616744
1772641319993125600,2.643125732421875,-1.2349182272970676,-0.2704164485102519,-0.41047951065171506
1772641320003170600,2.653170654296875,-1.2996587027549742,-0.002677840907126665,-0.5636410142213106
1772641320013215500,2.663215576171875,-1.377640937101841,0.2331674622964114,-0.6517708408340811
1772641320023261400,2.673261474609375,-1.4319061957746744,0.48838718192502856,-0.587141826394014
1772641320033306600,2.683306640625,-1.4225865787655114,0.6957498294226825,-0.39877719975709913
1772641320043351600,2.6933515625,-1.2514467527717352,0.8242322708204388,-0.2504807266742922
1772641320053397800,2.703397705078125,-1.0552280151009559,0.8812002125807106,-0.16477514980006963
1772641320063442400,2.7134423828125,-0.8220388524293899,0.8668662745408713,0.018922854998987167
1772641320073487600,2.723487548828125,-0.3984410996705293,0.8426882572263479,0.09049418112393467
1772641320083533600,2.733533447265625,-0.043941433057188985,0.8050682822756469,0.12306998789496719
1772641320093578500,2.74357861328125,0.44515258196294305,0.7424401227965951,0.12532236993163823
1772641320103623700,2.753623779296875,0.88168171248734,0.6898688816253096,0.17942639189446344
1772641320113668600,2.763668701171875,1.251909694108367,0.6538510811742395,0.2670015437665395
1772641320123714600,2.773714599609375,1.5595418110847472,0.6772183666277677,0.331255349952355
1772641320133759500,2.783759521484375,1.8150994574308394,0.7191142653319984,0.35364918726384637
1772641320143804700,2.7938046875,1.8827081818014382,0.7755806142456829,0.28614750346429646
1772641320153850600,2.8038505859375,1.8072627724558115,0.8337688915811479,0.137213846722804
1772641320163895600,2.8138955078125,1.6975094353169202,0.8700215967666357,-0.06453299758653155
1772641320173940700,2.823940673828125,1.616632064050436,0.8934335981447249,-0.25634797473987564
1772641320183986700,2.833986572265625,1.6088094076007604,0.9254659822214394,-0.4394255095530301
1772641320194031400,2.84403125,1.5766566120147705,0.9232146230980753,-0.5775117917288094
1772641320204076500,2.85407666015625,1.6027607750862836,0.8565526049930602,-0.7154852611798793
1772641320214121500,2.86412158203125,1.6045862369477748,0.7953153884157538,-0.7793653934814035
1772641320224167700,2.874167724609375,1.5146949536204337,0.7642872129455208,-0.7612957029793411
1772641320234212600,2.884212646484375,1.359482764598727,0.7310735831949859,-0.5812702674794942
1772641320244257500,2.894257568359375,1.0979133106172083,0.7919765263166278,-0.36278902725931256
1772641320254303500,2.904303466796875,0.8446715399980544,0.9314606195263564,-0.28218784258570523
1772641320264348400,2.914348388671875,0.5915846676796674,0.8390603490527718,-0.08740444408082403
1772641320274393600,2.9243935546875,0.40132688423991203,0.7927982179630547,0.005026321995723992
1772641320284439600,2.934439453125,0.26995617405474187,0.774602636059001,0.02665330312056467
1772641320294484700,2.944484619140625,0.22793314183950422,0.7648645013768225,-0.009271503551118075
1772641320304529700,2.95452978515625,0.16757950316369533,0.6665628979049623,-0.05689542451333254
1772641320314574600,2.96457470703125,0.11489186907112597,0.4433111188147217,-0.029383349138963965
1772641320324620500,2.97462060546875,0.18420798188149928,0.24598566201105712,-0.010624105470161885
1772641320334665500,2.98466552734375,0.33426410331428047,0.0656733723938465,-0.00017073519071564077
1772641320344710700,2.994710693359375,0.5432417847931384,-0.12994257707819343,-0.00020591610195115208
1772641320354756600,3.004756591796875,0.7126695461720228,-0.2957859771642834,0.010866134065110236
1772641320364801500,3.014801513671875,0.8195815224051475,-0.41873007365725934,-0.024849249373283235
1772641320374846500,3.024846435546875,0.8102671660929918,-0.52403877941221,-0.05781986414818093
1772641320384892400,3.034892333984375,0.7772182984501123,-0.5938793910207226,-0.10576392044285311
1772641320394937600,3.0449375,0.6804542067438364,-0.6194668002091348,-0.15232348184287547
1772641320404982500,3.054982421875,0.5797679731577634,-0.5819637661689893,-0.19034138833628966
1772641320415028500,3.065028564453125,0.48045653505623337,-0.532439308815077,-0.19094147312128915
1772641320425073700,3.07507373046875,0.1853922232300043,-0.47952418610956515,-0.15070643856767565
1772641320435118600,3.08511865234375,-0.07882043873667717,-0.3854508678572252,-0.09934497504495084
1772641320445163500,3.09516357421875,-0.2937754410594702,-0.2941217154801823,-0.07785749372234567
1772641320455209500,3.10520947265625,-0.38849838232696055,-0.253118399967812,-0.06469574126703664
1772641320465254700,3.115254638671875,-0.6654226418286562,-0.261524153535068,-0.03496814526766538
1772641320475299600,3.125299560546875,-0.8476514325916766,-0.27899680972574276,-0.065780632160604
1772641320485345500,3.135345458984375,-0.9741022220313549,-0.31872057028897105,-0.14394198593404142
1772641320495390700,3.145390625,-1.0990887841373682,-0.3737533792681992,-0.16525317910797893
1772641320505435400,3.155435302734375,-0.9566109890043735,-0.3862223271537572,-0.21268650940153747
1772641320515481600,3.165481689453125,-0.7924889328181743,-0.36001488637086004,-0.27566483402512965
1772641320525526500,3.175526611328125,-0.5852805990993977,-0.5029042945120483,-0.2274825485277921
1772641320535571500,3.185571533203125,-0.3717775491505861,-0.6278788008540869,-0.1416241739783436
1772641320545616600,3.19561669921875,-0.11408581338524817,-0.6535889961719512,-0.04930102386157959
1772641320555662600,3.20566259765625,0.0697258626550436,-0.7051993564218282,0.028772176704369483
1772641320565707800,3.215707763671875,0.1876759502530098,-0.7812978228487074,0.055953467488102614
1772641320575752400,3.22575244140625,0.2321954754590988,-0.8628798352532088,0.039685017721727486
1772641320585798400,3.23579833984375,0.24841829598546028,-0.9400150973819196,-0.026900354950502515
1772641320595843600,3.245843505859375,0.294866743427515,-0.9878316183067858,-0.07837547144815325
1772641320605888500,3.255888427734375,0.30154782862663265,-1.025732748286426,-0.11542146416949108
1772641320615934700,3.265934814453125,0.24082594116032122,-1.0080438007302581,-0.1568842321534641
1772641320625979600,3.275979736328125,0.19641864415705204,-0.9369607513125985,-0.16760584318134933
1772641320636024600,3.286024658203125,0.0956330418497324,-0.8433673255316912,-0.16179361323863267
1772641320646069500,3.296069580078125,-0.04178980798125267,-0.7311263362955301,-0.13663202824685722
1772641320656115500,3.306115478515625,-0.20706512585580347,-0.6169568632148206,-0.11413553427848964
1772641320666160600,3.31616064453125,-0.39608255384564395,-0.5166491440849379,-0.07874888960411772
1772641320676205600,3.32620556640625,-0.5807762734174728,-0.491872466757521,0.00830338917132467
1772641320686251500,3.33625146484375,-0.7119915007799863,-0.566541959827207,0.190506132177636
1772641320696296400,3.34629638671875,-0.7121803013503551,-0.5652283564779907,0.2761270447093993
1772641320706341600,3.356341552734375,-0.7752092967152595,-0.44787386015299707,0.2853884287253022
1772641320716387600,3.3663876953125,-0.9311515535771846,-0.38608430692255497,0.29216592350360004
1772641320726432500,3.3764326171875,-1.023826914665103,-0.4101737691707909,0.2945987766737118
1772641320736477700,3.386477783203125,-1.0060796610504388,-0.2868655155405402,0.14499827178763225
1772641320746522600,3.396522705078125,-1.0822943012028932,0.0739647423338145,-0.13893230454586444
1772641320756568600,3.406568603515625,-1.376577691784501,0.4264561378646642,-0.38291937661822883
1772641320766614300,3.4166142578125,-1.6500649625748396,0.6801750244762748,-0.5064039001308381
1772641320776659200,3.4266591796875,-1.7403531362652778,0.8873569816447794,-0.5899094644764438
1772641320786705200,3.436705078125,-1.905855248633027,1.0732187220826745,-0.6303794585634023
1772641320796750000,3.44675,-1.9700743305653332,1.2523026389487086,-0.4885780283220112
1772641320806795000,3.456794921875,-1.7356109101742505,1.3499150180473922,-0.3739669854862615
1772641320816841200,3.46684130859375,-1.5343360581576824,1.3993088712915778,-0.30468974338155236
1772641320826886100,3.47688623046875,-1.2165262460380792,1.4301727961108088,-0.3091746702432632
1772641320836931300,3.486931396484375,-0.9175257638067007,1.305059538885206,-0.3509820138812065
1772641320846976000,3.49697607421875,-0.5451677844196557,1.1146211381815374,-0.38963169720582663
1772641320857022000,3.50702197265625,-0.14715630833804608,0.9674729400847106,-0.39563996117729694
1772641320867067100,3.517067138671875,0.289193373966217,0.8790360933493823,-0.37508437214363366
1772641320877112000,3.527112060546875,0.7151800676882266,0.761058606287837,-0.3644196241358295
1772641320887158300,3.537158203125,1.1190209805756806,0.6595607640579343,-0.33557003481369463
1772641320897203200,3.547203125,1.4919798484653233,0.6021398178331554,-0.31265842070579525
1772641320907248400,3.557248291015625,1.7932716565042732,0.5918067859977484,-0.295414330840297
1772641320917294300,3.56729443359375,1.8858634309619664,0.6315491599299013,-0.22999365456588564
1772641320927339000,3.577339111328125,1.8604443275451659,0.6940695481855422,-0.2131295769939199
1772641320937384200,3.58738427734375,1.7715145827263592,0.8017587924014776,-0.20542039085607974
1772641320947430100,3.59743017578125,1.6115677663981913,0.8979582359623164,-0.20248835599217563
1772641320957475000,3.60747509765625,1.4965040478914975,0.9764293498046696,-0.1754043150378391
1772641320967520300,3.617520263671875,1.4583049578785896,1.0194546909302473,-0.15449841472916304
1772641320977565000,3.62756494140625,1.4942121375620365,1.0260153646200896,-0.12080697486642747
1772641320987611100,3.637611083984375,1.5349889691084622,1.0274296153321862,-0.10794555706456303
1772641320997656000,3.647656005859375,1.4910785157114266,1.00662765032202,-0.08028736948408186
1772641321007701200,3.657701171875,1.4428595514655111,0.998354985082522,-0.053628166345693166
1772641321017747200,3.667747314453125,1.3553414270102977,1.0138251606106758,-0.010886318336613476
1772641321027792100,3.677792236328125,1.2277239318788051,1.0451108910385518,0.079090707045421
1772641321037837300,3.68783740234375,1.0208300709366798,1.0955240773931145,0.1640722622277215
1772641321047882000,3.697882080078125,0.7021762092083692,1.161462968855351,0.2529226216673851
1772641321057928200,3.70792822265625,0.4115320519119501,1.201047229616344,0.3067073302816599
1772641321067973000,3.71797314453125,0.1653974829494953,1.227712825962901,0.2776297043573111
1772641321078018300,3.728018310546875,-0.02259878529906273,1.1862981349043547,0.1912345195174217
1772641321088064300,3.738064208984375,-0.23998422963917254,1.091919550095126,0.09030417497716843
1772641321098109200,3.748109130859375,-0.24887773019075393,0.9437680201746523,-0.06325484001003205
1772641321108154000,3.758154052734375,-0.192759537127614,0.7606752329934388,-0.23711240052990615
1772641321118200000,3.768199951171875,-0.10674597201645374,0.5423455666057765,-0.38556605520211157
1772641321128245000,3.778244873046875,0.002203647524118423,0.32660818173363804,-0.4731074874676764
1772641321138290200,3.788290283203125,0.0785229170948267,0.10934990743715316,-0.53467159791179
1772641321148336000,3.798336181640625,0.12870821297764778,-0.08167034827508032,-0.6073055300332606
1772641321158381300,3.80838134765625,0.17764847723543642,-0.23370741439200937,-0.6585038023509084
1772641321168426000,3.818426025390625,0.21936463545858859,-0.38033319604992866,-0.6660170275252312
1772641321178471200,3.82847119140625,0.24959961472451686,-0.46965548385027794,-0.6623850276984274
1772641321188517000,3.83851708984375,0.2051683523237705,-0.49770168436765666,-0.6912137934282422
1772641321198562000,3.84856201171875,0.12559271130561828,-0.5228002505932003,-0.7073635487183928
1772641321208607200,3.858607177734375,0.06799275525212288,-0.5195169911388308,-0.7005570105087011
1772641321218653200,3.868653076171875,-0.010592705684900283,-0.47762843549083916,-0.6489307220373303
1772641321228698400,3.878698486328125,-0.04922200380861759,-0.44031073142234234,-0.567009833067283
1772641321238743000,3.888742919921875,-0.052635611644387244,-0.36873876597657795,-0.48264008964039384
1772641321248789000,3.8987890625,-0.09608429274857044,-0.3178370654527098,-0.4052431809008121
1772641321258834200,3.908834228515625,-0.1460655904918909,-0.2960116391463205,-0.3262198765357956
1772641321268879000,3.918879150390625,-0.1765565903455019,-0.2809829237753525,-0.26131562535092234
1772641321278924300,3.92892431640625,-0.15790215875804423,-0.2740261634400114,-0.20385741585567593
1772641321288970200,3.93897021484375,-0.16165362024605273,-0.27459665680434553,-0.1392511612366885
1772641321299015200,3.94901513671875,-0.1778629967689514,-0.2864137166524306,-0.08222951652780175
1772641321309060000,3.95906005859375,-0.17662030323147773,-0.2867504377935082,-0.03859645530004054
1772641321319106000,3.96910595703125,-0.09981412692666053,-0.3250141540078446,0.004669270452670753
1772641321329151200,3.979151123046875,-0.05051438170671463,-0.37647776273079214,0.04408120685406029
1772641321339196200,3.989196044921875,0.04023264166712761,-0.44648401322979475,0.1053658062370494
1772641321349242000,3.9992421875,0.1253080491453409,-0.5460996584422886,0.11839213227704166
1772641321359287300,4.009287353515625,0.136022335383296,-0.6489290415368973,0.07265756872538477
1772641321369332000,4.01933203125,0.11004910521507262,-0.7214489188246429,0.041231553043983876
1772641321379377200,4.029377197265625,0.029576807618141174,-0.773788177870959,0.055189899237081404
1772641321389423000,4.039423095703125,-0.023338790011405944,-0.8050969238482415,0.11120751800257712
1772641321399468300,4.04946826171875,-0.07184767711460589,-0.8000636058561503,0.10620349917020648
1772641321409513200,4.05951318359375,-0.03171966486573219,-0.7760092149212956,0.07736169129572808
1772641321419559200,4.06955908203125,0.011917232286930084,-0.7374724904518574,0.08209639166742563
1772641321429604000,4.07960400390625,0.12442074491679668,-0.7090102199468761,0.14584770995751023
1772641321439649000,4.08964892578125,0.18930325919389723,-0.7128666761793195,0.26056853331066665
1772641321449695200,4.0996953125,0.26649054377079007,-0.6980416666869074,0.3536932821338996
1772641321459740200,4.109740234375,0.34629239476025103,-0.6933668798089027,0.3827050032151863
1772641321469785000,4.11978515625,0.3714128074914217,-0.7028682831257581,0.3804671246279031
1772641321479830300,4.129830322265625,0.3301286109447479,-0.7041383761268108,0.3722243430700153
1772641321489876000,4.1398759765625,0.28778642977774144,-0.7164176466591656,0.3485762679137289
1772641321499921200,4.149921142578125,0.25619945138096806,-0.6948322031211107,0.30763087486736473
1772641321509966000,4.159966064453125,0.17053367679417133,-0.6781355545379221,0.2731410877011716
1772641321520012000,4.170011962890625,0.10336392836272716,-0.6530805351931601,0.3040362113762647
1772641321530057200,4.18005712890625,-0.016713818913698195,-0.6657852645959704,0.3917579321121797
1772641321540102100,4.19010205078125,-0.13084931665956973,-0.7564010628055781,0.5012694598518311
1772641321550148400,4.2001484375,-0.18099077340066433,-0.8482058516040444,0.5910110690427943
1772641321560193000,4.210193115234375,-0.2051081465691328,-0.8314016509931534,0.5407064210966229
1772641321570238200,4.22023828125,-0.29483985542058944,-0.7536214420244097,0.44027394307591017
1772641321580283100,4.230283203125,-0.5107540581643581,-0.6903708397980779,0.36339608977437016
1772641321590329000,4.2403291015625,-0.6819909147918224,-0.6446718224838376,0.32175146241746844
1772641321600374300,4.250374267578125,-1.0186147329747677,-0.5239283047750591,0.2093633197955787
1772641321610419000,4.2604189453125,-1.0256430241763592,-0.3538435407921672,-0.010245673212362453
1772641321620465200,4.270465087890625,-1.0408183814764023,-0.19863997346833348,-0.18475863803420214
1772641321630510000,4.280510009765625,-1.2706746003329754,-0.0249519608290866,-0.3334839857872575
1772641321640555300,4.29055517578125,-1.449585060328245,0.13722385666016487,-0.4426610939407721
1772641321650601200,4.300601318359375,-1.6757178747475145,0.3093940486149862,-0.447392104518041
1772641321660646100,4.310646240234375,-1.9468810865044592,0.519269263455458,-0.4245330243149772
1772641321670691300,4.32069140625,-2.034402718091011,0.6594451017890125,-0.3861345392724499
1772641321680736000,4.330736083984375,-2.024682119065523,0.7516562794312834,-0.39016036072243004
1772641321690782000,4.340781982421875,-1.8347709571063517,0.8194467901095748,-0.4016797893308103
1772641321700827100,4.3508271484375,-1.464747558146715,0.8813849214978515,-0.49121444124020636
1772641321710872000,4.3608720703125,-1.2050427289932966,0.907289178083092,-0.4125969777297228
1772641321720918300,4.370918212890625,-0.8219172718763351,0.9424916435632854,-0.24888841598154976
1772641321730963200,4.380963134765625,-0.39973464661240576,1.040744804783538,-0.17508449023263528
1772641321741008100,4.391008056640625,0.005759294179081917,1.0494343071956187,-0.11164839363787323
1772641321751054000,4.40105419921875,0.4286906919836998,1.0299140525590629,-0.005453461366612464
1772641321761099000,4.41109912109375,0.869796044382453,1.0120638500265777,0.09354072747929021
1772641321771143700,4.421143798828125,1.3239870883256195,1.0368949974875896,0.1674941629678011
1772641321781188600,4.431188720703125,1.66200031504035,1.0434312673885375,0.18425850649233907
1772641321791234800,4.44123486328125,1.8699656046062707,1.0487189985331147,0.17374872985053808
1772641321801279700,4.45127978515625,1.8942232630282638,1.040364354098588,0.1258746883184649
1772641321811324700,4.46132470703125,1.7703478770345449,1.04872776636146,0.04769510476859286
1772641321821370600,4.47137060546875,1.6464304054647683,1.0712879001505673,-0.06157521179344039
1772641321831415600,4.48141552734375,1.6405664818674326,1.046256773138046,-0.1588155290096067
1772641321841460700,4.491460693359375,1.7210101378917693,0.9997235700219869,-0.2697436638152227
1772641321851506700,4.501506591796875,1.7652987769514321,0.9787214062646031,-0.38317207273766396
1772641321861551900,4.5115517578125,1.7395856590241192,0.9754488143347203,-0.4304190866788849
1772641321871596500,4.521596435546875,1.6404682821899652,1.0167563186917454,-0.3925844460641965
1772641321881641700,4.531641845703125,1.4562275670826434,1.0563493472810834,-0.2068269697183743
1772641321891687700,4.541687744140625,1.1413210751891136,1.0191986703425646,-0.022125971022387964
1772641321901732600,4.551732666015625,0.7681050176680088,0.919661460661143,0.15711648827306926
1772641321911777800,4.56177783203125,0.4026116633534431,0.838786938938871,0.24879575099572537
1772641321921823700,4.57182373046875,0.03124094143807888,0.7674862281825393,0.21462270162850616
1772641321931868700,4.58186865234375,-0.21235504895746707,0.684746350979805,0.14790628645513207
1772641321941913600,4.59191357421875,-0.39002339993715285,0.5300486142862588,0.059745808975771066
1772641321951959600,4.60195947265625,-0.4441676625788212,0.3869610897570848,-0.017821286965254694
1772641321962004700,4.612004638671875,-0.42086277483701706,0.26441176473535594,-0.1508574278783053
1772641321972049700,4.622049560546875,-0.3966045318931341,0.11467990682087838,-0.28504465678893026
1772641321982094800,4.6320947265625,-0.37802024293243885,-0.03180829299725592,-0.3979366572797298
1772641321992140800,4.642140869140625,-0.3526677750110626,-0.15218984552584588,-0.494172998784855
1772641322002185500,4.652185546875,-0.3321773601680994,-0.235980108564347,-0.5505450935438275
1772641322012230700,4.662230712890625,-0.2566261523604393,-0.318629750200361,-0.5856804120719432
1772641322022276600,4.672276611328125,-0.174721191611886,-0.3459531528685242,-0.6547513179495931
1772641322032321800,4.68232177734375,-0.07279518709778786,-0.3355113999616354,-0.7189382511779665
1772641322042366700,4.69236669921875,-0.023836802661418913,-0.33383447972536084,-0.731280138617754
1772641322052412700,4.70241259765625,0.035003508841991424,-0.2924936576206237,-0.6715111679621041
1772641322062457900,4.712457763671875,0.05162789590656757,-0.22494937678836285,-0.5956797915061935
1772641322072502500,4.72250244140625,0.10248071578741073,-0.14886289306022227,-0.5046592849532142
1772641322082547700,4.732547607421875,0.1323626438319683,-0.07691226702779531,-0.44216001255083826
1772641322092593700,4.74259375,0.13977788852453232,-0.0519224218737334,-0.3738715257551521
1772641322102638800,4.752638916015625,0.10073825603425503,-0.04873093235604465,-0.36039182992447166
1772641322112683800,4.762683837890625,0.08345394375622273,-0.06661065324395894,-0.39334213256370276
1772641322122729700,4.772729736328125,0.10002104767560958,-0.0982875749465078,-0.42730815158411856
1772641322132774700,4.782774658203125,0.11331950518786907,-0.11380392770394682,-0.46026323999632146
1772641322142819600,4.792819580078125,0.17647300371527672,-0.12364194256402551,-0.44035749317351724
1772641322152865500,4.802865478515625,0.2968471035897732,-0.16649404601454734,-0.4161147035270929
1772641322162910700,4.81291064453125,0.3534083642452955,-0.1674821802690625,-0.37109033407140524
1772641322172955600,4.82295556640625,0.47356209936738014,-0.1987772630471736,-0.33576650723386553
1772641322183000800,4.833000732421875,0.5573989049613476,-0.2512663058277219,-0.30336992948725816
1772641322193046800,4.843046875,0.623374475172162,-0.3326134134978056,-0.31070936899725343
1772641322203091700,4.853091796875,0.6502899546265601,-0.4337934219501912,-0.31527441189046945
1772641322213136600,4.86313671875,0.6068202307343482,-0.49823966370187694,-0.3351229121007025
1772641322223182600,4.8731826171875,0.57721945771873,-0.5408722061175852,-0.3614886487178504
1772641322233227800,4.883227783203125,0.5406576135188341,-0.5386209200594574,-0.3754567491199821
1772641322243272700,4.893272705078125,0.452595883706212,-0.5402627689823508,-0.35197197476662695
1772641322253319000,4.90331884765625,0.39190789850950236,-0.5324407701198012,-0.3075270856993273
1772641322263363600,4.913363525390625,0.3560398817926645,-0.5336910624418407,-0.27471356118228285
1772641322273408800,4.92340869140625,0.3632634033054113,-0.5027843213941902,-0.24826606456581501
1772641322283453700,4.93345361328125,0.4148953908652067,-0.46316557384170587,-0.24005046327579765
1772641322293499600,4.943499755859375,0.41627369348108767,-0.4352768654409796,-0.2776229092903435
1772641322303544800,4.953544921875,0.3640986850857734,-0.421406526324898,-0.32895087240226567
1772641322313589500,4.963589599609375,0.22561901967823503,-0.3786953657150268,-0.36990843081045893
1772641322323635500,4.973635498046875,0.012176760005950927,-0.336111850072816,-0.38523390063829716
1772641322333680600,4.9836806640625,-0.1492851370602846,-0.2859899017497897,-0.39089645644463594
1772641322343725600,4.9937255859375,-0.23795009346306323,-0.25468831616565585,-0.42764596870373933
1772641322353771800,5.003771728515625,-0.25574703143835065,-0.23665742330402134,-0.4346051767244935
1772641322363816700,5.013816650390625,-0.2699889072805643,-0.2816680199626833,-0.3911773922778666
1772641322373862000,5.02386181640625,-0.26575112358033653,-0.3803681212328374,-0.2800686950072646
1772641322383906600,5.033906494140625,-0.19713935964703558,-0.5232834310002624,-0.18527086187265812
1772641322393952500,5.043952392578125,-0.10413082108199596,-0.6279150412112474,-0.19792028089165686
1772641322403997700,5.053997802734375,-0.08443126435577869,-0.7217590807523578,-0.2339445841487497
1772641322414042600,5.064042724609375,-0.20255670852065086,-0.7924369834352284,-0.2529233523197472
1772641322424088800,5.0740888671875,-0.3839250830620527,-0.7998419259294867,-0.26097937913388014
1772641322434133800,5.0841337890625,-0.5488625472843647,-0.7109570431657135,-0.28264935915023087
1772641322444178700,5.0941787109375,-0.7086082880824804,-0.5416746085416525,-0.37801315560452636
1772641322454224600,5.104224609375,-0.7864128277748823,-0.30917781204842026,-0.5018584021883085
1772641322464269600,5.11426953125,-1.058752682095766,-0.11480462917909025,-0.5614225344542414
1772641322474314800,5.124314697265625,-1.328210843500495,0.05439553398899734,-0.6053420844731852
1772641322484359700,5.134359619140625,-1.421539115539193,0.16625373445264993,-0.5682070800278336
1772641322494405600,5.144405517578125,-1.472259833472967,0.2662685715831816,-0.4808050927655771
1772641322504450800,5.154450927734375,-1.3291677058339118,0.36814920258559286,-0.39421595625616607
1772641322514495500,5.16449560546875,-1.1821224566549062,0.4284751495368778,-0.3092583299387246
1772641322524541700,5.174541748046875,-0.9786398654609918,0.4325240596015006,-0.2608143978305161
1772641322534586600,5.184586669921875,-0.7968038734078406,0.4123761745858937,-0.23808928273804483
1772641322544631800,5.1946318359375,-0.6905570830851793,0.3392592081878334,-0.24067539024110882
1772641322554677800,5.204677734375,-0.5239665909588337,0.2492489015907049,-0.2646435641972348
1772641322564722700,5.21472265625,-0.2789882062941789,0.18389518960528076,-0.3577012756662443
1772641322574767600,5.224767578125,-0.05011164612472057,0.1477695448655635,-0.48930407757423816
1772641322584812500,5.2348125,0.19206454060077666,0.13294227035082876,-0.6537272355988621
1772641322594858800,5.244858642578125,0.3931687122255563,0.13590185080878436,-0.7628584953166544
1772641322604903700,5.254903564453125,0.5561123722821474,0.18871464565098284,-0.7375514739722013
1772641322614948900,5.264948974609375,0.7095926229447126,0.2573360541954636,-0.6085849753845483
1772641322624994800,5.274994873046875,0.836197726163268,0.38905068244747815,-0.4341029993560165
1772641322635039700,5.285039794921875,0.9178823221594095,0.5476566786259413,-0.24542642069309947
1772641322645084700,5.295084716796875,0.9918412923395633,0.7106381864748895,-0.11370499737411736
1772641322655130600,5.305130615234375,0.9959352836549281,0.8607838858872652,-0.018959990405291317
1772641322665175600,5.315175537109375,0.9971920057177543,0.9874522636003792,0.043932226837426425
1772641322675220700,5.325220703125,1.045024600994587,1.0606352079067378,0.09498086155131459
1772641322685265700,5.335265625,1.0325544110000133,1.1090107509538532,0.1510147373318672
1772641322695312000,5.345311767578125,1.0383774180650711,1.1509917706582695,0.20242241461649535
1772641322705356500,5.3553564453125,1.1266975065529345,1.1752417572304605,0.29578027807585894
1772641322715401700,5.365401611328125,1.1505150199919938,1.1875786031689495,0.3724574211735278
1772641322725447700,5.37544775390625,1.1472598175883293,1.1913163283925503,0.4479038534324616
1772641322735492600,5.38549267578125,1.1146762293696404,1.1996383857317268,0.4935451492100954
1772641322745537800,5.395537841796875,1.0135685555011034,1.2299527138441801,0.5003508837021887
1772641322755583700,5.405583740234375,0.8906272354871034,1.245891164471209,0.498970242998749
1772641322765629200,5.415629150390625,0.7516776144802569,1.2152942930903285,0.5048028946749866
1772641322775674000,5.425674072265625,0.5609095434308051,1.1601264595545828,0.46127515698522326
1772641322785719000,5.435718994140625,0.40853111653029917,1.0994530874051154,0.33627142454870046
1772641322795765200,5.44576513671875,0.29327216771245,0.9950293477911502,0.2307299329511821
1772641322805810200,5.45581005859375,0.196525027140975,0.8061265591569244,0.13399901286214588
1772641322815855400,5.46585546875,0.09625614218413829,0.6221938140202313,0.024009675010293722
1772641322825901300,5.4759013671875,0.07170271568596363,0.4472384483262896,-0.09853643514104186
1772641322835946000,5.485946044921875,0.11705576910674571,0.26826040298752485,-0.19363580850549042
1772641322845991200,5.4959912109375,0.190460028013587,0.12708236534148454,-0.3173123109262436
1772641322856037000,5.506037109375,0.17023732419610021,-0.01273844900932163,-0.42259566304422913
1772641322866082300,5.516082275390625,0.11117372533082961,-0.15896964185908435,-0.4708983600508421
1772641322876127200,5.526127197265625,0.12178455119431018,-0.2584098939720541,-0.4998170690864324
1772641322886172400,5.53617236328125,0.1608832203954458,-0.3415653297057375,-0.5042245102651417
1772641322896218400,5.54621826171875,0.2162625777900219,-0.3832499968120828,-0.47733548042625185
1772641322906263000,5.556262939453125,0.31125030747354027,-0.4391421260343864,-0.40245172355137765
1772641322916308200,5.56630810546875,0.4091442799925804,-0.4574521646309644,-0.35598004136420786
1772641322926354200,5.576354248046875,0.46882805658280846,-0.4643621266825124,-0.3205512197822332
1772641322936399000,5.586399169921875,0.4836106151729822,-0.45302503237109626,-0.25786701926700767
1772641322946444300,5.5964443359375,0.4328665163636207,-0.40507217171546067,-0.1828226650029421
1772641322956490200,5.606490234375,0.3863865047395229,-0.35677995957024394,-0.1341408324856311
1772641322966535200,5.61653515625,0.3082990564525127,-0.3322016908917576,-0.08149659914337098
1772641322976580000,5.626580078125,0.21046762777566907,-0.31680136572942136,-0.04611139750741422
1772641322986625300,5.636625244140625,0.16038403870165346,-0.30154340817984193,-0.05734210883490741
1772641322996671200,5.646671142578125,0.11462708065509795,-0.2874103995395824,-0.07658033165968954
1772641323006716200,5.656716064453125,0.0635644174158573,-0.27892213705433533,-0.08836721556521952
1772641323016761300,5.66676123046875,0.004848024553060532,-0.27191068738969043,-0.03662752984724939
1772641323026807300,5.676807373046875,-0.07619827353954314,-0.33934118738286195,0.03226297796219587
1772641323036852200,5.686852294921875,-0.12429682627618312,-0.4094909014731645,0.049831440943852064
1772641323046897200,5.696897216796875,-0.11362579465806484,-0.463228336879611,0.001372165136039257
1772641323056942300,5.7069423828125,-0.1015975032120943,-0.5150767802016809,-0.11342530364990233
1772641323066988300,5.71698828125,-0.11168927363753318,-0.5671583381598815,-0.229655873978883
1772641323077033200,5.727033203125,-0.1235527299106121,-0.6093181119646877,-0.2972077535957098
1772641323087078100,5.737078125,-0.1747778902351856,-0.6682787619121372,-0.33698322607986625
1772641323097124000,5.7471240234375,-0.20955811171531677,-0.7201653818201273,-0.3035186903081834
1772641323107169000,5.7571689453125,-0.20689619902968406,-0.7309232880041002,-0.26929705255888403
1772641323117214200,5.767214111328125,-0.18553952274620533,-0.7400345229595899,-0.2289968986134976
1772641323127260200,5.77726025390625,-0.13386661865413188,-0.7539237859718501,-0.18918847370781003
1772641323137305300,5.787305419921875,-0.012058686584234236,-0.7905593529950827,-0.10597557216584681
1772641323147350000,5.79735009765625,0.12983341761529446,-0.824038282618299,0.0009629267480224371
1772641323157396000,5.80739599609375,0.2686860079884529,-0.8384981120601296,0.05183635102547705
1772641323167441200,5.817441162109375,0.3581488367706537,-0.7942254012219607,0.05375336362794041
1772641323177486000,5.827486083984375,0.3590069149047136,-0.7320574796658009,0.07624138202890754
1772641323187531300,5.83753125,0.22160452333986758,-0.646030178290233,0.11581884772293269
1772641323197577200,5.8475771484375,0.042322891944646834,-0.5395373773172497,0.15533033550865946
1772641323207622400,5.857622314453125,-0.08550620011091231,-0.4330666055129841,0.18120353936851025
1772641323217667000,5.8676669921875,-0.188386144348979,-0.35608836057689036,0.19707981147952378
1772641323227713000,5.877713134765625,-0.25432255159318445,-0.3421214657511562,0.21680567169077694
1772641323237758200,5.88775830078125,-0.263847920307517,-0.3929858664719388,0.2722779315331951
1772641323247803100,5.89780322265625,-0.30692075383663175,-0.4380442843277007,0.3054031158152968
1772641323257848300,5.907848388671875,-0.40776247024536133,-0.4803083222245797,0.2750874725285917
1772641323267894300,5.917894287109375,-0.5721072292715311,-0.5619676011163741,0.2903612487018108
1772641323277939200,5.927939208984375,-0.7444576000988483,-0.7213681817386299,0.35077728508934375
1772641323287984000,5.937984130859375,-0.8384200783878565,-0.8595366623051464,0.341900626074709
1772641323298030000,5.948030029296875,-0.9433528635025024,-0.8772833313979208,0.2457419163830578
1772641323308075300,5.9580751953125,-1.1295873827755452,-0.8597550542961806,0.1694831813605502
1772641323318120200,5.9681201171875,-1.2734814744472502,-0.8494152273938059,0.1060395042475313
1772641323328166100,5.978166259765625,-1.327020756933093,-0.7252589786320924,0.006555741786397993
1772641323338211300,5.98821142578125,-1.3019991284012793,-0.45433158492501824,-0.12891951764076948
1772641323348256000,5.998256103515625,-1.1859288632005451,-0.12987941218148916,-0.26015797974839805
1772641323358301200,6.00830126953125,-1.0872919633597136,0.18455694144964216,-0.3140614559041336
1772641323368347100,6.01834716796875,-1.1161416257470846,0.445258270827122,-0.29044848859384653
1772641323378392300,6.028392333984375,-1.1070312675744294,0.6162871472597122,-0.19781042730901388
1772641323388437200,6.038437255859375,-1.0116197595208882,0.7073615028917789,-0.1090835846511647
1772641323398483200,6.048483154296875,-0.8969365647643804,0.7603937126383185,-0.10083981671258807
1772641323408528100,6.058528076171875,-0.7631453494340181,0.7768395282655954,-0.14639274008702485
1772641323418573000,6.068572998046875,-0.6198410403490067,0.7785702975809574,-0.13583996455371378
1772641323428619300,6.078619384765625,-0.4690203642845154,0.7469776200957596,-0.09735887926165014
1772641323438664200,6.088664306640625,-0.2730389425009489,0.6941125836096703,-0.014276106905378401
1772641323448709400,6.09870947265625,-0.03820084357857704,0.6511236289717257,0.066740636299178
1772641323458754300,6.10875439453125,0.22424656228125095,0.6408571595665067,0.16719203821606934
1772641323468800300,6.11880029296875,0.5197182858645916,0.6587183218844235,0.24882936100438235
1772641323478845200,6.12884521484375,0.836447901532054,0.6854985575865954,0.38553544086813923
1772641323488890000,6.13889013671875,1.0841735390782357,0.7302917851675301,0.4790463759973645
1772641323498936000,6.14893603515625,1.3258376846283673,0.7874399788655341,0.5348770573560148
1772641323508981200,6.158981201171875,1.4127543360590933,0.8574377172645181,0.5049218083469197
1772641323519026200,6.169026123046875,1.4892852025538683,0.9017051674056797,0.43283849584553385
1772641323529072400,6.179072265625,1.472584243121743,0.9364887498866766,0.34495727369897067
1772641323539117000,6.189116943359375,1.4679980843752622,0.9391545350298285,0.22454916195701807
1772641323549162200,6.199162353515625,1.4054641790509224,0.9009967268753797,0.06433346555959434
1772641323559207200,6.209207275390625,1.3490209918171168,0.878265912694484,-0.08849727168567478
1772641323569253000,6.219253173828125,1.3494167131364345,0.89497205975838,-0.22377741039954124
1772641323579298300,6.22929833984375,1.3885966308802364,0.868284324645251,-0.31000476439185437
1772641323589343200,6.23934326171875,1.4470932435125112,0.8250112193036824,-0.3279500247966498
1772641323599389200,6.24938916015625,1.5089678081452846,0.8100403715997934,-0.34366241158284244
1772641323609434000,6.25943408203125,1.4646967047423123,0.8121690541915595,-0.3386469215083867
1772641323619479300,6.269479248046875,1.2820879747509955,0.8097610432017595,-0.3402825598862022
1772641323629525200,6.279525146484375,0.9438877010315656,0.83173665510118,-0.35121885484438387
1772641323639570200,6.289570068359375,0.5376368043929338,0.825475841140747,-0.3576503857292235
1772641323649615400,6.299615478515625,0.19350187992751597,0.7948998664174228,-0.3833184589384123
1772641323659660000,6.309659912109375,-0.16351707603037358,0.7727920795056968,-0.44242721211966124
1772641323669706000,6.3197060546875,-0.49387365051209925,0.7232437663521617,-0.4792644391948357
1772641323679751200,6.329751220703125,-0.6389736108422279,0.625992840977013,-0.47959169838782395
1772641323689796000,6.339796142578125,-0.655322103574872,0.479654096099548,-0.5046365251321345
1772641323699842300,6.34984228515625,-0.506444378271699,0.3269758460022509,-0.512519131608121
1772641323709887200,6.35988720703125,-0.3759188867390156,0.1739405626282096,-0.5086758271181956
1772641323719932200,6.36993212890625,-0.2664554724574089,0.05944169319635257,-0.5234084090868011
1772641323729977000,6.37997705078125,-0.2281084984064102,-0.06749857852701098,-0.50058977049198
1772641323740023000,6.39002294921875,-0.09953530998528003,-0.16132959418976678,-0.4517376959742978
1772641323750068200,6.400068115234375,0.07202478724718094,-0.23180559935867784,-0.3797017297459766
1772641323760113200,6.410113037109375,0.23311902004480362,-0.25107483837623146,-0.2938612196467817
1772641323770159000,6.4201591796875,0.41082419590353964,-0.26471394428601486,-0.23305662233307955
1772641323780203800,6.430203857421875,0.45199908685684204,-0.26273994079930707,-0.22099793574884533
1772641323790249000,6.4402490234375,0.4478828837096691,-0.3066962243657559,-0.2186006653487682
1772641323800295000,6.450294921875,0.43243864634037016,-0.29833876691963523,-0.20598094734828917
1772641323810339800,6.46033984375,0.408507151132822,-0.24893970777736976,-0.2044966636072844
1772641323820385000,6.470385009765625,0.34312837777137756,-0.16935613918108863,-0.20231584896948188
1772641323830429700,6.4804296875,0.19373685772716998,-0.13670808915775268,-0.1739082677938044
1772641323840476000,6.490475830078125,0.02880699228942394,-0.12730830131815746,-0.13882749246452003
1772641323850520800,6.500520751953125,-0.11616378870308398,-0.0960769314260222,-0.12753062056563794
1772641323860566000,6.51056591796875,-0.24473989973366259,-0.09126315620243548,-0.09621876931581645
1772641323870612000,6.520612060546875,-0.34368192000091075,-0.10084130541677586,-0.04951196319852024
1772641323880657000,6.530656982421875,-0.38892800591588017,-0.11541258674329145,0.0071909709500148885
1772641323890702000,6.5407021484375,-0.4734884496092796,-0.14224022351745516,0.004429141553863883
1772641323900748000,6.550748046875,-0.5363023409187794,-0.19089145996710286,-0.04119724891558289
1772641323910792700,6.560792724609375,-0.5875502975970507,-0.22429361629337072,-0.09093867348842322
1772641323920838000,6.570837890625,-0.6007143150746822,-0.26285817861780525,-0.13221636722907423
1772641323930882800,6.5808828125,-0.5491057083904742,-0.29905078764650966,-0.17595343682058154
1772641323940929000,6.590928955078125,-0.5224129317760468,-0.30272914736568923,-0.21263335444219408
1772641323950974000,6.600973876953125,-0.48092298352420326,-0.3341731736278161,-0.2557487850040197
1772641323961019000,6.611018798828125,-0.4214344372451305,-0.374275941837579,-0.2565234957035631
1772641323971064800,6.62106494140625,-0.26623510770499703,-0.4320560767635703,-0.2532246002886444
1772641323981109800,6.63110986328125,-0.12140519648790359,-0.48910811661072073,-0.2575414405744523
1772641323991155000,6.641155029296875,-0.017194880428910254,-0.5332467527404428,-0.2914545968964696
1772641324001201000,6.651200927734375,0.12600479923784733,-0.5668426963394507,-0.31661957942172886
1772641324011246000,6.66124609375,0.23338556202650068,-0.5754653805930167,-0.3330743090078234
1772641324021291000,6.671291015625,0.30855156990885735,-0.5509764341657981,-0.34791400461271405
1772641324031336000,6.6813359375,0.3562327740162611,-0.4906065384749323,-0.32286680324822664
1772641324041382000,6.6913818359375,0.3326940775185823,-0.4039158778198063,-0.31267581023201346
1772641324051426800,6.7014267578125,0.23693536346256733,-0.3288390095256269,-0.3188514301270246
1772641324061472000,6.711471923828125,0.1297398941129446,-0.27980463724359866,-0.33528255964182313
1772641324071518000,6.72151806640625,0.09066226769983768,-0.24227741861026733,-0.3407430170048028
1772641324081563000,6.73156298828125,0.058030748686194414,-0.23224315052572636,-0.3254953981861472
1772641324091607800,6.74160791015625,0.11119359907507896,-0.24112057672534137,-0.33438677984587845
1772641324101652700,6.75165283203125,0.16323942813277242,-0.24987236725129186,-0.36754378403835
1772641324111699000,6.761698974609375,0.16791034255325793,-0.21343663364909587,-0.3804804955661297
1772641324121744000,6.771743896484375,0.145852824524045,-0.2186396821849048,-0.25296755678765476
1772641324131789000,6.7817890625,0.13630349041223525,-0.25833383306115865,0.024582141136005518
1772641324141835000,6.7918349609375,0.21580665071606636,-0.2760256301615387,0.3397540059674531
1772641324151879700,6.801879638671875,0.18729484198093413,-0.21871099385544657,0.5237520714253187
1772641324161924900,6.8119248046875,0.10848317107260226,-0.1572153455376625,0.6103647714734077
1772641324171970800,6.821970703125,0.13006079663038253,-0.09522468024455011,0.6044619771704077
1772641324182016000,6.83201611328125,-0.022932547298073768,-0.04075556956268847,0.45460861176811157
1772641324192061000,6.84206103515625,-0.24614099870324133,0.03450286584347486,0.11069916662164032
1772641324202106000,6.852106201171875,-0.4956669636696577,0.07921382196843624,-0.32105895010866226
1772641324212152000,6.862152099609375,-0.8177244963616133,0.11164346173442899,-0.6819296861238777
1772641324222196700,6.87219677734375,-1.0833078621596097,0.17851437334977088,-0.8913967585548758
1772641324232242000,6.882241943359375,-1.358149470168352,0.2876106348194182,-0.9788809807404876
1772641324242287900,6.892287841796875,-1.595672862651944,0.42276773167550563,-0.9293111864075064
1772641324252332800,6.902332763671875,-1.6699679329186676,0.6068404698047787,-0.7986679137140512
1772641324262378000,6.9123779296875,-1.6435282542824745,0.7380604464076459,-0.6425820836629719
1772641324272424000,6.922423828125,-1.55099493201375,0.775088519879803,-0.539733265215531
1772641324282468900,6.93246875,-1.4043506648510693,0.6955988766446709,-0.5478293317791074
1772641324292513800,6.942513671875,-1.1522773534893989,0.5933211360834538,-0.6405988739565014
1772641324302559000,6.95255908203125,-0.8681465236097574,0.49176520699076354,-0.7791245704628527
1772641324312605000,6.96260498046875,-0.6202835234194993,0.39963768904395397,-0.9118767250690609
1772641324322649900,6.97264990234375,-0.3743710727751255,0.3085816727861762,-1.0408763222087174
1772641324332695000,6.982695068359375,-0.15524316868185997,0.2312503035634756,-1.078505503379181
1772641324342741000,6.992740966796875,0.08160159388780594,0.19990290607623754,-1.0219975072808563
1772641324352786000,7.002785888671875,0.30431670881807804,0.18466091328077017,-0.9164835612773895
1772641324362830800,7.012830810546875,0.661437371584773,0.19894107530675828,-0.8991992489993572
1772641324372876000,7.0228759765625,0.8733101899832486,0.18730426739640532,-0.8280347318433224
1772641324382922000,7.032921875,1.0531325041264294,0.2096286196682602,-0.6754624628711492
1772641324392967000,7.042966796875,1.3784171821713447,0.23581439660862086,-0.5144020592778921
1772641324403011800,7.05301171875,1.505783332890272,0.28210516927093265,-0.35768048860654234
1772641324413057800,7.063057861328125,1.587041812428832,0.39764541924819347,-0.25217092651724815
1772641324423103000,7.07310302734375,1.6607611286342143,0.4835355771753937,-0.1202211743351072
1772641324433148000,7.08314794921875,1.511965820917487,0.5964457709100097,0.0021482640750706194
1772641324443193900,7.09319384765625,1.3876947136044502,0.700322324969992,0.07568857045173645
1772641324453239000,7.103239013671875,1.3043337088286875,0.8139223275996744,0.16968677764125167
1772641324463284000,7.113283935546875,1.2125292853564023,0.8763572295289486,0.2745688554819673
1772641324473329000,7.123328857421875,1.1345295153528452,0.9265051890760659,0.39099173351265487
1772641324483374800,7.133374755859375,1.1140922920018435,0.9765330293748528,0.5175458371963352
1772641324493419800,7.143419677734375,1.0379413647353648,1.0492967253558336,0.6253837691679597
1772641324503465000,7.15346484375,0.9127847067594528,1.0513816418711095,0.6946290817644447
1772641324513511000,7.163510986328125,0.8135381505876779,1.1273711680307983,0.8087449249617755
1772641324523556000,7.17355615234375,0.7031324870198965,1.2531450811222196,1.0113871928740292
1772641324533600800,7.183600830078125,0.5263602080971003,1.1927031065758318,0.9867897811036557
1772641324543646700,7.193646728515625,0.26949790889322756,1.1538388306524603,0.8736468015264719
1772641324553692000,7.20369189453125,0.02805763522684574,1.1139683733612298,0.6403720063980668
1772641324563736800,7.21373681640625,-0.14266542665958404,0.976839830301702,0.32696342491209507
1772641324573782000,7.223781982421875,-0.29157062449157234,0.8073596811484545,0.05775763083323836
1772641324583828000,7.233827880859375,-0.33374621692001816,0.6397212874043733,-0.1449126210644841
1772641324593873000,7.243872802734375,-0.28005554326474663,0.4805698592375964,-0.3041093496777117
1772641324603917800,7.253917724609375,-0.24521160889863966,0.33726752291396256,-0.3883237564124167
1772641324613963800,7.2639638671875,-0.16431085675656795,0.20731186715848743,-0.4210671383026987
1772641324624009000,7.274009033203125,-0.06625088002085686,0.11129128729589283,-0.3926546982888132
1772641324634054000,7.284053955078125,0.02099310366809368,0.040942762697860596,-0.3770952370420098
1772641324644099000,7.29409912109375,0.055391632354259486,0.008816635923087596,-0.37414815073944624
1772641324654145000,7.30414501953125,0.09517010051310063,-0.020372049160301685,-0.3932297216977924
1772641324664189700,7.314189697265625,0.1760030481159687,-0.02093698956668377,-0.40910489783026277
1772641324674235000,7.32423486328125,0.23749007473587988,-0.033777985635027284,-0.42530097648017107
1772641324684280800,7.33428076171875,0.2827998735368252,-0.06047280807606876,-0.420531789316982
1772641324694326000,7.344325927734375,0.2729384047359228,-0.0804672560956329,-0.3941215559709817
1772641324704371000,7.354370849609375,0.2526163321971893,-0.08855828115791081,-0.3336416605670005
1772641324714417000,7.3644169921875,0.20460604226589202,-0.060352213903702795,-0.27928938119783997
1772641324724461800,7.3744619140625,0.18313246160447597,-0.04253335635755211,-0.20290406065359712
1772641324734506800,7.3845068359375,0.1746826131671667,-0.05765738532915711,-0.18695136230550705
1772641324744552000,7.394552001953125,0.12378829223215579,-0.07480210647340864,-0.19030659101754427
1772641324754598000,7.404597900390625,0.10309797090291976,-0.10606259286217391,-0.20389329088665545
1772641324764643000,7.41464306640625,0.12911913186609744,-0.12919968628901987,-0.2209066042035818
1772641324774687700,7.424687744140625,0.10185819997489452,-0.17989128772616386,-0.2594359490841627
1772641324784733700,7.434733642578125,0.08352291733920574,-0.22144282997213302,-0.2816185547977686
1772641324794779000,7.44477880859375,0.05847907697558403,-0.26231365994494404,-0.312452815131098
1772641324804823800,7.45482373046875,0.06136076989173889,-0.3221984755326062,-0.308727876323834
1772641324814869800,7.464869873046875,0.09940320803821086,-0.3958842182619497,-0.31717187954224646
1772641324824914700,7.474914794921875,0.09752747729420662,-0.4430566325969994,-0.30297778836451467
1772641324834960000,7.4849599609375,0.08439385495483875,-0.5105261311599985,-0.2841040149379521
1772641324845004800,7.4950048828125,0.026288871988654136,-0.5788966702159494,-0.24723989985585212
1772641324855050800,7.50505078125,0.05953296994268894,-0.6278156724900007,-0.267121973542124
1772641324865096000,7.515095947265625,0.08327683362364768,-0.6819139040328562,-0.28544629639238117
1772641324875140600,7.525140625,0.1455044494777918,-0.6956392086550593,-0.2746906552307308
1772641324885186600,7.5351865234375,0.20345044248998165,-0.6978323347851634,-0.2185390713546425
1772641324895231700,7.545231689453125,0.24463760840296744,-0.7144937659244984,-0.1184119329560548
1772641324905276700,7.555276611328125,0.32755729915201665,-0.7124760694265365,-0.0391672774579376
1772641324915323000,7.565322998046875,0.36625615538060663,-0.7130792960166931,0.036383345827832814
1772641324925367800,7.575367919921875,0.3778156602710485,-0.7117205018188804,0.06873590176962316
1772641324935413000,7.5854130859375,0.4008446536809206,-0.7326328684009611,0.0706696463111788
1772641324945457700,7.595457763671875,0.42402445373833175,-0.7729121987540274,0.11060228211842477
1772641324955503600,7.605503662109375,0.4193605535805225,-0.7837382748033851,0.10871595691516994
1772641324965548800,7.615548828125,0.37359541222751136,-0.7953051592826843,0.09117233611382544
1772641324975593700,7.62559375,0.30849837841689587,-0.7792077187016606,0.05880399808101356
1772641324985640000,7.635639892578125,0.22476503319740293,-0.7312630413524807,0.04274279785715043
1772641324995684900,7.645684814453125,0.09720072955787182,-0.6432952734336257,0.05520641198046505
1772641325005729800,7.655729736328125,-0.011339140138030052,-0.5702546967400237,0.0732403005167842
1772641325015774700,7.665774658203125,-0.11488193219900131,-0.5115358196591958,0.12413644808270037
1772641325025820700,7.675820556640625,-0.24644495008587836,-0.4629689918236807,0.13856244832016526
1772641325035865900,7.685865966796875,-0.4068792576700449,-0.40176739454902705,0.12963972167409957
1772641325045910800,7.695910888671875,-0.5663175399541854,-0.34991796484626825,0.09605740474164486
1772641325055956700,7.705956787109375,-0.6691261725217104,-0.37282073806058613,0.08860460451766848
1772641325066002000,7.716001953125,-0.7221966684520245,-0.4272238708341494,0.06887487184889614
1772641325076046600,7.726046630859375,-0.7521686128675937,-0.5344412597546354,0.09750804194137454
1772641325086092800,7.7360927734375,-0.6956383318722248,-0.7240007952645421,0.14403759179562328
1772641325096137700,7.7461376953125,-0.5140402402281761,-0.8823243943050503,0.1638569024439901
1772641325106183000,7.756182861328125,-0.3394271851658821,-0.9206649386152624,0.14236600532159208
1772641325116227800,7.766227783203125,-0.327000834313035,-0.9030635962773114,0.14119433119371533
1772641325126273800,7.776273681640625,-0.441892703384161,-0.8677863850604742,0.08746931687742471
1772641325136318700,7.786318603515625,-0.580246112063527,-0.8206146648451685,0.05125241365768015
1772641325146363600,7.79636376953125,-0.6290688874214887,-0.7408053612016141,0.004077259376272559
1772641325156409900,7.806409912109375,-0.6824310597747564,-0.5619274883016944,-0.11595686795413493
1772641325166454800,7.816454833984375,-0.84313190934062,-0.36848515654169023,-0.2438758302502334
1772641325176500000,7.8265,-1.0519237128585577,-0.1354498692575842,-0.2074162773810327
1772641325186544600,7.836544677734375,-1.1148346348017453,0.1118662376396358,-0.01486862943843007
1772641325196590600,7.846590576171875,-1.076112397697568,0.2966982331709936,0.1879291212964803
1772641325206635800,7.8566357421875,-1.0269593674719333,0.456746062188223,0.3878399184182286
1772641325216680700,7.8666806640625,-0.809755709439516,0.5795484121229499,0.5273458581335843
1772641325226726700,7.8767265625,-0.6509370203584433,0.7382512197393923,0.5788203901093453
1772641325236771800,7.886771728515625,-0.5068465293318033,0.7002749786969273,0.6458602285508066
1772641325246816800,7.896816650390625,-0.352571913421154,0.7160339080385864,0.647427916258946
1772641325256863000,7.906863037109375,-0.22212767043113707,0.7561157430581747,0.6264443110715597
1772641325266907600,7.91690771484375,0.03553717732727527,0.6593651684205979,0.6326817441564053
1772641325276952800,7.926952880859375,0.41117549355924127,0.6375226813815533,0.6216964589573443
1772641325286997800,7.936997802734375,0.7052578086107969,0.6631670449215918,0.5525218004442751
1772641325297043700,7.947043701171875,0.7380845579355955,0.7850613401006907,0.46230698425099254
1772641325307089000,7.9570888671875,0.6952361808121204,0.866023978497833,0.432260440229252
1772641325317133600,7.967133544921875,0.7294149292677641,0.9243431156713515,0.4239719198334962
1772641325327179800,7.9771796875,0.730478174585104,1.0021532813869416,0.4019220736540854
1772641325337224700,7.987224609375,0.6320628085404634,1.0391424110881984,0.30096586402021347
1772641325347270000,7.997269775390625,0.6738672295689583,1.1056716696590185,0.255130945366621
1772641325357315800,8.00731591796875,0.8921955077171325,1.1834211912285535,0.3230995890907943
1772641325367360800,8.01736083984375,1.0869511870980262,1.1418443684108555,0.4077625433105975
