time,seconds_elapsed,z,y,x
1772641317411483600,0.061483642578125,0.1386301964521408,0.19498296082019806,0.004562582820653915
1772641317421528600,0.071528564453125,0.14226697385311127,0.19185122847557068,0.008237562142312527
1772641317431573500,0.081573486328125,0.13252434134483337,0.17232440412044525,0.01023972686380148
1772641317441618700,0.09161865234375,0.11775808781385422,0.13414877653121948,0.017604121938347816
1772641317451664400,0.101664306640625,0.11263629794120789,0.09374755620956421,0.024161357432603836
1772641317461709600,0.11170947265625,0.10376376658678055,0.049907002598047256,0.03606495261192322
1772641317471754500,0.12175439453125,0.09828111529350281,0.024806976318359375,0.04818020761013031
1772641317481800400,0.131800537109375,0.0927654504776001,0.015597361139953136,0.05347013473510742
1772641317491845600,0.141845703125,0.08963117748498917,0.008497639559209347,0.0459272637963295
1772641317501890600,0.151890625,0.07839854806661606,-0.008786337450146675,0.027377570047974586
1772641317511936800,0.161936767578125,0.06980586051940918,-0.025348003953695297,0.0028589109424501657
1772641317521981400,0.1719814453125,0.061239201575517654,-0.03353516012430191,-0.022719532251358032
1772641317532026600,0.182026611328125,0.06009138002991676,-0.03895043209195137,-0.053367458283901215
1772641317542071600,0.192071533203125,0.05565861240029335,-0.037901684641838074,-0.08310441672801971
1772641317552117500,0.202117431640625,0.056714557111263275,-0.02968849427998066,-0.10824945569038391
1772641317562162700,0.21216259765625,0.05890456214547157,-0.02466004528105259,-0.14081336557865143
1772641317572207400,0.222207275390625,0.05712050944566727,-0.021249335259199142,-0.17225012183189392
1772641317582253600,0.232253662109375,0.052900973707437515,-0.02577364817261696,-0.20914287865161896
1772641317592298500,0.242298583984375,0.04599433019757271,-0.03205578029155731,-0.2476218342781067
1772641317602343700,0.25234375,0.041473083198070526,-0.015625139698386192,-0.2831137776374817
1772641317612389600,0.2623896484375,0.04057826101779938,0.019623659551143646,-0.31209856271743774
1772641317622434600,0.2724345703125,0.041323285549879074,0.053267378360033035,-0.34122106432914734
1772641317632479700,0.282479736328125,0.037596724927425385,0.06074606627225876,-0.37433934211730957
1772641317642525700,0.292525634765625,0.03455342352390289,0.07598599791526794,-0.39485594630241394
1772641317652570400,0.3025703125,0.027941590175032616,0.09540736675262451,-0.4134581387042999
1772641317662615600,0.312615478515625,0.029064016416668892,0.11497581750154495,-0.4257848262786865
1772641317672660500,0.322660400390625,0.03291467949748039,0.14481519162654877,-0.42367082834243774
1772641317682706700,0.332706787109375,0.038828082382678986,0.1735958606004715,-0.4105191230773926
1772641317692751600,0.342751708984375,0.04982134699821472,0.19880960881710052,-0.3793838620185852
1772641317702796500,0.352796630859375,0.057175248861312866,0.21239638328552246,-0.3320547342300415
1772641317712842500,0.362842529296875,0.06801271438598633,0.20504899322986603,-0.27356478571891785
1772641317722887400,0.372887451171875,0.07509638369083405,0.16819481551647186,-0.21260613203048706
1772641317732932600,0.3829326171875,0.06961506605148315,0.1151164248585701,-0.14806576073169708
1772641317742977500,0.3929775390625,0.05674239620566368,0.05988560616970062,-0.08580305427312851
1772641317753023700,0.403023681640625,0.04098314046859741,0.0024140560999512672,-0.029579998925328255
1772641317763068700,0.413068603515625,0.025162020698189735,-0.04549948126077652,0.02402835711836815
1772641317773113600,0.423113525390625,0.009400369599461555,-0.10284240543842316,0.06422290951013565
1772641317783159600,0.43315966796875,-0.004778479691594839,-0.16503188014030457,0.09159211069345474
1772641317793204500,0.44320458984375,-0.015789052471518517,-0.222513809800148,0.11123531311750412
1772641317803249700,0.453249755859375,-0.026545830070972443,-0.27447760105133057,0.11624867469072342
1772641317813295600,0.463295654296875,-0.043472085148096085,-0.307916522026062,0.11381827294826508
1772641317823340500,0.473340576171875,-0.06423171609640121,-0.3285323977470398,0.10695847123861313
1772641317833385500,0.483385498046875,-0.0863862931728363,-0.33302488923072815,0.09554708749055862
1772641317843431400,0.493431396484375,-0.10606087744235992,-0.3312394917011261,0.08138303458690643
1772641317853476600,0.5034765625,-0.1272449791431427,-0.3068196177482605,0.06726162135601044
1772641317863521500,0.513521484375,-0.15555307269096375,-0.2804422676563263,0.046949490904808044
1772641317873566700,0.523566650390625,-0.18762819468975067,-0.25597450137138367,0.03026692010462284
1772641317883612700,0.53361279296875,-0.21916405856609344,-0.23417112231254578,0.015069730579853058
1772641317893657600,0.54365771484375,-0.24598315358161926,-0.2094322144985199,0.00590685848146677
1772641317903702500,0.55370263671875,-0.2685370445251465,-0.1898432821035385,-0.001685725525021553
1772641317913748500,0.56374853515625,-0.2837327718734741,-0.17718926072120667,-0.0034591248258948326
1772641317923793700,0.573793701171875,-0.29505154490470886,-0.15935035049915314,0.0005183308385312557
1772641317933838600,0.583838623046875,-0.302292138338089,-0.14106029272079468,0.01517636887729168
1772641317943884500,0.593884521484375,-0.3090941905975342,-0.13834019005298615,0.030050810426473618
1772641317953929700,0.6039296875,-0.31805679202079773,-0.14179670810699463,0.04679969698190689
1772641317963974400,0.613974365234375,-0.32238277792930603,-0.15000545978546143,0.06625402718782425
1772641317974019600,0.62401953125,-0.32538682222366333,-0.1510198563337326,0.07953521609306335
1772641317984065500,0.6340654296875,-0.33386316895484924,-0.1499428004026413,0.08898504823446274
1772641317994110500,0.6441103515625,-0.342212975025177,-0.15161873400211334,0.08999279141426086
1772641318004155600,0.65415576171875,-0.3497315049171448,-0.14529457688331604,0.09064517170190811
1772641318014201600,0.66420166015625,-0.34853309392929077,-0.1395019292831421,0.08944621682167053
1772641318024246500,0.67424658203125,-0.33623206615448,-0.13449473679065704,0.08768463879823685
1772641318034291500,0.68429150390625,-0.314818412065506,-0.12470708042383194,0.08971236646175385
1772641318044337400,0.69433740234375,-0.29676368832588196,-0.1204603984951973,0.09702492505311966
1772641318054382600,0.704382568359375,-0.2756648063659668,-0.11102987825870514,0.1113029271364212
1772641318064427500,0.714427490234375,-0.2558102011680603,-0.11748384684324265,0.12723997235298157
1772641318074472700,0.72447265625,-0.23947487771511078,-0.12352442741394043,0.15110616385936737
1772641318084518700,0.7345185546875,-0.22714149951934814,-0.13016477227210999,0.1837388575077057
1772641318094563600,0.7445634765625,-0.2158273309469223,-0.12600624561309814,0.2311210185289383
1772641318104608500,0.7546083984375,-0.20183339715003967,-0.10773515701293945,0.29035916924476624
1772641318114654500,0.764654541015625,-0.19901950657367706,-0.12029062956571579,0.34127241373062134
1772641318124699600,0.77469970703125,-0.2057700902223587,-0.15279410779476166,0.36948156356811523
1772641318134744600,0.78474462890625,-0.21487544476985931,-0.19095507264137268,0.3686615824699402
1772641318144790500,0.79479052734375,-0.2361927628517151,-0.2214440107345581,0.3412078619003296
1772641318154835500,0.80483544921875,-0.2589593231678009,-0.23753322660923004,0.2890831530094147
1772641318164880600,0.814880615234375,-0.28204411268234253,-0.24650375545024872,0.20602068305015564
1772641318174925600,0.824925537109375,-0.30065667629241943,-0.24319130182266235,0.09033162891864777
1772641318184971500,0.834971435546875,-0.31573131680488586,-0.2152732014656067,-0.054632559418678284
1772641318195016700,0.8450166015625,-0.3366704285144806,-0.15241087973117828,-0.22400854527950287
1772641318205061600,0.8550615234375,-0.3539731204509735,-0.042063936591148376,-0.3858667016029358
1772641318215107600,0.865107666015625,-0.35509881377220154,0.09500070661306381,-0.5152294635772705
1772641318225152500,0.875152587890625,-0.3286755084991455,0.2096870094537735,-0.5905809998512268
1772641318235197400,0.885197509765625,-0.2847360074520111,0.27878859639167786,-0.6071264147758484
1772641318245243600,0.89524365234375,-0.23152130842208862,0.32123881578445435,-0.5639591217041016
1772641318255288600,0.90528857421875,-0.1643260270357132,0.3641902804374695,-0.44925543665885925
1772641318265333800,0.915333740234375,-0.10764722526073456,0.35056009888648987,-0.2947778105735779
1772641318275378400,0.92537841796875,-0.06991289556026459,0.3039284348487854,-0.11451592296361923
1772641318285424400,0.93542431640625,-0.05226075276732445,0.22204121947288513,0.06904572248458862
1772641318295469600,0.945469482421875,-0.04801167920231819,0.12158279120922089,0.24913613498210907
1772641318305514500,0.955514404296875,-0.04844876378774643,0.0012951919343322515,0.408154159784317
1772641318315560700,0.965560791015625,-0.05123629420995712,-0.12206030637025833,0.5448750257492065
1772641318325605600,0.975605712890625,-0.05907613784074783,-0.2211107760667801,0.6459819078445435
1772641318335650600,0.985650634765625,-0.060595471411943436,-0.2772696614265442,0.7059568166732788
1772641318345696500,0.995696533203125,-0.062011998146772385,-0.31165626645088196,0.7144635915756226
1772641318355741400,1.005741455078125,-0.07493419200181961,-0.3104698359966278,0.6766621470451355
1772641318365786600,1.01578662109375,-0.08713427931070328,-0.28601735830307007,0.5992018580436707
1772641318375831600,1.02583154296875,-0.09432508051395416,-0.23434136807918549,0.4929090142250061
1772641318385877500,1.03587744140625,-0.09852322936058044,-0.15376031398773193,0.3566127419471741
1772641318395922700,1.045922607421875,-0.09822282940149307,-0.043854840099811554,0.20944936573505402
1772641318405967400,1.05596728515625,-0.09312110394239426,0.07579951733350754,0.05046223849058151
1772641318416013600,1.066013671875,-0.08650235086679459,0.1866173893213272,-0.115183986723423
1772641318426058500,1.07605859375,-0.08109656721353531,0.28306007385253906,-0.2792779207229614
1772641318436103700,1.086103759765625,-0.07666506618261337,0.3601279556751251,-0.4254268705844879
1772641318446149600,1.096149658203125,-0.07725366950035095,0.413348913192749,-0.5435645580291748
1772641318456194600,1.106194580078125,-0.07661610841751099,0.4503895044326782,-0.6184139847755432
1772641318466239500,1.116239501953125,-0.06753771752119064,0.4700542092323303,-0.6576275825500488
1772641318476284400,1.126284423828125,-0.03505939617753029,0.46067002415657043,-0.6540477871894836
1772641318486330600,1.13633056640625,0.019624529406428337,0.4292084574699402,-0.6216164827346802
1772641318496375600,1.14637548828125,0.09333683550357819,0.3838060796260834,-0.5574250221252441
1772641318506420700,1.156420654296875,0.17339278757572174,0.3433033227920532,-0.473876029253006
1772641318516466700,1.166466796875,0.2520303428173065,0.30328214168548584,-0.3751941919326782
1772641318526511600,1.17651171875,0.3175784647464752,0.25721949338912964,-0.28171879053115845
1772641318536556500,1.186556640625,0.35927557945251465,0.2118232697248459,-0.20342504978179932
1772641318546602500,1.1966025390625,0.3762088418006897,0.16849297285079956,-0.14594882726669312
1772641318556647400,1.2066474609375,0.38024672865867615,0.12607334554195404,-0.10217364877462387
1772641318566692600,1.216692626953125,0.3791568875312805,0.08477403968572617,-0.07720111310482025
1772641318576737500,1.226737548828125,0.3800295889377594,0.0462719202041626,-0.0665050595998764
1772641318586783700,1.23678369140625,0.380531907081604,0.011772462166845798,-0.07169695198535919
1772641318596828400,1.246828369140625,0.37556910514831543,-0.014709744602441788,-0.08774036914110184
1772641318606873600,1.25687353515625,0.3653751015663147,-0.02829006314277649,-0.10782705247402191
1772641318616919600,1.26691943359375,0.34801822900772095,-0.042290035635232925,-0.13274145126342773
1772641318626964500,1.276964599609375,0.3285481333732605,-0.05676751211285591,-0.15823109447956085
1772641318637009700,1.287009765625,0.30943194031715393,-0.06799939274787903,-0.18227916955947876
1772641318647055600,1.2970556640625,0.29395803809165955,-0.06900706887245178,-0.20251759886741638
1772641318657100800,1.307100830078125,0.2798217236995697,-0.05555544048547745,-0.21926674246788025
1772641318667145500,1.3171455078125,0.2654504179954529,-0.03882267326116562,-0.23508839309215546
1772641318677191400,1.32719140625,0.25214022397994995,-0.019527005031704903,-0.2480662316083908
1772641318687236600,1.337236572265625,0.2410990297794342,-0.0021241120994091034,-0.25495445728302
1772641318697281500,1.347281494140625,0.23803186416625977,0.010493146255612373,-0.24965158104896545
1772641318707326700,1.35732666015625,0.24402685463428497,0.009316770359873772,-0.23410558700561523
1772641318717372700,1.36737255859375,0.2512349486351013,-0.003786248154938221,-0.214041605591774
1772641318727417300,1.377417236328125,0.25319424271583557,-0.022185832262039185,-0.1886041760444641
1772641318737462500,1.387462646484375,0.2563170790672302,-0.03834483027458191,-0.1667601317167282
1772641318747508500,1.397508544921875,0.2589623034000397,-0.046528395265340805,-0.14342555403709412
1772641318757553700,1.4075537109375,0.25561684370040894,-0.0588495135307312,-0.12193996459245682
1772641318767599000,1.41759912109375,0.25506532192230225,-0.07493939250707626,-0.10281482338905334
1772641318777644000,1.42764404296875,0.2565886378288269,-0.08826638758182526,-0.08028820902109146
1772641318787690200,1.437690185546875,0.2589108943939209,-0.09294908493757248,-0.05297672748565674
1772641318797735200,1.447735107421875,0.2620600759983063,-0.07880450785160065,-0.02362150512635708
1772641318807780400,1.4577802734375,0.27099308371543884,-0.07559306919574738,0.006302805617451668
1772641318817826000,1.467825927734375,0.27532339096069336,-0.07075090706348419,0.037462055683135986
1772641318827871000,1.47787109375,0.2665616273880005,-0.04216673597693443,0.06330309808254242
1772641318837916200,1.487916259765625,0.2610483467578888,0.003309136489406228,0.08082003891468048
1772641318847962000,1.497962158203125,0.25402069091796875,0.06751129776239395,0.08200296759605408
1772641318858007300,1.50800732421875,0.25266751646995544,0.12663958966732025,0.06659498065710068
1772641318868052200,1.51805224609375,0.26362863183021545,0.16480782628059387,0.04818785563111305
1772641318878097200,1.52809716796875,0.280734121799469,0.17609882354736328,0.03729552775621414
1772641318888143000,1.53814306640625,0.29888319969177246,0.1673298329114914,0.03936268761754036
1772641318898188000,1.54818798828125,0.3278416395187378,0.14292195439338684,0.053954146802425385
1772641318908233200,1.558233154296875,0.3607155978679657,0.12111040204763412,0.08080124109983444
1772641318918279200,1.568279052734375,0.38217827677726746,0.10970195382833481,0.10625680536031723
1772641318928324000,1.578323974609375,0.3927038311958313,0.09237351268529892,0.12727709114551544
1772641318938369000,1.588369140625,0.4014962613582611,0.09263769537210464,0.14948119223117828
1772641318948415000,1.5984150390625,0.40568771958351135,0.1058422401547432,0.16975975036621094
1772641318958460200,1.608460205078125,0.4066246449947357,0.1308905929327011,0.18596641719341278
1772641318968505000,1.618505126953125,0.4069884121417999,0.15922769904136658,0.19195427000522614
1772641318978551000,1.628551025390625,0.4132330119609833,0.14753375947475433,0.18282228708267212
1772641318988596200,1.63859619140625,0.42313334345817566,0.10012656450271606,0.15311720967292786
1772641318998641200,1.64864111328125,0.43070363998413086,0.051809631288051605,0.13174107670783997
1772641319008686000,1.65868603515625,0.4309443235397339,-0.013098064810037613,0.12665271759033203
1772641319018732000,1.66873193359375,0.41074132919311523,-0.08599676936864853,0.09812893718481064
1772641319028777200,1.678777099609375,0.38873523473739624,-0.13588623702526093,0.07063934206962585
1772641319038822100,1.688822265625,0.3528943955898285,-0.17605015635490417,0.044583775103092194
1772641319048868000,1.6988681640625,0.2997935712337494,-0.1970861405134201,0.02311129868030548
1772641319058913300,1.708913330078125,0.23227977752685547,-0.16115130484104156,0.00854487344622612
1772641319068958000,1.7189580078125,0.15785780549049377,-0.09376294910907745,0.0033526690676808357
1772641319079003100,1.729003173828125,0.09864161163568497,0.019421394914388657,0.021419020369648933
1772641319089049000,1.739049072265625,0.07113560289144516,0.13471455872058868,0.06271304935216904
1772641319099094300,1.74909423828125,0.06684258580207825,0.21375371515750885,0.12831257283687592
1772641319109139200,1.75913916015625,0.0854053795337677,0.2566969394683838,0.20373018085956573
1772641319119185200,1.76918505859375,0.11789754778146744,0.2625316381454468,0.2796374559402466
1772641319129230300,1.779230224609375,0.14935043454170227,0.22771447896957397,0.3511270582675934
1772641319139275000,1.78927490234375,0.1731143444776535,0.15334144234657288,0.4069890081882477
1772641319149321000,1.799321044921875,0.1778748482465744,0.07233068346977234,0.4526168704032898
1772641319159366100,1.8093662109375,0.16672366857528687,0.015203484334051609,0.48105835914611816
1772641319169411000,1.8194111328125,0.1398041546344757,-0.020452119410037994,0.4937267601490021
1772641319179457300,1.829457275390625,0.10756684839725494,-0.024854857474565506,0.48968011140823364
1772641319189502200,1.839502197265625,0.07026983797550201,-0.019725807011127472,0.4781174659729004
1772641319199547100,1.849547119140625,0.03277040272951126,-0.03269832953810692,0.45265311002731323
1772641319209592000,1.859592041015625,-0.0017896825447678566,-0.057546284049749374,0.4145722985267639
1772641319219638000,1.869637939453125,-0.031655170023441315,-0.07832666486501694,0.37569519877433777
1772641319229683200,1.87968310546875,-0.047725778073072433,-0.09004517644643784,0.34162187576293945
1772641319239728000,1.88972802734375,-0.04901980608701706,-0.09903174638748169,0.31628912687301636
1772641319249774300,1.8997744140625,-0.0438334159553051,-0.10175849497318268,0.29843375086784363
1772641319259819000,1.909819091796875,-0.041043754667043686,-0.10907020419836044,0.2828201949596405
1772641319269864200,1.9198642578125,-0.03769000992178917,-0.13338232040405273,0.26485180854797363
1772641319279909000,1.9299091796875,-0.037913449108600616,-0.16879384219646454,0.24713008105754852
1772641319289955000,1.939955078125,-0.04491010308265686,-0.21758969128131866,0.22306714951992035
1772641319300000300,1.950000244140625,-0.05666636303067207,-0.271195650100708,0.19219417870044708
1772641319310045200,1.960045166015625,-0.0731317326426506,-0.3001335561275482,0.1456150859594345
1772641319320091100,1.970091064453125,-0.09497258067131042,-0.30573126673698425,0.08669211715459824
1772641319330136000,1.980135986328125,-0.11846119910478592,-0.2852734625339508,0.008386628702282906
1772641319340181000,1.990180908203125,-0.13191522657871246,-0.2409166395664215,-0.08664001524448395
1772641319350227200,2.000227294921875,-0.13962069153785706,-0.17575761675834656,-0.19221432507038116
1772641319360272100,2.010272216796875,-0.13534657657146454,-0.09954115003347397,-0.3009703755378723
1772641319370317300,2.0203173828125,-0.118106409907341,-0.028957253322005272,-0.39169004559516907
1772641319380362000,2.030362060546875,-0.08747632801532745,0.017835818231105804,-0.46578505635261536
1772641319390408000,2.040407958984375,-0.04678292199969292,0.07180170714855194,-0.5001266002655029
1772641319400453000,2.050453125,0.019911155104637146,0.11606957018375397,-0.5095033645629883
1772641319410498000,2.060498046875,0.09615298360586166,0.15223124623298645,-0.49376267194747925
1772641319420544300,2.070544189453125,0.16573098301887512,0.17404359579086304,-0.4699718654155731
1772641319430589200,2.080589111328125,0.20860962569713593,0.19157744944095612,-0.44703400135040283
1772641319440634400,2.09063427734375,0.22608529031276703,0.20862461626529694,-0.4249074161052704
1772641319450680300,2.100680419921875,0.22172197699546814,0.21484169363975525,-0.4065723121166229
1772641319460725000,2.11072509765625,0.20531050860881805,0.20698536932468414,-0.3938770294189453
1772641319470770200,2.120770263671875,0.18094056844711304,0.1860446035861969,-0.37999269366264343
1772641319480816000,2.130816162109375,0.14901991188526154,0.1389916092157364,-0.3653535842895508
1772641319490861000,2.140861083984375,0.12340261787176132,0.08604516088962555,-0.3480386435985565
1772641319500906200,2.15090625,0.1014440581202507,0.044433269649744034,-0.3303406238555908
1772641319510951200,2.160951171875,0.07408984750509262,-0.008718764409422874,-0.3142477869987488
1772641319520997000,2.1709970703125,0.04350664094090462,-0.05346093326807022,-0.30017539858818054
1772641319531042000,2.1810419921875,0.0018401534762233496,-0.08721224218606949,-0.2842603325843811
1772641319541087200,2.191087158203125,-0.03909849002957344,-0.11631153523921967,-0.2690736651420593
1772641319551133200,2.20113330078125,-0.08350170403718948,-0.16061168909072876,-0.2615077495574951
1772641319561178000,2.21117822265625,-0.1382877230644226,-0.18413512408733368,-0.25080183148384094
1772641319571223300,2.221223388671875,-0.20176592469215393,-0.1735730916261673,-0.22850273549556732
1772641319581268000,2.23126806640625,-0.2603759467601776,-0.1615545004606247,-0.1960396021604538
1772641319591314200,2.241314208984375,-0.3028312623500824,-0.14279919862747192,-0.16691820323467255
1772641319601359000,2.251359130859375,-0.32227739691734314,-0.13582171499729156,-0.14601026475429535
1772641319611404300,2.261404296875,-0.32585036754608154,-0.12802112102508545,-0.1386997401714325
1772641319621450200,2.2714501953125,-0.3220843970775604,-0.11046157032251358,-0.13868188858032227
1772641319631495200,2.2814951171875,-0.3151519298553467,-0.0829320028424263,-0.13693967461585999
1772641319641540000,2.2915400390625,-0.3008963167667389,-0.05865782871842384,-0.13494150340557098
1772641319651586000,2.3015859375,-0.283178448677063,-0.04609643295407295,-0.12858934700489044
1772641319661631200,2.31163134765625,-0.27405473589897156,-0.036473896354436874,-0.1193724051117897
1772641319671676200,2.32167626953125,-0.26642999053001404,-0.03458930924534798,-0.10180418938398361
1772641319681722000,2.33172216796875,-0.26155054569244385,-0.046250227838754654,-0.08262250572443008
1772641319691767300,2.341767333984375,-0.2632121741771698,-0.07074278593063354,-0.06890133023262024
1772641319701812200,2.351812255859375,-0.2715814411640167,-0.09794297814369202,-0.05534478276968002
1772641319711857200,2.361857177734375,-0.2880987823009491,-0.12035820633172989,-0.043300893157720566
1772641319721903000,2.371903076171875,-0.3093201816082001,-0.13215388357639313,-0.027779456228017807
1772641319731948000,2.381947998046875,-0.3308902978897095,-0.1423415243625641,-0.01613716036081314
1772641319741993200,2.3919931640625,-0.3555072247982025,-0.14632189273834229,-0.011208981275558472
1772641319752039200,2.4020390625,-0.38061684370040894,-0.1446378529071808,-0.008285611867904663
1772641319762083600,2.41208349609375,-0.40367716550827026,-0.1330949068069458,-0.014256153255701065
1772641319772128500,2.42212841796875,-0.4186103940010071,-0.11688477545976639,-0.017519034445285797
1772641319782174500,2.432174560546875,-0.42133665084838867,-0.11339177191257477,-0.025272294878959656
1772641319792219600,2.4422197265625,-0.4188646674156189,-0.13177818059921265,-0.03854307159781456
1772641319802264600,2.4522646484375,-0.4209022521972656,-0.15154549479484558,-0.05549169331789017
1772641319812309500,2.4623095703125,-0.4212813377380371,-0.15775464475154877,-0.07045577466487885
1772641319822355500,2.47235546875,-0.4182072579860687,-0.14982561767101288,-0.07639168947935104
1772641319832400600,2.482400634765625,-0.4128766357898712,-0.1332976520061493,-0.07478927820920944
1772641319842445600,2.492445556640625,-0.4070155620574951,-0.11868567019701004,-0.070609450340271
1772641319852491500,2.502491455078125,-0.3969271779060364,-0.10924377292394638,-0.05388911813497543
1772641319862536700,2.51253662109375,-0.3788403272628784,-0.09919087588787079,-0.028031421825289726
1772641319872581400,2.522581298828125,-0.35188227891921997,-0.09176544100046158,0.016932353377342224
1772641319882627600,2.532627685546875,-0.3194604218006134,-0.10507325828075409,0.0701359212398529
1772641319892672500,2.542672607421875,-0.29101547598838806,-0.11883974075317383,0.129777729511261
1772641319902717700,2.5527177734375,-0.2695120573043823,-0.13396595418453217,0.18435335159301758
1772641319912762600,2.5627626953125,-0.2564321756362915,-0.1614370048046112,0.21990317106246948
1772641319922808600,2.57280859375,-0.2621734142303467,-0.20395570993423462,0.23257794976234436
1772641319932853500,2.582853515625,-0.26929742097854614,-0.2517232894897461,0.22874101996421814
1772641319942898400,2.5928984375,-0.2575582265853882,-0.26416531205177307,0.21841488778591156
1772641319952944600,2.602944580078125,-0.23479324579238892,-0.2653775215148926,0.18809102475643158
1772641319962989600,2.612989501953125,-0.21892507374286652,-0.23680579662322998,0.13603422045707703
1772641319973034500,2.623034423828125,-0.22312422096729279,-0.16691750288009644,0.0568511001765728
1772641319983080700,2.633080810546875,-0.2510104477405548,-0.07837193459272385,-0.04386619105935097
1772641319993125600,2.643125732421875,-0.2772682011127472,0.038900226354599,-0.14470738172531128
1772641320003170600,2.653170654296875,-0.3100120425224304,0.16695059835910797,-0.22376491129398346
1772641320013215500,2.663215576171875,-0.33272621035575867,0.2749527394771576,-0.2517142593860626
1772641320023261400,2.673261474609375,-0.33068355917930603,0.34993457794189453,-0.2226506620645523
1772641320033306600,2.683306640625,-0.3110339939594269,0.3857645094394684,-0.1528349220752716
1772641320043351600,2.6933515625,-0.2832835912704468,0.3845141530036926,-0.04451989009976387
1772641320053397800,2.703397705078125,-0.2316100001335144,0.3563600778579712,0.1134401336312294
1772641320063442400,2.7134423828125,-0.1891978234052658,0.2609917223453522,0.27328917384147644
1772641320073487600,2.723487548828125,-0.1707172989845276,0.16360093653202057,0.43528494238853455
1772641320083533600,2.733533447265625,-0.1771743893623352,0.04711081460118294,0.5736979842185974
1772641320093578500,2.74357861328125,-0.1992819458246231,-0.0795031264424324,0.6764200329780579
1772641320103623700,2.753623779296875,-0.23116478323936462,-0.2104070633649826,0.7377305626869202
1772641320113668600,2.763668701171875,-0.25393858551979065,-0.32016730308532715,0.759678840637207
1772641320123714600,2.773714599609375,-0.26453477144241333,-0.4255424737930298,0.7357684373855591
1772641320133759500,2.783759521484375,-0.25907301902770996,-0.5031397342681885,0.6798162460327148
1772641320143804700,2.7938046875,-0.24368953704833984,-0.5360689163208008,0.6034684777259827
1772641320153850600,2.8038505859375,-0.23161080479621887,-0.5149490833282471,0.5097214579582214
1772641320163895600,2.8138955078125,-0.21912963688373566,-0.4431696832180023,0.4035681486129761
1772641320173940700,2.823940673828125,-0.20750698447227478,-0.34733715653419495,0.28419849276542664
1772641320183986700,2.833986572265625,-0.20078250765800476,-0.22699451446533203,0.15357603132724762
1772641320194031400,2.84403125,-0.20805011689662933,-0.09426968544721603,0.0038144937716424465
1772641320204076500,2.85407666015625,-0.22925527393817902,0.03652188926935196,-0.16191083192825317
1772641320214121500,2.86412158203125,-0.2626554071903229,0.15534640848636627,-0.32837778329849243
1772641320224167700,2.874167724609375,-0.29055255651474,0.24003759026527405,-0.4735293984413147
1772641320234212600,2.884212646484375,-0.29963937401771545,0.2823791205883026,-0.5810188055038452
1772641320244257500,2.894257568359375,-0.2910698652267456,0.3236730396747589,-0.6370794177055359
1772641320254303500,2.904303466796875,-0.2677895128726959,0.34350138902664185,-0.6517629027366638
1772641320264348400,2.914348388671875,-0.22894571721553802,0.3423011004924774,-0.6297180652618408
1772641320274393600,2.9243935546875,-0.18938368558883667,0.3180767893791199,-0.5766945481300354
1772641320284439600,2.934439453125,-0.14707724750041962,0.26866450905799866,-0.4970758259296417
1772641320294484700,2.944484619140625,-0.11630196124315262,0.20586690306663513,-0.40780574083328247
1772641320304529700,2.95452978515625,-0.09143602848052979,0.15918542444705963,-0.30181992053985596
1772641320314574600,2.96457470703125,-0.07668688893318176,0.09838259965181351,-0.2009432464838028
1772641320324620500,2.97462060546875,-0.06728406995534897,0.03907053917646408,-0.11359741538763046
1772641320334665500,2.98466552734375,-0.06058386713266373,-0.02678518369793892,-0.058464888483285904
1772641320344710700,2.994710693359375,-0.05270463973283768,-0.08260929584503174,-0.03792419284582138
1772641320354756600,3.004756591796875,-0.04786044359207153,-0.12019921094179153,-0.05289730429649353
1772641320364801500,3.014801513671875,-0.04129308834671974,-0.12671543657779694,-0.0915626734495163
1772641320374846500,3.024846435546875,-0.03495790436863899,-0.10130508244037628,-0.15236705541610718
1772641320384892400,3.034892333984375,-0.030043840408325195,-0.051805172115564346,-0.22871962189674377
1772641320394937600,3.0449375,-0.027949461713433266,0.015126846730709076,-0.31098440289497375
1772641320404982500,3.054982421875,-0.02533237263560295,0.055142175406217575,-0.38628315925598145
1772641320415028500,3.065028564453125,-0.01895890384912491,0.10552665591239929,-0.44355106353759766
1772641320425073700,3.07507373046875,-0.0003396780230104923,0.15056975185871124,-0.46689605712890625
1772641320435118600,3.08511865234375,0.021579233929514885,0.1725408434867859,-0.46862703561782837
1772641320445163500,3.09516357421875,0.04386163502931595,0.14662055671215057,-0.4511822760105133
1772641320455209500,3.10520947265625,0.07420435547828674,0.1381738930940628,-0.40346166491508484
1772641320465254700,3.115254638671875,0.1120380237698555,0.12227480858564377,-0.33734259009361267
1772641320475299600,3.125299560546875,0.14029404520988464,0.10234704613685608,-0.260221391916275
1772641320485345500,3.135345458984375,0.1666382998228073,0.12984950840473175,-0.15582093596458435
1772641320495390700,3.145390625,0.18529336154460907,0.12500295042991638,-0.05576540529727936
1772641320505435400,3.155435302734375,0.1922101229429245,0.12104389816522598,0.04524562880396843
1772641320515481600,3.165481689453125,0.19097095727920532,0.09859205037355423,0.13447488844394684
1772641320525526500,3.175526611328125,0.18539322912693024,0.06874360144138336,0.212468221783638
1772641320535571500,3.185571533203125,0.18407712876796722,0.023031175136566162,0.27596476674079895
1772641320545616600,3.19561669921875,0.1919398456811905,-0.03843538090586662,0.33135825395584106
1772641320555662600,3.20566259765625,0.21045930683612823,-0.0971708595752716,0.37013936042785645
1772641320565707800,3.215707763671875,0.23093342781066895,-0.13794705271720886,0.3914465010166168
1772641320575752400,3.22575244140625,0.24658098816871643,-0.15194083750247955,0.39701417088508606
1772641320585798400,3.23579833984375,0.2546202838420868,-0.14431647956371307,0.3874909579753876
1772641320595843600,3.245843505859375,0.25954964756965637,-0.12455015629529953,0.35746097564697266
1772641320605888500,3.255888427734375,0.2627617120742798,-0.08555854856967926,0.3202041685581207
1772641320615934700,3.265934814453125,0.26589906215667725,-0.044605858623981476,0.27253544330596924
1772641320625979600,3.275979736328125,0.27103257179260254,-0.006119186524301767,0.22577299177646637
1772641320636024600,3.286024658203125,0.2852846086025238,0.028467753902077675,0.187541201710701
1772641320646069500,3.296069580078125,0.30887171626091003,0.05450787395238876,0.1620669960975647
1772641320656115500,3.306115478515625,0.3359041213989258,0.08204762637615204,0.151699036359787
1772641320666160600,3.31616064453125,0.3694109618663788,0.1129235178232193,0.15408922731876373
1772641320676205600,3.32620556640625,0.39564386010169983,0.13846895098686218,0.16388140618801117
1772641320686251500,3.33625146484375,0.4208517372608185,0.1152147650718689,0.1667565554380417
1772641320696296400,3.34629638671875,0.43631041049957275,0.054682184010744095,0.17139211297035217
1772641320706341600,3.356341552734375,0.44341811537742615,-0.005088738165795803,0.17272156476974487
1772641320716387600,3.3663876953125,0.441268652677536,-0.0634344071149826,0.16583380103111267
1772641320726432500,3.3764326171875,0.4253637194633484,-0.14048151671886444,0.14200836420059204
1772641320736477700,3.386477783203125,0.3989546298980713,-0.2187490165233612,0.0937388688325882
1772641320746522600,3.396522705078125,0.3735771179199219,-0.24132516980171204,0.03384224697947502
1772641320756568600,3.406568603515625,0.3573187291622162,-0.18955612182617188,-0.017272936180233955
1772641320766614300,3.4166142578125,0.3488844931125641,-0.11589308828115463,-0.07107517868280411
1772641320776659200,3.4266591796875,0.34024688601493835,0.013396790251135826,-0.10561485588550568
1772641320786705200,3.436705078125,0.3630073070526123,0.20052114129066467,-0.1063205897808075
1772641320796750000,3.44675,0.4125889837741852,0.32224032282829285,-0.08555402606725693
1772641320806795000,3.456794921875,0.46335628628730774,0.40303558111190796,-0.028186073526740074
1772641320816841200,3.46684130859375,0.5172863602638245,0.4270153343677521,0.051330506801605225
1772641320826886100,3.47688623046875,0.5510674715042114,0.4292691648006439,0.15701831877231598
1772641320836931300,3.486931396484375,0.5602403879165649,0.4087865948677063,0.2707243859767914
1772641320846976000,3.49697607421875,0.5434139966964722,0.3764267861843109,0.38058537244796753
1772641320857022000,3.50702197265625,0.5144440531730652,0.33387869596481323,0.47801464796066284
1772641320867067100,3.517067138671875,0.4757917821407318,0.27339696884155273,0.5513290762901306
1772641320877112000,3.527112060546875,0.4270956218242645,0.19726775586605072,0.592533528804779
1772641320887158300,3.537158203125,0.365312397480011,0.12319619208574295,0.5897414684295654
1772641320897203200,3.547203125,0.29869088530540466,0.04486210644245148,0.547710120677948
1772641320907248400,3.557248291015625,0.23337499797344208,-0.024534013122320175,0.4838237762451172
1772641320917294300,3.56729443359375,0.1775258630514145,-0.07046934217214584,0.409751832485199
1772641320927339000,3.577339111328125,0.12991653382778168,-0.10783189535140991,0.3395056128501892
1772641320937384200,3.58738427734375,0.0906972885131836,-0.10693434625864029,0.2790096402168274
1772641320947430100,3.59743017578125,0.0573345422744751,-0.08377683162689209,0.22304517030715942
1772641320957475000,3.60747509765625,0.03873753920197487,-0.04547478258609772,0.1628965139389038
1772641320967520300,3.617520263671875,0.025791645050048828,-0.0038514365442097187,0.08898288756608963
1772641320977565000,3.62756494140625,0.013065554201602936,0.041235148906707764,-0.005437434185296297
1772641320987611100,3.637611083984375,0.003104266244918108,0.0994073674082756,-0.11529229581356049
1772641320997656000,3.647656005859375,-0.010281134396791458,0.16541342437267303,-0.2410181611776352
1772641321007701200,3.657701171875,-0.023092536255717278,0.223022922873497,-0.3672032356262207
1772641321017747200,3.667747314453125,-0.02648019790649414,0.26088446378707886,-0.4853179156780243
1772641321027792100,3.677792236328125,-0.01978927291929722,0.2737259566783905,-0.5787237882614136
1772641321037837300,3.68783740234375,0.002729057800024748,0.27849990129470825,-0.6335673332214355
1772641321047882000,3.697882080078125,0.04467570781707764,0.27787643671035767,-0.6503710746765137
1772641321057928200,3.70792822265625,0.10336515307426453,0.2609712779521942,-0.635637104511261
1772641321067973000,3.71797314453125,0.16333208978176117,0.23681722581386566,-0.603054404258728
1772641321078018300,3.728018310546875,0.21502646803855896,0.23587685823440552,-0.5381613373756409
1772641321088064300,3.738064208984375,0.2625540494918823,0.2169652283191681,-0.4661675691604614
1772641321098109200,3.748109130859375,0.2858637869358063,0.18457838892936707,-0.3929981589317322
1772641321108154000,3.758154052734375,0.2916087508201599,0.15241886675357819,-0.3301249146461487
1772641321118200000,3.768199951171875,0.2836896777153015,0.10213598608970642,-0.27700307965278625
1772641321128245000,3.778244873046875,0.2665991187095642,0.04491104558110237,-0.23080947995185852
1772641321138290200,3.788290283203125,0.23540809750556946,-0.014775518327951431,-0.18909144401550293
1772641321148336000,3.798336181640625,0.19637787342071533,-0.06951119750738144,-0.1590730845928192
1772641321158381300,3.80838134765625,0.14852769672870636,-0.12458105385303497,-0.1344267725944519
1772641321168426000,3.818426025390625,0.10260359942913055,-0.17109529674053192,-0.12307370454072952
1772641321178471200,3.82847119140625,0.05507593974471092,-0.1925676167011261,-0.12486141920089722
1772641321188517000,3.83851708984375,0.009913522750139236,-0.18038392066955566,-0.13229084014892578
1772641321198562000,3.84856201171875,-0.03496330976486206,-0.15843920409679413,-0.14304685592651367
1772641321208607200,3.858607177734375,-0.07968924194574356,-0.13501350581645966,-0.1459456980228424
1772641321218653200,3.868653076171875,-0.11757773160934448,-0.11292705684900284,-0.1434212476015091
1772641321228698400,3.878698486328125,-0.14849384129047394,-0.10759913921356201,-0.13436730206012726
1772641321238743000,3.888742919921875,-0.17754848301410675,-0.11058700084686279,-0.11724309623241425
1772641321248789000,3.8987890625,-0.20218537747859955,-0.11211379617452621,-0.09659401327371597
1772641321258834200,3.908834228515625,-0.22345174849033356,-0.11372886598110199,-0.07361316680908203
1772641321268879000,3.918879150390625,-0.24197323620319366,-0.11806502193212509,-0.04617702215909958
1772641321278924300,3.92892431640625,-0.2575739026069641,-0.12391385436058044,-0.019546516239643097
1772641321288970200,3.93897021484375,-0.2678917944431305,-0.11819232255220413,0.00838551577180624
1772641321299015200,3.94901513671875,-0.2722984254360199,-0.10200370103120804,0.037710040807724
1772641321309060000,3.95906005859375,-0.2725708782672882,-0.08713394403457642,0.05968218296766281
1772641321319106000,3.96910595703125,-0.26816847920417786,-0.07514998316764832,0.07539220154285431
1772641321329151200,3.979151123046875,-0.2585776448249817,-0.06874321401119232,0.08798016607761383
1772641321339196200,3.989196044921875,-0.24914419651031494,-0.10199570655822754,0.10441932827234268
1772641321349242000,3.9992421875,-0.2558300495147705,-0.15291190147399902,0.12050135433673859
1772641321359287300,4.009287353515625,-0.27028754353523254,-0.2069663405418396,0.14165227115154266
1772641321369332000,4.01933203125,-0.2919435501098633,-0.2568050026893616,0.16827668249607086
1772641321379377200,4.029377197265625,-0.31446003913879395,-0.2861384153366089,0.1991182267665863
1772641321389423000,4.039423095703125,-0.32607144117355347,-0.2976762652397156,0.221125528216362
1772641321399468300,4.04946826171875,-0.33511632680892944,-0.27656757831573486,0.2298913598060608
1772641321409513200,4.05951318359375,-0.34440329670906067,-0.22352993488311768,0.21930715441703796
1772641321419559200,4.06955908203125,-0.34011268615722656,-0.16615080833435059,0.1989307850599289
1772641321429604000,4.07960400390625,-0.327066034078598,-0.11476756632328033,0.16697348654270172
1772641321439649000,4.08964892578125,-0.3044354021549225,-0.07841041684150696,0.13747788965702057
1772641321449695200,4.0996953125,-0.2792099416255951,-0.06010890752077103,0.11299411952495575
1772641321459740200,4.109740234375,-0.2621341943740845,-0.060654863715171814,0.0960923507809639
1772641321469785000,4.11978515625,-0.24985995888710022,-0.07129978388547897,0.08837530761957169
1772641321479830300,4.129830322265625,-0.24487052857875824,-0.08233492821455002,0.09134291112422943
1772641321489876000,4.1398759765625,-0.2461874634027481,-0.10140050202608109,0.10340569913387299
1772641321499921200,4.149921142578125,-0.24843060970306396,-0.11617884784936905,0.11164554953575134
1772641321509966000,4.159966064453125,-0.24935659766197205,-0.12241090834140778,0.12417146563529968
1772641321520012000,4.170011962890625,-0.24434955418109894,-0.13668198883533478,0.13603538274765015
1772641321530057200,4.18005712890625,-0.23698006570339203,-0.1478627324104309,0.14785316586494446
1772641321540102100,4.19010205078125,-0.23109550774097443,-0.1666336953639984,0.1478620022535324
1772641321550148400,4.2001484375,-0.2307429015636444,-0.1973508596420288,0.12321604043245316
1772641321560193000,4.210193115234375,-0.23661251366138458,-0.23095417022705078,0.07685497403144836
1772641321570238200,4.22023828125,-0.24752961099147797,-0.2359268218278885,0.014265893027186394
1772641321580283100,4.230283203125,-0.25898200273513794,-0.24415984749794006,-0.057377755641937256
1772641321590329000,4.2403291015625,-0.26229098439216614,-0.1837705373764038,-0.11650925129652023
1772641321600374300,4.250374267578125,-0.2681525945663452,-0.13689623773097992,-0.18358442187309265
1772641321610419000,4.2604189453125,-0.28307002782821655,-0.11856862902641296,-0.26063287258148193
1772641321620465200,4.270465087890625,-0.3036259114742279,-0.09202650189399719,-0.3292517066001892
1772641321630510000,4.280510009765625,-0.31954097747802734,-0.0566173754632473,-0.38016656041145325
1772641321640555300,4.29055517578125,-0.3323467969894409,-0.03828118368983269,-0.4064909517765045
1772641321650601200,4.300601318359375,-0.32197991013526917,0.02783471904695034,-0.37740978598594666
1772641321660646100,4.310646240234375,-0.2928505837917328,0.062977135181427,-0.3109900653362274
1772641321670691300,4.32069140625,-0.262422114610672,0.08989369869232178,-0.19845660030841827
1772641321680736000,4.330736083984375,-0.23875127732753754,0.09200705587863922,-0.06752277165651321
1772641321690782000,4.340781982421875,-0.2483692765235901,0.08763521164655685,0.0497836172580719
1772641321700827100,4.3508271484375,-0.24463783204555511,0.04890652000904083,0.19474099576473236
1772641321710872000,4.3608720703125,-0.23315349221229553,0.0032189260236918926,0.3368443548679352
1772641321720918300,4.370918212890625,-0.23123042285442352,-0.05130982771515846,0.46000462770462036
1772641321730963200,4.380963134765625,-0.23262138664722443,-0.08872538059949875,0.5735136270523071
1772641321741008100,4.391008056640625,-0.2401997447013855,-0.11691313982009888,0.6595360040664673
1772641321751054000,4.40105419921875,-0.24696096777915955,-0.14412425458431244,0.7118122577667236
1772641321761099000,4.41109912109375,-0.24772632122039795,-0.18133720755577087,0.7225320935249329
1772641321771143700,4.421143798828125,-0.24799983203411102,-0.23134657740592957,0.6915105581283569
1772641321781188600,4.431188720703125,-0.2472388744354248,-0.2813741862773895,0.6258414387702942
1772641321791234800,4.44123486328125,-0.24259193241596222,-0.3037348687648773,0.5375288724899292
1772641321801279700,4.45127978515625,-0.23453128337860107,-0.29052865505218506,0.4456930160522461
1772641321811324700,4.46132470703125,-0.22509144246578217,-0.22845064103603363,0.35912004113197327
1772641321821370600,4.47137060546875,-0.21736584603786469,-0.15566013753414154,0.27195730805397034
1772641321831415600,4.48141552734375,-0.21655037999153137,-0.08561661094427109,0.17227785289287567
1772641321841460700,4.491460693359375,-0.2274755835533142,-0.02205534279346466,0.05412621796131134
1772641321851506700,4.501506591796875,-0.2541641891002655,0.04973629117012024,-0.08199300616979599
1772641321861551900,4.5115517578125,-0.2757819592952728,0.12102318555116653,-0.2246083915233612
1772641321871596500,4.521596435546875,-0.27819663286209106,0.18649007380008698,-0.35407930612564087
1772641321881641700,4.531641845703125,-0.25676512718200684,0.2347106784582138,-0.4581889808177948
1772641321891687700,4.541687744140625,-0.21409542858600616,0.2655484974384308,-0.5187724232673645
1772641321901732600,4.551732666015625,-0.16044506430625916,0.26924020051956177,-0.5390871167182922
1772641321911777800,4.56177783203125,-0.1042286679148674,0.2596951723098755,-0.5163943767547607
1772641321921823700,4.57182373046875,-0.05840667337179184,0.2461971491575241,-0.46270570158958435
1772641321931868700,4.58186865234375,-0.020777007564902306,0.2231445610523224,-0.3887113928794861
1772641321941913600,4.59191357421875,0.011355472728610039,0.20425982773303986,-0.3018448054790497
1772641321951959600,4.60195947265625,0.03861905261874199,0.1690901219844818,-0.22735033929347992
1772641321962004700,4.612004638671875,0.052999503910541534,0.14220137894153595,-0.16061006486415863
1772641321972049700,4.622049560546875,0.05800411477684975,0.1103033646941185,-0.10703232139348984
1772641321982094800,4.6320947265625,0.05376717448234558,0.08301188796758652,-0.06061626598238945
1772641321992140800,4.642140869140625,0.0465201810002327,0.07149344682693481,-0.01782379485666752
1772641322002185500,4.652185546875,0.03857159987092018,0.06523242592811584,0.010799674317240715
1772641322012230700,4.662230712890625,0.029579168185591698,0.0642654299736023,0.02947802096605301
1772641322022276600,4.672276611328125,0.011775518767535686,0.07087878882884979,0.034598931670188904
1772641322032321800,4.68232177734375,-0.009384095668792725,0.08302786201238632,0.02783556841313839
1772641322042366700,4.69236669921875,-0.028951581567525864,0.09933952987194061,0.01856263354420662
1772641322052412700,4.70241259765625,-0.0377514623105526,0.11116929352283478,0.012775317765772343
1772641322062457900,4.712457763671875,-0.03554896265268326,0.12080986797809601,0.010271340608596802
1772641322072502500,4.72250244140625,-0.024960769340395927,0.1215992346405983,0.013370994478464127
1772641322082547700,4.732547607421875,-0.009006340987980366,0.11149612814188004,0.017721641808748245
1772641322092593700,4.74259375,0.015472636558115482,0.0996120348572731,0.027697578072547913
1772641322102638800,4.752638916015625,0.03701668605208397,0.09066629409790039,0.04386604577302933
1772641322112683800,4.762683837890625,0.04984406754374504,0.09499765932559967,0.056431904435157776
1772641322122729700,4.772729736328125,0.057372771203517914,0.10716276615858078,0.06065141037106514
1772641322132774700,4.782774658203125,0.061475373804569244,0.12236382067203522,0.07292298972606659
1772641322142819600,4.792819580078125,0.06803523749113083,0.13373492658138275,0.07732836157083511
1772641322152865500,4.802865478515625,0.07842662185430527,0.1450783908367157,0.07995370775461197
1772641322162910700,4.81291064453125,0.09479580074548721,0.14964072406291962,0.07786615937948227
1772641322172955600,4.82295556640625,0.10979366302490234,0.13592250645160675,0.07890825718641281
1772641322183000800,4.833000732421875,0.12239938229322433,0.11375775188207626,0.08302690833806992
1772641322193046800,4.843046875,0.1245296373963356,0.08435539156198502,0.07972964644432068
1772641322203091700,4.853091796875,0.12421637028455734,0.0637938529253006,0.07447051256895065
1772641322213136600,4.86313671875,0.12007888406515121,0.05633381009101868,0.06567036360502243
1772641322223182600,4.8731826171875,0.11606499552726746,0.05428450554609299,0.05316637083888054
1772641322233227800,4.883227783203125,0.1106390655040741,0.06886771321296692,0.04208282753825188
1772641322243272700,4.893272705078125,0.11371836066246033,0.08172744512557983,0.03578102961182594
1772641322253319000,4.90331884765625,0.1189378947019577,0.08424785733222961,0.032292552292346954
1772641322263363600,4.913363525390625,0.12800350785255432,0.10388541221618652,0.02487766742706299
1772641322273408800,4.92340869140625,0.14567144215106964,0.11655619740486145,0.009091781452298164
1772641322283453700,4.93345361328125,0.16126716136932373,0.12791317701339722,-0.020222464576363564
1772641322293499600,4.943499755859375,0.17459814250469208,0.13710828125476837,-0.05163578316569328
1772641322303544800,4.953544921875,0.1860308200120926,0.1431264877319336,-0.07412777841091156
1772641322313589500,4.963589599609375,0.19888296723365784,0.15166299045085907,-0.07529344409704208
1772641322323635500,4.973635498046875,0.22125111520290375,0.16146482527256012,-0.05766842141747475
1772641322333680600,4.9836806640625,0.24521183967590332,0.16703562438488007,-0.03426509350538254
1772641322343725600,4.9937255859375,0.27007508277893066,0.16338090598583221,-0.007040510885417461
1772641322353771800,5.003771728515625,0.29511758685112,0.1576809287071228,0.021491266787052155
1772641322363816700,5.013816650390625,0.3263379633426666,0.1525556743144989,0.042976707220077515
1772641322373862000,5.02386181640625,0.359262615442276,0.13240860402584076,0.05144689232110977
1772641322383906600,5.033906494140625,0.384051650762558,0.08845013380050659,0.047024741768836975
1772641322393952500,5.043952392578125,0.3907819986343384,0.02187376655638218,0.028557583689689636
1772641322403997700,5.053997802734375,0.38095152378082275,-0.045975588262081146,0.0046521439217031
1772641322414042600,5.064042724609375,0.35681769251823425,-0.10111074149608612,-0.019144797697663307
1772641322424088800,5.0740888671875,0.331192284822464,-0.1502489298582077,-0.04097568243741989
1772641322434133800,5.0841337890625,0.3091021478176117,-0.19907425343990326,-0.05780233442783356
1772641322444178700,5.0941787109375,0.2899213135242462,-0.25642502307891846,-0.07771160453557968
1772641322454224600,5.104224609375,0.27304166555404663,-0.2691006064414978,-0.09678809344768524
1772641322464269600,5.11426953125,0.2601909041404724,-0.20263804495334625,-0.10733160376548767
1772641322474314800,5.124314697265625,0.25409945845603943,-0.11928509175777435,-0.10904082655906677
1772641322484359700,5.134359619140625,0.25067251920700073,-0.005810055881738663,-0.09404058009386063
1772641322494405600,5.144405517578125,0.25835707783699036,0.07935251295566559,-0.07555105537176132
1772641322504450800,5.154450927734375,0.272750586271286,0.14691996574401855,-0.045596230775117874
1772641322514495500,5.16449560546875,0.2870386838912964,0.1841091513633728,-0.010653695091605186
1772641322524541700,5.174541748046875,0.30459266901016235,0.1922856569290161,0.030081704258918762
1772641322534586600,5.184586669921875,0.31503811478614807,0.1898677796125412,0.0851268470287323
1772641322544631800,5.1946318359375,0.31381553411483765,0.1775016337633133,0.14922884106636047
1772641322554677800,5.204677734375,0.29523172974586487,0.14273220300674438,0.21456897258758545
1772641322564722700,5.21472265625,0.259880006313324,0.10098443180322647,0.2673080861568451
1772641322574767600,5.224767578125,0.2049586921930313,0.06726295500993729,0.3066437542438507
1772641322584812500,5.2348125,0.12965670228004456,0.05604885146021843,0.3158467411994934
1772641322594858800,5.244858642578125,0.05026866868138313,0.0600595697760582,0.30768707394599915
1772641322604903700,5.254903564453125,-0.02450949139893055,0.06232159212231636,0.29037001729011536
1772641322614948900,5.264948974609375,-0.0859355702996254,0.05353608727455139,0.2685536742210388
1772641322624994800,5.274994873046875,-0.127353698015213,0.040231600403785706,0.24679434299468994
1772641322635039700,5.285039794921875,-0.15164890885353088,0.028132595121860504,0.21888069808483124
1772641322645084700,5.295084716796875,-0.1638229340314865,0.018801676109433174,0.18533070385456085
1772641322655130600,5.305130615234375,-0.16959187388420105,0.03283973038196564,0.1460818350315094
1772641322665175600,5.315175537109375,-0.17408709228038788,0.05063064768910408,0.10166364908218384
1772641322675220700,5.325220703125,-0.17685437202453613,0.0802665650844574,0.053633008152246475
1772641322685265700,5.335265625,-0.17803025245666504,0.11373697966337204,0.004726964980363846
1772641322695312000,5.345311767578125,-0.181022047996521,0.12870287895202637,-0.04766220599412918
1772641322705356500,5.3553564453125,-0.17979614436626434,0.1364964246749878,-0.1039181724190712
1772641322715401700,5.365401611328125,-0.1731417030096054,0.1354532688856125,-0.16793577373027802
1772641322725447700,5.37544775390625,-0.16310586035251617,0.13047701120376587,-0.22900789976119995
1772641322735492600,5.38549267578125,-0.14185437560081482,0.1207338348031044,-0.28452152013778687
1772641322745537800,5.395537841796875,-0.12203846871852875,0.1141379252076149,-0.328323632478714
1772641322755583700,5.405583740234375,-0.08753030002117157,0.10485067963600159,-0.36207202076911926
1772641322765629200,5.415629150390625,-0.04956643283367157,0.10081298649311066,-0.38157573342323303
1772641322775674000,5.425674072265625,-0.016077183187007904,0.10976094007492065,-0.38838621973991394
1772641322785719000,5.435718994140625,0.015986628830432892,0.11897607892751694,-0.38680794835090637
1772641322795765200,5.44576513671875,0.03854174166917801,0.12975123524665833,-0.37830767035484314
1772641322805810200,5.45581005859375,0.057340990751981735,0.14394061267375946,-0.3658555746078491
1772641322815855400,5.46585546875,0.06476428359746933,0.15413333475589752,-0.34431567788124084
1772641322825901300,5.4759013671875,0.06155218556523323,0.14930927753448486,-0.32610857486724854
1772641322835946000,5.485946044921875,0.04993201419711113,0.12267395108938217,-0.307127445936203
1772641322845991200,5.4959912109375,0.027953211218118668,0.08591646701097488,-0.29021182656288147
1772641322856037000,5.506037109375,-0.001695226994343102,0.06776382774114609,-0.2658396363258362
1772641322866082300,5.516082275390625,-0.03625699132680893,0.05212807655334473,-0.2420247197151184
1772641322876127200,5.526127197265625,-0.071846142411232,0.039783261716365814,-0.21878013014793396
1772641322886172400,5.53617236328125,-0.10308778285980225,0.029820650815963745,-0.19801943004131317
1772641322896218400,5.54621826171875,-0.13008424639701843,0.012416092678904533,-0.17783692479133606
1772641322906263000,5.556262939453125,-0.15225055813789368,-0.01707376353442669,-0.16876325011253357
1772641322916308200,5.56630810546875,-0.17859669029712677,-0.045815665274858475,-0.16548702120780945
1772641322926354200,5.576354248046875,-0.19955039024353027,-0.08054142445325851,-0.1681402623653412
1772641322936399000,5.586399169921875,-0.21770329773426056,-0.10989557951688766,-0.1737091988325119
1772641322946444300,5.5964443359375,-0.22668606042861938,-0.12620504200458527,-0.1786126345396042
1772641322956490200,5.606490234375,-0.22742268443107605,-0.1327388435602188,-0.1843019425868988
1772641322966535200,5.61653515625,-0.22647544741630554,-0.12683434784412384,-0.18704195320606232
1772641322976580000,5.626580078125,-0.22960945963859558,-0.11336648464202881,-0.18386293947696686
1772641322986625300,5.636625244140625,-0.23467715084552765,-0.10624877363443375,-0.18608368933200836
1772641322996671200,5.646671142578125,-0.24343734979629517,-0.08309232443571091,-0.1886696219444275
1772641323006716200,5.656716064453125,-0.2419196367263794,-0.0650896206498146,-0.1901344358921051
1772641323016761300,5.66676123046875,-0.23688440024852753,-0.05060628801584244,-0.1793137490749359
1772641323026807300,5.676807373046875,-0.2257043868303299,-0.03889816626906395,-0.16409660875797272
1772641323036852200,5.686852294921875,-0.21895194053649902,-0.041406065225601196,-0.14288373291492462
1772641323046897200,5.696897216796875,-0.22312691807746887,-0.04688718914985657,-0.12565526366233826
1772641323056942300,5.7069423828125,-0.23727202415466309,-0.056972578167915344,-0.10849039256572723
1772641323066988300,5.71698828125,-0.2629111409187317,-0.06678998470306396,-0.08976058661937714
1772641323077033200,5.727033203125,-0.2916328012943268,-0.07540637254714966,-0.06639134883880615
1772641323087078100,5.737078125,-0.3235474228858948,-0.08159390836954117,-0.0298472810536623
1772641323097124000,5.7471240234375,-0.34992629289627075,-0.0956902801990509,0.01679265685379505
1772641323107169000,5.7571689453125,-0.37316009402275085,-0.11044398695230484,0.060419488698244095
1772641323117214200,5.767214111328125,-0.3951447606086731,-0.11560200154781342,0.10273659229278564
1772641323127260200,5.77726025390625,-0.41551491618156433,-0.11863208562135696,0.1354995220899582
1772641323137305300,5.787305419921875,-0.4309529960155487,-0.12461701035499573,0.15157276391983032
1772641323147350000,5.79735009765625,-0.4421389102935791,-0.13902883231639862,0.14735515415668488
1772641323157396000,5.80739599609375,-0.45745182037353516,-0.15290150046348572,0.12359336763620377
1772641323167441200,5.817441162109375,-0.4723644256591797,-0.17075012624263763,0.08863696455955505
1772641323177486000,5.827486083984375,-0.47898346185684204,-0.17584103345870972,0.054352760314941406
1772641323187531300,5.83753125,-0.47490882873535156,-0.159044086933136,0.027739353477954865
1772641323197577200,5.8475771484375,-0.45733675360679626,-0.13058209419250488,0.0141694825142622
1772641323207622400,5.857622314453125,-0.4329780638217926,-0.10255862027406693,0.008951541036367416
1772641323217667000,5.8676669921875,-0.403510719537735,-0.07141055166721344,0.01312604546546936
1772641323227713000,5.877713134765625,-0.37814298272132874,-0.061424050480127335,0.02757045440375805
1772641323237758200,5.88775830078125,-0.35741665959358215,-0.08437037467956543,0.0497782900929451
1772641323247803100,5.89780322265625,-0.34125152230262756,-0.12303109467029572,0.07714857161045074
1772641323257848300,5.907848388671875,-0.3321773409843445,-0.16307517886161804,0.114805668592453
1772641323267894300,5.917894287109375,-0.32801568508148193,-0.20221412181854248,0.1576133817434311
1772641323277939200,5.927939208984375,-0.331224262714386,-0.24960242211818695,0.19591470062732697
1772641323287984000,5.937984130859375,-0.3535058796405792,-0.3068307638168335,0.2110523283481598
1772641323298030000,5.948030029296875,-0.3805233836174011,-0.3450300693511963,0.21577490866184235
1772641323308075300,5.9580751953125,-0.414252907037735,-0.34559231996536255,0.208100363612175
1772641323318120200,5.9681201171875,-0.44425472617149353,-0.31849491596221924,0.1812804639339447
1772641323328166100,5.978166259765625,-0.4759223759174347,-0.25922948122024536,0.13365782797336578
1772641323338211300,5.98821142578125,-0.4993094801902771,-0.18913747370243073,0.0748821347951889
1772641323348256000,5.998256103515625,-0.5102052092552185,-0.1154397502541542,0.011731506325304508
1772641323358301200,6.00830126953125,-0.5049196481704712,-0.040465109050273895,-0.033699359744787216
1772641323368347100,6.01834716796875,-0.48482468724250793,0.023750431835651398,-0.047353535890579224
1772641323378392300,6.028392333984375,-0.44586265087127686,0.05690412223339081,-0.026679420843720436
1772641323388437200,6.038437255859375,-0.4040709137916565,0.06932190805673599,0.01223378349095583
1772641323398483200,6.048483154296875,-0.364168256521225,0.0645359456539154,0.06711061298847198
1772641323408528100,6.058528076171875,-0.3383932113647461,0.05585123971104622,0.13067984580993652
1772641323418573000,6.068572998046875,-0.3168815076351166,0.0405186228454113,0.19969753921031952
1772641323428619300,6.078619384765625,-0.3021421432495117,0.025529894977808,0.28085026144981384
1772641323438664200,6.088664306640625,-0.2904314398765564,0.0062882909551262856,0.35870006680488586
1772641323448709400,6.09870947265625,-0.28848472237586975,-0.023331912234425545,0.4308140277862549
1772641323458754300,6.10875439453125,-0.29419001936912537,-0.05880309268832207,0.49768200516700745
1772641323468800300,6.11880029296875,-0.29762813448905945,-0.10714998841285706,0.535673201084137
1772641323478845200,6.12884521484375,-0.2933865189552307,-0.15676814317703247,0.5643250942230225
1772641323488890000,6.13889013671875,-0.2865380346775055,-0.2197086215019226,0.5601471066474915
1772641323498936000,6.14893603515625,-0.272076278924942,-0.26299458742141724,0.5411508083343506
1772641323508981200,6.158981201171875,-0.25625717639923096,-0.2901802659034729,0.5018113255500793
1772641323519026200,6.169026123046875,-0.23702888190746307,-0.28858476877212524,0.4531519114971161
1772641323529072400,6.179072265625,-0.217001274228096,-0.2655833661556244,0.3894284963607788
1772641323539117000,6.189116943359375,-0.20186039805412292,-0.21784381568431854,0.31657588481903076
1772641323549162200,6.199162353515625,-0.1909177452325821,-0.13983556628227234,0.23223942518234253
1772641323559207200,6.209207275390625,-0.18634642660617828,-0.045820388942956924,0.1389787197113037
1772641323569253000,6.219253173828125,-0.1844191551208496,0.050593502819538116,0.027667466551065445
1772641323579298300,6.22929833984375,-0.1831917017698288,0.14338494837284088,-0.1006644070148468
1772641323589343200,6.23934326171875,-0.17691871523857117,0.21606974303722382,-0.24589289724826813
1772641323599389200,6.24938916015625,-0.16751162707805634,0.26310089230537415,-0.40076130628585815
1772641323609434000,6.25943408203125,-0.1547311395406723,0.2895728647708893,-0.5438798069953918
1772641323619479300,6.269479248046875,-0.13005907833576202,0.3005264401435852,-0.6569305062294006
1772641323629525200,6.279525146484375,-0.10027103871107101,0.3133815824985504,-0.7303547859191895
1772641323639570200,6.289570068359375,-0.06584595143795013,0.3163827061653137,-0.7648589611053467
1772641323649615400,6.299615478515625,-0.027664652094244957,0.3225630819797516,-0.7598751783370972
1772641323659660000,6.309659912109375,0.009705357253551483,0.35102933645248413,-0.7022462487220764
1772641323669706000,6.3197060546875,0.05219452083110809,0.3490302562713623,-0.6140284538269043
1772641323679751200,6.329751220703125,0.08258598297834396,0.33009520173072815,-0.5024644136428833
1772641323689796000,6.339796142578125,0.09782248735427856,0.2619059979915619,-0.3874674439430237
1772641323699842300,6.34984228515625,0.097800113260746,0.16074903309345245,-0.2735704183578491
1772641323709887200,6.35988720703125,0.08046462386846542,0.043032120913267136,-0.16486084461212158
1772641323719932200,6.36993212890625,0.05824080854654312,-0.06081544607877731,-0.06573639810085297
1772641323729977000,6.37997705078125,0.029405171051621437,-0.13666607439517975,0.02126459777355194
1772641323740023000,6.39002294921875,0.005280926823616028,-0.18289509415626526,0.07654090225696564
1772641323750068200,6.400068115234375,-0.006748450919985771,-0.20608289539813995,0.1017376035451889
1772641323760113200,6.410113037109375,-0.002819223329424858,-0.21506786346435547,0.0946999341249466
1772641323770159000,6.4201591796875,0.0013189666206017137,-0.19947364926338196,0.06130094453692436
1772641323780203800,6.430203857421875,0.0030023506842553616,-0.15861250460147858,0.016149181872606277
1772641323790249000,6.4402490234375,0.004613535013049841,-0.1054428368806839,-0.042203638702631
1772641323800295000,6.450294921875,0.011498872190713882,-0.044340334832668304,-0.10556690394878387
1772641323810339800,6.46033984375,0.019432097673416138,0.019078660756349564,-0.17320021986961365
1772641323820385000,6.470385009765625,0.03027462400496006,0.0824752151966095,-0.22800861299037933
1772641323830429700,6.4804296875,0.04363375902175903,0.13851235806941986,-0.2655392587184906
1772641323840476000,6.490475830078125,0.05882709473371506,0.18330299854278564,-0.28000688552856445
1772641323850520800,6.500520751953125,0.07287508994340897,0.20355895161628723,-0.2787550985813141
1772641323860566000,6.51056591796875,0.09183919429779053,0.21311384439468384,-0.2569006383419037
1772641323870612000,6.520612060546875,0.1163569912314415,0.2013411968946457,-0.2206822633743286
1772641323880657000,6.530656982421875,0.14688080549240112,0.173916757106781,-0.17835822701454163
1772641323890702000,6.5407021484375,0.17601194977760315,0.1490698754787445,-0.12982448935508728
1772641323900748000,6.550748046875,0.19764932990074158,0.1262793391942978,-0.0767013430595398
1772641323910792700,6.560792724609375,0.21836796402931213,0.10811224579811096,-0.021821461617946625
1772641323920838000,6.570837890625,0.23591072857379913,0.08305855840444565,0.027817996218800545
1772641323930882800,6.5808828125,0.2543407082557678,0.05293381214141846,0.08016470819711685
1772641323940929000,6.590928955078125,0.26465779542922974,0.03799108415842056,0.12787151336669922
1772641323950974000,6.600973876953125,0.2749088704586029,0.03800926357507706,0.1762361377477646
1772641323961019000,6.611018798828125,0.2872488796710968,0.036969829350709915,0.21671192348003387
1772641323971064800,6.62106494140625,0.2972855567932129,0.025594472885131836,0.24855937063694
1772641323981109800,6.63110986328125,0.2994970679283142,0.015515472739934921,0.2772003412246704
1772641323991155000,6.641155029296875,0.2959907054901123,0.007892372086644173,0.2914005517959595
1772641324001201000,6.651200927734375,0.2924652099609375,0.0031860333401709795,0.2907773554325104
1772641324011246000,6.66124609375,0.28597912192344666,0.004230456426739693,0.2804825007915497
1772641324021291000,6.671291015625,0.27921441197395325,-0.0004977197386324406,0.2657166123390198
1772641324031336000,6.6813359375,0.282375305891037,-0.015537180006504059,0.25387951731681824
1772641324041382000,6.6913818359375,0.2854139804840088,-0.017685020342469215,0.2500546872615814
1772641324051426800,6.7014267578125,0.29498356580734253,-0.008877947926521301,0.2599462866783142
1772641324061472000,6.711471923828125,0.3071472942829132,0.010637962259352207,0.2720777690410614
1772641324071518000,6.72151806640625,0.3240993916988373,0.03378235548734665,0.286266952753067
1772641324081563000,6.73156298828125,0.34958478808403015,0.051622871309518814,0.29780563712120056
1772641324091607800,6.74160791015625,0.368817538022995,0.07416054606437683,0.2950994074344635
1772641324101652700,6.75165283203125,0.3780547082424164,0.1035221666097641,0.2854821979999542
1772641324111699000,6.761698974609375,0.382876992225647,0.14081193506717682,0.2698028087615967
1772641324121744000,6.771743896484375,0.3852035105228424,0.1659412682056427,0.2602204978466034
1772641324131789000,6.7817890625,0.3996421992778778,0.14533552527427673,0.24934501945972443
1772641324141835000,6.7918349609375,0.4309931695461273,0.08020766079425812,0.23408964276313782
1772641324151879700,6.801879638671875,0.47893446683883667,0.02483414113521576,0.21369938552379608
1772641324161924900,6.8119248046875,0.529882550239563,-0.048425160348415375,0.17247232794761658
1772641324171970800,6.821970703125,0.5827035307884216,-0.11799976974725723,0.10926903784275055
1772641324182016000,6.83201611328125,0.6223023533821106,-0.1593296378850937,0.037020936608314514
1772641324192061000,6.84206103515625,0.6340476274490356,-0.16384755074977875,-0.046726565808057785
1772641324202106000,6.852106201171875,0.610643208026886,-0.12248121201992035,-0.12839986383914948
1772641324212152000,6.862152099609375,0.5645860433578491,-0.05321585386991501,-0.20065338909626007
1772641324222196700,6.87219677734375,0.5079514980316162,0.042420390993356705,-0.24923956394195557
1772641324232242000,6.882241943359375,0.45905280113220215,0.14796897768974304,-0.2660907804965973
1772641324242287900,6.892287841796875,0.4365141987800598,0.23481892049312592,-0.24601933360099792
1772641324252332800,6.902332763671875,0.4400545358657837,0.28190356492996216,-0.18911869823932648
1772641324262378000,6.9123779296875,0.47069311141967773,0.2847613990306854,-0.1014799252152443
1772641324272424000,6.922423828125,0.5049608945846558,0.2568720281124115,0.01509888656437397
1772641324282468900,6.93246875,0.5241609811782837,0.20577876269817352,0.12962253391742706
1772641324292513800,6.942513671875,0.527012825012207,0.13790030777454376,0.2430364489555359
1772641324302559000,6.95255908203125,0.5049759745597839,0.06351688504219055,0.33901676535606384
1772641324312605000,6.96260498046875,0.4661954641342163,-0.0010717581026256084,0.4156508147716522
1772641324322649900,6.97264990234375,0.40945202112197876,-0.039583731442689896,0.4747498035430908
1772641324332695000,6.982695068359375,0.352114200592041,-0.0519975945353508,0.5167090892791748
1772641324342741000,6.992740966796875,0.30236342549324036,-0.04116997867822647,0.5429937243461609
1772641324352786000,7.002785888671875,0.2550733685493469,-0.04597984626889229,0.5425983667373657
1772641324362830800,7.012830810546875,0.19400814175605774,-0.0335114561021328,0.5183314085006714
1772641324372876000,7.0228759765625,0.13544338941574097,0.0051569705829024315,0.4897076487541199
1772641324382922000,7.032921875,0.08752301335334778,-0.01356611680239439,0.4345130920410156
1772641324392967000,7.042966796875,0.03406315669417381,-0.030243026092648506,0.37309977412223816
1772641324403011800,7.05301171875,-0.009354360401630402,-0.03398636355996132,0.3092169165611267
1772641324413057800,7.063057861328125,-0.056241679936647415,-0.06328106671571732,0.22682994604110718
1772641324423103000,7.07310302734375,-0.09495152533054352,-0.05422445386648178,0.14968989789485931
1772641324433148000,7.08314794921875,-0.12705524265766144,-0.013007519766688347,0.07227246463298798
1772641324443193900,7.09319384765625,-0.15475131571292877,0.047369275242090225,-0.006547247525304556
1772641324453239000,7.103239013671875,-0.1796475350856781,0.12309592962265015,-0.08562865108251572
1772641324463284000,7.113283935546875,-0.1979122906923294,0.19976328313350677,-0.16255033016204834
1772641324473329000,7.123328857421875,-0.20243915915489197,0.2635326683521271,-0.2366400808095932
1772641324483374800,7.133374755859375,-0.20069639384746552,0.2880025804042816,-0.30485668778419495
1772641324493419800,7.143419677734375,-0.19910381734371185,0.29052114486694336,-0.355290025472641
1772641324503465000,7.15346484375,-0.18326067924499512,0.25892671942710876,-0.393014520406723
1772641324513511000,7.163510986328125,-0.11188055574893951,0.21288347244262695,-0.4201841354370117
1772641324523556000,7.17355615234375,-0.027753960341215134,0.15377435088157654,-0.44352808594703674
1772641324533600800,7.183600830078125,0.05783284828066826,0.10859241336584091,-0.4482780396938324
1772641324543646700,7.193646728515625,0.14133785665035248,0.08373979479074478,-0.44371071457862854
1772641324553692000,7.20369189453125,0.20529361069202423,0.08812163770198822,-0.4375694990158081
1772641324563736800,7.21373681640625,0.24406364560127258,0.12852738797664642,-0.41875532269477844
1772641324573782000,7.223781982421875,0.2618878185749054,0.17491385340690613,-0.39478838443756104
1772641324583828000,7.233827880859375,0.2617543935775757,0.20081043243408203,-0.3685368001461029
1772641324593873000,7.243872802734375,0.24676544964313507,0.20070962607860565,-0.333168089389801
1772641324603917800,7.253917724609375,0.22301191091537476,0.16984012722969055,-0.28554463386535645
1772641324613963800,7.2639638671875,0.19456636905670166,0.10990608483552933,-0.22937226295471191
1772641324624009000,7.274009033203125,0.17492875456809998,0.02827540598809719,-0.16973155736923218
1772641324634054000,7.284053955078125,0.15260660648345947,-0.05076069012284279,-0.11356344074010849
1772641324644099000,7.29409912109375,0.13565665483474731,-0.10098018497228622,-0.06566515564918518
1772641324654145000,7.30414501953125,0.1204051747918129,-0.13403145968914032,-0.035904135555028915
1772641324664189700,7.314189697265625,0.1088329404592514,-0.13995300233364105,-0.027669377624988556
1772641324674235000,7.32423486328125,0.09487777203321457,-0.1344829499721527,-0.03533027693629265
1772641324684280800,7.33428076171875,0.07776722311973572,-0.12697310745716095,-0.048188019543886185
1772641324694326000,7.344325927734375,0.059228457510471344,-0.12769094109535217,-0.059734173119068146
1772641324704371000,7.354370849609375,0.04685620963573456,-0.12367010116577148,-0.06202235817909241
1772641324714417000,7.3644169921875,0.03516177088022232,-0.13169169425964355,-0.06047249212861061
1772641324724461800,7.3744619140625,0.027186937630176544,-0.14641258120536804,-0.05355120450258255
1772641324734506800,7.3845068359375,0.014878654852509499,-0.14537473022937775,-0.05157037451863289
1772641324744552000,7.394552001953125,0.005012709181755781,-0.12772542238235474,-0.05210700258612633
1772641324754598000,7.404597900390625,-0.003475162899121642,-0.1062217503786087,-0.061493974179029465
1772641324764643000,7.41464306640625,-0.01648550294339657,-0.08131187409162521,-0.0771498903632164
1772641324774687700,7.424687744140625,-0.031745269894599915,-0.04960300773382187,-0.09345830976963043
1772641324784733700,7.434733642578125,-0.04413136839866638,-0.013371235691010952,-0.10267683863639832
1772641324794779000,7.44477880859375,-0.06147431582212448,0.02346780337393284,-0.10934945940971375
1772641324804823800,7.45482373046875,-0.08027409762144089,0.037293870002031326,-0.10521836578845978
1772641324814869800,7.464869873046875,-0.10093656182289124,0.04919793829321861,-0.09703622758388519
1772641324824914700,7.474914794921875,-0.116773322224617,0.054626792669296265,-0.08548077940940857
1772641324834960000,7.4849599609375,-0.12853041291236877,0.06990288197994232,-0.06564265489578247
1772641324845004800,7.4950048828125,-0.14171864092350006,0.08310603350400925,-0.04978885129094124
1772641324855050800,7.50505078125,-0.16214826703071594,0.10028928518295288,-0.02969628944993019
1772641324865096000,7.515095947265625,-0.18820595741271973,0.10956347733736038,-0.015115748159587383
1772641324875140600,7.525140625,-0.2072334736585617,0.11163274943828583,-0.001369123812764883
1772641324885186600,7.5351865234375,-0.22150295972824097,0.1087951511144638,0.016012530773878098
1772641324895231700,7.545231689453125,-0.2308250069618225,0.09034191071987152,0.03340902552008629
1772641324905276700,7.555276611328125,-0.23225778341293335,0.057571444660425186,0.050919309258461
1772641324915323000,7.565322998046875,-0.23098504543304443,0.022554483264684677,0.06622785329818726
1772641324925367800,7.575367919921875,-0.22793813049793243,-0.009427150711417198,0.07407139241695404
1772641324935413000,7.5854130859375,-0.22510136663913727,-0.0377071350812912,0.0747462660074234
1772641324945457700,7.595457763671875,-0.22936828434467316,-0.06965787708759308,0.06452398747205734
1772641324955503600,7.605503662109375,-0.2281973958015442,-0.08896999806165695,0.047789834439754486
1772641324965548800,7.615548828125,-0.2300216555595398,-0.09113194793462753,0.026415571570396423
1772641324975593700,7.62559375,-0.23383934795856476,-0.08974315971136093,-0.0018224315717816353
1772641324985640000,7.635639892578125,-0.23999737203121185,-0.08039706200361252,-0.022416654974222183
1772641324995684900,7.645684814453125,-0.23633308708667755,-0.07360142469406128,-0.035134609788656235
1772641325005729800,7.655729736328125,-0.22505725920200348,-0.0799085944890976,-0.03732532635331154
1772641325015774700,7.665774658203125,-0.21041665971279144,-0.0917733684182167,-0.024853967130184174
1772641325025820700,7.675820556640625,-0.19685690104961395,-0.0924929529428482,-0.007135692518204451
1772641325035865900,7.685865966796875,-0.1797882318496704,-0.09010676294565201,0.026245541870594025
1772641325045910800,7.695910888671875,-0.16152748465538025,-0.0950237587094307,0.07273954153060913
1772641325055956700,7.705956787109375,-0.15221130847930908,-0.10323388874530792,0.13387005031108856
1772641325066002000,7.716001953125,-0.1449051946401596,-0.11767514050006866,0.19520370662212372
1772641325076046600,7.726046630859375,-0.14551731944084167,-0.13311386108398438,0.24789763987064362
1772641325086092800,7.7360927734375,-0.15554918348789215,-0.15812893211841583,0.27537214756011963
1772641325096137700,7.7461376953125,-0.17901676893234253,-0.19919443130493164,0.2682942748069763
1772641325106183000,7.756182861328125,-0.2039301097393036,-0.23643794655799866,0.2347608208656311
1772641325116227800,7.766227783203125,-0.22853495180606842,-0.2431257963180542,0.18558818101882935
1772641325126273800,7.776273681640625,-0.2531912624835968,-0.2154076248407364,0.13237768411636353
1772641325136318700,7.786318603515625,-0.27839934825897217,-0.1689075529575348,0.0729898139834404
1772641325146363600,7.79636376953125,-0.3063172698020935,-0.11227330565452576,0.00495457137003541
1772641325156409900,7.806409912109375,-0.33838653564453125,-0.020501840859651566,-0.06215309724211693
1772641325166454800,7.816454833984375,-0.37089309096336365,0.09961098432540894,-0.1075165793299675
1772641325176500000,7.8265,-0.3852229714393616,0.2054787576198578,-0.12009003013372421
1772641325186544600,7.836544677734375,-0.3802255392074585,0.25987035036087036,-0.09784703701734543
1772641325196590600,7.846590576171875,-0.36036068201065063,0.2766786813735962,-0.04354001209139824
1772641325206635800,7.8566357421875,-0.3284720182418823,0.2513304650783539,0.031049802899360657
1772641325216680700,7.8666806640625,-0.28794994950294495,0.1991577446460724,0.10611621290445328
1772641325226726700,7.8767265625,-0.2502800524234772,0.14320579171180725,0.19191233813762665
1772641325236771800,7.886771728515625,-0.21883024275302887,0.07318229973316193,0.2818228006362915
1772641325246816800,7.896816650390625,-0.186208114027977,0.02296466939151287,0.3759029805660248
1772641325256863000,7.906863037109375,-0.17611727118492126,-0.039670348167419434,0.4644290804862976
1772641325266907600,7.91690771484375,-0.1701430082321167,-0.1317659169435501,0.5351147055625916
1772641325276952800,7.926952880859375,-0.17333222925662994,-0.24560154974460602,0.5626444816589355
1772641325286997800,7.936997802734375,-0.1791517734527588,-0.310657262802124,0.5582278966903687
1772641325297043700,7.947043701171875,-0.17671243846416473,-0.30394110083580017,0.537301778793335
1772641325307089000,7.9570888671875,-0.1677064150571823,-0.23824648559093475,0.49830353260040283
1772641325317133600,7.967133544921875,-0.14653930068016052,-0.14011986553668976,0.43197453022003174
1772641325327179800,7.9771796875,-0.12021343410015106,0.01747881807386875,0.34593257308006287
1772641325337224700,7.987224609375,-0.09820306301116943,0.18040050566196442,0.2666586637496948
1772641325347270000,7.997269775390625,-0.07564156502485275,0.26029106974601746,0.20994611084461212
1772641325357315800,8.00731591796875,-0.053783074021339417,0.22161418199539185,0.1756482720375061
1772641325367360800,8.01736083984375,-0.03645601496100426,0.10386144369840622,0.16442251205444336
