time,seconds_elapsed,z,y,x
1772731592993264000,0.06826416015625,0.0557590015232563,0.05963379517197609,0.3379000425338745
1772731593003292200,0.078292236328125,0.06029803678393364,0.17688171565532684,0.38534167408943176
1772731593013320200,0.0883203125,0.06583607941865921,0.24653321504592896,0.39250078797340393
1772731593023348000,0.098347900390625,0.08377443999052048,0.23726573586463928,0.41065412759780884
1772731593033376300,0.108376220703125,0.12965857982635498,0.20553337037563324,0.4697805643081665
1772731593043404000,0.118404052734375,0.1982443779706955,0.1902051866054535,0.5353341698646545
1772731593053432300,0.128432373046875,0.2981848418712616,0.23257794976234436,0.5706788301467896
1772731593063460000,0.138460205078125,0.45520198345184326,0.31071966886520386,0.5699846148490906
1772731593073488100,0.148488037109375,0.6175400614738464,0.28140199184417725,0.5714597702026367
1772731593083516200,0.15851611328125,0.7144691944122314,0.2203129380941391,0.5800167918205261
1772731593093544200,0.168544189453125,0.7365878224372864,0.2336103618144989,0.5767608284950256
1772731593103572200,0.178572265625,0.7075626254081726,0.26691266894340515,0.5213382840156555
1772731593113600000,0.18860009765625,0.6508772373199463,0.30265122652053833,0.4325905740261078
1772731593123628000,0.1986279296875,0.5730592608451843,0.39733070135116577,0.34532400965690613
1772731593133656000,0.208656005859375,0.4883393347263336,0.512300968170166,0.28666043281555176
1772731593143683000,0.21868310546875,0.4383542537689209,0.5551769137382507,0.31433990597724915
1772731593153711000,0.228711181640625,0.42481526732444763,0.5916987061500549,0.4005544185638428
1772731593163739100,0.2387392578125,0.43773767352104187,0.6405249834060669,0.4684073328971863
1772731593173767200,0.24876708984375,0.45815107226371765,0.6839182376861572,0.4967244565486908
1772731593183795200,0.258795166015625,0.46946462988853455,0.7140301465988159,0.49725764989852905
1772731593193823000,0.268822998046875,0.44555503129959106,0.7157529592514038,0.48294129967689514
1772731593203851300,0.278851318359375,0.37825891375541687,0.7213155627250671,0.4652958810329437
1772731593213879000,0.288879150390625,0.2788739800453186,0.7231220006942749,0.4207446575164795
1772731593223907300,0.2989072265625,0.20881354808807373,0.5456717014312744,0.31851375102996826
1772731593233935000,0.30893505859375,0.1441698521375656,0.43399181962013245,0.24402566254138947
1772731593243963100,0.318963134765625,0.0905459001660347,0.4039410352706909,0.22349976003170013
1772731593253991200,0.3289912109375,0.01853349804878235,0.32974910736083984,0.2325957864522934
1772731593264019000,0.33901904296875,-0.06734612584114075,0.22774465382099152,0.2672519087791443
1772731593274047200,0.349047119140625,-0.12226929515600204,0.1394968181848526,0.3280643820762634
1772731593284075000,0.359074951171875,-0.12421094626188278,0.06608548015356064,0.4191891849040985
1772731593294103000,0.36910302734375,-0.11312101036310196,0.0647222027182579,0.5164568424224854
1772731593304131000,0.379131103515625,-0.14110250771045685,0.13395071029663086,0.5867317318916321
1772731593314159000,0.3891591796875,-0.19585204124450684,0.17822496592998505,0.5951984524726868
1772731593324187400,0.3991875,-0.17713426053524017,0.20801137387752533,0.5108821988105774
1772731593334215200,0.409215087890625,-0.11297470331192017,0.22637999057769775,0.3548697233200073
1772731593344243200,0.4192431640625,-0.06602320820093155,0.2373226284980774,0.18500134348869324
1772731593354271200,0.429271240234375,-0.03354330360889435,0.22271040081977844,0.05744205787777901
1772731593364299300,0.43929931640625,-0.010893101803958416,0.17168624699115753,0.0008475143695250154
1772731593374327300,0.449327392578125,-0.02604062855243683,0.07079984247684479,0.00542974891141057
1772731593384355300,0.459355224609375,-0.01957637257874012,0.04668516665697098,0.06641590595245361
1772731593394383000,0.469383056640625,0.009859547019004822,-0.00023493682965636253,0.1514468938112259
1772731593404411400,0.479411376953125,0.019043514505028725,-0.018390880897641182,0.215960294008255
1772731593414439200,0.489439208984375,0.01954631879925728,-0.03268326818943024,0.2708278298377991
1772731593424467200,0.49946728515625,0.047031186521053314,-0.061961665749549866,0.3017255961894989
1772731593434495200,0.5094951171875,0.10055193305015564,-0.11332205682992935,0.29704004526138306
1772731593444523300,0.519523193359375,0.13127903640270233,-0.13878250122070312,0.24901911616325378
1772731593454551300,0.52955126953125,0.14695148169994354,-0.12777751684188843,0.15819093585014343
1772731593464579300,0.539579345703125,0.12823031842708588,-0.11693096160888672,0.042317282408475876
1772731593474607000,0.549607177734375,0.09657146781682968,-0.15740221738815308,-0.06039045378565788
1772731593484635400,0.559635498046875,0.050995372235774994,-0.23070776462554932,-0.14330919086933136
1772731593494663200,0.5696630859375,-0.014060328714549541,-0.3309962749481201,-0.20499758422374725
1772731593504691500,0.57969140625,-0.09360092878341675,-0.4238226115703583,-0.250567227602005
1772731593514719200,0.58971923828125,-0.19174879789352417,-0.6199420094490051,-0.2886245846748352
1772731593524747300,0.599747314453125,-0.30133697390556335,-0.86917644739151,-0.2857210636138916
1772731593534775300,0.609775390625,-0.3882007598876953,-1.1190539598464966,-0.259129136800766
1772731593544803000,0.619802978515625,-0.41534557938575745,-1.2766618728637695,-0.21717898547649384
1772731593554831400,0.629831298828125,-0.38851824402809143,-1.3350178003311157,-0.16107283532619476
1772731593564859100,0.639859130859375,-0.32153940200805664,-1.137218713760376,-0.13604086637496948
1772731593574887200,0.64988720703125,-0.22531913220882416,-0.8801408410072327,-0.05210654065012932
1772731593584915200,0.659915283203125,-0.10179886221885681,-0.7552918791770935,0.03533423691987991
1772731593594943200,0.669943115234375,-0.05522710084915161,-0.6903416514396667,0.05805686116218567
1772731593604971300,0.67997119140625,-0.03403327241539955,-0.6981980204582214,0.11083497107028961
1772731593614999300,0.689999267578125,-0.03198423609137535,-0.727827787399292,0.17968539893627167
1772731593625027000,0.700027099609375,-0.030344612896442413,-0.7720534801483154,0.23822811245918274
1772731593635055400,0.710055419921875,-0.02466222643852234,-0.8098443150520325,0.26300936937332153
1772731593645082000,0.72008203125,-0.006275677587836981,-0.8166308999061584,0.2518581449985504
1772731593655110400,0.7301103515625,0.02218232862651348,-0.8048964738845825,0.2079671025276184
1772731593665138200,0.74013818359375,0.05954024940729141,-0.7843624949455261,0.16086946427822113
1772731593675166500,0.75016650390625,0.08879826217889786,-0.787733256816864,0.14319458603858948
1772731593685194200,0.7601943359375,0.10242199152708054,-0.8176654577255249,0.14416974782943726
1772731593695222000,0.770221923828125,0.10405530780553818,-0.8194481730461121,0.146897092461586
1772731593705250300,0.780250244140625,0.12179526686668396,-0.7567426562309265,0.14921848475933075
1772731593715278000,0.790278076171875,0.12978874146938324,-0.6729257702827454,0.13144934177398682
1772731593725306400,0.800306396484375,0.12431137263774872,-0.6243354082107544,0.10737741738557816
1772731593735334100,0.810334228515625,0.11544917523860931,-0.5805655121803284,0.08327075093984604
1772731593745362200,0.820362060546875,0.09768521040678024,-0.5535849928855896,0.03998507186770439
1772731593755390200,0.83039013671875,0.08608953654766083,-0.5169071555137634,-0.011338833719491959
1772731593765418200,0.840418212890625,0.09575274586677551,-0.45657750964164734,-0.07178232818841934
1772731593775446300,0.8504462890625,0.10950078070163727,-0.4046402871608734,-0.14107085764408112
1772731593785474300,0.860474365234375,0.1081751137971878,-0.37972360849380493,-0.19362948834896088
1772731593795502000,0.870502197265625,0.093973807990551,-0.37690117955207825,-0.2145635336637497
1772731593805530400,0.8805302734375,0.0826268345117569,-0.41077178716659546,-0.15727616846561432
1772731593815558100,0.89055810546875,0.07972504943609238,-0.4134211242198944,-0.05035264417529106
1772731593825586400,0.90058642578125,0.08469545841217041,-0.3836413323879242,0.029217874631285667
1772731593835614200,0.9106142578125,0.09367750585079193,-0.360493928194046,0.0694878026843071
1772731593845642200,0.920642333984375,0.10571229457855225,-0.3326617479324341,0.07249560952186584
1772731593855670300,0.930670166015625,0.1212204098701477,-0.30065828561782837,0.0586618147790432
1772731593865698300,0.9406982421875,0.12771578133106232,-0.2515539228916168,0.06062675639986992
1772731593875726300,0.950726318359375,0.1334109604358673,-0.22552496194839478,0.06610248237848282
1772731593885754400,0.96075439453125,0.1412283182144165,-0.20262834429740906,0.06189959868788719
1772731593895782100,0.9707822265625,0.15753725171089172,-0.17220012843608856,0.040855564177036285
1772731593905810400,0.980810546875,0.17678360641002655,-0.16026173532009125,0.008553579449653625
1772731593915838200,0.990838134765625,0.18643437325954437,-0.14929962158203125,-0.011029975488781929
1772731593925866200,1.0008662109375,0.19259300827980042,-0.1533738225698471,-0.020776644349098206
1772731593935894300,1.010894287109375,0.18805445730686188,-0.16114279627799988,-0.0313912034034729
1772731593945922300,1.02092236328125,0.18767444789409637,-0.16262255609035492,-0.04063935577869415
1772731593955950300,1.030950439453125,0.17193862795829773,-0.1438978761434555,-0.047333747148513794
1772731593965978000,1.04097802734375,0.1563737541437149,-0.10486487299203873,-0.07300283014774323
1772731593976006100,1.051006103515625,0.1455855518579483,-0.06805918365716934,-0.11792955547571182
1772731593986034200,1.0610341796875,0.13833607733249664,-0.042245350778102875,-0.14838969707489014
1772731593996062200,1.071062255859375,0.13431204855442047,-0.034415654838085175,-0.15041343867778778
1772731594006090200,1.08109033203125,0.14065982401371002,-0.05230630189180374,-0.13219881057739258
1772731594016118300,1.0911181640625,0.15134228765964508,-0.06594381481409073,-0.11583767086267471
1772731594026146000,1.10114599609375,0.1545412242412567,-0.0735800638794899,-0.10594882071018219
1772731594036174300,1.11117431640625,0.13715744018554688,-0.05500105395913124,-0.11095157265663147
1772731594046202000,1.1212021484375,0.12111115455627441,-0.02482115849852562,-0.13032720983028412
1772731594056230400,1.13123046875,0.11674303561449051,0.006772187538444996,-0.1399713158607483
1772731594066258200,1.141258056640625,0.12672631442546844,0.010817218571901321,-0.12843593955039978
1772731594076286200,1.1512861328125,0.1450406014919281,-0.001319339033216238,-0.08358617126941681
1772731594086313200,1.161313232421875,0.15539716184139252,-0.00003527337685227394,-0.03358194977045059
1772731594096341200,1.17134130859375,0.16114746034145355,-0.0052225785329937935,-0.015495889820158482
1772731594106369300,1.181369384765625,0.16887374222278595,0.004481411073356867,-0.025091465562582016
1772731594116397000,1.19139697265625,0.17614364624023438,0.0151393823325634,-0.03654678538441658
1772731594126425300,1.20142529296875,0.17088009417057037,0.01602071337401867,-0.04642060771584511
1772731594136453000,1.211453125,0.16307303309440613,0.008599549531936646,-0.05316213145852089
1772731594146481200,1.221481201171875,0.15058644115924835,-0.0039861914701759815,-0.05731707438826561
1772731594156509200,1.23150927734375,0.14835497736930847,-0.02579987794160843,-0.06348495930433273
1772731594166537200,1.241537109375,0.13249097764492035,-0.0595734603703022,-0.07422696799039841
1772731594176565200,1.251565185546875,0.12140662968158722,-0.05951167643070221,-0.08045157045125961
1772731594186593300,1.26159326171875,0.10657393932342529,-0.03518514335155487,-0.08926033228635788
1772731594196621000,1.27162109375,0.0865994319319725,-0.013193290680646896,-0.09385188668966293
1772731594206649300,1.2816494140625,0.07560994476079941,0.003913798835128546,-0.09676869958639145
1772731594216677000,1.291677001953125,0.07626161724328995,0.017927618697285652,-0.10526151955127716
1772731594226705400,1.301705322265625,0.08743123710155487,0.019967233762145042,-0.09646722674369812
1772731594236733200,1.311733154296875,0.10027512907981873,0.004054313525557518,-0.0857195109128952
1772731594246761200,1.32176123046875,0.11538945883512497,-0.030248625203967094,-0.0748443454504013
1772731594256789200,1.331789306640625,0.13167548179626465,-0.047704316675662994,-0.041489582508802414
1772731594266817300,1.3418173828125,0.13122300803661346,-0.04047248885035515,-0.021854009479284286
1772731594276845300,1.35184521484375,0.10454345494508743,-0.03519356995820999,-0.021474242210388184
1772731594286873300,1.361873291015625,0.08895852416753769,-0.02889113873243332,-0.03092494234442711
1772731594296901000,1.371901123046875,0.07148019969463348,-0.03304833173751831,-0.04518750309944153
1772731594306929400,1.381929443359375,0.06645607948303223,-0.044951219111680984,-0.05009349063038826
1772731594316957200,1.391957275390625,0.06996000558137894,-0.05745555832982063,-0.05104424059391022
1772731594326985200,1.401985107421875,0.07506491243839264,-0.0548585020005703,-0.05675103887915611
1772731594337013000,1.412012939453125,0.08231057226657867,-0.047255974262952805,-0.05746263638138771
1772731594347040800,1.422040771484375,0.08259842544794083,-0.03727952763438225,-0.06251488626003265
1772731594357069000,1.432069091796875,0.07874669879674911,-0.037499237805604935,-0.06518124043941498
1772731594367096800,1.442096923828125,0.07445907592773438,-0.03231562301516533,-0.06228005886077881
1772731594377125000,1.452125,0.055949047207832336,-0.03135688230395317,-0.06382042914628983
1772731594387153000,1.46215283203125,0.03450976684689522,-0.04116745665669441,-0.07969816029071808
1772731594397181000,1.472180908203125,0.022013414651155472,-0.048995018005371094,-0.10600540041923523
1772731594407209000,1.482208984375,0.015323715284466743,-0.05361832305788994,-0.12646424770355225
1772731594417237000,1.492237060546875,0.022986693307757378,-0.05573713406920433,-0.13076552748680115
1772731594427265000,1.50226513671875,0.037567052990198135,-0.0711771547794342,-0.12359019368886948
1772731594437293000,1.51229296875,0.059936538338661194,-0.09007521718740463,-0.08408752828836441
1772731594447320800,1.52232080078125,0.07624176144599915,-0.08311863243579865,-0.03463774546980858
1772731594457349000,1.53234912109375,0.08176249265670776,-0.07576750963926315,0.005851090885698795
1772731594467377000,1.542376953125,0.07352985441684723,-0.06390753388404846,0.015009408816695213
1772731594477405200,1.5524052734375,0.05710933730006218,-0.045689381659030914,-0.009313773363828659
1772731594487433000,1.562432861328125,0.03717406094074249,-0.007594279013574123,-0.03640694543719292
1772731594497461000,1.5724609375,0.02241935022175312,0.023048318922519684,-0.05392921343445778
1772731594507489000,1.582489013671875,0.006370721850544214,0.04030990973114967,-0.049820926040410995
1772731594517517000,1.59251708984375,-0.00014363665832206607,0.035689856857061386,-0.0388987697660923
1772731594527545000,1.602545166015625,0.0004037476610392332,0.012126263231039047,-0.026861106976866722
1772731594537571800,1.61257177734375,0.015513459220528603,-0.020486008375883102,-0.009791840799152851
1772731594547600100,1.62260009765625,0.02629862353205681,-0.048204775899648666,0.006124099250882864
1772731594557628000,1.6326279296875,0.032530687749385834,-0.0506274551153183,0.016671814024448395
1772731594567656000,1.642656005859375,0.029772786423563957,-0.03653822839260101,0.01345252525061369
1772731594577684000,1.65268408203125,0.023003829643130302,-0.02359873056411743,0.00539166945964098
1772731594587712000,1.6627119140625,0.011382061056792736,-0.015446261502802372,-0.0035456328187137842
1772731594597740000,1.672739990234375,-0.003080592257902026,-0.02214668318629265,-0.00981459766626358
1772731594607768000,1.68276806640625,-0.011424485594034195,-0.04012073576450348,-0.02343728579580784
1772731594617795800,1.6927958984375,-0.00907637644559145,-0.05150787532329559,-0.02953299507498741
1772731594627824000,1.70282421875,-0.0035953461192548275,-0.05418023094534874,-0.027488961815834045
1772731594637852000,1.712851806640625,-0.004983918741345406,-0.045489538460969925,-0.026056714355945587
1772731594647880200,1.722880126953125,-0.0042672473937273026,-0.0276467427611351,-0.024452131241559982
1772731594657908000,1.732907958984375,0.0002231083926744759,-0.003672167658805847,-0.01734016090631485
1772731594667936000,1.74293603515625,-0.00020699214655905962,0.013861019164323807,-0.009918462485074997
1772731594677964000,1.752964111328125,-0.0015295179327949882,0.007112037390470505,-0.007911504246294498
1772731594687992000,1.762991943359375,-0.005121835507452488,-0.014137454330921173,-0.011531863361597061
1772731594698020000,1.77302001953125,-0.01424822211265564,-0.024552812799811363,-0.020990079268813133
1772731594708048100,1.783048095703125,-0.025348057970404625,-0.013205248862504959,-0.02307533100247383
1772731594718076000,1.793075927734375,-0.032814763486385345,-0.00760994665324688,-0.03246350586414337
1772731594728104200,1.803104248046875,-0.032340582460165024,-0.010779300704598427,-0.04199987277388573
1772731594738132000,1.813132080078125,-0.028572475537657738,-0.013279477134346962,-0.05423203855752945
1772731594748160000,1.823159912109375,-0.01658122055232525,-0.012341189198195934,-0.05439804494380951
1772731594758188000,1.83318798828125,0.00013117992784827948,-0.020931746810674667,-0.04639764502644539
1772731594768215800,1.8432158203125,0.009559997357428074,-0.03328540921211243,-0.03839901462197304
1772731594778244000,1.853244140625,0.026936324313282967,-0.03891932591795921,-0.032115284353494644
1772731594788271900,1.86327197265625,0.0354040190577507,-0.05560607090592384,-0.030376924201846123
1772731594798300000,1.8732998046875,0.041137006133794785,-0.07309877872467041,-0.037321917712688446
1772731594808328000,1.883327880859375,0.05009964480996132,-0.09784511476755142,-0.038354456424713135
1772731594818356000,1.89335595703125,0.054516762495040894,-0.1283755898475647,-0.0419960618019104
1772731594828384000,1.903384033203125,0.04724039137363434,-0.14963312447071075,-0.05021214485168457
1772731594838412000,1.913412109375,0.04544755071401596,-0.14404581487178802,-0.033880043774843216
1772731594848439800,1.923439697265625,0.04012875631451607,-0.1281839907169342,-0.005593870300799608
1772731594858468000,1.933468017578125,0.04392962157726288,-0.11447057873010635,0.017684821039438248
1772731594868496000,1.943495849609375,0.051185183227062225,-0.08562491834163666,0.012145975604653358
1772731594878524200,1.953524169921875,0.05887293070554733,-0.03787337243556976,-0.03994625434279442
1772731594888552000,1.963552001953125,0.06428650766611099,0.011637920513749123,-0.0792185440659523
1772731594898580000,1.973580078125,0.06531582027673721,0.037177637219429016,-0.07095262408256531
1772731594908608000,1.98360791015625,0.0707712322473526,0.03530753776431084,-0.026517648249864578
1772731594918636000,1.993635986328125,0.07864060252904892,0.018913118168711662,0.028279021382331848
1772731594928663000,2.0036630859375,0.08580846339464188,0.007695066276937723,0.06531216949224472
1772731594938690800,2.01369091796875,0.08110266178846359,0.0002643140032887459,0.05708566680550575
1772731594948719000,2.023718994140625,0.07355102151632309,0.004568119533360004,0.03249211609363556
1772731594958747000,2.033746826171875,0.053298480808734894,0.01519679557532072,0.006360915023833513
1772731594968775000,2.04377490234375,0.038303960114717484,0.024028442800045013,-0.0057211690582334995
1772731594978803000,2.053802978515625,0.0302718635648489,0.014653317630290985,-0.01374873612076044
1772731594988831000,2.0638310546875,0.024651169776916504,0.010686098597943783,-0.008835087530314922
1772731594998859000,2.07385888671875,0.011882111430168152,0.01665610820055008,-0.012391472235321999
1772731595008887000,2.083886962890625,-0.006114304065704346,0.03256817162036896,-0.013101115822792053
1772731595018914800,2.093914794921875,-0.02394763007760048,0.03931768611073494,-0.023996373638510704
1772731595028943000,2.103943115234375,-0.035886868834495544,0.032637275755405426,-0.03762877359986305
1772731595038971000,2.113970947265625,-0.03355313837528229,0.019054623320698738,-0.03684793412685394
1772731595048999200,2.123999267578125,-0.020887460559606552,0.0007920968346297741,-0.01809554547071457
1772731595059027000,2.13402685546875,-0.009553846903145313,-0.02286769263446331,0.008671085350215435
1772731595069055000,2.144054931640625,-0.00097564299358055,-0.039266426116228104,0.033425524830818176
1772731595079083000,2.1540830078125,-0.003504580818116665,-0.032423701137304306,0.0635053962469101
1772731595089111000,2.164111083984375,-0.01121565978974104,-0.028870724141597748,0.07561523467302322
1772731595099139000,2.17413916015625,-0.011234301142394543,-0.02894183062016964,0.06938663125038147
1772731595109167000,2.1841669921875,-0.008327075280249119,-0.02579803206026554,0.04968077316880226
1772731595119195000,2.19419482421875,-0.004509434103965759,-0.022446177899837494,0.028953392058610916
1772731595129223200,2.20422314453125,-0.0038217282854020596,-0.009764444082975388,0.011240830644965172
1772731595139251000,2.2142509765625,-0.0012240810319781303,-0.010029694996774197,0.013781219720840454
1772731595149279200,2.224279296875,-0.0012409156188368797,-0.01780308410525322,0.023746054619550705
1772731595159307000,2.23430712890625,0.007656705565750599,-0.03248775377869606,0.027193516492843628
1772731595169334800,2.244334716796875,0.005061778239905834,-0.03938092291355133,0.03908737376332283
1772731595179363000,2.254363037109375,-0.007922730408608913,-0.038809143006801605,0.04881696775555611
1772731595189390800,2.264390869140625,-0.016066143289208412,-0.04207257926464081,0.04795783385634422
1772731595199419100,2.274419189453125,-0.01713700033724308,-0.04076283797621727,0.04956105351448059
1772731595209447000,2.284447021484375,-0.018449870869517326,-0.021528389304876328,0.03919091075658798
1772731595219475000,2.294474853515625,-0.018926575779914856,-0.011987614445388317,0.015138305723667145
1772731595229503000,2.3045029296875,-0.020518172532320023,-0.008436995558440685,-0.00426457030698657
1772731595239531000,2.314531005859375,-0.017763664945960045,-0.018575383350253105,-0.007551443763077259
1772731595249559000,2.32455908203125,-0.016764894127845764,-0.020271630957722664,-0.0035841630306094885
1772731595259587000,2.334587158203125,-0.014410393312573433,-0.010724465362727642,-0.017903447151184082
1772731595269614800,2.34461474609375,-0.020449765026569366,0.0018305371049791574,-0.026870517060160637
1772731595279643100,2.35464306640625,-0.036197833716869354,-0.0030779349617660046,-0.04023559391498566
1772731595289671000,2.3646708984375,-0.04340994730591774,-0.01263840589672327,-0.046086736023426056
1772731595299699000,2.374698974609375,-0.042047206312417984,-0.02445724792778492,-0.03824372589588165
1772731595309727000,2.38472705078125,-0.04463222622871399,-0.029616545885801315,-0.028877297416329384
1772731595319755000,2.394755126953125,-0.03850802034139633,-0.030294854193925858,-0.012806452810764313
1772731595329782300,2.4047822265625,-0.04224374145269394,-0.02581626921892166,-0.009187926538288593
1772731595339810300,2.414810302734375,-0.04076702147722244,-0.022353893145918846,-0.008943714201450348
1772731595349838300,2.42483837890625,-0.035590484738349915,-0.02938910387456417,-0.005910573527216911
1772731595359866400,2.434866455078125,-0.020301809534430504,-0.04465567320585251,0.006764741614460945
1772731595369894100,2.44489404296875,-0.006202707067131996,-0.04599146917462349,0.016384899616241455
1772731595379922400,2.45492236328125,0.0037505910731852055,-0.036452025175094604,0.04039755463600159
1772731595389950200,2.4649501953125,0.004843608476221561,-0.029620595276355743,0.06691563129425049
1772731595399978500,2.474978515625,0.0075826700776815414,-0.020830299705266953,0.08931467682123184
1772731595410006300,2.48500634765625,0.008742602542042732,-0.014675009995698929,0.10588445514440536
1772731595420034300,2.495034423828125,0.011561824940145016,-0.016935234889388084,0.12286876142024994
1772731595430062300,2.505062255859375,0.010624287649989128,-0.027840934693813324,0.13674792647361755
1772731595440090000,2.515090087890625,0.011359852738678455,-0.03532441705465317,0.14289237558841705
1772731595450118400,2.525118408203125,0.026870278641581535,-0.02609141170978546,0.15897236764431
1772731595460146200,2.535146240234375,0.033185429871082306,-0.019563738256692886,0.18591663241386414
1772731595470174200,2.54517431640625,0.03015459142625332,-0.004678742494434118,0.1997697800397873
1772731595480202200,2.5552021484375,0.01433967612683773,0.02544107660651207,0.19371667504310608
1772731595490230300,2.565230224609375,-0.006908339448273182,0.049494363367557526,0.1678536832332611
1772731595500258300,2.57525830078125,-0.02791934832930565,0.04986028000712395,0.13893575966358185
1772731595510286300,2.585286376953125,-0.025875920429825783,0.03091626986861229,0.132603257894516
1772731595520314000,2.595314208984375,-0.010028780438005924,0.01617221161723137,0.1452745795249939
1772731595530342400,2.60534228515625,0.01535094901919365,-0.0006389569025486708,0.17261213064193726
1772731595540370200,2.6153701171875,0.038784369826316833,0.008076503872871399,0.20842552185058594
1772731595550398500,2.6253984375,0.052867040038108826,0.015053527429699898,0.23112592101097107
1772731595560426200,2.63542626953125,0.056296657770872116,0.011494212783873081,0.23012910783290863
1772731595570454300,2.645454345703125,0.0567525215446949,-0.009616169147193432,0.21131792664527893
1772731595580482300,2.655482421875,0.0547729954123497,-0.024633735418319702,0.16619493067264557
1772731595590510300,2.66551025390625,0.04548962786793709,-0.026730379089713097,0.10677480697631836
1772731595600538400,2.675538330078125,0.04143150523304939,-0.014165583997964859,0.06001769006252289
1772731595610566400,2.68556640625,0.037011537700891495,-0.00700495857745409,0.044933777302503586
1772731595620594200,2.69559423828125,0.037617407739162445,-0.016986751928925514,0.05075198411941528
1772731595630622500,2.70562255859375,0.047469258308410645,-0.023564623668789864,0.05302467197179794
1772731595640650200,2.715650146484375,0.06448552757501602,-0.029276570305228233,0.040632717311382294
1772731595650678300,2.72567822265625,0.08071330934762955,-0.032084837555885315,0.023876313120126724
1772731595660706300,2.735706298828125,0.08770943433046341,-0.0390402153134346,0.006694663781672716
1772731595670734300,2.745734375,0.09434930980205536,-0.05512766167521477,-0.003603096818551421
1772731595680762400,2.755762451171875,0.09984501451253891,-0.06484713405370712,0.0012318723602220416
1772731595690790400,2.765790283203125,0.09990937262773514,-0.07147565484046936,0.01398400217294693
1772731595700818200,2.775818115234375,0.09407571703195572,-0.07502351701259613,0.024006009101867676
1772731595710846200,2.78584619140625,0.08928900212049484,-0.07002460956573486,0.012013976462185383
1772731595720873500,2.79587353515625,0.08647484332323074,-0.05294548720121384,-0.006503515411168337
1772731595730901200,2.8059013671875,0.08747629821300507,-0.03922908753156662,-0.010579307563602924
1772731595740929300,2.81592919921875,0.09561198949813843,-0.03783811628818512,-0.008699649013578892
1772731595750957300,2.825957275390625,0.10123912990093231,-0.04372801259160042,0.002857313258573413
1772731595760985300,2.8359853515625,0.096226267516613,-0.043040115386247635,0.01409824937582016
1772731595771013400,2.846013427734375,0.09591609239578247,-0.04162979871034622,0.0301042627543211
1772731595781041400,2.85604150390625,0.10109753906726837,-0.03827208653092384,0.05278667062520981
1772731595791069200,2.866069091796875,0.10632802546024323,-0.028595205396413803,0.07009026408195496
1772731595801097500,2.876097412109375,0.10753470659255981,-0.01817425526678562,0.07870026677846909
1772731595811125200,2.886125244140625,0.10795964300632477,-0.012372348457574844,0.07076600193977356
1772731595821153300,2.8961533203125,0.09899064898490906,0.005297192372381687,0.05024287849664688
1772731595831181300,2.906181396484375,0.08974680304527283,0.031133433803915977,0.04302142560482025
1772731595841209300,2.916209228515625,0.07897777855396271,0.042915794998407364,0.052128903567790985
1772731595851237400,2.9262373046875,0.07475750148296356,0.03539184853434563,0.04996692016720772
1772731595861265200,2.93626513671875,0.08297734707593918,0.03149298205971718,0.050612203776836395
1772731595871293200,2.946293212890625,0.08768938481807709,0.022289417684078217,0.05080093443393707
1772731595881321200,2.9563212890625,0.09399255365133286,0.014303131029009819,0.04302237182855606
1772731595891349200,2.966349365234375,0.0915525034070015,0.016401279717683792,0.03173092007637024
1772731595901377300,2.976377197265625,0.08412308245897293,0.02185756340622902,0.02097015269100666
1772731595911405300,2.9864052734375,0.08319158107042313,0.029697146266698837,0.0140187107026577
1772731595921433000,2.99643310546875,0.08888382464647293,0.0277346633374691,0.020383931696414948
1772731595931461400,3.00646142578125,0.0986173152923584,0.013675505295395851,0.0323236919939518
1772731595941489200,3.0164892578125,0.1102294921875,0.003001023316755891,0.03629100322723389
1772731595951517400,3.026517333984375,0.11910860240459442,0.009828120470046997,0.02435946837067604
1772731595961545200,3.036545166015625,0.1281135529279709,0.021497027948498726,0.009696636348962784
1772731595971573200,3.0465732421875,0.12106380611658096,0.027301479130983353,0.0013077976182103157
1772731595981601300,3.056601318359375,0.12298581004142761,0.028179790824651718,-0.0024930660147219896
1772731595991629300,3.06662939453125,0.1299562305212021,0.0198149923235178,-0.008099168539047241
1772731596001657300,3.0766572265625,0.1399311125278473,0.02488565258681774,0.003876800648868084
1772731596011685400,3.086685302734375,0.1458919495344162,0.015317382290959358,0.030047694221138954
1772731596021713200,3.096713134765625,0.15742157399654388,-0.004999874625355005,0.04806477576494217
1772731596031741400,3.106741455078125,0.17419447004795074,-0.010224711149930954,0.05650191009044647
1772731596041769200,3.116769287109375,0.17809946835041046,-0.01808742806315422,0.05768807977437973
1772731596051797500,3.126797607421875,0.1789107322692871,-0.05012814700603485,0.06750735640525818
1772731596061825300,3.1368251953125,0.16337944567203522,-0.059283297508955,0.07386618852615356
1772731596071853300,3.146853271484375,0.151206836104393,-0.07634421437978745,0.07158637046813965
1772731596081881300,3.15688134765625,0.14193451404571533,-0.08620457351207733,0.06282324343919754
1772731596091909400,3.166909423828125,0.13594262301921844,-0.07630641758441925,0.04664989560842514
1772731596101936400,3.176936279296875,0.1324504166841507,-0.05817721039056778,0.019838253036141396
1772731596111964200,3.186964111328125,0.1260582059621811,-0.0449669249355793,-0.002402246929705143
1772731596121992400,3.196992431640625,0.10458673536777496,-0.044877972453832626,-0.028614677488803864
1772731596132020200,3.207020263671875,0.08675747364759445,-0.03740137815475464,-0.048200421035289764
1772731596142048300,3.21704833984375,0.06676112860441208,-0.02423684112727642,-0.061985209584236145
1772731596152076300,3.227076171875,0.054459813982248306,-0.021345006301999092,-0.06483277678489685
1772731596162104300,3.237104248046875,0.038559943437576294,-0.030033569782972336,-0.06588206440210342
1772731596172132400,3.24713232421875,0.024958303198218346,-0.053504303097724915,-0.07005669176578522
1772731596182160400,3.257160400390625,0.024456297978758812,-0.07446098327636719,-0.07673776149749756
1772731596192188200,3.267188232421875,0.021892666816711426,-0.08554057031869888,-0.08312023431062698
1772731596202216400,3.277216552734375,0.022422369569540024,-0.0859949067234993,-0.09032115340232849
1772731596212244200,3.287244140625,0.02262260392308235,-0.08799415826797485,-0.09589245915412903
1772731596222272500,3.2972724609375,0.014441108331084251,-0.08341964334249496,-0.10142011940479279
1772731596232300300,3.30730029296875,0.015682892873883247,-0.06771648675203323,-0.111231729388237
1772731596242328300,3.317328369140625,0.01611459255218506,-0.05336177721619606,-0.12476698309183121
1772731596252356400,3.3273564453125,0.018305635079741478,-0.05150257796049118,-0.12814731895923615
1772731596262384400,3.33738427734375,0.023287877440452576,-0.04907910153269768,-0.11975142359733582
1772731596272412400,3.347412353515625,0.0332181416451931,-0.03957356512546539,-0.1174328401684761
1772731596282440200,3.357440185546875,0.04259619861841202,-0.017155606299638748,-0.12485481053590775
1772731596292468200,3.36746826171875,0.05761367082595825,0.005991615355014801,-0.12546613812446594
1772731596302496300,3.377496337890625,0.0659424364566803,0.011589580215513706,-0.11975180357694626
1772731596312524300,3.387524169921875,0.07446400076150894,0.0017716996371746063,-0.11349758505821228
1772731596322552300,3.39755224609375,0.08714411407709122,-0.022121381014585495,-0.10661650449037552
1772731596332580400,3.407580322265625,0.09667649120092392,-0.03708522766828537,-0.10101389139890671
1772731596342608100,3.417608154296875,0.09396965056657791,-0.03992122784256935,-0.09510274231433868
1772731596352636400,3.427636474609375,0.09082043915987015,-0.03166449815034866,-0.09324273467063904
1772731596362664200,3.437664306640625,0.09578483551740646,-0.009548011235892773,-0.09808409214019775
1772731596372692200,3.447692138671875,0.11481036245822906,0.0023056636564433575,-0.09733352810144424
1772731596382720300,3.45772021484375,0.13715986907482147,-0.00012873183004558086,-0.09184155613183975
1772731596392748300,3.467748291015625,0.1586226373910904,-0.007031352259218693,-0.07012574374675751
1772731596402776300,3.4777763671875,0.17070166766643524,-0.010046049952507019,-0.04464222490787506
1772731596412804400,3.487804443359375,0.1663835495710373,-0.0032114700879901648,-0.02281806990504265
1772731596422832000,3.49783203125,0.1488405168056488,0.006838234141469002,-0.012827754020690918
1772731596432860400,3.5078603515625,0.1317395567893982,0.017034266144037247,-0.015022753737866879
1772731596442888200,3.51788818359375,0.11757127195596695,0.02276911586523056,-0.018026266247034073
1772731596452916200,3.527916259765625,0.11747632920742035,0.02571491338312626,-0.0134366974234581
1772731596462944300,3.5379443359375,0.12278427183628082,0.02481822669506073,0.0009145451476797462
1772731596472972000,3.547971923828125,0.13267026841640472,0.019693009555339813,0.0250464528799057
1772731596482999300,3.557999267578125,0.13350357115268707,0.023592941462993622,0.03787143528461456
1772731596493027300,3.56802734375,0.12656666338443756,0.032521896064281464,0.036469701677560806
1772731596503055400,3.578055419921875,0.10646352171897888,0.03206649795174599,0.023656168952584267
1772731596513083100,3.588083251953125,0.09064595401287079,0.0346219465136528,0.0086570018902421
1772731596523111400,3.598111328125,0.08511750400066376,0.023571692407131195,0.004956538788974285
1772731596533139200,3.60813916015625,0.07395370304584503,0.003313385182991624,0.0003275482158642262
1772731596543167200,3.618167236328125,0.06538951396942139,-0.004298994317650795,-0.0028203080873936415
1772731596553195300,3.6281953125,0.052262209355831146,-0.005021941848099232,-0.015198408626019955
1772731596563223300,3.638223388671875,0.04463784396648407,0.007178531028330326,-0.022929033264517784
1772731596573251300,3.648251220703125,0.03589089959859848,0.00799197144806385,-0.027650998905301094
1772731596583279400,3.658279296875,0.03901239484548569,-0.00564101617783308,-0.028844894841313362
1772731596593307100,3.66830712890625,0.04079271852970123,-0.0217273086309433,-0.01756933704018593
1772731596603335200,3.678335205078125,0.04613075405359268,-0.0313197486102581,0.0004493449523579329
1772731596613363200,3.68836328125,0.05030731111764908,-0.03367602825164795,0.015088246203958988
1772731596623391200,3.69839111328125,0.05331561714410782,-0.04850051552057266,0.011091107502579689
1772731596633419300,3.708419189453125,0.052212826907634735,-0.06522513926029205,0.005008230451494455
1772731596643447000,3.718447021484375,0.059722673147916794,-0.06519291549921036,0.00028804378234781325
1772731596653475300,3.728475341796875,0.053534530103206635,-0.06419835984706879,-0.0025644090492278337
1772731596663503000,3.738503173828125,0.05170201137661934,-0.05075552314519882,-0.010871075093746185
1772731596673531400,3.748531494140625,0.047129396349191666,-0.03843960911035538,-0.0027046294417232275
1772731596683559200,3.75855908203125,0.04515865445137024,-0.03280568867921829,0.006361303385347128
1772731596693587200,3.768587158203125,0.04480862244963646,-0.031813040375709534,0.0027317949570715427
1772731596703615200,3.778615234375,0.04931309446692467,-0.036270104348659515,-0.005710692144930363
1772731596713643300,3.788643310546875,0.058070193976163864,-0.031983040273189545,-0.0184060949832201
1772731596723671300,3.79867138671875,0.05569678544998169,-0.03995468094944954,-0.020161917433142662
1772731596733699300,3.80869921875,0.03392213210463524,-0.05011441931128502,-0.02671072632074356
1772731596743727000,3.81872705078125,0.024821311235427856,-0.052256666123867035,-0.0265972763299942
1772731596753755400,3.82875537109375,0.02143806591629982,-0.05958699807524681,-0.030430126935243607
1772731596763783200,3.838783203125,0.02884458377957344,-0.06931392848491669,-0.027056168764829636
1772731596773811500,3.8488115234375,0.0439852811396122,-0.0699521154165268,-0.03346438333392143
1772731596783839200,3.858839111328125,0.060582634061574936,-0.06474270671606064,-0.04794185981154442
1772731596793867300,3.8688671875,0.06622464209794998,-0.0595092736184597,-0.05883454158902168
1772731596803895300,3.878895263671875,0.061374492943286896,-0.05927225202322006,-0.05443819612264633
1772731596813923300,3.88892333984375,0.059835948050022125,-0.06608197093009949,-0.048359502106904984
1772731596823951400,3.898951416015625,0.059226617217063904,-0.08259197324514389,-0.033996809273958206
1772731596833979400,3.9089794921875,0.061199575662612915,-0.09981125593185425,-0.022347375750541687
1772731596844007200,3.919007080078125,0.06578580290079117,-0.11168895661830902,-0.015571229159832
1772731596854035200,3.92903515625,0.0682486891746521,-0.11170360445976257,-0.004512718878686428
1772731596864063200,3.939063232421875,0.06324860453605652,-0.10221369564533234,-0.010637989267706871
1772731596874091300,3.94909130859375,0.05374394729733467,-0.08258944749832153,-0.03383297100663185
1772731596884118300,3.9591181640625,0.050099145621061325,-0.06329271197319031,-0.0481509231030941
1772731596894146300,3.969146240234375,0.03873448446393013,-0.06143218278884888,-0.046426963061094284
1772731596904174300,3.97917431640625,0.03432988375425339,-0.0776047632098198,-0.03707793727517128
1772731596914202000,3.9892021484375,0.02358280122280121,-0.09132158011198044,-0.023242903873324394
1772731596924230400,3.99923046875,0.0151701420545578,-0.09420605003833771,-0.0030667963437736034
1772731596934258200,4.009258056640625,0.007327433675527573,-0.09773232787847519,0.00703214667737484
1772731596944286500,4.019286376953125,0.0047116768546402454,-0.1032746359705925,0.010008495301008224
1772731596954314200,4.029314208984375,0.0008898095111362636,-0.10359019786119461,0.0041503095999360085
1772731596964342300,4.03934228515625,-0.0013485774397850037,-0.09827079623937607,-0.0015935960691422224
1772731596974370300,4.049370361328125,-0.002583520021289587,-0.08587593585252762,-0.0059765963815152645
1772731596984398300,4.0593984375,-0.004653329029679298,-0.08310731500387192,-0.004785630386322737
1772731596994426400,4.06942626953125,-0.009417155757546425,-0.08249503374099731,-0.0037725945003330708
1772731597004454400,4.079454345703125,-0.017229005694389343,-0.08670148998498917,0.012635407038033009
1772731597014482200,4.089482177734375,-0.03824066370725632,-0.08206897228956223,0.033658578991889954
1772731597024510200,4.09951025390625,-0.06118752434849739,-0.05723046511411667,0.04862154647707939
1772731597034538200,4.109538330078125,-0.06704213470220566,-0.023685796186327934,0.05066511407494545
1772731597044566300,4.119566162109375,-0.07223343849182129,-0.005489748902618885,0.04369482025504112
1772731597054594300,4.12959423828125,-0.07170815765857697,-0.010997110977768898,0.027735203504562378
1772731597064622000,4.1396220703125,-0.0640672817826271,-0.020777035504579544,0.01667376421391964
1772731597074650400,4.149650390625,-0.06332993507385254,-0.032074619084596634,0.017144912853837013
1772731597084678100,4.15967822265625,-0.0691249743103981,-0.04449160397052765,0.026138674467802048
1772731597094706200,4.1697060546875,-0.07827512174844742,-0.052434906363487244,0.03194764629006386
1772731597104734200,4.179734130859375,-0.09146948158740997,-0.05378672480583191,0.03580790013074875
1772731597114762200,4.18976220703125,-0.10391442477703094,-0.056765325367450714,0.027890080586075783
1772731597124790300,4.199790283203125,-0.10813100636005402,-0.06093477085232735,0.01721799559891224
1772731597134818300,4.209818359375,-0.1063595563173294,-0.06831670552492142,0.004766419529914856
1772731597144846000,4.21984619140625,-0.0985194742679596,-0.09552381932735443,-0.004419888369739056
1772731597154874400,4.229874267578125,-0.08851850777864456,-0.11957748979330063,-0.005536285229027271
1772731597164902100,4.239902099609375,-0.09268496930599213,-0.13128352165222168,0.0002863665868062526
1772731597174930400,4.249930419921875,-0.10137436538934708,-0.1356029361486435,0.002010527765378356
1772731597184958200,4.259958251953125,-0.10931005328893661,-0.13770709931850433,-0.002576767234131694
1772731597194986200,4.269986328125,-0.11354440450668335,-0.13579170405864716,-0.008076788857579231
1772731597205014300,4.28001416015625,-0.11071852594614029,-0.12575958669185638,-0.018734226003289223
1772731597215042300,4.290042236328125,-0.10162850469350815,-0.118431955575943,-0.029371490702033043
1772731597225070300,4.3000703125,-0.08787407726049423,-0.10818011313676834,-0.03382722660899162
1772731597235098400,4.310098388671875,-0.07464294135570526,-0.1022922694683075,-0.03201659768819809
1772731597245126100,4.320126220703125,-0.06318708509206772,-0.09304284304380417,-0.0242521520704031
1772731597255154400,4.330154541015625,-0.05837828665971756,-0.07786339521408081,-0.0227801613509655
1772731597265182200,4.34018212890625,-0.055223237723112106,-0.06408526003360748,-0.02747717872262001
1772731597275209200,4.350209228515625,-0.05580919235944748,-0.04428588226437569,-0.026100507006049156
1772731597285237200,4.3602373046875,-0.05375909060239792,-0.025690091773867607,-0.02468903176486492
1772731597295265300,4.370265380859375,-0.049174562096595764,-0.016782406717538834,-0.016792135313153267
1772731597305293300,4.380293212890625,-0.04997697100043297,-0.005125217605382204,-0.005728831980377436
1772731597315321000,4.390321044921875,-0.05349506437778473,-0.011866366490721703,-0.002155316760763526
1772731597325349400,4.400349365234375,-0.05434461310505867,-0.011938005685806274,-0.00548133859410882
1772731597335377000,4.410376953125,-0.04790226370096207,-0.004893733654171228,0.0034187694545835257
1772731597345405000,4.420405029296875,-0.04877285659313202,-0.002606610767543316,-0.0005858257645741105
1772731597355433000,4.430432861328125,-0.05094798281788826,0.014792160131037235,-0.004420897923409939
1772731597365461000,4.4404609375,-0.053324855864048004,0.03049974888563156,-0.009573847986757755
1772731597375489000,4.450489013671875,-0.048364996910095215,0.04056848585605621,-0.007714454550296068
1772731597385516800,4.460516845703125,-0.04356464743614197,0.03277607634663582,-0.007158919237554073
1772731597395545000,4.470545166015625,-0.03930077329277992,0.022276515141129494,-0.00211418722756207
1772731597405572900,4.48057275390625,-0.03086707554757595,0.01545216515660286,0.007147221826016903
1772731597415601000,4.490600830078125,-0.0206618569791317,0.0071192532777786255,0.008177039213478565
1772731597425629000,4.50062890625,-0.00942118652164936,-0.0026974244974553585,0.020295487716794014
1772731597435657000,4.510656982421875,0.00487333070486784,-0.010079174302518368,0.044375259429216385
1772731597445685000,4.52068505859375,0.02108292654156685,-0.011384389363229275,0.060922276228666306
1772731597455713000,4.530713134765625,0.030715174973011017,-0.016097459942102432,0.07032494992017746
1772731597465740800,4.54074072265625,0.03634482994675636,-0.018080448731780052,0.07617485523223877
1772731597475768800,4.550768798828125,0.032940663397312164,-0.021623987704515457,0.07310482859611511
1772731597485796900,4.560796875,0.02720501273870468,-0.03203268349170685,0.05896531045436859
1772731597495825000,4.570824951171875,0.027816960588097572,-0.03405563160777092,0.060208313167095184
1772731597505853000,4.58085302734375,0.02942364662885666,-0.04044029116630554,0.06664783507585526
1772731597515880700,4.590880615234375,0.028326228260993958,-0.028922883793711662,0.0684821605682373
1772731597525909000,4.600908935546875,0.032462649047374725,-0.03944423794746399,0.07303803414106369
1772731597535936800,4.610936767578125,0.038327980786561966,-0.023345040157437325,0.06929759681224823
1772731597545965000,4.620965087890625,0.029962195083498955,0.012741059064865112,0.06469112634658813
1772731597555992800,4.630992919921875,0.008236601948738098,0.04241224378347397,0.06703399866819382
1772731597566020900,4.641020751953125,-0.007851820439100266,0.04693136364221573,0.07317710667848587
1772731597576049000,4.651048828125,-0.010380133055150509,0.04070453345775604,0.07613816112279892
1772731597586077000,4.661076904296875,-0.0016297850525006652,0.0292593315243721,0.09278132021427155
1772731597596105000,4.67110498046875,-0.0008809262653812766,0.022644702345132828,0.12116161733865738
1772731597606133000,4.681133056640625,-0.007424579467624426,0.007444177288562059,0.14352843165397644
1772731597616160800,4.691160888671875,-0.013542463071644306,-0.01816561445593834,0.14623479545116425
1772731597626189000,4.70118896484375,-0.014656996354460716,-0.04769900441169739,0.13300101459026337
1772731597636216800,4.711216796875,-0.01769820787012577,-0.07019239664077759,0.11031056940555573
1772731597646245000,4.7212451171875,-0.013074692338705063,-0.07776562869548798,0.09880677610635757
1772731597656272000,4.73127197265625,-0.015749424695968628,-0.08331985026597977,0.09454258531332016
1772731597666300000,4.7412998046875,-0.016859430819749832,-0.07407362014055252,0.09913413971662521
1772731597676328000,4.751327880859375,-0.029946863651275635,-0.03719276189804077,0.09212564677000046
1772731597686355700,4.761355712890625,-0.039636243134737015,0.007205595262348652,0.07902529090642929
1772731597696384000,4.771384033203125,-0.04172259941697121,0.0342387892305851,0.06663363426923752
1772731597706411800,4.781411865234375,-0.0505235455930233,0.04164743795990944,0.05587579309940338
1772731597716440000,4.791440185546875,-0.05061572790145874,0.02241247519850731,0.0454024113714695
1772731597726467800,4.8014677734375,-0.04843992367386818,-0.004887057468295097,0.03000614047050476
1772731597736495900,4.811495849609375,-0.04558009281754494,-0.01838935725390911,0.015964480116963387
1772731597746524000,4.82152392578125,-0.042072176933288574,-0.032673753798007965,0.010016575455665588
1772731597756552000,4.831552001953125,-0.037645332515239716,-0.03603512421250343,0.0036352542228996754
1772731597766580000,4.841580078125,-0.029290463775396347,-0.0207296684384346,-0.008825942873954773
1772731597776608000,4.85160791015625,-0.024253232404589653,0.00739723164588213,-0.019608428701758385
1772731597786635800,4.8616357421875,-0.014794484712183475,0.023656629025936127,-0.02637285739183426
1772731597796664000,4.8716640625,0.0024021489080041647,0.02858378179371357,-0.01719806157052517
1772731597806691800,4.88169189453125,0.02709071710705757,0.030605917796492577,0.0022613899782299995
1772731597816720100,4.89172021484375,0.05664864182472229,0.031301286071538925,0.027751805260777473
1772731597826748000,4.901747802734375,0.08053746819496155,0.02707511931657791,0.03662625700235367
1772731597836776000,4.91177587890625,0.10245274752378464,0.01893376000225544,0.039370499551296234
1772731597846804000,4.921803955078125,0.11468624323606491,0.009028665721416473,0.027043258771300316
1772731597856832000,4.93183203125,0.12247860431671143,0.008493629284203053,0.016439730301499367
1772731597866860000,4.941860107421875,0.1363275796175003,0.007012112997472286,0.0032685347832739353
1772731597876888000,4.95188818359375,0.14555327594280243,0.008802792988717556,-0.008658218197524548
1772731597886915800,4.961915771484375,0.15049849450588226,0.019488461315631866,-0.011321911588311195
1772731597896943900,4.97194384765625,0.14720672369003296,0.02075899951159954,-0.012618513777852058
1772731597906972000,4.981971923828125,0.14054882526397705,0.01919519156217575,-0.026499707251787186
1772731597917000000,4.992,0.12502796947956085,0.020783400163054466,-0.051967523992061615
1772731597927028000,5.002028076171875,0.1099744513630867,0.040982410311698914,-0.0834823027253151
1772731597937055700,5.0120556640625,0.1026405468583107,0.04969796538352966,-0.11665398627519608
1772731597947084000,5.022083984375,0.1066555306315422,0.06002570316195488,-0.1359776258468628
1772731597957111800,5.03211181640625,0.11874301731586456,0.05439920350909233,-0.12774786353111267
1772731597967139800,5.042139892578125,0.13311448693275452,0.03924821689724922,-0.0950397178530693
1772731597977168000,5.05216796875,0.1577940285205841,0.0357138067483902,-0.05409340560436249
1772731597987196000,5.06219580078125,0.16833987832069397,0.005155098158866167,-0.002530611352995038
1772731597997224000,5.072223876953125,0.178199902176857,0.005414078943431377,0.04387647286057472
1772731598007252000,5.082251953125,0.19191251695156097,-0.0007431490812450647,0.06857223063707352
1772731598017279700,5.09227978515625,0.19230809807777405,-0.012479004450142384,0.08869780600070953
1772731598027308000,5.10230810546875,0.19809859991073608,-0.03265963867306709,0.1014610007405281
1772731598037335800,5.112335693359375,0.20062482357025146,-0.05746994912624359,0.10959435999393463
1772731598047362800,5.12236279296875,0.1944343000650406,-0.06507327407598495,0.11734921485185623
1772731598057390800,5.132390869140625,0.1856156587600708,-0.06924409419298172,0.1286768764257431
1772731598067419000,5.1424189453125,0.17459310591220856,-0.08027783781290054,0.13327401876449585
1772731598077447000,5.152447021484375,0.1618509590625763,-0.08580350130796432,0.1392354518175125
1772731598087475000,5.162474853515625,0.15028032660484314,-0.09157243371009827,0.15787304937839508
1772731598097503000,5.1725029296875,0.1315573900938034,-0.07368776202201843,0.1587006002664566
1772731598107530800,5.18253076171875,0.10289513319730759,-0.05476813763380051,0.14900748431682587
1772731598117559000,5.19255908203125,0.07014703005552292,-0.036169033497571945,0.1378200501203537
1772731598127586800,5.2025869140625,0.03463217616081238,-0.01832186058163643,0.13122554123401642
1772731598137614800,5.21261474609375,0.004567321389913559,0.0010044884402304888,0.12121541798114777
1772731598147643000,5.222642822265625,-0.02864682488143444,0.0180929284542799,0.11386402696371078
1772731598157671000,5.2326708984375,-0.06057935208082199,0.03146658092737198,0.10908596217632294
1772731598167699000,5.242698974609375,-0.08882377296686172,0.02900075726211071,0.09661836922168732
1772731598177727000,5.25272705078125,-0.10900482535362244,0.021528929471969604,0.07487653195858002
1772731598187754800,5.262754638671875,-0.12523093819618225,0.013995645567774773,0.04803505912423134
1772731598197783000,5.272782958984375,-0.13431188464164734,0.017247578129172325,0.021882642060518265
1772731598207810800,5.282810791015625,-0.14522258937358856,0.0245683416724205,-0.0007315909024327993
1772731598217839000,5.292839111328125,-0.15632611513137817,0.028523262590169907,-0.02073853090405464
1772731598227867000,5.302866943359375,-0.17078229784965515,0.0448034331202507,-0.058370329439640045
1772731598237895000,5.31289501953125,-0.17758020758628845,0.06557292491197586,-0.10469349473714828
1772731598247923000,5.3229228515625,-0.18020528554916382,0.07274720817804337,-0.13397733867168427
1772731598257951000,5.332950927734375,-0.1745390146970749,0.05393057316541672,-0.14413504302501678
1772731598267978000,5.34297802734375,-0.1587989330291748,0.035250093787908554,-0.1361628770828247
1772731598278005800,5.353005859375,-0.13847839832305908,0.014801315031945705,-0.11766169965267181
1772731598288034000,5.363033935546875,-0.12572026252746582,0.0023329283576458693,-0.11846490949392319
1772731598298061800,5.373061767578125,-0.11593064665794373,0.00357016921043396,-0.13501732051372528
1772731598308089900,5.38308984375,-0.10051227360963821,0.006727080326527357,-0.15092970430850983
1772731598318118000,5.393117919921875,-0.08483125269412994,0.004619876854121685,-0.1576382964849472
1772731598328146000,5.40314599609375,-0.06635956466197968,-0.010271986946463585,-0.1600034534931183
1772731598338173700,5.413173583984375,-0.043440718203783035,-0.026192795485258102,-0.16941212117671967
1772731598348201500,5.423201416015625,-0.029149129986763,-0.038364242762327194,-0.17550675570964813
1772731598358229800,5.433229736328125,-0.024806303903460503,-0.05976711958646774,-0.17276263236999512
1772731598368257500,5.443257568359375,-0.011483306996524334,-0.0766020268201828,-0.16112461686134338
1772731598378285600,5.45328564453125,0.005693213548511267,-0.08252972364425659,-0.1399095356464386
1772731598388313600,5.463313720703125,0.023022137582302094,-0.07403051108121872,-0.11680768430233002
1772731598398341600,5.473341552734375,0.03861793130636215,-0.06326106935739517,-0.09930094331502914
1772731598408369700,5.48336962890625,0.05021386966109276,-0.04779209941625595,-0.0858788713812828
1772731598418397700,5.493397705078125,0.05433901026844978,-0.038909561932086945,-0.07885334640741348
1772731598428425500,5.503425537109375,0.05523782968521118,-0.04202200099825859,-0.07488124072551727
1772731598438453500,5.51345361328125,0.0552251860499382,-0.04651628062129021,-0.0690370500087738
1772731598448481500,5.5234814453125,0.05432024598121643,-0.05124711990356445,-0.0663967952132225
1772731598458509600,5.533509521484375,0.0475308857858181,-0.06790661811828613,-0.06388615816831589
1772731598468537600,5.54353759765625,0.03711046651005745,-0.086520254611969,-0.0656486377120018
1772731598478565400,5.5535654296875,0.03340217471122742,-0.09290800988674164,-0.06369661539793015
1772731598488593700,5.56359375,0.036775872111320496,-0.10274812579154968,-0.05414785444736481
1772731598498621400,5.573621337890625,0.041295841336250305,-0.10628944635391235,-0.04237250238656998
1772731598508649500,5.5836494140625,0.040807418525218964,-0.09826693683862686,-0.0263847503811121
1772731598518677500,5.593677490234375,0.030933162197470665,-0.08452731370925903,-0.012058457359671593
1772731598528705500,5.60370556640625,0.021057626232504845,-0.06711503118276596,-0.00006757464143447578
1772731598538733600,5.613733642578125,0.010829967446625233,-0.05358472838997841,-0.0023668615613132715
1772731598548761600,5.62376171875,0.00042659451719373465,-0.04480375349521637,-0.0030627455562353134
1772731598558789400,5.633789306640625,-0.004186463076621294,-0.04393632709980011,0.004946918226778507
1772731598568817700,5.643817626953125,-0.012131204828619957,-0.049138545989990234,0.013940147124230862
1772731598578845400,5.653845458984375,-0.024941163137555122,-0.0363105833530426,0.013666468672454357
1772731598588873700,5.663873779296875,-0.03707026317715645,-0.024190805852413177,0.01082008145749569
1772731598598900500,5.673900390625,-0.04311918094754219,-0.01328454539179802,0.005225086119025946
1772731598608930600,5.6839306640625,-0.04673681780695915,-0.010663462802767754,-0.010563996620476246
1772731598618957600,5.69395751953125,-0.04055473208427429,-0.011248760856688023,-0.018917016685009003
1772731598628985600,5.703985595703125,-0.029552679508924484,-0.025860991328954697,-0.019118882715702057
1772731598639013600,5.714013671875,-0.026092736050486565,-0.041199490427970886,-0.019380375742912292
1772731598649041700,5.724041748046875,-0.02329162321984768,-0.05011202394962311,-0.014727567322552204
1772731598659069400,5.7340693359375,-0.021989518776535988,-0.05827176198363304,-0.00855172798037529
1772731598669097700,5.74409765625,-0.017575329169631004,-0.06235731765627861,-0.008272095583379269
1772731598679125500,5.75412548828125,-0.007755862548947334,-0.06206204742193222,-0.002637261524796486
1772731598689153500,5.764153564453125,0.0006940811290405691,-0.043017517775297165,-0.002619951032102108
1772731598699181600,5.774181640625,0.002889089984819293,-0.02503572776913643,-0.01237897202372551
1772731598709209300,5.784209228515625,0.0014792124275118113,-0.009439988061785698,-0.011916914023458958
1772731598719237600,5.794237548828125,0.000051202194299548864,-0.0005267923697829247,-0.01348146889358759
1772731598729265400,5.804265380859375,-0.000683297635987401,-0.009072610177099705,-0.019450411200523376
1772731598739293700,5.814293701171875,-0.00015013274969533086,-0.019915670156478882,-0.027812205255031586
1772731598749321500,5.824321533203125,0.002380136400461197,-0.02260199934244156,-0.03891625255346298
1772731598759349500,5.834349609375,-0.006329627241939306,-0.0228315107524395,-0.045906078070402145
1772731598769377500,5.84437744140625,-0.02188515104353428,-0.005210971459746361,-0.05759282782673836
1772731598779405600,5.854405517578125,-0.025837814435362816,0.01178825180977583,-0.0637708306312561
1772731598789433600,5.86443359375,-0.026374706998467445,0.030992304906249046,-0.06236334890127182
1772731598799461600,5.874461669921875,-0.016812313348054886,0.05563656613230705,-0.050190310925245285
1772731598809489400,5.884489501953125,-0.000940938713029027,0.06635525822639465,-0.04197525978088379
1772731598819517700,5.894517578125,0.01214624848216772,0.0696035772562027,-0.03521262854337692
1772731598829545500,5.90454541015625,0.013048794120550156,0.0710025355219841,-0.03909551724791527
1772731598839573500,5.914573486328125,0.016444453969597816,0.06443990021944046,-0.051230087876319885
1772731598849601500,5.9246015625,0.015516073442995548,0.05476037785410881,-0.06257248669862747
1772731598859629600,5.934629638671875,0.01837342604994774,0.04837800934910774,-0.05384025722742081
1772731598869657600,5.94465771484375,0.02909238450229168,0.035865411162376404,-0.038977690041065216
1772731598879685600,5.954685546875,0.04330623894929886,0.03613041713833809,-0.030629241839051247
1772731598889713400,5.96471337890625,0.05769823119044304,0.05269740894436836,-0.03005240112543106
1772731598899741700,5.97474169921875,0.0698590949177742,0.07136008143424988,-0.025284605100750923
1772731598909769500,5.98476953125,0.08134051412343979,0.07962493598461151,-0.017003504559397697
1772731598919797800,5.9947978515625,0.09464852511882782,0.08880294859409332,-0.002392278052866459
1772731598929825500,6.004825439453125,0.1068950742483139,0.07717612385749817,0.013503330759704113
1772731598939853300,6.014853271484375,0.11739267408847809,0.06244174763560295,0.029441824182868004
1772731598949881600,6.024881591796875,0.12812067568302155,0.04649980366230011,0.04644744098186493
1772731598959909400,6.034909423828125,0.13563409447669983,0.039801061153411865,0.05597318708896637
1772731598969936600,6.0449365234375,0.14232981204986572,0.03483825922012329,0.05746615678071976
1772731598979965400,6.05496533203125,0.13592298328876495,0.02169380709528923,0.03871412202715874
1772731598989992700,6.06499267578125,0.13488861918449402,-0.0038323262706398964,0.017809372395277023
1772731599000020500,6.0750205078125,0.13835251331329346,-0.03786288946866989,0.01099256332963705
1772731599010048500,6.085048583984375,0.14374035596847534,-0.06858377903699875,0.015248560346662998
1772731599020076500,6.09507666015625,0.15936432778835297,-0.08765121549367905,0.028504446148872375
1772731599030104600,6.1051044921875,0.16664168238639832,-0.08756253123283386,0.039320606738328934
1772731599040132600,6.115132568359375,0.16105790436267853,-0.07952655106782913,0.04519173130393028
1772731599050160600,6.12516064453125,0.15993697941303253,-0.070467010140419,0.05322195962071419
1772731599060188400,6.1351884765625,0.16237056255340576,-0.063606858253479,0.059706203639507294
1772731599070216700,6.145216796875,0.16057105362415314,-0.06687482446432114,0.06371478736400604
1772731599080244500,6.155244384765625,0.15620768070220947,-0.07801977545022964,0.07422743737697601
1772731599090272800,6.165272705078125,0.15257033705711365,-0.08781195431947708,0.08597464114427567
1772731599100300500,6.175300537109375,0.14334434270858765,-0.08707224577665329,0.09633755683898926
1772731599110328300,6.185328369140625,0.12938539683818817,-0.08758756518363953,0.10242287814617157
1772731599120356600,6.195356689453125,0.1171373799443245,-0.08165997266769409,0.09440048784017563
1772731599130384400,6.20538427734375,0.1015901118516922,-0.07927431166172028,0.07747477293014526
1772731599140412700,6.21541259765625,0.08726517856121063,-0.08638138324022293,0.05215005949139595
1772731599150440400,6.2254404296875,0.07065238058567047,-0.09800394624471664,0.020448854193091393
1772731599160468500,6.235468505859375,0.05331466719508171,-0.09314341098070145,-0.005689271260052919
1772731599170496500,6.24549658203125,0.04079088568687439,-0.06807694584131241,-0.022298341616988182
1772731599180524500,6.255524658203125,0.025285696610808372,-0.06172291189432144,-0.034286826848983765
1772731599190552600,6.265552490234375,0.01762324944138527,-0.06805483996868134,-0.04381455108523369
1772731599200580600,6.27558056640625,0.013227134943008423,-0.06841971725225449,-0.04526381194591522
1772731599210608400,6.2856083984375,0.014684682711958885,-0.05844005197286606,-0.04280012473464012
1772731599220636700,6.29563671875,0.014703381806612015,-0.0438457690179348,-0.03994369879364967
1772731599230664400,6.30566455078125,0.026861777529120445,-0.05553385242819786,-0.04177622124552727
1772731599240692700,6.315692626953125,0.03196708485484123,-0.08124104887247086,-0.05334307998418808
1772731599250720500,6.325720458984375,0.03521987050771713,-0.08656337857246399,-0.07745826989412308
1772731599260748500,6.33574853515625,0.0493415892124176,-0.08318541944026947,-0.10274429619312286
1772731599270776600,6.345776611328125,0.053338196128606796,-0.07115751504898071,-0.12466344237327576
1772731599280804600,6.3558046875,0.04583315551280975,-0.05418477579951286,-0.14276732504367828
1772731599290832600,6.36583251953125,0.04358251765370369,-0.03840235248208046,-0.15164178609848022
1772731599300860700,6.375860595703125,0.053807444870471954,-0.02992991916835308,-0.1497056782245636
1772731599310888400,6.385888427734375,0.06981650739908218,-0.027237463742494583,-0.1412181854248047
1772731599320916700,6.395916748046875,0.09076182544231415,-0.022477686405181885,-0.12910383939743042
1772731599330945800,6.40594580078125,0.10325657576322556,-0.016766536980867386,-0.12650886178016663
1772731599340973800,6.415973876953125,0.1116739884018898,-0.0035657892003655434,-0.12675324082374573
1772731599351001900,6.426001953125,0.12093060463666916,0.01438817847520113,-0.12126179039478302
1772731599361028600,6.436028564453125,0.12138863652944565,0.03712835907936096,-0.10811426490545273
1772731599371057000,6.446056884765625,0.11586550623178482,0.035465214401483536,-0.10038816928863525
1772731599381084700,6.456084716796875,0.11144857853651047,0.03341427445411682,-0.09753107279539108
1772731599391112700,6.46611279296875,0.10099061578512192,0.04231962189078331,-0.10287443548440933
1772731599401140700,6.476140625,0.10019627213478088,0.050787702202796936,-0.12213721871376038
1772731599411168800,6.486168701171875,0.09920237958431244,0.05609724670648575,-0.13456140458583832
1772731599421196800,6.49619677734375,0.09603709727525711,0.06174389645457268,-0.1343575119972229
1772731599431224800,6.506224853515625,0.09649542719125748,0.05316638946533203,-0.1317417472600937
1772731599441252600,6.516252685546875,0.09431121498346329,0.051461756229400635,-0.12203194946050644
1772731599451281000,6.526281005859375,0.09492240846157074,0.05547700449824333,-0.11269863694906235
1772731599461308700,6.53630859375,0.09325358271598816,0.0576704666018486,-0.10971852391958237
1772731599471337000,6.5463369140625,0.08123873174190521,0.0621163509786129,-0.10959495604038239
1772731599481364700,6.55636474609375,0.07145346701145172,0.0670517235994339,-0.11239464581012726
1772731599491392800,6.566392822265625,0.06475801765918732,0.07404571771621704,-0.10414604097604752
1772731599501420800,6.5764208984375,0.06029874086380005,0.08368218690156937,-0.09619993716478348
1772731599511448800,6.58644873046875,0.06837903708219528,0.09920362383127213,-0.08114401996135712
1772731599521476900,6.596476806640625,0.07427379488945007,0.11896432191133499,-0.06730639934539795
1772731599531505000,6.6065048828125,0.08432935923337936,0.13103005290031433,-0.057416755706071854
1772731599541532700,6.61653271484375,0.08480202406644821,0.13826397061347961,-0.04796002805233002
1772731599551560700,6.626560791015625,0.08203446865081787,0.14448964595794678,-0.043079786002635956
1772731599561588700,6.636588623046875,0.07380329072475433,0.14713089168071747,-0.027272474020719528
1772731599571616800,6.64661669921875,0.07085330784320831,0.14874982833862305,-0.012717765755951405
1772731599581644800,6.656644775390625,0.06915424764156342,0.15220317244529724,-0.001944510149769485
1772731599591672600,6.666672607421875,0.0692269504070282,0.15269505977630615,0.009223722852766514
1772731599601700900,6.676700927734375,0.07569234073162079,0.1559944599866867,0.011325724422931671
1772731599611728600,6.686728759765625,0.0822860598564148,0.15926988422870636,0.007237506099045277
1772731599621756700,6.696756591796875,0.08652075380086899,0.1636768877506256,-0.0012968595838174224
1772731599631784700,6.70678466796875,0.08143837749958038,0.16211573779582977,0.0008262123446911573
1772731599641812700,6.716812744140625,0.07096701860427856,0.15804825723171234,0.016645001247525215
1772731599651840800,6.7268408203125,0.062051817774772644,0.14593034982681274,0.026383381336927414
1772731599661868800,6.736868896484375,0.05866004899144173,0.12925297021865845,0.025377370417118073
1772731599671896600,6.746896484375,0.055097270756959915,0.11875292658805847,0.02831989713013172
1772731599681924900,6.7569248046875,0.05255458131432533,0.11123168468475342,0.022729111835360527
1772731599691952600,6.76695263671875,0.05706943944096565,0.10253886133432388,0.019762616604566574
1772731599701981000,6.77698095703125,0.05972106382250786,0.1004563495516777,0.015357514843344688
1772731599712008700,6.7870087890625,0.06286492943763733,0.1024012565612793,0.02223512902855873
1772731599722035700,6.79703564453125,0.05992106720805168,0.10627695918083191,0.02812870405614376
1772731599732063700,6.807063720703125,0.05819401890039444,0.10411115735769272,0.03227686882019043
1772731599742091800,6.817091796875,0.05825875699520111,0.10040204972028732,0.0351993665099144
1772731599752119800,6.827119873046875,0.04620742052793503,0.09959004819393158,0.04200480878353119
1772731599762147600,6.837147705078125,0.029598062857985497,0.09739759564399719,0.040911633521318436
1772731599772176000,6.84717578125,0.014552000910043716,0.08968161791563034,0.032787397503852844
1772731599782203600,6.85720361328125,0.0030708685517311096,0.08374237269163132,0.02817794308066368
1772731599792231700,6.867231689453125,-0.00772691797465086,0.08108001202344894,0.033734895288944244
1772731599802259700,6.877259765625,-0.007879643701016903,0.08001988381147385,0.042745042592287064
1772731599812287700,6.887287841796875,-0.006254582665860653,0.08360236883163452,0.04687667265534401
1772731599822315800,6.897315673828125,-0.012072538025677204,0.09854628145694733,0.04651658982038498
1772731599832343800,6.90734375,-0.014531434513628483,0.10890863835811615,0.03904375806450844
1772731599842371600,6.91737158203125,-0.013154208660125732,0.12584666907787323,0.03107788786292076
1772731599852399900,6.92739990234375,-0.01530923880636692,0.13653632998466492,0.024602413177490234
1772731599862427600,6.937427734375,-0.015481950715184212,0.13552024960517883,0.016359250992536545
1772731599872456000,6.9474560546875,-0.00900274608284235,0.13460545241832733,0.0015246449038386345
1772731599882483700,6.957483642578125,-0.010669837705790997,0.13504424691200256,-0.019403545185923576
1772731599892511700,6.96751171875,-0.00963892787694931,0.1359393298625946,-0.03800492733716965
1772731599902539800,6.977539794921875,-0.002637420780956745,0.12701576948165894,-0.05714381858706474
1772731599912567800,6.98756787109375,0.017445476725697517,0.11596765369176865,-0.06963617354631424
1772731599922595800,6.997595947265625,0.03694245591759682,0.11439331620931625,-0.07092748582363129
1772731599932624000,7.007623779296875,0.06465931236743927,0.12188559025526047,-0.06189138442277908
1772731599942651600,7.017651611328125,0.08915316313505173,0.13715533912181854,-0.0488104373216629
1772731599952680000,7.027679931640625,0.1181909441947937,0.1517515927553177,-0.028162948787212372
1772731599962707700,7.037707763671875,0.14383552968502045,0.1625603884458542,-0.0032884860411286354
1772731599972735700,7.04773583984375,0.17454151809215546,0.16474418342113495,0.015644725412130356
1772731599982763800,7.057763671875,0.19805623590946198,0.16741937398910522,0.02755085751414299
1772731599992791600,7.06779150390625,0.21839399635791779,0.168519526720047,0.02983318641781807
1772731600002819800,7.07781982421875,0.23782911896705627,0.16816286742687225,0.024987123906612396
1772731600012847600,7.08784765625,0.24829986691474915,0.18196843564510345,0.021262958645820618
1772731600022876000,7.0978759765625,0.25188636779785156,0.22654084861278534,0.02098228596150875
1772731600032903700,7.107903564453125,0.25693756341934204,0.2728700041770935,0.023480331525206566
1772731600042931700,7.117931640625,0.2696848511695862,0.30602651834487915,0.035288404673337936
1772731600052959700,7.127959716796875,0.2907558083534241,0.32652220129966736,0.05406848341226578
1772731600062987800,7.13798779296875,0.31884512305259705,0.3157322108745575,0.07627106457948685
1772731600073015800,7.148015869140625,0.3290032148361206,0.28786197304725647,0.10031008720397949
1772731600083043800,7.1580439453125,0.33012551069259644,0.24727635085582733,0.1185213029384613
1772731600093070800,7.16807080078125,0.31448104977607727,0.19713035225868225,0.12909859418869019
1772731600103099000,7.178098876953125,0.30003800988197327,0.15980367362499237,0.13469856977462769
1772731600113126700,7.188126708984375,0.28207579255104065,0.12287761270999908,0.13380560278892517
1772731600123154700,7.19815478515625,0.2592635750770569,0.08246288448572159,0.14050759375095367
1772731600133182700,7.2081826171875,0.2287522554397583,0.03462452068924904,0.14560915529727936
1772731600143210800,7.218210693359375,0.1955069899559021,-0.016333460807800293,0.15164989233016968
1772731600153238800,7.22823876953125,0.16343560814857483,-0.050277311354875565,0.16384318470954895
1772731600163266600,7.2382666015625,0.1293487399816513,-0.07702264189720154,0.16946671903133392
1772731600173294800,7.248294921875,0.09388077259063721,-0.07734222710132599,0.17280392348766327
1772731600183322600,7.258322509765625,0.06245190650224686,-0.05595081299543381,0.1752358227968216
1772731600193351000,7.268350830078125,0.038497038185596466,-0.024641357362270355,0.1650356501340866
1772731600203378700,7.278378662109375,0.01274973526597023,0.006508645601570606,0.15400125086307526
1772731600213406700,7.28840673828125,-0.009654373861849308,0.009437589906156063,0.14311052858829498
1772731600223434800,7.298434814453125,-0.0279485322535038,-0.005350199528038502,0.1257566660642624
1772731600233462800,7.308462890625,-0.03817080706357956,-0.026279449462890625,0.10130831599235535
1772731600243490800,7.31849072265625,-0.05117001011967659,-0.06030149757862091,0.07289373129606247
1772731600253518800,7.328518798828125,-0.06445812433958054,-0.09040746837854385,0.04448019340634346
1772731600263546600,7.338546630859375,-0.07225187122821808,-0.12625040113925934,0.015445958822965622
1772731600273575000,7.348574951171875,-0.07432541251182556,-0.14915412664413452,-0.00854805763810873
1772731600283602700,7.358602783203125,-0.06975340843200684,-0.16165761649608612,-0.012648995034396648
1772731600293630700,7.368630615234375,-0.06295302510261536,-0.15776753425598145,-0.00017208547797054052
1772731600303658800,7.37865869140625,-0.048764701932668686,-0.13784091174602509,0.02199254371225834
1772731600313686800,7.388686767578125,-0.02870071306824684,-0.10549389570951462,0.024202967062592506
1772731600323714800,7.39871484375,-0.017548296600580215,-0.059832990169525146,0.00886484980583191
1772731600333743000,7.4087431640625,-0.015854792669415474,-0.014348331838846207,-0.024784989655017853
1772731600343771000,7.41877099609375,-0.012773202732205391,0.018952909857034683,-0.06690218299627304
1772731600353799200,7.428799072265625,-0.013743658550083637,0.0415695384144783,-0.0901702269911766
1772731600363827000,7.438826904296875,-0.004857281222939491,0.05108964815735817,-0.0815228596329689
1772731600373855200,7.448855224609375,0.00480972696095705,0.06049593165516853,-0.05533306673169136
1772731600383883000,7.458883056640625,0.0070185293443500996,0.07894324511289597,-0.025485903024673462
1772731600393911000,7.4689111328125,0.012699850834906101,0.10684225708246231,-0.0008284937939606607
1772731600403939000,7.47893896484375,0.01057322509586811,0.13106273114681244,0.02126014605164528
1772731600413967000,7.488967041015625,-0.00026743876514956355,0.141836017370224,0.023703062906861305
1772731600423995100,7.4989951171875,-0.008554873056709766,0.13114917278289795,0.0030946393962949514
1772731600434023200,7.509023193359375,-0.01125478558242321,0.09888870269060135,-0.029461972415447235
1772731600444050200,7.51905029296875,-0.003532971953973174,0.039502739906311035,-0.05812126025557518
1772731600454078000,7.529077880859375,0.012171422131359577,0.0063642291352152824,-0.06528010219335556
1772731600464106000,7.53910595703125,0.011618630960583687,-0.014892563223838806,-0.06250762194395065
1772731600474134000,7.549134033203125,-0.00950795877724886,-0.04055292159318924,-0.050496768206357956
1772731600484162000,7.559162109375,-0.03829775005578995,-0.055687498301267624,-0.05191570892930031
1772731600494190000,7.569190185546875,-0.07012812048196793,-0.0638468936085701,-0.05902554839849472
1772731600504218000,7.579218017578125,-0.09623859077692032,-0.06743007153272629,-0.0752796083688736
1772731600514246000,7.589245849609375,-0.1072467714548111,-0.07864517718553543,-0.08505287766456604
1772731600524274200,7.599274169921875,-0.11771785467863083,-0.09813529253005981,-0.09041056036949158
1772731600534302000,7.609302001953125,-0.12440904974937439,-0.1071450263261795,-0.08463309705257416
1772731600544330200,7.619330322265625,-0.12951761484146118,-0.10296005010604858,-0.07061490416526794
1772731600554358000,7.62935791015625,-0.13397574424743652,-0.08609718084335327,-0.05147796496748924
1772731600564386000,7.639385986328125,-0.14016026258468628,-0.07810842245817184,-0.028384221717715263
1772731600574414000,7.6494140625,-0.14632548391819,-0.06830426305532455,-0.009053932502865791
1772731600584442000,7.659442138671875,-0.14588075876235962,-0.06161906570196152,0.0002482762502040714
1772731600594470100,7.66947021484375,-0.14583814144134521,-0.0467197448015213,-0.0064663514494895935
1772731600604498200,7.679498291015625,-0.145662322640419,-0.034918852150440216,-0.006744204089045525
1772731600614526000,7.68952587890625,-0.14410756528377533,-0.05023549124598503,-0.00029003305826336145
1772731600624554200,7.69955419921875,-0.13349710404872894,-0.07030033320188522,0.012394428253173828
1772731600634582000,7.70958203125,-0.1288166046142578,-0.08920824527740479,0.023207660764455795
1772731600644610000,7.719610107421875,-0.12833653390407562,-0.10215485095977783,0.02856498956680298
1772731600654638000,7.72963818359375,-0.1318598836660385,-0.1057269498705864,0.02730078622698784
1772731600664665900,7.739665771484375,-0.13607501983642578,-0.09928524494171143,0.027535779401659966
1772731600674694100,7.749694091796875,-0.14217817783355713,-0.08673083782196045,0.02695734053850174
1772731600684722000,7.759721923828125,-0.14825615286827087,-0.08229950815439224,0.03165154159069061
1772731600694750000,7.76975,-0.15227645635604858,-0.08074502646923065,0.0359506830573082
1772731600704778000,7.779778076171875,-0.16009840369224548,-0.0792994350194931,0.03209465742111206
1772731600714806000,7.789805908203125,-0.18045027554035187,-0.07796386629343033,0.014808880165219307
1772731600724834000,7.799833984375,-0.19644922018051147,-0.07622135430574417,-0.00534219341352582
1772731600734862000,7.809862060546875,-0.2067820131778717,-0.08008799701929092,-0.008784595876932144
1772731600744889900,7.819889892578125,-0.19712892174720764,-0.07683832943439484,0.004727527499198914
1772731600754918100,7.829918212890625,-0.1810157299041748,-0.07891000062227249,0.016893913969397545
1772731600764946000,7.83994580078125,-0.17305517196655273,-0.08818373084068298,0.0276226494461298
1772731600774974200,7.84997412109375,-0.17531858384609222,-0.09892904758453369,0.026291068643331528
1772731600785002000,7.860001953125,-0.18083009123802185,-0.117074154317379,0.020311782136559486
1772731600795029200,7.870029296875,-0.17815999686717987,-0.1332552582025528,0.014007814228534698
1772731600805057000,7.88005712890625,-0.17552977800369263,-0.1484779715538025,0.013979008421301842
1772731600815085000,7.8900849609375,-0.16952194273471832,-0.15877428650856018,0.009350701235234737
1772731600825113000,7.900113037109375,-0.15855935215950012,-0.16222403943538666,0.0038297141436487436
1772731600835140900,7.910140869140625,-0.14846891164779663,-0.15963198244571686,0.003692561062052846
1772731600845169200,7.920169189453125,-0.14419080317020416,-0.16186398267745972,0.00964046549052
1772731600855197000,7.930197021484375,-0.1410629153251648,-0.16447681188583374,0.009058298543095589
1772731600865225000,7.940224853515625,-0.13936388492584229,-0.1580367535352707,-0.001414480502717197
1772731600875253000,7.9502529296875,-0.14187124371528625,-0.15082889795303345,-0.023566123098134995
1772731600885281000,7.960281005859375,-0.14425985515117645,-0.13962768018245697,-0.04386284202337265
1772731600895309000,7.97030908203125,-0.13895989954471588,-0.1400391310453415,-0.05229147896170616
1772731600905337000,7.980337158203125,-0.13351061940193176,-0.13845404982566833,-0.04303054139018059
1772731600915364900,7.99036474609375,-0.12921147048473358,-0.1333828568458557,-0.031206106767058372
1772731600925393200,8.00039306640625,-0.12739059329032898,-0.13658086955547333,-0.02213967777788639
1772731600935421000,8.0104208984375,-0.12544915080070496,-0.1379484087228775,-0.016444241628050804
1772731600945449200,8.02044921875,-0.12094864994287491,-0.14141756296157837,-0.012123317457735538
1772731600955477000,8.03047705078125,-0.12223256379365921,-0.139279305934906,-0.014468763023614883
1772731600965505000,8.040505126953125,-0.12466584891080856,-0.12698668241500854,-0.0175315011292696
1772731600975533000,8.050532958984375,-0.12774711847305298,-0.1105608344078064,-0.025025105103850365
1772731600985561000,8.06056103515625,-0.13200876116752625,-0.10033004730939865,-0.024785583838820457
1772731600995589000,8.070589111328125,-0.14004458487033844,-0.09097037464380264,-0.026685217395424843
1772731601005617200,8.0806171875,-0.136732280254364,-0.08075736463069916,-0.023775611072778702
1772731601015645000,8.09064501953125,-0.13814562559127808,-0.07853309065103531,-0.0224328450858593
1772731601025673200,8.100673095703126,-0.13510628044605255,-0.08579185605049133,-0.02052878774702549
1772731601035701000,8.110700927734374,-0.1322023719549179,-0.08869469910860062,-0.018565503880381584
1772731601045729300,8.120729248046874,-0.13540172576904297,-0.0842968076467514,-0.025732511654496193
1772731601055757000,8.130757080078125,-0.13870644569396973,-0.0756940022110939,-0.036206722259521484
1772731601065784800,8.140784912109375,-0.13953512907028198,-0.07669969648122787,-0.04146338254213333
1772731601075813000,8.150813232421875,-0.1371883600950241,-0.08196636289358139,-0.04622431844472885
1772731601085841000,8.1608408203125,-0.1349189728498459,-0.09348341822624207,-0.04482731595635414
1772731601095869200,8.170869140625,-0.1327362358570099,-0.09971681237220764,-0.04265683889389038
1772731601105897000,8.18089697265625,-0.13356132805347443,-0.102711021900177,-0.04755649343132973
1772731601115925000,8.190925048828126,-0.12825044989585876,-0.09131082892417908,-0.05448604002594948
1772731601125953000,8.200953125,-0.12946873903274536,-0.0810709223151207,-0.05749443545937538
1772731601135981000,8.21098095703125,-0.1272047758102417,-0.08299106359481812,-0.056369781494140625
1772731601146009000,8.221009033203124,-0.12306095659732819,-0.09144169837236404,-0.06436245143413544
1772731601156036000,8.2310361328125,-0.11757857352495193,-0.10326720029115677,-0.06725411117076874
1772731601166064000,8.241064208984374,-0.11499426513910294,-0.11026053875684738,-0.06994438171386719
1772731601176092200,8.251092041015625,-0.11173588782548904,-0.11120382696390152,-0.06837338209152222
1772731601186120000,8.261119873046875,-0.12921367585659027,-0.13503605127334595,-0.07314122468233109
1772731601196148200,8.271148193359375,-0.12220289558172226,-0.13574258983135223,-0.0714876651763916
1772731601206176000,8.281176025390625,-0.10562483221292496,-0.12109459191560745,-0.06088075786828995
1772731601216204300,8.291204345703125,-0.0891965925693512,-0.11134342849254608,-0.04669809341430664
1772731601226232000,8.301232177734375,-0.07445888966321945,-0.10188839584589005,-0.0383608303964138
1772731601236259800,8.311259765625,-0.06602625548839569,-0.08072664588689804,-0.03949347510933876
1772731601246288100,8.3212880859375,-0.05715634301304817,-0.0635167583823204,-0.0511641688644886
1772731601256316000,8.33131591796875,-0.04554576054215431,-0.04417182505130768,-0.049610480666160583
1772731601266344200,8.34134423828125,-0.034555286169052124,-0.026685167104005814,-0.035711564123630524
1772731601276372000,8.3513720703125,-0.024678422138094902,-0.01535741239786148,-0.01489363145083189
1772731601286400000,8.36139990234375,-0.006313613150268793,-0.014764511026442051,0.00785086303949356
1772731601296428000,8.371427978515625,0.012562606483697891,-0.0071007320657372475,0.02216828241944313
1772731601306456000,8.3814560546875,0.03122980333864689,-0.0006151173729449511,0.024517694488167763
1772731601316484000,8.391484130859375,0.051119621843099594,0.00006931507959961891,0.028665566816926003
1772731601326512000,8.40151220703125,0.07109993696212769,-0.008435655385255814,0.03896508365869522
1772731601336539100,8.4115390625,0.0817565768957138,-0.020314419642090797,0.05225105956196785
1772731601346567000,8.42156689453125,0.08927127718925476,-0.037415217608213425,0.05595517158508301
1772731601356595000,8.431594970703125,0.09396376460790634,-0.045537058264017105,0.05297855660319328
1772731601366623000,8.441623046875,0.09046494960784912,-0.061866335570812225,0.05914163216948509
1772731601376651000,8.451651123046876,0.0897379070520401,-0.06707733869552612,0.059039101004600525
1772731601386679000,8.461678955078124,0.09110361337661743,-0.06148148700594902,0.05236519128084183
1772731601396707000,8.47170703125,0.08323157578706741,-0.05734240263700485,0.03635213524103165
1772731601406734800,8.48173486328125,0.07411069422960281,-0.04754720628261566,0.02167210727930069
1772731601416763100,8.49176318359375,0.06796544790267944,-0.0394061878323555,0.010662597604095936
1772731601426791000,8.501791015625,0.06173405423760414,-0.023802386596798897,0.003056489396840334
1772731601436819200,8.511819091796875,0.057360079139471054,-0.018185248598456383,0.00593776348978281
1772731601446847000,8.521846923828125,0.04813345521688461,-0.025379832834005356,0.012953419238328934
1772731601456875000,8.531875,0.0467803031206131,-0.03652916103601456,0.025105688720941544
1772731601466903000,8.541903076171875,0.03565960004925728,-0.05378864333033562,0.03307665139436722
1772731601476931000,8.55193115234375,0.03025950863957405,-0.05652584135532379,0.03007207252085209
1772731601486959000,8.561958984375,0.028065120801329613,-0.050867535173892975,0.023902244865894318
1772731601496985900,8.57198583984375,0.026387596502900124,-0.040103837847709656,0.029900748282670975
1772731601507015000,8.582014892578124,0.023638658225536346,-0.03238346800208092,0.033281419426202774
1772731601517042000,8.5920419921875,0.024944938719272614,-0.02849232591688633,0.03390512987971306
1772731601527070000,8.602070068359374,0.02123691514134407,-0.02880716510117054,0.03189826384186745
1772731601537098000,8.612097900390625,0.013485518284142017,-0.02213754504919052,0.02800099365413189
1772731601547126000,8.6221259765625,0.009920461103320122,-0.012037194333970547,0.022917920723557472
1772731601557154000,8.632154052734375,0.004700931720435619,-0.008569492027163506,0.03237507492303848
1772731601567182000,8.64218212890625,0.0007587479776702821,-0.010466819629073143,0.04338979721069336
1772731601577209900,8.6522099609375,0.0018575680442154408,-0.004917324986308813,0.05525125190615654
1772731601587238100,8.662238037109375,0.0018714726902544498,-0.0020903341937810183,0.056618526577949524
1772731601597266000,8.672265869140626,0.0070790178142488,-0.0007795263081789017,0.061082515865564346
1772731601607294200,8.682294189453126,0.00832773931324482,-0.005227822810411453,0.07031305879354477
1772731601617322000,8.692322021484374,0.0067503489553928375,-0.0061945500783622265,0.07208272814750671
1772731601627350000,8.70235009765625,0.008163456805050373,-0.007701881229877472,0.06867518275976181
1772731601637378000,8.7123779296875,0.009941383264958858,-0.004391837865114212,0.059808991849422455
1772731601647406000,8.722406005859375,0.012627378106117249,-0.016275964677333832,0.05583960935473442
1772731601657434000,8.73243408203125,0.021794777363538742,-0.02456239052116871,0.05843326076865196
1772731601667462100,8.742462158203125,0.0337626077234745,-0.026125729084014893,0.054370008409023285
1772731601677490000,8.752489990234375,0.045862145721912384,-0.014232052490115166,0.0411149226129055
1772731601687518200,8.762518310546875,0.04150838404893875,0.0002773534506559372,0.025935925543308258
1772731601697546000,8.7725458984375,0.024287322536110878,0.013216854073107243,0.007427489850670099
1772731601707574000,8.782573974609376,0.009240439161658287,0.024894678965210915,-0.000945969601161778
1772731601717602000,8.79260205078125,0.007374362088739872,0.02275882288813591,-0.0021108363289386034
1772731601727629800,8.8026298828125,0.018020616844296455,0.01583247445523739,0.003346513258293271
1772731601737658000,8.812658203125,0.0331372506916523,-0.001592855667695403,0.0167443435639143
1772731601747686000,8.822685791015624,0.04320694878697395,-0.008614675141870975,0.02126420848071575
1772731601757714000,8.8327138671875,0.048087190836668015,-0.005589057691395283,0.01205180212855339
1772731601767742000,8.842741943359375,0.04725290834903717,0.004614228382706642,-0.009852470830082893
1772731601777770000,8.85277001953125,0.051735006272792816,0.008136259391903877,-0.029901279136538506
1772731601787798000,8.862798095703125,0.06806531548500061,0.01341334916651249,-0.043465349823236465
1772731601797826000,8.872825927734375,0.07984021306037903,0.009869481436908245,-0.04553809016942978
1772731601807853800,8.882853759765625,0.084678515791893,0.002263410948216915,-0.04197100177407265
1772731601817882000,8.892882080078126,0.09130100160837173,0.007932748645544052,-0.031971633434295654
1772731601827910000,8.902909912109376,0.09407345205545425,0.01778995990753174,-0.027315719053149223
1772731601837938200,8.912938232421874,0.09039323031902313,0.023849185556173325,-0.017748046666383743
1772731601847965000,8.92296484375,0.09062733501195908,0.014924280345439911,-0.014918153174221516
1772731601857993000,8.932992919921874,0.09381833672523499,0.0017152675427496433,-0.014552234672009945
1772731601868021000,8.94302099609375,0.10318852961063385,-0.0035181837156414986,-0.015323096886277199
1772731601878049000,8.953049072265625,0.1118861511349678,-0.01035984419286251,-0.018781211227178574
1772731601888077000,8.9630771484375,0.11461082845926285,-0.013911436311900616,-0.028161929920315742
1772731601898104800,8.973104736328125,0.113263800740242,-0.016598299145698547,-0.04143139719963074
1772731601908133000,8.983133056640625,0.10519029945135117,-0.02130163460969925,-0.05426982045173645
1772731601918161000,8.993160888671875,0.09051814675331116,-0.020451819524168968,-0.06899150460958481
1772731601928189000,9.00318896484375,0.08396836370229721,-0.024231910705566406,-0.06923039257526398
1772731601938217000,9.013217041015626,0.0882568508386612,-0.023438554257154465,-0.05487728863954544
1772731601948245000,9.023244873046876,0.0946643054485321,-0.01651160791516304,-0.03658289462327957
1772731601958273000,9.03327294921875,0.10953113436698914,-0.0030884775333106518,-0.01779003068804741
1772731601968301000,9.043301025390624,0.11926797777414322,0.015171797946095467,-0.006621789652854204
1772731601978328800,9.053328857421874,0.11645621061325073,0.021974043920636177,-0.008464696817100048
1772731601988357000,9.063357177734375,0.11602866649627686,0.02402275986969471,-0.010313372127711773
1772731601998385000,9.073385009765625,0.11250397562980652,0.026488047093153,-0.00858072005212307
1772731602008413200,9.0834130859375,0.10369941592216492,0.01594703644514084,0.004001487512141466
1772731602018441000,9.09344091796875,0.09252559393644333,-0.006299147382378578,0.009482273831963539
1772731602028469000,9.103468994140625,0.08120284974575043,-0.018997374922037125,0.011057369410991669
1772731602038497000,9.1134970703125,0.07486052811145782,-0.019985143095254898,0.012295473366975784
1772731602048525000,9.123525146484376,0.07587949186563492,-0.010997754521667957,0.012130326591432095
1772731602058553000,9.133552978515626,0.07772532850503922,-0.0026234439574182034,0.013090129941701889
1772731602068581000,9.1435810546875,0.07749751955270767,0.006857886910438538,0.014543508179485798
1772731602078609000,9.15360888671875,0.07048195600509644,0.01825035735964775,0.008779894560575485
1772731602088637200,9.16363720703125,0.05795007199048996,0.029208263382315636,-0.0032884140964597464
1772731602098665000,9.1736650390625,0.04515251889824867,0.02411390282213688,-0.0027917346451431513
1772731602108693200,9.183693359375,0.03975341096520424,0.009293384850025177,0.012146868743002415
1772731602118721000,9.193720947265625,0.038897737860679626,-0.0027243962977081537,0.028660064563155174
1772731602128748800,9.203748779296875,0.04084344208240509,-0.009155930951237679,0.0357467345893383
1772731602138777000,9.213777099609375,0.04757191985845566,-0.004248257260769606,0.03231285512447357
1772731602148804900,9.223804931640625,0.04841243475675583,0.009140923619270325,0.02724054642021656
1772731602158833200,9.233833251953126,0.047491513192653656,0.020921148359775543,0.02211955562233925
1772731602168861000,9.24386083984375,0.047329917550086975,0.02063741348683834,0.027443932369351387
1772731602178889000,9.253888916015624,0.036145441234111786,0.01763203553855419,0.026120608672499657
1772731602188916000,9.263916015625,0.028986169025301933,0.010267917066812515,0.01946527510881424
1772731602198944000,9.273944091796874,0.019437937065958977,0.01529410295188427,0.013723500072956085
1772731602208972000,9.283971923828124,0.010561333037912846,0.015234043821692467,0.012603425420820713
1772731602219000000,9.294,0.010250542312860489,0.016127001494169235,0.012170129455626011
1772731602229028000,9.304028076171875,0.00795032363384962,0.016658402979373932,0.00632077269256115
1772731602239056100,9.31405615234375,0.013612470589578152,-0.003139004111289978,0.004630197770893574
1772731602249084000,9.324083984375,0.009980441071093082,-0.023802615702152252,0.012280643917620182
1772731602259111000,9.33411083984375,0.012575691565871239,-0.023646291345357895,0.013080923818051815
1772731602269139000,9.344138916015625,0.012836401350796223,-0.017291445285081863,0.01137816533446312
1772731602279167000,9.3541669921875,0.016086790710687637,-0.005608957726508379,0.011842886917293072
1772731602289195000,9.364195068359376,0.007959354668855667,0.00781523808836937,0.015432562679052353
1772731602299223000,9.37422314453125,-0.003924734890460968,0.015346124768257141,0.014860781840980053
1772731602309251000,9.3842509765625,-0.012052491307258606,0.004957621917128563,0.007939754985272884
1772731602319278800,9.39427880859375,-0.0016318087000399828,0.00899657141417265,0.0029210273642092943
1772731602329307100,9.40430712890625,0.005217353347688913,-0.004635985009372234,0.009188229218125343
1772731602339335000,9.4143349609375,0.006350794807076454,-0.02057686820626259,0.028682569041848183
1772731602349363200,9.42436328125,-0.0005538793047890067,-0.014656340703368187,0.02553648315370083
1772731602359391000,9.434390869140625,-0.002476947847753763,-0.007278052624315023,-0.0007419923786073923
1772731602369419000,9.4444189453125,-0.02126493491232395,0.008731190115213394,-0.013466881588101387
1772731602379447000,9.454447021484375,-0.04555269703269005,0.038944754749536514,-0.0226417388767004
1772731602389475000,9.46447509765625,-0.06904155761003494,0.023855648934841156,-0.026806913316249847
1772731602399503000,9.474503173828126,-0.08933404833078384,0.002520534209907055,-0.010203169658780098
1772731602409531100,9.48453125,-0.10336970537900925,-0.01661907136440277,0.00730951176956296
1772731602419559000,9.494558837890626,-0.11242684721946716,-0.03239830210804939,0.023102588951587677
1772731602429587000,9.5045869140625,-0.11794951558113098,-0.042783863842487335,0.03169374540448189
1772731602439615000,9.514614990234374,-0.12085795402526855,-0.040270641446113586,0.024675512686371803
1772731602449643000,9.52464306640625,-0.1242731437087059,-0.022822776809334755,0.02474740892648697
1772731602459671000,9.534671142578125,-0.11756624281406403,0.004335340112447739,0.027507776394486427
1772731602469698800,9.54469873046875,-0.11328434944152832,0.009133181534707546,0.054492440074682236
1772731602479727000,9.55472705078125,-0.10580619424581528,0.009345968253910542,0.08474914729595184
1772731602489755000,9.5647548828125,-0.10610943287611008,-0.002000907203182578,0.10153309255838394
1772731602499782100,9.5747822265625,-0.09514785557985306,-0.0016365868505090475,0.08682632446289062
1772731602509810000,9.584809814453125,-0.08998722583055496,0.010458260774612427,0.05174637585878372
1772731602519838200,9.594838134765626,-0.08085764944553375,0.013958453200757504,0.026664987206459045
1772731602529866000,9.604865966796876,-0.06396634876728058,-0.007412386126816273,0.01313352957367897
1772731602539894000,9.61489404296875,-0.04014943167567253,-0.020093027502298355,0.016535451635718346
1772731602549922000,9.624922119140624,-0.013382336124777794,-0.008157152682542801,0.021852873265743256
1772731602559950000,9.6349501953125,0.0012096550781279802,-0.005337663926184177,0.021904272958636284
1772731602569978000,9.64497802734375,0.01212113443762064,-0.013086691498756409,0.012406597845256329
1772731602580006100,9.655006103515625,0.013810643926262856,-0.018119268119335175,-0.000651946640573442
1772731602590034000,9.665033935546875,0.02210070565342903,-0.020735731348395348,-0.010708197019994259
1772731602600062000,9.67506201171875,0.03191285580396652,-0.019447559490799904,-0.011993438936769962
1772731602610091000,9.685091064453125,0.04912959039211273,-0.02408602461218834,-0.007245226763188839
1772731602620119000,9.695119140625,0.06948094069957733,-0.03371388465166092,-0.004978077951818705
1772731602630147000,9.70514697265625,0.0911480113863945,-0.03652998059988022,-0.007800639141350985
1772731602640175000,9.715175048828126,0.09312460571527481,-0.04654799401760101,-0.021760929375886917
1772731602650203000,9.725202880859374,0.08813833445310593,-0.04656452685594559,-0.04368217661976814
1772731602660231200,9.735231201171874,0.08686348050832748,-0.015338696539402008,-0.047616198658943176
1772731602670259000,9.745259033203125,0.08475885540246964,-0.009762799367308617,-0.04527480527758598
1772731602680287200,9.755287353515625,0.09218508005142212,-0.012179618701338768,-0.0425724983215332
1772731602690315000,9.76531494140625,0.10385041683912277,-0.020830951631069183,-0.03280819207429886
1772731602700342800,9.7753427734375,0.11150354146957397,-0.028801262378692627,-0.02698519080877304
1772731602710371000,9.78537109375,0.10832136124372482,-0.03206456080079079,-0.02896822802722454
1772731602720398800,9.79539892578125,0.10728858411312103,-0.029527898877859116,-0.03967440128326416
1772731602730427100,9.80542724609375,0.09117497503757477,-0.025345735251903534,-0.0409538634121418
1772731602740455000,9.815454833984376,0.07565566897392273,-0.02633563242852688,-0.03867286443710327
1772731602750483000,9.82548291015625,0.07529348134994507,-0.03199698030948639,-0.029311584308743477
1772731602760511000,9.835510986328124,0.075447678565979,-0.03996595740318298,-0.01795133948326111
1772731602770539000,9.8455390625,0.07742156833410263,-0.05232356861233711,-0.009915145114064217
1772731602780567000,9.855567138671875,0.07662767916917801,-0.05454224720597267,-0.004751275759190321
1772731602790595000,9.865594970703125,0.07371979206800461,-0.042900364845991135,-0.004063169471919537
1772731602800622800,9.875622802734375,0.0576833039522171,-0.027242043986916542,-0.00733406376093626
1772731602810650000,9.885650146484375,0.037267036736011505,-0.02305513247847557,-0.02225743606686592
1772731602820678000,9.895677978515625,0.016873881220817566,-0.02402292564511299,-0.033769749104976654
1772731602830706200,9.9057060546875,-0.00429173931479454,-0.014301808550953865,-0.029482217505574226
1772731602840734000,9.91573388671875,-0.015986744314432144,-0.00963648222386837,-0.022374507039785385
1772731602850762000,9.925761962890626,-0.02974661812186241,-0.006154713220894337,-0.017282649874687195
1772731602860790000,9.9357900390625,-0.032658785581588745,0.0005998625420033932,-0.01881476677954197
1772731602870817800,9.94581787109375,-0.040732793509960175,0.015520432963967323,-0.030552556738257408
1772731602880846000,9.95584619140625,-0.04877474159002304,0.03217344731092453,-0.03935137391090393
1772731602890873900,9.965873779296874,-0.057886019349098206,0.035110875964164734,-0.04573357477784157
1772731602900902100,9.975902099609375,-0.06643263250589371,0.028324343264102936,-0.042581990361213684
1772731602910930000,9.985929931640625,-0.06645097583532333,0.007569282315671444,-0.03320343792438507
1772731602920958000,9.9959580078125,-0.05813578888773918,-0.011264326982200146,-0.026239801198244095
1772731602930986000,10.005986083984375,-0.048732466995716095,-0.015922747552394867,-0.01915869303047657
1772731602941014000,10.016013916015625,-0.045303381979465485,-0.003654362400993705,-0.015195642597973347
1772731602951042000,10.0260419921875,-0.043098341673612595,0.003964518196880817,-0.016476541757583618
1772731602961070000,10.036070068359376,-0.0383688323199749,0.012393689714372158,-0.019625462591648102
1772731602971097900,10.046097900390626,-0.027957970276474953,0.0072034732438623905,-0.030846724286675453
1772731602981126100,10.056126220703124,-0.023291045799851418,0.0050247409380972385,-0.04172227159142494
1772731602991154000,10.06615380859375,-0.021494025364518166,-0.0012658284977078438,-0.03960368409752846
1772731603001182000,10.076181884765624,-0.01480975653976202,-0.00843612290918827,-0.02428358606994152
1772731603011210000,10.0862099609375,-0.002555693732574582,-0.004226840101182461,-0.005341664422303438
1772731603021238000,10.096238037109375,0.010018421337008476,0.00922372192144394,0.0062159220688045025
1772731603031266000,10.10626611328125,0.013440638780593872,0.018353348597884178,0.004581543616950512
1772731603041294000,10.116294189453125,0.01498899981379509,0.017980771139264107,-0.014851543121039867
1772731603051321900,10.12632177734375,0.018127189949154854,0.010751703754067421,-0.03597729280591011
1772731603061350100,10.13635009765625,0.02165055088698864,-0.00010919920168817043,-0.04374812915921211
1772731603071378000,10.1463779296875,0.0217891838401556,-0.011715301312506199,-0.036675408482551575
1772731603081406200,10.15640625,0.02064615674316883,-0.024110984057188034,-0.019178973510861397
1772731603091434000,10.16643408203125,0.012957379221916199,-0.027737924829125404,-0.0088075902312994
1772731603101461800,10.176461669921874,0.010590627789497375,-0.02601858787238598,-0.009126370772719383
1772731603111490000,10.186489990234374,0.01196275744587183,-0.023571107536554337,-0.010031640529632568
1772731603121517800,10.196517822265625,0.015008082613348961,-0.02081899717450142,-0.013906273990869522
1772731603131546000,10.206546142578125,0.018530890345573425,-0.02166058123111725,-0.016971610486507416
1772731603141572900,10.21657275390625,0.016711151227355003,-0.02239215187728405,-0.007651878986507654
1772731603151601200,10.22660107421875,0.01384762767702341,-0.02414495311677456,0.0009393231011927128
1772731603161629000,10.23662890625,0.006692246068269014,-0.025140976533293724,-0.001910259248688817
1772731603171657000,10.246656982421875,-0.0010484283557161689,-0.023685520514845848,-0.004988136235624552
1772731603181685000,10.25668505859375,-0.0029315496794879436,-0.026541229337453842,-0.01118824165314436
1772731603191713000,10.266713134765626,-0.0056534623727202415,-0.031004631891846657,-0.023261241614818573
1772731603201741000,10.276740966796876,-0.010483638383448124,-0.043151576071977615,-0.03382440283894539
1772731603211769000,10.28676904296875,-0.015540897846221924,-0.04978495091199875,-0.04324626550078392
1772731603221796900,10.296796875,-0.01809300296008587,-0.06117023155093193,-0.043341606855392456
1772731603231825200,10.3068251953125,-0.015436269342899323,-0.06920447200536728,-0.027732785791158676
1772731603241853000,10.31685302734375,-0.011793597601354122,-0.07041674107313156,-0.007194488774985075
1772731603251881200,10.326881103515625,-0.023249397054314613,-0.06642142683267593,-0.0002771888975985348
1772731603261909000,10.336908935546875,-0.029165875166654587,-0.05500258877873421,-0.003948356490582228
1772731603271936800,10.346936767578125,-0.033015117049217224,-0.04357372596859932,-0.014521751552820206
1772731603281965000,10.356965087890625,-0.029060853645205498,-0.02173926681280136,-0.014087123796343803
1772731603291992800,10.366992919921875,-0.026849573478102684,-0.0066062286496162415,-0.018975703045725822
1772731603302021000,10.377021240234376,-0.01954611949622631,-0.0019076134776696563,-0.019699282944202423
1772731603312049000,10.387048828125,-0.018210045993328094,-0.0034408136270940304,-0.012072756886482239
1772731603322077000,10.397076904296876,-0.01607578806579113,-0.002785143442451954,-0.008044992573559284
1772731603332106000,10.40710595703125,-0.020603511482477188,0.005133471917361021,-0.006367070134729147
1772731603342133800,10.4171337890625,-0.02501024305820465,0.013461176306009293,-0.004444267600774765
1772731603352161800,10.427161865234375,-0.023585300892591476,0.02238975465297699,0.005080866627395153
1772731603362189800,10.43718994140625,-0.013564092107117176,0.024208959192037582,0.01592765562236309
1772731603372217900,10.4472177734375,-0.0020446234848350286,0.024165267124772072,0.026496708393096924
1772731603382246000,10.457245849609375,0.010623767971992493,0.03353133797645569,0.028202462941408157
1772731603392274000,10.46727392578125,0.017226263880729675,0.04464125633239746,0.020042873919010162
1772731603402301700,10.4773017578125,0.013498371466994286,0.05147359520196915,0.009747892618179321
1772731603412330000,10.487330078125,0.01196673046797514,0.04902290925383568,0.0018904933240264654
1772731603422357800,10.497357666015626,0.014351590536534786,0.04019399732351303,0.0034918521996587515
1772731603432385800,10.5073857421875,0.013991588726639748,0.03246315196156502,0.000947743421420455
1772731603442413800,10.517413818359374,0.015774840489029884,0.02783750556409359,0.00164708960801363
1772731603452440800,10.52744091796875,0.018347639590501785,0.019182583317160606,0.007489305455237627
1772731603462468900,10.53746875,0.020633697509765625,0.012683670967817307,0.006701276637613773
1772731603472496600,10.54749658203125,0.02513878419995308,0.007577887270599604,-4.287576302886009e-7
1772731603482525000,10.55752490234375,0.02851247787475586,0.01499931886792183,-0.0027072655502706766
1772731603492552700,10.567552734375,0.028523428365588188,0.024447854608297348,-0.006986642722040415
1772731603502581000,10.5775810546875,0.02805018424987793,0.031405363231897354,-0.019718151539564133
1772731603512608800,10.58760888671875,0.02579631842672825,0.033079519867897034,-0.022328903898596764
1772731603522636800,10.59763671875,0.022756054997444153,0.024617590010166168,-0.021739812567830086
1772731603532664800,10.607664794921876,0.029326995834708214,0.01298578456044197,-0.012997777201235294
1772731603542692900,10.61769287109375,0.034093257039785385,-0.0009313633199781179,-0.009525547735393047
1772731603552721000,10.627720947265624,0.03632081300020218,-0.012314071878790855,-0.001198755344375968
1772731603562749000,10.6377490234375,0.03628779202699661,-0.01492903009057045,0.003305715275928378
1772731603572776700,10.647776611328124,0.03421664237976074,-0.010740823112428188,0.011328736320137978
1772731603582804700,10.6578046875,0.03160088509321213,0.005876769311726093,0.00863415002822876
1772731603592832800,10.667832763671875,0.029056349769234657,0.023276999592781067,0.0027535497210919857
1772731603602860800,10.67786083984375,0.030954916030168533,0.025123635306954384,-0.002122165635228157
1772731603612888800,10.687888916015625,0.032559022307395935,0.021947311237454414,0.0013848217204213142
1772731603622916600,10.69791650390625,0.029258832335472107,0.02113504707813263,0.006069854833185673
1772731603632945000,10.70794482421875,0.018456844612956047,0.01780279166996479,0.017071828246116638
1772731603642972700,10.71797265625,0.00900235679000616,0.009537138044834137,0.01858503744006157
1772731603653000700,10.728000732421876,0.006129072513431311,0.002567646326497197,0.021943816915154457
1772731603663028700,10.73802880859375,0.0040214466862380505,-0.0007921978831291199,0.027716217562556267
1772731603673056800,10.748056884765624,-0.00008745572995394468,-0.0019364955369383097,0.021791718900203705
1772731603683084800,10.758084716796875,-0.00039265400846488774,-0.011197371408343315,0.01409411896020174
1772731603693112800,10.76811279296875,-0.0022015771828591824,-0.02074512466788292,-0.005040867254137993
1772731603703140600,10.778140625,-0.004164326936006546,-0.023837054148316383,-0.024420157074928284
1772731603713169000,10.7881689453125,-0.00558792520314455,-0.015961362048983574,-0.029061658307909966
1772731603723196700,10.79819677734375,-0.008673995733261108,-0.006289293989539146,-0.021589891985058784
1772731603733225000,10.808224853515625,-0.010446630418300629,0.002531343372538686,-0.00335226790048182
1772731603743252700,10.818252685546875,-0.0076058367267251015,0.0017808645498007536,0.009166719391942024
1772731603753279700,10.82827978515625,0.002990162465721369,0.0049936193972826,0.015459459275007248
1772731603763307800,10.838307861328126,0.013289671391248703,0.005394158884882927,0.017662160098552704
1772731603773335800,10.848335693359376,0.02349076047539711,-0.0004929790738970041,0.026104487478733063
1772731603783363800,10.85836376953125,0.029339328408241272,0.0015134464483708143,0.028782028704881668
1772731603793391600,10.8683916015625,0.03502433001995087,0.006889293435961008,0.025992998853325844
1772731603803420000,10.878419921875,0.03190150856971741,0.012112552300095558,0.02694215066730976
1772731603813447700,10.88844775390625,0.03086934983730316,0.014403697103261948,0.022483622655272484
1772731603823475700,10.898475830078125,0.0313311405479908,0.012705666944384575,0.02221623994410038
1772731603833503700,10.908503662109375,0.03429922088980675,0.008641424588859081,0.022141210734844208
1772731603843531800,10.91853173828125,0.04224236682057381,0.004192613996565342,0.023074647411704063
1772731603853559800,10.928559814453125,0.045162707567214966,0.005680871196091175,0.023890679702162743
1772731603863587800,10.938587890625,0.050268255174160004,0.00355859799310565,0.02015266753733158
1772731603873615600,10.94861572265625,0.045668069273233414,0.007856085896492004,0.014183818362653255
1772731603883644000,10.958643798828126,0.025086363777518272,-0.029685430228710175,0.00140756880864501
1772731603893671700,10.968671630859374,0.018629668280482292,-0.06615787744522095,-0.006700548809021711
1772731603903700000,10.978699951171874,0.04668527469038963,-0.059234462678432465,-0.015395237132906914
1772731603913727700,10.988727783203124,0.05030301958322525,-0.07049067318439484,-0.01580473594367504
1772731603923755800,10.998755859375,0.030340496450662613,-0.09918170422315598,0.01591191440820694
1772731603933783800,11.00878369140625,0.01768224500119686,-0.08984331041574478,0.03505101799964905
1772731603943811800,11.018811767578125,0.0019695935770869255,-0.07435303181409836,0.024128593504428864
1772731603953839900,11.02883984375,-0.005194704048335552,-0.07855942100286484,-0.005480554886162281
1772731603963868000,11.038867919921875,-0.021598445251584053,-0.09444064646959305,-0.023773275315761566
1772731603973895700,11.048895751953125,-0.03941036015748978,-0.07858040928840637,-0.00540394801646471
1772731603983924000,11.058924072265626,-0.06425178796052933,-0.06623292714357376,0.06941809505224228
1772731603993951700,11.06895166015625,-0.08655956387519836,-0.05811884626746178,0.20818641781806946
1772731604003979800,11.078979736328124,-0.10183172672986984,-0.046066708862781525,0.36586952209472656
1772731604014007800,11.0890078125,-0.139958918094635,-0.08190248906612396,0.4689120650291443
1772731604024035600,11.09903564453125,-0.19724564254283905,-0.10981640964746475,0.491167277097702
1772731604034064000,11.10906396484375,-0.20917673408985138,-0.09447120130062103,0.4218011498451233
1772731604044091600,11.119091552734375,-0.20143678784370422,-0.06433673948049545,0.32488977909088135
1772731604054120000,11.129119873046875,-0.1960206925868988,-0.019191492348909378,0.22106611728668213
1772731604064146700,11.139146728515625,-0.189263716340065,0.01109956856817007,0.11823029816150665
1772731604074175000,11.149175048828125,-0.1700904369354248,0.011668620631098747,0.05340675264596939
1772731604084202800,11.15920263671875,-0.15349841117858887,-0.010023624636232853,0.030007950961589813
1772731604094230800,11.169230712890625,-0.15318696200847626,-0.036364372819662094,0.0416756309568882
1772731604104258800,11.1792587890625,-0.14915120601654053,-0.052972909063100815,0.07191502302885056
1772731604114286800,11.189286865234376,-0.1421496868133545,-0.09037164598703384,0.09139226377010345
1772731604124315000,11.19931494140625,-0.12951751053333282,-0.11376991122961044,0.10177166759967804
1772731604134343000,11.209343017578124,-0.10960063338279724,-0.12497027963399887,0.09776105731725693
1772731604144370700,11.21937060546875,-0.08182066679000854,-0.14378631114959717,0.08272511512041092
1772731604154398700,11.229398681640625,-0.07554483413696289,-0.1780596822500229,0.062374990433454514
1772731604164426800,11.2394267578125,-0.08198702335357666,-0.1936543583869934,0.05727769806981087
1772731604174454800,11.249454833984375,-0.06669408828020096,-0.16084368526935577,0.05609472095966339
1772731604184482800,11.25948291015625,-0.054827041923999786,-0.11883097887039185,0.03651222959160805
1772731604194510600,11.269510498046875,-0.06676339358091354,-0.09865288436412811,0.0016992826713249087
1772731604204539000,11.279538818359375,-0.10265108942985535,-0.05862584710121155,-0.016780924052000046
1772731604214566700,11.289566650390626,-0.12446070462465286,-0.0120489951223135,-0.01661568135023117
1772731604224595000,11.299594970703126,-0.12168142944574356,0.02802066132426262,-0.003365656826645136
1772731604234622700,11.309622802734374,-0.09508509933948517,0.04293108731508255,0.018165260553359985
1772731604244650800,11.319650634765624,-0.06684360653162003,0.023830093443393707,0.03567980229854584
1772731604254678800,11.3296787109375,-0.046964045614004135,-0.0052147917449474335,0.044974178075790405
1772731604264706800,11.339706787109375,-0.028691565617918968,-0.004583089612424374,0.042758163064718246
1772731604274734800,11.34973486328125,-0.020480923354625702,-0.00035687326453626156,0.029951924458146095
1772731604284763000,11.359762939453125,-0.029153240844607353,0.029117662459611893,0.0236026830971241
1772731604294790700,11.369790771484375,-0.05427706241607666,0.06305947154760361,0.02332129515707493
1772731604304819000,11.37981884765625,-0.0857686772942543,0.08218176662921906,0.019133208319544792
1772731604314846700,11.3898466796875,-0.10381563007831573,0.08091926574707031,0.0068107773549854755
1772731604324874800,11.399874755859376,-0.10182491689920425,0.061011604964733124,-0.012985031120479107
1772731604334902500,11.409902587890626,-0.08963437378406525,0.033403534442186356,-0.03228054940700531
1772731604344930600,11.4199306640625,-0.07041060924530029,0.005604924634099007,-0.05429476872086525
1772731604354957600,11.42995751953125,-0.03662978857755661,-0.00656375614926219,-0.06554528325796127
1772731604364985600,11.439985595703124,0.016052331775426865,-0.007923034019768238,-0.07198640704154968
1772731604375013600,11.450013671875,0.05082259699702263,-0.003400967689231038,-0.06498605012893677
1772731604385041700,11.460041748046875,0.06716162711381912,-0.0033540960866957903,-0.06924151629209518
1772731604395069700,11.470069580078125,0.06841325014829636,-0.008220268413424492,-0.06980904191732407
1772731604405097700,11.48009765625,0.04516865313053131,-0.011526316404342651,-0.06078358739614487
1772731604415125500,11.49012548828125,-0.0006875457474961877,-0.022857673466205597,-0.07594545185565948
1772731604425153800,11.50015380859375,-0.04270610213279724,-0.056307241320610046,-0.10117783397436142
1772731604435181600,11.510181640625,-0.05903750658035278,-0.07960090041160583,-0.10528700053691864
1772731604445209900,11.5202099609375,-0.04183428734540939,-0.07186095416545868,-0.07196100056171417
1772731604455237600,11.530237548828126,-0.002890951232984662,-0.03273436427116394,-0.014244909398257732
1772731604465265400,11.540265380859376,0.04509841278195381,-0.0004864123184233904,0.0395972840487957
1772731604475293700,11.550293701171874,0.11822310835123062,0.0016339495778083801,0.09193148463964462
1772731604485321500,11.560321533203124,0.16083261370658875,-0.0010364020708948374,0.12394880503416061
1772731604495349800,11.570349853515625,0.1641651690006256,-0.0001740052830427885,0.12177307903766632
1772731604505377500,11.58037744140625,0.1401599943637848,0.023312412202358246,0.08364459872245789
1772731604515405600,11.590405517578125,0.10929099470376968,0.06484229117631912,0.01467545609921217
1772731604525433600,11.60043359375,0.07888968288898468,0.11045344918966293,-0.05379042029380798
1772731604535461600,11.610461669921875,0.05273240804672241,0.13739013671875,-0.11334540694952011
1772731604545489700,11.62048974609375,0.040648315101861954,0.13827963173389435,-0.14139728248119354
1772731604555517700,11.630517578125,0.04551444202661514,0.11303551495075226,-0.1369687169790268
1772731604565545500,11.64054541015625,0.05078670009970665,0.05946044251322746,-0.11070674657821655
1772731604575573800,11.65057373046875,0.053419437259435654,0.01286946889013052,-0.081960529088974
1772731604585601500,11.6606015625,0.0570186972618103,0.008892303332686424,-0.060938864946365356
1772731604595629600,11.670629638671874,0.05090627819299698,0.026987453922629356,-0.05319179221987724
1772731604605657600,11.68065771484375,0.02335907146334648,0.02905859611928463,-0.0670924261212349
1772731604615685600,11.690685546875,-0.0034023812040686607,0.020837465301156044,-0.07037785649299622
1772731604625713700,11.700713623046875,-0.018875613808631897,0.014483959414064884,-0.057916395366191864
1772731604635740400,11.710740478515625,-0.010765746235847473,0.026444895192980766,-0.0363791286945343
1772731604645768700,11.720768798828125,0.018568972125649452,0.04440338909626007,-0.008802364580333233
1772731604655796500,11.73079638671875,0.041939254850149155,0.06838635355234146,0.01604311354458332
1772731604665824800,11.74082470703125,0.05033007636666298,0.08226408064365387,0.014187156222760677
1772731604675852500,11.7508525390625,0.03822825476527214,0.0730368047952652,-0.00871964916586876
1772731604685880600,11.760880615234376,0.012185203842818737,0.04933467507362366,-0.0341309979557991
1772731604695908600,11.77090869140625,0.0002622756874188781,0.04062523692846298,-0.03391263633966446
1772731604705936600,11.7809365234375,-0.004823296796530485,0.04784772917628288,-0.01397061999887228
1772731604715964700,11.790964599609374,0.006968347355723381,0.040534935891628265,0.023288898169994354
1772731604725992700,11.80099267578125,0.03512568026781082,0.04779950901865959,0.08330563455820084
1772731604736020500,11.8110205078125,0.04702284559607506,0.2055770307779312,0.26635023951530457
1772731604746048800,11.821048828125,0.058499474078416824,0.09616211801767349,0.24606679379940033
1772731604756076500,11.83107666015625,0.11332730948925018,-0.04344729706645012,0.15507006645202637
1772731604766104600,11.8411044921875,0.12467397749423981,-0.11490923166275024,0.0857493206858635
1772731604776132600,11.851132568359375,0.09764908254146576,-0.12074737995862961,0.026416687294840813
1772731604786160600,11.86116064453125,0.07749374955892563,-0.1326165497303009,-0.034611776471138
1772731604796188700,11.871188720703126,0.06854040175676346,-0.12605242431163788,-0.07324592769145966
1772731604806216700,11.881216796875,0.06602637469768524,-0.11326286196708679,-0.0992378443479538
1772731604816244500,11.891244384765624,0.059758108109235764,-0.10837463289499283,-0.14043034613132477
1772731604826272800,11.901272705078124,0.03358083218336105,-0.056495729833841324,-0.20394034683704376
1772731604836300500,11.911300537109375,-0.005662537645548582,0.08539465814828873,-0.2314421832561493
1772731604846328800,11.921328857421875,-0.03654082119464874,0.22025632858276367,-0.2501301169395447
