time,seconds_elapsed,z,y,x
1772639519940407000,0.059406982421875,0.21266952173411846,0.022779621758684514,0.10083360616751015
1772639519950452000,0.069451904296875,0.19599895744025705,0.01498589914254844,0.08948968025650829
1772639519960497200,0.0794970703125,0.1830401071459055,0.049213016784563655,0.08579151985831558
1772639519970542000,0.0895419921875,0.1691968752324581,0.03833082663379609,0.06645696051958948
1772639519980587300,0.099587158203125,0.1951438019156456,0.03075542294345796,0.05130571474749595
1772639519990631200,0.109631103515625,0.16896657360792158,0.026662454541400073,0.016098061635531485
1772639520000676000,0.119676025390625,0.1409194597750902,0.03792224583290517,-0.006018602702394128
1772639520010721300,0.12972119140625,0.10740414366424084,0.02465403732843697,-0.03167556999567896
1772639520020766200,0.13976611328125,0.0883475610166788,-0.008004881148785352,-0.04642959661111235
1772639520030811100,0.14981103515625,0.047263855478167534,-0.0005868599772453308,-0.04884557171165943
1772639520040856000,0.15985595703125,0.028641572594642638,0.011939444118738174,-0.052800227621570224
1772639520050901200,0.1699013671875,0.055120414197444914,-0.012441329226270318,-0.05152238970547914
1772639520060946200,0.1799462890625,0.060712535116076466,-0.04650843400098383,-0.038088615375757216
1772639520070991000,0.1899912109375,0.06007365269064903,-0.0399045056913048,0.0003324833573773503
1772639520081035800,0.200035888671875,0.08026888397932053,-0.05422850685901939,-0.024016177816316483
1772639520091081000,0.2100810546875,0.10004150594174861,-0.0425191451691091,-0.051677141875773665
1772639520101126000,0.2201259765625,0.07476736395359039,-0.02998049304820597,-0.06758201902676374
1772639520111171000,0.230171142578125,0.09842062674164771,-0.02052095611169934,-0.043096945057064295
1772639520121215700,0.2402158203125,0.16010113010704516,-0.015627484981715678,-0.01423438665550202
1772639520131261000,0.250260986328125,0.17750468485057352,-0.02144830008968711,0.007612009373679757
1772639520141305900,0.260305908203125,0.16900047587752343,-0.024436741315945983,0.016400259452499448
1772639520151351000,0.27035107421875,0.14219313297271727,-0.02150178384259343,0.005670373786613345
1772639520161395700,0.280395751953125,0.11294073500335215,-0.009608955344557761,-0.001096709195524454
1772639520171441000,0.29044091796875,0.07824585371911526,-0.023733926808834075,0.004118906560912728
1772639520181485000,0.300485107421875,0.05815408280491829,-0.033832273105531926,0.006870251095667481
1772639520191530000,0.310530029296875,0.04671148229241371,-0.043238180158659816,0.051087724615260954
1772639520201575000,0.320574951171875,0.05173661697804927,-0.04053827355019748,0.06492511130981148
1772639520211619800,0.330619873046875,-0.009778466692566871,-0.052925972893089056,0.08913717702440917
1772639520221665000,0.3406650390625,-0.05054886849820613,-0.06676036391295492,0.103337186486274
1772639520231710000,0.3507099609375,-0.08896072447896003,-0.08396510814875364,0.08500742027591913
1772639520241755100,0.360755126953125,-0.08207622566223144,-0.08582228032276033,0.055564614300988614
1772639520251799800,0.3707998046875,-0.03961772463917732,-0.08803155387006699,0.02933181988112628
1772639520261845000,0.380844970703125,0.009095745125412941,-0.09357296751476823,0.017733078958839178
1772639520271889000,0.390888916015625,0.0882516994267702,-0.09769918059930205,0.051264031030237675
1772639520281933800,0.400933837890625,0.08807166668474674,-0.10644443178661167,0.05237264985926449
1772639520291978800,0.410978759765625,0.09559446340501308,-0.11790807508714496,0.02523928987048566
1772639520302024000,0.42102392578125,0.10406009393334388,-0.12084617436565458,0.003116488052718341
1772639520312068900,0.43106884765625,0.1085427923053503,-0.12956672950312495,-0.028379670255444942
1772639520322114000,0.441114013671875,0.12077800450026989,-0.10230214435011148,-0.04018763348162174
1772639520332158700,0.45115869140625,0.11532792240083217,-0.07870937957763671,-0.033700463419407606
1772639520342204000,0.461203857421875,0.09610884266793727,-0.044732656500115986,-0.06623129853755236
1772639520352248800,0.471248779296875,0.10848784724771976,-0.030910467374697326,-0.07439085879139602
1772639520362294000,0.4812939453125,0.11727671838104724,-0.011353314793854952,-0.08685724939368665
1772639520372338000,0.491337890625,0.10971592773795127,-0.0033715222597122192,-0.09053228464461863
1772639520382382800,0.5013828125,0.12167758368849754,0.002198094566166401,-0.08918898027688264
1772639520392428000,0.511427978515625,0.13130699729919432,0.012346855875849723,-0.07195723843630403
1772639520402473000,0.521472900390625,0.1197878244191408,0.0180309659268707,-0.04455726340059191
1772639520412518000,0.531517822265625,0.10047463666200637,0.03199548613242805,-0.03430248443316668
1772639520422562800,0.541562744140625,0.11546996122002601,0.03241283476166427,-0.024331308180093762
1772639520432608000,0.55160791015625,0.14731354472637176,0.019003829547017813,0.008214322648383676
1772639520442653000,0.56165283203125,0.16127718814909459,0.012106836574897169,0.00796348969247192
1772639520452698000,0.571697998046875,0.15639000062942504,0.005187339510023594,-0.008968830810114741
1772639520462741800,0.58174169921875,0.15892682563066482,-0.003552797110751271,-0.007430442261695862
1772639520472787000,0.591786865234375,0.18277239612042903,-0.019228651278838514,-0.007639481902495026
1772639520482832000,0.601831787109375,0.17734569489657878,-0.037226445588469506,-0.009513239885121583
1772639520492877000,0.611876953125,0.18189444424211978,-0.025446795141324398,-0.005482121205516159
1772639520502921700,0.621921630859375,0.1457213070988655,-0.018022271163761615,-0.01385174401346594
1772639520512967000,0.631966796875,0.12571078472733496,-0.005057867911458016,-0.008247567330859601
1772639520523011800,0.64201171875,0.12608254064917562,-0.0034624884787946937,-0.005369966067932546
1772639520533057000,0.65205712890625,0.10435527748763561,0.004820698154717683,-0.001474785260297358
1772639520543101700,0.662101806640625,0.08039338714182376,-0.012501827241852878,-0.03434910005386919
1772639520553147000,0.67214697265625,0.09428338080644608,0.007130363336578011,-0.06415215417593717
1772639520563191000,0.68219091796875,0.11865209838747978,0.007111877831816673,-0.0481473237818107
1772639520573236000,0.692236083984375,0.10489420666992663,-0.012522870029881596,-0.019151567454636097
1772639520583281000,0.702281005859375,0.0838204389810562,-0.009426219188794493,-0.030901407285407183
1772639520593325800,0.712325927734375,0.10136135636866092,-0.003003273469209671,-0.040575354157574475
1772639520603371000,0.72237109375,0.09853402398824691,-0.008000058843195438,-0.03559920971281826
1772639520613416000,0.732416015625,0.09805880769193172,-0.016563669853284953,0.0023318404810503124
1772639520623461000,0.742461181640625,0.1119061312586069,-0.02540047178156674,0.016336984957940875
1772639520633505800,0.752505859375,0.1056453172981739,-0.025048516538739202,0.0060761415759101505
1772639520643551000,0.762551025390625,0.09350012147426605,-0.027275764134153724,-0.0002167480232194066
1772639520653596000,0.772595947265625,0.059062429821491236,-0.038305253801122305,-0.0008956701980903744
1772639520663639800,0.782639892578125,0.06073007077276706,-0.007751344779133796,0.010506123379990458
1772639520673684700,0.792684814453125,0.061115855219960206,-0.015571370880305767,0.024859971696697174
1772639520683730000,0.80272998046875,0.044946226185560226,-0.022212708590924737,0.020877660594880578
1772639520693774800,0.81277490234375,0.018021394380927085,-0.006879311184957623,0.003655746028572321
1772639520703820000,0.822820068359375,-0.0012608137160539626,-0.008792378264665604,-0.030718123140372335
1772639520713864700,0.83286474609375,-0.03577683130204677,-0.014266060435399412,-0.021387034889124332
1772639520723910000,0.842909912109375,-0.02172726316154003,-0.004056435783952475,0.00657766135726124
1772639520733954800,0.852954833984375,-0.020307459491491316,0.0027379005312919615,0.018512502366118132
1772639520744000000,0.863,0.000028057050704956055,-0.007814546208456159,0.032228564235940574
1772639520754044000,0.8730439453125,0.015157821643352507,-0.01604490667618811,0.01793718669619411
1772639520764088800,0.8830888671875,0.016241525226831435,-0.021992416903749108,0.0020790347637608645
1772639520774134000,0.893134033203125,0.05775894600749015,-0.020173384783044455,-0.021988836707174778
1772639520784179000,0.903178955078125,0.12173194422423839,-0.028723113398253917,-0.04126804912947118
1772639520794223900,0.913223876953125,0.15201134715378284,-0.04867774086408317,-0.026755831913277506
1772639520804268800,0.923268798828125,0.169653971350193,-0.045867798009887335,-0.016173647622391582
1772639520814314000,0.93331396484375,0.1556248614758253,-0.050295843585208055,-0.014270553947426379
1772639520824359000,0.94335888671875,0.15495499939024449,-0.05115246041454374,-0.012973426808975636
1772639520834404000,0.953404052734375,0.12454992425441741,-0.032084041198715565,-0.021298845149017868
1772639520844448800,0.96344873046875,0.06909107188284397,-0.026558628840744492,-0.00292286517675966
1772639520854493000,0.973492919921875,0.07031096906661986,-0.02447378539070487,-0.008018105956539512
1772639520864537900,0.983537841796875,0.06424070924222469,-0.010570859179273247,0.002793174382485449
1772639520874583000,0.9935830078125,0.032635026144981386,0.00792918556407094,0.02849799940548837
1772639520884627700,1.003627685546875,-0.010151391658186912,0.0072616615660488605,0.020444749070331454
1772639520894673000,1.0136728515625,0.0006581716477870941,0.005991714695468544,0.008936170649528502
1772639520904717800,1.0237177734375,-0.006504559588432312,0.007959580702334643,-0.027634514443948863
1772639520914763000,1.033762939453125,0.001994388687610626,0.020537103528901934,-0.0731998954411596
1772639520924807700,1.0438076171875,0.024676760616898535,0.03807261408902705,-0.09208623608835041
1772639520934852900,1.053852783203125,0.043261634099483484,0.051114247296005486,-0.07236231210585684
1772639520944897000,1.06389697265625,0.05562661015391349,0.04712283957228064,-0.06115315502304584
1772639520954942000,1.07394189453125,0.05518821873664856,0.03267280087210238,-0.0265674332017079
1772639520964987000,1.08398681640625,0.11355857464075088,0.038296924364194275,0.009340111807920038
1772639520975031800,1.09403173828125,0.13501052799224852,0.03416384314745664,0.04092394839953631
1772639520985077000,1.104076904296875,0.12236848856210708,0.012789631207287312,0.042816812941432
1772639520995122000,1.114121826171875,0.1412906311750412,0.012673165220767259,0.05248338022474199
1772639521005167000,1.1241669921875,0.1756803920328617,-0.013678250610083341,0.04484382525701076
1772639521015211800,1.134211669921875,0.2354723051726818,-0.017701076385378836,0.029985169223323463
1772639521025257000,1.144257080078125,0.28120588234364985,-0.03931823023594916,0.020449096451885997
1772639521035302000,1.154302001953125,0.24274784913361072,-0.05297266157902777,0.024663937667943534
1772639521045345800,1.164345703125,0.20768471905887126,-0.07299816232398151,0.032320882161892946
1772639521055390700,1.174390625,0.17099895621836184,-0.09360007471740245,0.015309176280163228
1772639521065436000,1.184435791015625,0.09609422962069511,-0.11382986586280167,0.0446004084225744
1772639521075480800,1.194480712890625,0.044859132423996924,-0.08467522917948662,0.037287272397615014
1772639521085525800,1.20452587890625,0.04146890546381473,-0.09115151252150536,0.03334554903451353
1772639521095570700,1.21457080078125,0.03729483464956283,-0.09825286895930767,0.029852044362947344
1772639521105615600,1.22461572265625,0.04473170665204525,-0.08488741062544286,0.015333945395238696
1772639521115660500,1.23466064453125,0.036790392258763314,-0.05510733552016318,0.03397613855563104
1772639521125705700,1.244705810546875,0.02960778727829456,-0.031670126635581254,0.036389081448875364
1772639521135749600,1.25474951171875,0.013715806141495705,-0.03168313224762678,0.028803850484266875
1772639521145794600,1.264794677734375,0.022659575575590132,-0.021332491690292953,0.02649615806378424
1772639521155839700,1.27483984375,0.02546644968986511,-0.0006064414605498313,-0.0010256532533094286
1772639521165884700,1.284884765625,0.0600181231111288,0.007769976414367556,-0.024300109324231742
1772639521175929900,1.294929931640625,0.09743395379185676,0.010216054392233491,-0.04018186132796109
1772639521185974500,1.304974609375,0.1400789172977209,0.012372574838995933,-0.04549856283869594
1772639521196019700,1.315019775390625,0.1648924560368061,-0.0003841770119965076,-0.02620444510821253
1772639521206064600,1.325064697265625,0.20362053835988045,-0.0033341128587722774,-0.01566010860968381
1772639521216109800,1.33510986328125,0.21508885783553122,0.001589388083294034,-0.022802929569035766
1772639521226154800,1.34515478515625,0.21886954541802406,-0.0015681260995566845,-0.038375652156211436
1772639521236198700,1.35519873046875,0.18099895670711993,-0.000339022696018219,-0.03139887194614857
1772639521246243800,1.365243896484375,0.14368132570385933,0.011435293988883495,-0.03542549711372703
1772639521256288800,1.375288818359375,0.09419453347921371,0.03455686105303466,-0.02593596689775586
1772639521266333700,1.385333740234375,0.0576478868484497,0.028926307820156216,0.011115633580461144
1772639521276378600,1.395378662109375,0.017167407900094984,0.024518939706683156,0.029133301634341476
1772639521286423800,1.405423828125,-0.025698504880070683,0.011763649160414934,0.039697731072828174
1772639521296468700,1.41546875,-0.0561971035182476,0.006241451672837138,0.06393445630464703
1772639521306513700,1.425513671875,-0.07321545833647251,0.0041226328879594805,0.043687787089683114
1772639521316558600,1.43555859375,-0.0974193407446146,-0.02022964501492679,0.03155698511730879
1772639521326602800,1.445602783203125,-0.06390344011187553,-0.037048970129713414,0.05053911428917199
1772639521336647700,1.455647705078125,-0.03552782497704029,-0.054928691017627713,0.05425375089813023
1772639521346692900,1.46569287109375,0.015347791257500647,-0.09171265353560447,0.061348056540638206
1772639521356737500,1.475737548828125,0.03358662778139114,-0.11374467179737985,0.025726233137212694
1772639521366782700,1.48578271484375,0.032143443235754965,-0.11396481735408305,0.00719820440839976
1772639521376827600,1.49582763671875,0.024293898779153823,-0.10199008272625505,0.005819463401101529
1772639521386872800,1.505872802734375,0.03937807066440582,-0.08579707281626761,-0.009473054005205631
1772639521396917500,1.51591748046875,0.04752922841608524,-0.0841504746530205,0.005620945154316723
1772639521406962700,1.525962646484375,0.0678173986852169,-0.07378229843899607,0.012579385990090668
1772639521417007600,1.536007568359375,0.0721481213659048,-0.04521320655867457,0.006732669255882501
1772639521427051800,1.5460517578125,0.08342296409606934,-0.022582710947096348,-0.013441738440468906
1772639521437096700,1.5560966796875,0.061683425974845885,-0.02528970488347113,-0.026022549202665685
1772639521447141600,1.5661416015625,0.08921849863231182,0.010400397983193397,-0.06772197548672557
1772639521457186800,1.576186767578125,0.15882979499697683,0.03744914842844009,-0.0583189179778099
1772639521467231700,1.586231689453125,0.19297697927057741,0.038610812618955964,-0.041883368016220626
1772639521477277000,1.59627685546875,0.21764088040590285,0.04032316949479282,-0.03542831012532115
1772639521487321600,1.606321533203125,0.25029227316379543,0.05048917420022189,-0.033125111216865476
1772639521497366800,1.61636669921875,0.24928981812298295,0.05400580401904881,-0.03468830541297793
1772639521507411700,1.62641162109375,0.2518985393166542,0.05116977687552571,-0.03880147635284811
1772639521517455600,1.63645556640625,0.24320436072945592,0.044051615433394906,-0.02368150250185281
1772639521527500500,1.64650048828125,0.20033318725228308,0.03340849473550916,-0.03599029138963669
1772639521537545700,1.656545654296875,0.1593979502737522,0.04543094096258282,-0.027358802775107324
1772639521547590700,1.666590576171875,0.10664017355442046,0.04374159963615239,-0.03288669935110956
1772639521557635800,1.6766357421875,0.06018763445913791,0.02212298448085785,-0.036530316550470884
1772639521567680500,1.686680419921875,0.03191372613310814,0.023339885989949107,-0.028729506606422362
1772639521577725700,1.6967255859375,0.028265725019574164,-0.0012332681220024824,-0.04355553901214152
1772639521587770600,1.7067705078125,0.02993336597084999,-0.011445011665299534,-0.026604696472175417
1772639521597815800,1.71681591796875,0.008145897054672242,-0.03610277532078326,-0.021705160927586255
1772639521607860700,1.72686083984375,-0.0012158055305480956,-0.06707439829818904,-0.015410006306134164
1772639521617904600,1.736904541015625,-0.008659691795706748,-0.07211465748772025,-0.009625468087941407
1772639521627949800,1.74694970703125,-0.00490647674202919,-0.09078399438336492,-0.02231310022547841
1772639521637994800,1.756994873046875,0.014282207852602005,-0.09333996247649193,-0.023041779826208947
1772639521648039700,1.767039794921875,0.03201426389813423,-0.07868059187456965,-0.007842639791779219
1772639521658084600,1.777084716796875,0.06952361808121205,-0.07782273293621837,-0.0019284838445484636
1772639521668129800,1.7871298828125,0.07696750434637069,-0.046665889585018154,-0.002340973635576665
1772639521678174700,1.7971748046875,0.06107903034090995,-0.035404344727844,-0.004759907878190279
1772639521688220000,1.807219970703125,0.0529728807747364,-0.01115348137281835,0.006516250026226043
1772639521698264600,1.8172646484375,0.07899053460657596,0.01589760715998709,0.034318229991570116
1772639521708309800,1.827309814453125,0.09713058693110942,0.015195742500945925,0.02058554578050971
1772639521718353700,1.837353759765625,0.0973497826397419,0.004047448759898543,-0.004135638500005007
1772639521728398800,1.84739892578125,0.11537760676145553,0.01503638722077012,-0.002314231759123504
1772639521738443500,1.857443603515625,0.10852058047354221,0.03444609415493905,0.006839417565986513
1772639521748488700,1.86748876953125,0.1156575927466154,0.03304528744630515,0.0082435122102499
1772639521758533600,1.87753369140625,0.10178338117301464,0.041279008914902805,0.022728439560718832
1772639521768578800,1.887578857421875,0.10601239704489707,0.03441898695230484,0.02485555124990642
1772639521778623500,1.89762353515625,0.0912666633337736,0.03809709094315767,0.04648034041766077
1772639521788668700,1.907668701171875,0.0627981092184782,0.028424422712624072,0.033769583132863046
1772639521798713600,1.917713623046875,0.031821371674537656,0.01644676547534764,0.042286395859159526
1772639521808757800,1.9277578125,0.0884480987817049,0.00040748482234776015,0.03453727956973016
1772639521818802700,1.937802734375,0.09150281017720699,-0.018620529317855832,0.017934044891037046
1772639521828847600,1.94784765625,0.10886311030089854,-0.017395517567545173,0.02258059205524623
1772639521838892800,1.957892822265625,0.1307896954268217,-0.03438113915994763,0.02427066403403878
1772639521848937700,1.967937744140625,0.13170564122796058,-0.03778071847036481,0.016214856415614484
1772639521858983000,1.97798291015625,0.09532733690142631,-0.041461379744485015,0.022952311444468795
1772639521869027600,1.988027587890625,0.10400339531004428,-0.020964315965026615,0.03205200209263712
1772639521879072800,1.99807275390625,0.1069178214520216,-0.019012743505835532,0.028170776745118198
1772639521889117700,2.00811767578125,0.13294424311220646,-0.008375541092082857,0.001016812359727919
1772639521899163000,2.018162841796875,0.1311608668267727,-0.010543167454749345,-0.024885142670571802
1772639521909206500,2.02820654296875,0.13411620950102807,-0.01201645487770438,-0.01477357156611979
1772639521919251700,2.038251708984375,0.1383364575445652,-0.02149637701511383,-0.021487572654150425
1772639521929296600,2.048296630859375,0.14560089558959005,-0.014673106866329907,-0.02785294296760112
1772639521939341800,2.058341796875,0.1508534092903137,-0.02228913482800126,-0.002349083876796067
1772639521949386500,2.068386474609375,0.14439444240927696,-0.0288850259616971,0.0035534546978771685
1772639521959431700,2.078431640625,0.10544365724623203,-0.02228657754473388,0.017256803216598927
1772639521969476600,2.0884765625,0.09552899695336818,-0.028784415131434798,0.01797127162888646
1772639521979521800,2.098521728515625,0.07352350137233733,-0.014092968890815972,0.02080328018441796
1772639521989566700,2.108566650390625,0.0186176067084074,-0.019388737211376426,0.01405501150060445
1772639521999610600,2.118610595703125,-0.020702011767029762,-0.01910758218243718,-0.008131064811721444
1772639522009655800,2.12865576171875,-0.05504851800501346,-0.004238075961172581,0.011390651129558681
1772639522019700700,2.13870068359375,-0.028843817168474197,0.001478694250434637,0.03145768946129829
1772639522029745700,2.14874560546875,0.011824877828359602,-0.022196122782304883,0.03587145078293979
1772639522039790600,2.15879052734375,-0.009288637349009513,-0.03338606370799243,0.015196948077343403
1772639522049835800,2.168835693359375,0.011958148819208144,-0.02914148494079709,0.0020326748713850973
1772639522059880700,2.178880615234375,0.024680267748236655,-0.02807436716593802,0.011603928554058075
1772639522069926000,2.18892578125,0.0493868389815092,-0.03551379645168781,0.02334288166463375
1772639522079970800,2.198970703125,0.044347091248631475,-0.030613968646153806,0.020621566941961645
1772639522090016000,2.20901611328125,0.05397650485932827,-0.01873107702024281,0.026891039132885635
1772639522100060000,2.219059814453125,0.07438800924718379,-0.03907441154271364,0.010399521200358867
1772639522110104800,2.229104736328125,0.10153379032611846,-0.03779883864894509,-0.010390936035104095
1772639522120149800,2.239149658203125,0.10367372496426105,-0.035769086387008424,-0.0006572948649525642
1772639522130195000,2.24919482421875,0.06492576889693737,-0.04259966305941343,0.016947152745537458
1772639522140240000,2.259239990234375,0.03993745811283588,-0.040700551439821715,0.02037161076888442
1772639522150285000,2.26928515625,0.04239595718085765,-0.01696457880437374,0.03273340848553925
1772639522160329700,2.279329833984375,0.035061961030960084,-0.014585209387168287,0.04086776123289019
1772639522170375000,2.289375,0.06701075847744942,-0.013005977371707557,0.017161526148580013
1772639522180419800,2.299419921875,0.06953530851900577,-0.026787176899611947,-0.003444039506651461
1772639522190463700,2.309463623046875,0.06966098072528838,-0.02346716563142836,-0.011513875650428235
1772639522200509000,2.319509033203125,0.09262333863973617,-0.02526763918213546,0.0032488822607323526
1772639522210553900,2.329553955078125,0.11267243945598601,-0.0460201390273869,-0.007632504172436893
1772639522220599000,2.33959912109375,0.11007248609066009,-0.05087751593068242,-0.016683021916635333
1772639522230644000,2.34964404296875,0.0905219824463129,-0.047873073417693375,0.005721592517197132
1772639522240689000,2.35968896484375,0.07290683077871798,-0.04490034121721983,0.012882131796330213
1772639522250733800,2.36973388671875,0.0944125601440668,-0.035555662832036615,0.03141564041785896
1772639522260779000,2.379779052734375,0.07033727255165577,-0.014391586511209606,0.03126454150937497
1772639522270824000,2.389823974609375,0.07862462390363216,-0.029902605506405232,0.03078242054823786
1772639522280869000,2.399869140625,0.10147183100581168,-0.02387282382287085,0.020947364830225704
1772639522290912800,2.409912841796875,0.1291080259501934,-0.03113536217175424,0.015288243089988827
1772639522300958000,2.4199580078125,0.1475683962702751,-0.018397534216940403,0.004121244648471474
1772639522311003000,2.4300029296875,0.10732172607779503,-0.02361380756050348,0.010938779176212847
1772639522321047800,2.4400478515625,0.10431026930212974,-0.01773315202407539,0.003426576915197074
1772639522331092700,2.4500927734375,0.09424012618660926,-0.013122297227755188,-0.014344934357888996
1772639522341138000,2.460137939453125,0.08103051600158213,-0.011078443375229835,-0.007897694447264075
1772639522351182800,2.470182861328125,0.06723579940497874,-0.013931494718790053,0.005461114950105548
1772639522361228000,2.48022802734375,0.035814240702986715,-0.01649491546601057,-0.010136084491200745
1772639522371272700,2.490272705078125,0.01312426998913288,0.013222469666600227,-0.01872486647516489
1772639522381316900,2.50031689453125,0.038382045364379884,0.018391835128515957,-0.0023191636625677346
1772639522391362000,2.510362060546875,0.019241291564702986,0.005922741112485527,-0.016162249445542693
1772639522401407000,2.520406982421875,0.042046997612714763,0.006555632188543677,-0.004139949348941445
1772639522411452000,2.530451904296875,0.08554010238051414,-0.012302066886052489,-0.02383084784466773
1772639522421496800,2.540496826171875,0.12410393405258655,-0.025335735982283947,-0.02604662419799715
1772639522431542000,2.5505419921875,0.1461608675599098,-0.029633140915259717,-0.02350968959890306
1772639522441587000,2.5605869140625,0.13623919300436974,-0.018368527318164705,-0.0290483998298645
1772639522451631900,2.5706318359375,0.1086994441717863,-0.016534589889273046,-0.032472017602995035
1772639522461676800,2.5806767578125,0.09471008178591728,-0.025426263809949157,-0.029675263023935257
1772639522471722000,2.590721923828125,0.05659224031567573,-0.0017995967678725718,-0.03285940948538482
1772639522481766000,2.600765869140625,0.033325931018590924,0.008523278999701142,-0.024512217704951763
1772639522491810800,2.610810791015625,0.04306815735399723,-0.007248144497349858,-0.018488208175078034
1772639522501855700,2.620855712890625,0.07910860802829266,0.004390416978672146,-0.013524777081422508
1772639522511901000,2.63090087890625,0.1326022978067398,0.011954714753106235,-0.0331860110912472
1772639522521945900,2.64094580078125,0.16620763028860092,-0.00832154588252306,-0.061764272658713155
1772639522531991000,2.650990966796875,0.210680393743515,-0.0037902591284364458,-0.06978964860625565
1772639522542035700,2.66103564453125,0.2228717667967081,-0.03562025250084698,-0.08121135246120392
1772639522552081000,2.671080810546875,0.2359907760888338,-0.04791610884182155,-0.059369559541903434
1772639522562125800,2.681125732421875,0.21517828968465327,-0.04298281715810299,-0.031650910478457805
1772639522572171000,2.6911708984375,0.19639760136902332,-0.04431085089147091,-0.008521342770941555
1772639522582215000,2.70121484375,0.13866846597790716,-0.042972953351214524,-0.020234211592189966
1772639522592259800,2.711259765625,0.09440262327194213,-0.042192616628482935,-0.027179866011627016
1772639522602305000,2.721304931640625,0.09864917480051517,-0.048865591586381193,-0.023192586473748087
1772639522612350000,2.731349853515625,0.09125964907109736,-0.03352459539584815,-0.005436272769793867
1772639522622395000,2.741394775390625,0.06876900032162665,-0.02525331839583814,0.014202420614659785
1772639522632439800,2.751439697265625,0.011253215420246123,-0.028122151830419898,0.028362974848970768
1772639522642485000,2.761485107421875,-0.01691314087808132,-0.025716332797706125,0.021648864163085816
1772639522652530000,2.771530029296875,0.007354454416036605,-0.030189824949949977,-0.003369914824515581
1772639522662575000,2.7815751953125,0.019279285487532615,-0.025909005825594068,-0.0011397811522707343
1772639522672619800,2.791619873046875,-0.004030278429389,-0.03126556442268193,-0.017096096229553222
1772639522682664000,2.801663818359375,0.007135843229293823,-0.012613324792310594,-0.017391791240498423
1772639522692708900,2.811708984375,0.025960370686650275,0.0036702860105782744,-0.0018575009675696492
1772639522702753800,2.82175390625,0.07367430801987647,-0.0070125091105699535,-0.009395385659113525
1772639522712798700,2.831798828125,0.08574293147623538,-0.0059616118181496855,-0.038834867165796455
1772639522722844000,2.841843994140625,0.10807342122793197,0.000806421012058854,-0.02901862574610859
1772639522732888800,2.851888916015625,0.13468787190914153,-0.0034113428134471178,-0.0231346092088148
1772639522742934000,2.86193408203125,0.1323626438319683,0.000659852148219943,-0.014949183861352503
1772639522752978700,2.871978759765625,0.139133160880208,0.012982742626592516,-0.0033219109643250703
1772639522763024000,2.88202392578125,0.13453005099892615,0.011585223853588103,0.0031129809213802217
1772639522773068000,2.892068115234375,0.13981120627224444,0.00596380377523601,-0.014755780181102454
1772639522783113000,2.902113037109375,0.16247545802295207,-0.0002813011594116688,-0.020629165726527572
1772639522793158000,2.912157958984375,0.18409984533190726,-0.01086589660309255,-0.024240378493629394
1772639522803202800,2.922202880859375,0.17845453292131422,-0.007656286906823516,-0.012987345736473798
1772639522813248000,2.932248046875,0.17964461948871613,-0.012690847007930278,-0.006513217818923295
1772639522823293000,2.94229296875,0.16354513308107851,-0.002660159119963646,0.003494746780581772
1772639522833337900,2.952337890625,0.13659633587896822,-0.011506970985606312,0.02757993471249938
1772639522843382800,2.9623828125,0.09690437695980071,-0.019833412238955496,0.031840478233806785
1772639522853428000,2.972427978515625,0.06248305191993713,-0.01927899322658777,0.020286526301316915
1772639522863473000,2.982472900390625,0.05746025532186031,-0.021253435104712844,0.028497232220508158
1772639522873516800,2.992516845703125,0.06386895332038402,-0.028950784674286842,0.01307633919417858
1772639522883561700,3.002561767578125,0.09396189376711844,-0.041873759937658905,0.02550210552513599
1772639522893607000,3.01260693359375,0.1229991876810789,-0.06655775401294231,0.01308463209848851
1772639522903651800,3.02265185546875,0.11591770498752593,-0.06956307330876589,0.03492591356113553
1772639522913697000,3.032697021484375,0.11699088717699051,-0.07770290594883263,0.03576254704836756
1772639522923741700,3.04274169921875,0.1014063645541668,-0.07496551687419414,0.01618416901640594
1772639522933787000,3.052786865234375,0.061712067547440526,-0.06184292738549411,0.011949234860390423
1772639522943831800,3.062831787109375,0.025767478463053703,-0.058921486980840564,0.03580854161456227
1772639522953877000,3.072876953125,-0.002042904004454613,-0.0452680785510689,0.021576675709709524
1772639522963921700,3.082921630859375,-0.018243512699007987,-0.03597184241749346,0.010499912834912539
1772639522973965800,3.0929658203125,-0.015365911436080931,-0.021304288509115577,0.01604234939292073
1772639522984011000,3.103010986328125,0.008376198679208755,0.0028162264645099637,0.007677658488415181
1772639522994056000,3.113055908203125,0.0006008885025978088,-0.0011399638153612613,-0.005708294644206762
1772639523004100900,3.123100830078125,0.03340367242991924,-0.01786291588358581,0.002242664360255003
1772639523014145800,3.133145751953125,0.061867550370097155,-0.019281258248910308,-0.006932904535718262
1772639523024191000,3.14319091796875,0.11231471205949782,-0.018243220438063142,-0.024440138849429784
1772639523034236000,3.15323583984375,0.15633330200612544,-0.023713176281750202,-0.025352394856140017
1772639523044281000,3.163281005859375,0.16694997308850287,-0.026914894932508468,-0.018790515589900313
1772639523054325800,3.17332568359375,0.17075345702469347,-0.033647052731737494,-0.033716391640901566
1772639523064371000,3.183370849609375,0.14379355390667914,-0.02481653441376984,-0.028886487266421318
1772639523074414800,3.193414794921875,0.1085427923053503,-0.02009725080691278,-0.000583864302560687
1772639523084459800,3.203459716796875,0.0734334850013256,-0.026630598098412155,0.01788527384586632
1772639523094505000,3.2135048828125,0.04840951838195324,-0.02234751395173371,0.02501096100732684
1772639523104550000,3.2235498046875,0.00911795695722103,-0.01988616533949971,0.023274894462339577
1772639523114594800,3.2335947265625,0.027225276055932043,-0.03084419720545411,0.01040021532010287
1772639523124639700,3.2436396484375,0.07097440141141415,-0.034003903345391155,0.014403788405656814
1772639523134685000,3.253684814453125,0.11637421658337116,-0.04297843324393034,0.011281528199277817
1772639523144729900,3.263729736328125,0.15737901166677473,-0.058045142537727946,0.01835073593314737
1772639523154774800,3.27377490234375,0.17286007391512392,-0.07380129540041089,0.024894202759861945
1772639523164818700,3.283818603515625,0.1719511423766613,-0.063423255379498,0.014203553125821054
1772639523174864000,3.29386376953125,0.1512245806902647,-0.07629610789082944,0.009490991520695389
1772639523184908800,3.30390869140625,0.12941665350794793,-0.04887070615291595,0.0017064385917037724
1772639523194954000,3.3139541015625,0.09024433454871177,-0.04259082216583192,-0.03186773156691342
1772639523204998700,3.32399853515625,0.07490063494443892,-0.029147257094457743,-0.02314151387363672
1772639523215043800,3.3340439453125,0.06482464661002159,-0.02959982316754758,-0.030083405433408913
1772639523225088800,3.3440888671875,0.041293548896908755,-0.017019012405350805,-0.033492044833116234
1772639523235134000,3.354134033203125,0.028518238475918768,-0.01729746402055025,-0.04090546289477497
1772639523245178600,3.3641787109375,-0.0009030863195657729,-0.017865473166853187,-0.0766908062968403
1772639523255223800,3.374223876953125,-0.015661679512262345,-0.00998158804923296,-0.0674420260341838
1772639523265268000,3.38426806640625,-0.02632920399904251,-0.018496318416297435,-0.0333980098741129
1772639523275313000,3.39431298828125,-0.03914017025530338,-0.0008454378481954336,-0.028774405194073913
1772639523285357800,3.40435791015625,-0.022834347620606422,0.003593640577793121,-0.045598917940631506
1772639523295402800,3.41440283203125,0.004095744881033897,-0.01172434006333351,-0.07597542456910014
1772639523305448000,3.424447998046875,0.09859715235233306,-0.03736534260250628,-0.06725410224664956
1772639523315492900,3.434492919921875,0.1237093817770481,-0.037087986965849994,-0.03793294989001006
1772639523325537800,3.444537841796875,0.12685352502167224,-0.06795563811212778,-0.013040318032726645
1772639523335582700,3.454582763671875,0.12259060688018798,-0.0668047875765711,-0.02181205536816269
1772639523345628000,3.4646279296875,0.07357201668918133,-0.0619596125677228,0.000050378480367362496
1772639523355672800,3.4746728515625,0.034599019694328305,-0.06956460767872631,-0.0005889423364773392
1772639523365716700,3.484716796875,0.036844168272614476,-0.05177124990001321,0.0014063231339678168
1772639523375761700,3.49476171875,0.05387245996296405,-0.03606112813614309,0.02498421913087368
1772639523385806800,3.504806884765625,0.06727028619647026,-0.022739728139713405,0.048180203138105566
1772639523395851800,3.514851806640625,0.038113165295124055,-0.030824396526440975,0.030215909239277243
1772639523405897000,3.52489697265625,0.06855448078811169,-0.031019261511415243,0.04206800386812538
1772639523415941600,3.534941650390625,0.12355097634494304,-0.016550591176003215,0.05470609777551144
1772639523425986800,3.54498681640625,0.17568682177364825,-0.027489772211015222,0.06159888949654996
1772639523436031700,3.55503173828125,0.19603402875363826,-0.026698256507143376,0.054964419918134805
1772639523446077000,3.565076904296875,0.18727087658345698,-0.02784033921435475,0.04268883918020874
1772639523456121900,3.575121826171875,0.14611995102763176,-0.014182766066119073,0.03804652979969978
1772639523466165800,3.585165771484375,0.11046996097564697,-0.0011452245123684407,0.033431729480624194
1772639523476211000,3.5952109375,0.09774725752472876,0.016176058775186537,-0.0011316343784332275
1772639523486255900,3.605255859375,0.10975859783589839,0.029714243327453732,-0.016694420093484222
1772639523496300800,3.61530078125,0.08453004855513573,0.022574673771113156,-0.03231774035673588
1772639523506345700,3.625345703125,0.07021569199860096,0.014150763492658733,-0.06037311056125909
1772639523516391000,3.635390869140625,0.08580196818709374,0.024224048413336276,-0.0752724639315158
1772639523526435800,3.645435791015625,0.10315993022322655,0.03684709088206291,-0.06650584116261452
1772639523536481000,3.65548095703125,0.08207213400900364,0.023426102968677878,-0.04538838046249002
1772639523546525700,3.665525634765625,0.06296586700081824,-0.0005813070192933083,-0.06780636583454906
1772639523556571000,3.67557080078125,0.06258768133819102,-0.010423632728308438,-0.05328651330117136
1772639523566614800,3.68561474609375,0.10536123965978622,-0.02779058178849518,-0.037573834254033864
1772639523576660000,3.695659912109375,0.11192951213419437,-0.04671740057654679,-0.055101307638175785
1772639523586704600,3.70570458984375,0.1207335808366537,-0.047243835603445763,-0.053520687383227045
1772639523596749800,3.715749755859375,0.0911754779189825,-0.038157515893504024,-0.04396974583622068
1772639523606794800,3.725794677734375,0.09061199881732464,-0.03885616568215191,-0.03317698753457516
1772639523616840000,3.73583984375,0.07355214294493198,-0.03558839605785906,-0.007474683262221515
1772639523626884600,3.745884521484375,0.06428045673072337,-0.02652998726814985,0.020414463529922065
1772639523636929800,3.7559296875,0.06877192293107509,-0.025621128794923422,0.026724852253124116
1772639523646974700,3.765974609375,0.10004267498552799,-0.003767828100919723,0.0179992190817371
1772639523657019000,3.776018798828125,0.10092705660462378,-0.019763196546956897,0.007033771094307303
1772639523667063800,3.786063720703125,0.11527063925564289,-0.027393179968744515,0.02295344395563006
1772639523677108700,3.796108642578125,0.1216571254223585,-0.019619258031621574,0.032146840769238766
1772639523687154000,3.80615380859375,0.08971943389177321,-0.03162745653763413,0.051402526185475285
1772639523697198800,3.81619873046875,0.10163491261303424,-0.039486791735887525,0.03960172335244715
1772639523707244000,3.826244140625,0.10850538290441035,-0.03508943355977535,0.023283516160212455
1772639523717288700,3.836288818359375,0.11975099954009055,-0.02422872458845377,0.004865341014042497
1772639523727334000,3.846333984375,0.15077625240087508,-0.01751943620815873,-0.007470007087104022
1772639523737378800,3.85637890625,0.1609884343355894,-0.006297492709010839,-0.011104527664557098
1772639523747424000,3.866424072265625,0.15917407839000225,-0.0030865678384900093,-0.03382445512525737
1772639523757467600,3.876467529296875,0.104865565097332,-0.0076684157360345125,-0.0458675788141787
1772639523767512800,3.886512939453125,0.04911562082469463,-0.0006125789403915405,-0.01394840932097286
1772639523777557800,3.896557861328125,0.034355274066329,0.0038882396101951595,-0.013158172258734703
1772639523787603000,3.90660302734375,0.03555471298396587,-0.0031744653176516294,-0.006383015567995608
1772639523797647600,3.916647705078125,0.05737140799462795,-0.00211458100117743,0.010463635945133864
1772639523807692800,3.92669287109375,0.08483399993777274,0.0005229278955608606,0.010043510836921631
1772639523817737700,3.93673779296875,0.1308849724948406,-0.01745009729899466,0.0012968348775058984
1772639523827783000,3.946782958984375,0.1545931803405285,-0.02218443234451115,-0.014353081131726503
1772639523837827800,3.956827880859375,0.1693897674560547,-0.01275587506815791,-0.03340348976682871
1772639523847872800,3.966872802734375,0.13695464779734612,-0.015804595114290713,-0.03710628980752081
1772639523857917000,3.9769169921875,0.09377484676241875,-0.025684914746135473,-0.035755130926892156
1772639523867961900,3.9869619140625,0.029855040037631987,-0.02574870069734752,-0.006895385536924004
1772639523878006800,3.9970068359375,-0.004364040428400039,-0.031123525603488085,0.010940240480937063
1772639523888051700,4.0070517578125,-0.035573417684435844,-0.03371683003231883,0.059884048402681946
1772639523898097000,4.017096923828125,-0.08541326113045215,-0.041482349467277524,0.06501998651903122
1772639523908141800,4.027141845703125,-0.09712298814654349,-0.04562843629606068,0.0370711819615215
1772639523918187000,4.03718701171875,-0.10268529844880103,-0.045524464464932676,0.04267316668704152
1772639523928231700,4.047231689453125,-0.048829205098748205,-0.047273865415528415,0.06869644654206931
1772639523938276900,4.05727685546875,-0.01954699651300907,-0.059772696982696646,0.06239394886437803
1772639523948321800,4.06732177734375,0.020272388178110123,-0.07656330745965242,0.03572564910408109
1772639523958366000,4.077365966796875,0.05126783042252064,-0.06763035168051719,0.024951157111488282
1772639523968410600,4.08741064453125,0.0578267505466938,-0.05282536206282675,0.028731662030890583
1772639523978455800,4.097455810546875,0.07365034262239932,-0.06869929608628153,0.0002442570846527815
1772639523988500700,4.107500732421875,0.09743044666051864,-0.04256619918122887,0.00809869691208005
1772639523998546000,4.1175458984375,0.12045184128582477,-0.032492329738661646,0.017756131040863692
1772639524008590600,4.127590576171875,0.12010872693657874,-0.02012136233486235,0.0176596483964473
1772639524018635800,4.1376357421875,0.14879063154160976,0.00430105819478631,-0.008511150170490145
1772639524028680700,4.1476806640625,0.18165595931112766,0.005088993702083826,-0.027436726849526166
1772639524038726000,4.157725830078125,0.2011918499082327,0.020398937167227266,-0.030571627341769634
1772639524048770800,4.167770751953125,0.18852876769006252,0.032077026936039324,-0.03596292845867574
1772639524058814700,4.177814697265625,0.1880979750573635,0.016018383995443582,-0.04005450862124562
1772639524068860000,4.18785986328125,0.204253575566411,0.021850962606444955,-0.05021949041336775
1772639524078904800,4.19790478515625,0.20300620585381984,0.02577515031285584,-0.03648804831132293
1772639524088950300,4.2079501953125,0.18017828797399996,0.005529284815490245,-0.044717714659310875
1772639524098995200,4.2179951171875,0.14283026183247566,-0.012299071211367845,-0.03917739699315279
1772639524109040400,4.228040283203125,0.14695231019854546,-0.017958485212549564,-0.010418372031301259
1772639524119085000,4.2380849609375,0.1518348215430975,-0.03361972633339465,-0.021461524897441266
1772639524129130200,4.248130126953125,0.13092822711467741,-0.04117613306231797,-0.015367482338659465
1772639524139175200,4.258175048828125,0.1261275488346815,-0.04620689377114177,0.021347543128952384
1772639524149219300,4.26821923828125,0.1094359417527914,-0.0760034816198051,0.03254753052461892
1772639524159264000,4.278263916015625,0.06365151117742061,-0.079583532063663,0.03035988428723067
1772639524169309200,4.28830908203125,-0.009529460367560387,-0.07181969312913715,0.02332041410449892
1772639524179354000,4.29835400390625,-0.024904139631986618,-0.0732073480952531,0.02862330628558993
1772639524189399300,4.3083994140625,0.015063713619112967,-0.06266958746798336,0.013200257834792136
1772639524199444200,4.3184443359375,0.046159693628549575,-0.06860445740967988,0.022033771827444433
1772639524209489200,4.3284892578125,0.02970890956521034,-0.0490222434528172,0.03716561877932399
1772639524219534000,4.3385341796875,0.05856967786848545,-0.04490574804469943,0.04256134034302085
1772639524229579300,4.348579345703125,0.08216039681434631,-0.04878719258792698,0.02616860660985112
1772639524239624200,4.358624267578125,0.10258183807432651,-0.028961159937828777,0.017669731399044392
1772639524249669000,4.368669189453125,0.1288245328336954,-0.015769231539964675,0.026536891932971773
1772639524259713300,4.37871337890625,0.12543255230784414,0.0010020166493952274,-0.004306318891793489
1772639524269758200,4.38875830078125,0.113797059571743,0.0070199617646634575,-0.023323336713947353
1772639524279803400,4.398803466796875,0.1364098733961582,0.0010197715017944574,-0.03729450585599989
1772639524289848000,4.40884814453125,0.13983692523539065,-0.008772285324707627,-0.03700721334721893
1772639524299893200,4.418893310546875,0.11911387068033218,-0.011537293058633803,-0.025062033607438205
1772639524309938200,4.428938232421875,0.08547054427564144,-0.010673077444732188,-0.026158706270344553
1772639524319983400,4.4389833984375,0.08351064237952231,-0.01036788395307958,-0.026165136011131105
1772639524330028300,4.4490283203125,0.08515957863032818,-0.014289149050042032,0.012251907601393759
1772639524340073200,4.4590732421875,0.060824178797006606,-0.0184744719106704,0.020823263526521623
1772639524350117000,4.4691171875,0.029058921223878858,-0.03966382880322635,0.0272438711585477
1772639524360162300,4.479162353515625,0.004955576580762863,-0.04425093739777803,0.04842062429785728
1772639524370207000,4.48920703125,-0.023307810351252553,-0.07142075693942607,0.008220094802044331
1772639524380252200,4.499252197265625,0.006232172387838363,-0.08889262767881155,0.01765661618914455
1772639524390297000,4.509297119140625,0.05137713601589203,-0.11838241460062562,0.03868135710451752
1772639524400342300,4.51934228515625,0.0928185689508915,-0.1302711514454335,0.058553311255574225
1772639524410387200,4.52938720703125,0.12306231604516506,-0.13971256820335984,0.07016516738776117
1772639524420432100,4.53943212890625,0.13234393913149833,-0.14588701905459164,0.058382740461640055
1772639524430477000,4.54947705078125,0.16525661317408083,-0.1427083159532398,0.05741528366897255
1772639524440522200,4.559522216796875,0.18636252956688404,-0.13295228028818964,0.05515650842413306
1772639524450566400,4.56956640625,0.1814192279458046,-0.10419738351218402,0.032777101496793325
1772639524460611000,4.579611083984375,0.17660159853100776,-0.054933440257981414,0.015993834076076744
1772639524470656300,4.58965625,0.19839082101285457,-0.030586130791157483,-0.006412862716987729
1772639524480701200,4.599701171875,0.20923311754465101,-0.008776303912699223,-0.02715063991714269
1772639524490746400,4.609746337890625,0.19188743046820161,0.009966025153920054,-0.03574669189210981
1772639524500791000,4.619791015625,0.15903963835537432,0.04009279480502009,-0.0418770844059065
1772639524510836200,4.629836181640625,0.10051496867239475,0.06446684614829719,-0.07479260799270122
1772639524520881200,4.639881103515625,0.040135611033439635,0.06759374599717557,-0.09918065132871269
1772639524530926300,4.64992626953125,0.043348727861046786,0.0685357760876417,-0.11383136370014399
1772639524540971300,4.65997119140625,0.0416840095192194,0.06524762126244604,-0.10313786452189087
1772639524551015200,4.67001513671875,0.0025379940450191494,0.052108445965126156,-0.0958282356282696
1772639524561060000,4.68006005859375,0.0014560440272092818,0.03124569067843258,-0.09522829697374253
1772639524571105300,4.690105224609375,-0.011723171019554137,0.013922507694736122,-0.07833904842790215
1772639524581150200,4.700150146484375,-0.013063479712605476,-0.028334844733029604,-0.056547451325878496
1772639524591195100,4.710195068359375,0.011498714613914489,-0.06068316289111971,-0.029756803827546537
1772639524601240000,4.720239990234375,0.04549567676186561,-0.07288366909883916,-0.001021963458880782
1772639524611285200,4.73028515625,0.05167056600451469,-0.09322400794662535,0.028426943463273346
1772639524621330200,4.740330078125,0.046774026134610173,-0.10896182143501937,0.023611615603417156
1772639524631375000,4.750375,0.05623860457241535,-0.11650763370469212,0.06263192233871669
1772639524641420000,4.760419921875,0.08965864361524581,-0.13083433828614652,0.09316716319285333
1772639524651464200,4.770464111328125,0.09107260206639767,-0.11986585809141397,0.0776055099889636
1772639524661509400,4.78050927734375,0.10609364558756351,-0.10076002947464585,0.06725147189814597
1772639524671554000,4.790553955078125,0.12677870621979237,-0.0908143164563924,0.07395834912564606
1772639524681599200,4.80059912109375,0.14442776015698908,-0.07548157663755119,0.059824646365642546
1772639524691644200,4.81064404296875,0.14063362857103348,-0.06518105883225798,0.046881103238277134
1772639524701689300,4.820689453125,0.14473931032419204,-0.04133921466954052,0.0635023119650781
1772639524711734300,4.830734375,0.13744681522846222,-0.023688334101438523,0.0525131543084979
1772639524721779200,4.840779296875,0.08942775746881962,0.018447510838508607,0.02623969908468425
1772639524731824000,4.85082421875,0.08089958309829234,0.02666559634655714,-0.013995572930946946
1772639524741869300,4.860869384765625,0.11835808387696742,0.037246611593663694,-0.012887282895483076
1772639524751913000,4.870912841796875,0.14450082539319992,0.04240677083581686,-0.0008598682323470711
1772639524761958100,4.880958251953125,0.14822832148373127,0.03341346317157149,0.010616671082377432
1772639524772003000,4.891003173828125,0.13548340620100496,0.007454480724409222,-0.0011628697669133544
1772639524782048300,4.90104833984375,0.1284030925512314,-0.0021701105806976556,-0.001481361131556332
1772639524792093200,4.91109326171875,0.12472235821187495,-0.0005459434449672699,-0.029388189710862933
1772639524802138000,4.92113818359375,0.13210253159105778,-0.005333104656264185,-0.05074851925615221
1772639524812183000,4.93118310546875,0.14664660525023937,-0.023895620176568627,-0.06022957390472292
1772639524822228200,4.941228271484375,0.15847148307859896,-0.02419065760038793,-0.07507694135941564
1772639524832273200,4.951273193359375,0.15407354038059712,-0.015054799660295248,-0.08940313448421656
1772639524842318300,4.961318359375,0.14469021048545835,-0.028811887660250068,-0.06509305175524205
1772639524852362200,4.9713623046875,0.12345803736448287,-0.02138648689985275,-0.04183719078693539
1772639524862407200,4.9814072265625,0.07919161013662815,-0.02528349433839321,-0.023934746610559523
1772639524872452400,4.991452392578125,0.06445113712251185,-0.02098879281915724,0.009953859792090953
1772639524882497000,5.0014970703125,0.08509060504734516,-0.017330781768262384,0.030283056191354987
1772639524892542200,5.011542236328125,0.09048924922049045,-0.010908785896748303,0.01869268123861402
1772639524902587100,5.021587158203125,0.07777180646657943,-0.022648542724922296,0.010393091459572314
1772639524912632300,5.03163232421875,0.04916238257586956,-0.021849574366956948,0.02001651372089982
1772639524922677200,5.04167724609375,0.050769817772507664,-0.028848274147883057,0.03174103644732386
1772639524932722200,5.05172216796875,0.03007014409303665,-0.028660715686529874,0.009537534076161681
1772639524942766000,5.06176611328125,0.010579846203327178,-0.03458784071318805,0.021475407292321322
1772639524952811300,5.071811279296875,0.009233692291378975,-0.04773293429464102,0.02406261077392846
1772639524962856200,5.081856201171875,0.006911971345543861,-0.06349566302858292,0.031004356203228233
1772639524972901000,5.091901123046875,0.015124503895640372,-0.05740947498269379,0.06676080230437219
1772639524982946000,5.101946044921875,0.03730710960924625,-0.06016410745307803,0.051401649402640755
1772639524992991200,5.1119912109375,0.03482698323130608,-0.04982318457216024,0.02442647565025836
1772639525003036200,5.1220361328125,0.0806879861742258,-0.049997372095286846,0.003995937768369913
1772639525013081000,5.1320810546875,0.10123860677182674,-0.04625051371715962,0.006513181286305189
1772639525023126000,5.1421259765625,0.10918109020888805,-0.054695539848878975,0.011432882836088537
1772639525033171200,5.152171142578125,0.10632160912454128,-0.039964273054525254,0.013662724247388541
1772639525043215400,5.16221533203125,0.09998071566522121,-0.03691891400925815,0.005023308054730296
1772639525053260000,5.172260009765625,0.10321721336841583,-0.037767201401665805,0.009961970033310353
1772639525063305200,5.18230517578125,0.11037468390762806,-0.03781315943524241,0.01657795410696417
1772639525073350100,5.19235009765625,0.11529109752178192,-0.037048312542587516,0.002682517082244158
1772639525083394600,5.20239453125,0.1092792898863554,-0.023091537252068518,0.00417805286962539
1772639525093439200,5.212439208984375,0.08723170872926711,-0.02504990477822721,-0.0063621554430574176
1772639525103484400,5.222484375,0.08372340834736823,-0.02210208782330155,-0.0031807854605838655
1772639525113529300,5.232529296875,0.0906833104878664,-0.010692951188981533,-0.002196962055005133
1772639525123574500,5.242574462890625,0.08205693643987179,-0.008812544269859791,0.01879964874442667
1772639525133619500,5.252619384765625,0.061606269085407256,-0.033012335024774075,0.0042049774091690775
1772639525143663400,5.262663330078125,0.04446282658278942,-0.030573709701001643,0.005894684061780572
1772639525153708500,5.27270849609375,0.026446692898869514,-0.029839623272791504,0.029615641791187225
1772639525163753500,5.28275341796875,0.02131809783875942,-0.03247589006051421,0.0503204665698111
1772639525173798400,5.29279833984375,0.005617839881777763,-0.039368937509879465,0.03753883600588888
1772639525183843300,5.30284326171875,0.015430208843946455,-0.05238938179835677,0.031097112520597874
1772639525193888500,5.312888427734375,0.02737842079102993,-0.046510772088542575,0.034205599929951126
1772639525203933400,5.322933349609375,0.04804419220089912,-0.030193478211760518,0.02778539415672421
1772639525213978600,5.332978515625,0.07996551711857318,-0.04400916453115642,0.01224759675245732
1772639525224023300,5.343023193359375,0.10156184737682342,-0.03509469425678253,-0.01108341181129217
1772639525234068500,5.353068359375,0.1386924313753843,-0.015838643514364956,-0.04262560121826827
1772639525244112400,5.3631123046875,0.1735112313002348,-0.012472162755951284,-0.03853708979561925
1772639525254157600,5.373157470703125,0.1681423977434635,-0.006236410171538591,-0.03178776166588068
1772639525264202200,5.3832021484375,0.183065241587162,0.015693828216195107,-0.04550287368763238
1772639525274247400,5.393247314453125,0.1681651940971613,0.024014570381119846,-0.0752495214473456
1772639525284292400,5.403292236328125,0.12162439219653606,0.040158115126192565,-0.09964680753573775
1772639525294337500,5.413337646484375,0.14300094222426413,0.04150865295231342,-0.10780439502820371
1772639525304382200,5.42338232421875,0.17969605741500855,0.04278159549757838,-0.08755396295357495
1772639525314427400,5.433427490234375,0.1935094787120819,0.034782778763398525,-0.051217050083354115
1772639525324472300,5.443472412109375,0.1620908426195383,0.02519303957596421,-0.032863026214577255
1772639525334517500,5.453517578125,0.12507424038946627,0.013864859223365783,-0.03206789378151297
1772639525344561400,5.4635615234375,0.10315174691677093,0.009351692647859454,-0.01694499732106924
1772639525354606300,5.4736064453125,0.08933189587891101,-0.0055046618308871986,0.009207498404197394
1772639525364651500,5.483651611328125,0.08364975858926772,-0.029913492226600644,0.016965090261027216
1772639525374696400,5.493696533203125,0.08444529288113117,-0.041045638550445435,0.010154935322143137
1772639525384741600,5.50374169921875,0.09213058668673038,-0.048567485422641034,0.004431881500221789
1772639525394786300,5.513786376953125,0.10053308885097503,-0.057398369066789745,0.006468136568181217
1772639525404831500,5.52383154296875,0.10497545521259308,-0.06769413763172924,0.018727935215085745
1772639525414876400,5.53387646484375,0.08958207124769688,-0.07555515333041549,0.025112046761624512
1772639525424921600,5.543921630859375,0.07785773118436336,-0.05942381047978997,0.03278320244401693
1772639525434966300,5.55396630859375,0.01751052224934101,-0.05344765867963433,0.05099661226570606
1772639525445010400,5.564010498046875,-0.02344868012666702,-0.04288761315532028,0.05988119885846972
1772639525455055400,5.574055419921875,-0.014011574217677115,-0.044337008246034385,0.05006473824307322
1772639525465100500,5.5841005859375,-0.01360182437300682,-0.04417319598644972,0.03910330884363502
1772639525475145200,5.594145263671875,-0.014019173002243042,-0.03893887552954256,-0.012826273423247039
1772639525485190400,5.6041904296875,-0.02131517522931099,-0.03705108902156353,-0.02437741234414279
1772639525495235300,5.6142353515625,-0.02428746903836727,-0.044990576783940195,-0.03164057174753398
1772639525505280500,5.624280517578125,0.005512625941634178,-0.03993899248279631,-0.05068871536031365
1772639525515325400,5.634325439453125,0.026640169644355772,-0.024485256632789967,-0.028956301099620756
1772639525525370400,5.644370361328125,0.04885200145244598,-0.03599251987934112,-0.04598075686506927
1772639525535415300,5.654415283203125,0.09415069433748721,-0.03243015122264623,-0.02428144115637988
1772639525545459500,5.66445947265625,0.13753507803380488,-0.02853007504418492,-0.017131021412461995
1772639525555504400,5.67450439453125,0.15786942553222177,-0.027671047062054276,-0.0202020263556391
1772639525565549300,5.68454931640625,0.1635065546363592,-0.043467458869889376,-0.018059717097319662
1772639525575594500,5.694594482421875,0.1618809992611408,-0.03402319256775081,0.005357691108249128
1772639525585639400,5.704639404296875,0.14984803164005278,-0.04143938710838556,-0.0036189576821401715
1772639525595684600,5.7146845703125,0.101676413667202,-0.033379049445316195,0.00419540586322546
1772639525605729300,5.724729248046875,0.05089607450067997,-0.026734716060012577,0.0309750935761258
1772639525615774500,5.7347744140625,0.01403144796192646,-0.009757350839301944,0.0444100369496271
1772639525625819400,5.7448193359375,-0.011712065103650093,-0.018477979042008517,0.05238346351422369
1772639525635864600,5.754864501953125,-0.012822656694054602,-0.0076947192210704085,0.0450554221810773
1772639525645908500,5.764908447265625,-0.010959785431623459,0.0027321283776313063,0.06366546663753687
1772639525655953400,5.774953369140625,-0.009699556237459182,0.009245236598700284,0.04311269061546773
1772639525665998300,5.784998291015625,0.004068272352218628,-0.0020799480792134998,0.041854799508862194
1772639525676043500,5.79504345703125,0.059148354539275166,0.0009421031557023525,0.022772863224335013
1772639525686088400,5.80508837890625,0.07165244680345058,-0.021793606396019457,-0.005666647459566593
1772639525696133400,5.81513330078125,0.08182020507454872,-0.0393684991184622,-0.00808762752879411
1772639525706178300,5.82517822265625,0.09113280782103537,-0.05465550009943545,-0.045011254245787856
1772639525716223500,5.835223388671875,0.09945639953017234,-0.060183981197327374,-0.02853365524075925
1772639525726268400,5.845268310546875,0.13695464779734612,-0.060765726608037945,-0.003955350029654801
1772639525736312300,5.855312255859375,0.11869535300731658,-0.042529666563123465,0.00038165626134723424
1772639525746357500,5.865357421875,0.09330430664122104,-0.05044760008081794,0.01981920105051249
1772639525756402400,5.87540234375,0.0993669676810503,-0.05762465210333466,-0.005885185581073165
1772639525766447600,5.885447509765625,0.13134966739714146,-0.039955432160943744,0.011012100140750408
1772639525776492300,5.8954921875,0.1449281108945608,-0.05390358575358987,-0.007194003157317638
1772639525786537500,5.905537353515625,0.17730244027674197,-0.04964125213399529,-0.04516407018732279
1772639525796582400,5.91558251953125,0.1534942791879177,-0.03494118419550359,-0.04221322102509439
1772639525806627600,5.925627685546875,0.10269932697415352,-0.03828245744742453,0.014542173963040113
1772639525816672300,5.93567236328125,0.0577308889567852,-0.02160100643336773,0.026880115880072115
1772639525826717400,5.945717529296875,0.011601590466499327,0.004468523716181516,0.015054799660295248
1772639525836761600,5.95576171875,-0.006633738926053047,0.01657572561725974,-0.02781114965248853
1772639525846806500,5.965806640625,0.01921498807966709,0.013798735184594988,-0.010052461328357458
1772639525856851500,5.9758515625,0.07746259438693523,0.00806413705535233,0.000517009611427784
1772639525866896400,5.985896484375,0.13048749760985373,-0.00008439034782350063,0.014137392554432153
1772639525876941600,5.995941650390625,0.14409458267986774,-0.027698811851814387,0.02303060084506869
1772639525886986500,6.005986572265625,0.16884207044541835,-0.03453099595941603,0.01191018149163574
1772639525897031400,6.016031494140625,0.14384791444242,-0.03169862207770347,-0.0307718991542235
1772639525907076400,6.026076416015625,0.12183482007682322,-0.02246675641722977,-0.01956029438599944
1772639525917121500,6.03612158203125,0.10252864658236503,-0.02239997479133308,-0.012063545422442257
1772639525927166500,6.04616650390625,0.11977145780622958,-0.027014921240881083,-0.01087554121427238
1772639525937210400,6.05621044921875,0.1321276660323143,-0.027313319665566084,-0.0008072247296571731
1772639525947255300,6.06625537109375,0.09494564410746097,-0.04557436802126467,-0.015062252314388751
1772639525957300500,6.076300537109375,0.08076455854177475,-0.03834200561493635,-0.03305193638280034
1772639525967345400,6.086345458984375,0.06772329066097736,-0.028861572020873427,-0.03954272317420691
1772639525977390600,6.096390625,0.058365095207095145,-0.04885477793142199,-0.029894020341150462
1772639525987435300,6.106435302734375,0.0561883356899023,-0.03519450136944651,-0.027571934069134295
1772639525997480400,6.11648046875,0.06138824242055416,-0.03309906346015632,0.0013266089612618088
1772639526007525400,6.126525390625,0.03973404449522495,-0.026986644994467495,-0.007052475794777273
1772639526017570600,6.136570556640625,0.06377192268669604,-0.019908815562725064,-0.03135850340314209
1772639526027615500,6.146615478515625,0.09727671740353107,-0.027048092858120796,-0.04345127492006868
1772639526037659400,6.156659423828125,0.11758826854825019,-0.039427681959792966,-0.046229763190075754
1772639526047704600,6.16670458984375,0.10567746600210666,-0.0390815719358623,-0.05005235368553549
1772639526057749500,6.17674951171875,0.10776420914828777,-0.0405836470618844,-0.03571443359032273
1772639526067794400,6.18679443359375,0.07746200986504555,-0.03343735550381243,-0.018857735607214272
1772639526077839400,6.19683935546875,0.05297580338418483,-0.038501360895112156,-0.005218428768031299
1772639526087884800,6.206884765625,0.06413783338963985,-0.027774069045111534,0.00526204871404916
1772639526097930000,6.216929931640625,0.08927227464616298,-0.043155178050324317,0.02722213425077498
1772639526107975000,6.226974853515625,0.10921499247848987,-0.04701784482784569,0.0227491535551846
1772639526118019800,6.237019775390625,0.10641980880200862,-0.032350583180412645,0.015623868252523243
1772639526128064800,6.247064697265625,0.09569266308248042,-0.033167744782194496,0.0185203934116289
1772639526138109000,6.25710888671875,0.09261573985517024,-0.03489588374905288,0.010459873085469007
1772639526148154000,6.267154052734375,0.09851356572210788,-0.04285743721276521,0.024238223069161176
1772639526158198800,6.27719873046875,0.11396832448542117,-0.043342225055024025,0.01785297901146114
1772639526168244000,6.287243896484375,0.1388286249756813,-0.03870930455736816,0.018684388334304095
1772639526178289000,6.297288818359375,0.15017244128882884,-0.047460400963574643,0.018433664976246655
1772639526188334000,6.307333984375,0.13590192387402056,-0.04615669795386493,-0.008218231638520956
1772639526198379000,6.31737890625,0.11408347529768943,-0.029650895767658947,-0.011054952901788056
1772639526208424000,6.327423828125,0.08652560628652572,-0.027330489996075628,0.006028758770227432
1772639526218468900,6.33746875,0.06268120484054088,-0.003988412049040198,-0.002098835442773998
1772639526228514000,6.34751416015625,0.05966682545542717,0.0014288637593388557,-0.012286759719066322
1772639526238558000,6.357557861328125,0.0587982259273529,0.0094978231202811,-0.00033430998828262086
1772639526248603000,6.367602783203125,0.06473638380467892,0.010000511945411562,0.002392557692341506
1772639526258647800,6.377647705078125,0.046020577418804165,-0.01271145140454173,0.003971826240420341
1772639526268693000,6.38769287109375,0.03868307413756847,-0.03615567455179989,0.005078253112360835
1772639526278738000,6.397738037109375,0.039732290929555894,-0.019171148937940596,0.0013831249214708804
1772639526288782800,6.407782958984375,0.0861386527955532,-0.030549817368760702,-0.0024895152607932684
1772639526298827800,6.417827880859375,0.10353986945152283,-0.04714402849078178,0.00025061376020312306
1772639526308873000,6.427873046875,0.12766484140455722,-0.05418927082717418,0.01658686806578189
1772639526318918000,6.43791796875,0.17676351109445093,-0.07482917714342474,0.015724954006820915
1772639526328961800,6.4479619140625,0.20113222867548464,-0.0677937986139208,-0.00670815586913377
1772639526339007000,6.458007080078125,0.19666940404772756,-0.07740648028552531,-0.03290850932411849
1772639526349052000,6.468052001953125,0.1479249546229839,-0.06455700864978134,-0.026942477059178054
1772639526359097000,6.47809716796875,0.1224631811082363,-0.04555807447358966,-0.010028897789679468
1772639526369142000,6.48814208984375,0.06873918970525264,-0.04627586735412478,0.009492452825419604
1772639526379187000,6.49818701171875,0.035730069550871844,-0.04538600584231317,0.011215075366944074
1772639526389231900,6.50823193359375,0.020261866784095764,-0.033253231108561154,-0.006975574633665382
1772639526399277000,6.518277099609375,-0.004604278925061225,-0.042905221877247095,-0.03822776811812073
1772639526409322000,6.528322021484375,-0.02404313888847828,-0.04517323987446725,-0.019790997869335115
1772639526419367000,6.538366943359375,-0.007797522008419037,-0.045283714511618015,0.01583791286200285
1772639526429410800,6.548410888671875,0.002537409523129463,-0.038063919325917954,0.05373524344936013
1772639526439456000,6.5584560546875,0.003495440900325775,-0.055040919220447536,0.03516509261187166
1772639526449501000,6.5685009765625,0.01331599316895008,-0.06719597885124384,0.00414389487169683
1772639526459545900,6.5785458984375,0.05322480970919132,-0.06443206709586083,-0.02681797389667481
1772639526469590800,6.5885908203125,0.0873024358779192,-0.05222301225550473,-0.02866097141485661
1772639526479636000,6.598635986328125,0.09622223991453648,-0.05522102502770722,-0.037685076076164836
1772639526489681000,6.608680908203125,0.14011457313299178,-0.05598682176843285,-0.03799859900474548
1772639526499725800,6.618725830078125,0.15941782401800156,-0.04043452091477811,-0.027410058038309214
1772639526509770800,6.628770751953125,0.161759418708086,-0.04755925822816789,-0.009856536897458135
1772639526519816000,6.63881591796875,0.16240297730863093,-0.0500625462859869,-0.01361910430137068
1772639526529860000,6.648860107421875,0.16824761168360708,-0.03870806244835257,-0.0010278086777776479
1772639526539904800,6.65890478515625,0.11809271093904972,-0.01623136915899813,0.019202932315692305
1772639526549950000,6.668949951171875,0.07167933481037617,0.002454845806211233,0.016341368872113526
1772639526559995000,6.678994873046875,0.021404607078433037,0.0074690937716513865,0.009907098040916025
1772639526570040000,6.6890400390625,0.005768646529316902,-0.0024758155290037394,0.008499788526259362
1772639526580085000,6.6990849609375,0.027023616003990173,0.005481207890063524,0.02356357521060854
1772639526590130000,6.7091298828125,0.06601999387443065,0.0016341770730912684,0.022864596628397703
1772639526600174800,6.7191748046875,0.09278583572506904,-0.01737827417179942,0.007387735631130635
1772639526610220000,6.729219970703125,0.11126257265806197,-0.03828318809978664,0.01673807657212019
1772639526620265000,6.739264892578125,0.13354337804913521,-0.04896547176428139,0.012472126223333178
1772639526630308900,6.749308837890625,0.1535199981510639,-0.05048215993754565,0.0052138987233862275
1772639526640353800,6.759353759765625,0.15940964071154592,-0.06460040940009057,0.010139737753011286
1772639526650399000,6.76939892578125,0.14554770409762857,-0.06159859723560512,0.0007294833183288574
1772639526660444000,6.77944384765625,0.13632394867837427,-0.05407492373250425,0.0009448796346783637
1772639526670488800,6.78948876953125,0.10122165563702583,-0.0386043098129332,0.0029741204399615522
1772639526680533800,6.79953369140625,0.07541501420736313,-0.03429667574688792,-0.013444441854208707
1772639526690579000,6.809578857421875,0.08090309022963046,-0.04545965560041368,-0.034106194676086304
1772639526700624000,6.819623779296875,0.07473696881532668,-0.03678527769222855,-0.05936338552944362
1772639526710669000,6.8296689453125,0.05465630381703376,-0.036753421249240636,-0.07597798185236751
1772639526720713700,6.839713623046875,0.060036243289709086,-0.02791318525485694,-0.07905804688483477
1772639526730758000,6.8497578125,0.04878361239135265,-0.04083930232338607,-0.0714074590664357
1772639526740803000,6.859802978515625,0.05290040006041526,-0.050817090980336065,-0.08821418042797595
1772639526750848000,6.869847900390625,0.02121054581105709,-0.03073576839491725,-0.06741495536416768
1772639526760893000,6.879892822265625,0.020500351715087888,-0.02566445647999644,-0.052532151269912716
1772639526770937900,6.889937744140625,0.03945464303195476,-0.021050313748046754,-0.04825757922325283
1772639526780983000,6.899983154296875,0.03903729440271854,-0.033046967946738004,-0.029393340810015794
1772639526791028000,6.910028076171875,0.07010580188333988,-0.0345274157628417,-0.03474763438478112
1772639526801073000,6.920072998046875,0.07294657826721668,-0.043325054724514485,-0.01627151850629598
1772639526811117800,6.930117919921875,0.10257657737731933,-0.04834916649684309,-0.015420162373967468
1772639526821163000,6.9401630859375,0.1260568216860294,-0.036816695743799206,-0.02972586070001125
1772639526831207000,6.95020703125,0.1600999610632658,-0.05122881358638406,-0.010351663470640779
1772639526841251800,6.960251953125,0.13975333860516548,-0.040402737537026404,0.005668474090471863
1772639526851297000,6.970297119140625,0.1238274551987648,-0.03272862271256745,0.012615041825361549
1772639526861342000,6.980342041015625,0.1247638592660427,-0.03237162596844136,0.037679157792031764
1772639526871387000,6.990386962890625,0.0906657748311758,-0.027122765529528258,0.02513031307067722
1772639526881432000,7.00043212890625,0.06542728867828845,-0.01773417493738234,0.03936203284505754
1772639526891477000,7.01047705078125,0.04995967043340206,-0.023230507331341504,0.03642963265497237
1772639526901522000,7.02052197265625,0.06913666459023952,-0.0272418618645519,0.008223674998618662
1772639526911566800,7.03056689453125,0.0927741452872753,-0.00848594266399741,0.013358407538570463
1772639526921612000,7.040612060546875,0.08539104929864406,0.004590542660653591,0.025093707387335597
1772639526931656000,7.050656005859375,0.10958733292222023,-0.021755612473189828,0.047695451828464866
1772639526941700900,7.060700927734375,0.154070033249259,-0.022044293221458792,0.13851981475483624
1772639526951746000,7.07074609375,0.13628244762420655,0.020629019596055148,0.16103121403139084
1772639526961791000,7.080791015625,0.1878320175975561,-0.004908887894824147,0.11422387014906853
1772639526971836000,7.0908359375,0.253047709351778,-0.07235314241871238,0.000848944979533553
1772639526981880800,7.100880859375,0.26604689165651796,-0.11329692802987992,-0.06631861149482429
1772639526991926000,7.110926025390625,0.25450141529142856,-0.110633554039523,-0.09054602090902626
1772639527001971000,7.120970947265625,0.19711831685900688,-0.09333996247649193,-0.07192454174309969
1772639527012015900,7.131015869140625,0.06706102735996246,-0.07499532749056816,-0.06857640035897493
1772639527022060800,7.141060791015625,-0.14348083469569684,0.015895269072428345,-0.04894150636680424
1772639527032105000,7.15110498046875,-0.23301731323599814,-0.015433935170993208,0.017729937153682113
