time,seconds_elapsed,z,y,x
1772639519934129200,0.053129150390625,0.023396136239171028,-0.02155456133186817,-0.002499643014743924
1772639519944174000,0.063174072265625,0.027059048414230347,-0.032888174057006836,-0.015060708858072758
1772639519954219000,0.073218994140625,0.031005319207906723,-0.04116528108716011,-0.022293055430054665
1772639519964264200,0.08326416015625,0.03362241014838219,-0.043835632503032684,-0.02461879327893257
1772639519974309000,0.09330908203125,0.035474635660648346,-0.043415118008852005,-0.024705613031983376
1772639519984354300,0.103354248046875,0.030416496098041534,-0.04117566719651222,-0.02936774305999279
1772639519994399000,0.11339892578125,0.02882871776819229,-0.03484666347503662,-0.03326714411377907
1772639520004444200,0.123444091796875,0.026151176542043686,-0.020350812003016472,-0.033317744731903076
1772639520014489000,0.133489013671875,0.024867532774806023,-0.010641725733876228,-0.03640168160200119
1772639520024533000,0.143532958984375,0.021096762269735336,0.0005193164106458426,-0.032401613891124725
1772639520034578200,0.153578125,0.01660134643316269,0.008205732330679893,-0.0265948586165905
1772639520044623000,0.163623046875,0.012942962348461151,0.006685066968202591,-0.02028662897646427
1772639520054668300,0.173668212890625,0.013740579597651958,0.0046160570345819,-0.013431386090815067
1772639520064713200,0.183713134765625,0.020971594378352165,0.0026612968649715185,-0.008464857004582882
1772639520074758100,0.193758056640625,0.02309652976691723,0.0007627293234691024,-0.005398760084062815
1772639520084803800,0.203803955078125,0.019220300018787384,-0.009221994318068027,-0.005449360236525536
1772639520094848800,0.213848876953125,0.015362977050244808,-0.011205783113837242,-0.008134093135595322
1772639520104894000,0.22389404296875,0.010675014927983284,-0.011495002545416355,-0.01008246187120676
1772639520114939000,0.23393896484375,0.006124471314251423,-0.02088876999914646,-0.013873204588890076
1772639520124982800,0.243982666015625,0.006061621010303497,-0.032034099102020264,-0.018811238929629326
1772639520135028000,0.254028076171875,0.005573463626205921,-0.03329670429229736,-0.022399848327040672
1772639520145073000,0.264072998046875,0.002029328839853406,-0.03249535709619522,-0.02611256018280983
1772639520155118000,0.2741181640625,0.002074069809168577,-0.031139543280005455,-0.032337434589862823
1772639520165162800,0.284162841796875,0.00284984870813787,-0.023606525734066963,-0.0337129570543766
1772639520175208000,0.2942080078125,0.004769721534103155,-0.017002418637275696,-0.03632578253746033
1772639520185252900,0.3042529296875,0.008324508555233479,-0.015628760680556297,-0.04206356406211853
1772639520195298000,0.314298095703125,0.011783156543970108,-0.021817414090037346,-0.044198885560035706
1772639520205343000,0.324343017578125,0.014274010434746742,-0.023958595469594002,-0.0397985465824604
1772639520215388000,0.334387939453125,0.021869080141186714,-0.02858077920973301,-0.03145726025104523
1772639520225431800,0.344431884765625,0.029759226366877556,-0.026093652471899986,-0.0157691091299057
1772639520235477000,0.35447705078125,0.032890573143959045,-0.017784589901566505,0.0009925601771101356
1772639520245521700,0.364521728515625,0.03339124470949173,-0.01449824869632721,0.018490860238671303
1772639520255566800,0.37456689453125,0.026144783943891525,-0.020720191299915314,0.029578665271401405
1772639520265611800,0.38461181640625,0.019869312644004822,-0.03086257539689541,0.03157150745391846
1772639520275657000,0.394656982421875,0.015487613156437874,-0.032052475959062576,0.02793309837579727
1772639520285702000,0.404701904296875,0.017238907516002655,-0.03244635835289955,0.019327359274029732
1772639520295746800,0.414746826171875,0.018443189561367035,-0.02484995685517788,0.01209794171154499
1772639520305791700,0.424791748046875,0.016750751063227654,-0.015230085700750351,0.005711148958653212
1772639520315836000,0.4348359375,0.014742727391421795,-0.012474779039621353,0.002071140334010124
1772639520325881000,0.444881103515625,0.016681775450706482,-0.009137571789324284,-0.00009161273919744417
1772639520335925800,0.45492578125,0.018071146681904793,-0.004156928043812513,0.002752376953139901
1772639520345971000,0.464970947265625,0.013021525926887989,-0.008081628940999508,0.0034874093253165483
1772639520356015900,0.475015869140625,0.010188189335167408,-0.010734403505921364,0.0035358788445591927
1772639520366061000,0.48506103515625,0.008356733247637749,-0.008400941267609596,0.00040613205055706203
1772639520376105700,0.495105712890625,0.0043625240214169025,-0.0043896883726119995,-0.007454720325767994
1772639520386151000,0.50515087890625,-0.00011877698125317693,0.0010221211705356836,-0.014651646837592125
1772639520396195800,0.51519580078125,-0.0034461303148418665,0.004027232062071562,-0.02046452835202217
1772639520406241000,0.525240966796875,-0.00227860058657825,0.006296778097748756,-0.021086642518639565
1772639520416284700,0.53528466796875,0.0006591323763132095,0.002781671704724431,-0.01919686421751976
1772639520426329900,0.545329833984375,0.003344131400808692,-0.01005290076136589,-0.014859640039503574
1772639520436374800,0.555374755859375,0.00013662016135640442,-0.023569241166114807,-0.012252938002347946
1772639520446420000,0.565419921875,-0.003867176128551364,-0.02732696197926998,-0.013249492272734642
1772639520456465000,0.57546484375,-0.008613461628556252,-0.023682160302996635,-0.01888367533683777
1772639520466509800,0.585509765625,-0.012972258031368256,-0.016952086240053177,-0.0231721643358469
1772639520476554800,0.5955546875,-0.013413277454674244,-0.00771837355569005,-0.030809311196208
1772639520486600000,0.605599853515625,-0.013392770662903786,-0.005495699122548103,-0.03654070198535919
1772639520496644900,0.615644775390625,-0.011085674166679382,-0.004232295788824558,-0.03699690103530884
1772639520506689800,0.625689697265625,-0.008236624300479889,-0.006404635962098837,-0.03819851949810982
1772639520516734000,0.63573388671875,-0.01028805784881115,-0.008682171814143658,-0.03672073036432266
1772639520526779000,0.64577880859375,-0.009161007590591908,-0.01324203610420227,-0.03290894627571106
1772639520536824000,0.655823974609375,-0.007517571095377207,-0.01082734763622284,-0.03140079975128174
1772639520546868700,0.66586865234375,-0.007742874324321747,-0.00558012118563056,-0.027966387569904327
1772639520556914000,0.675913818359375,-0.011355185881257057,-0.007489075418561697,-0.028976257890462875
1772639520566958800,0.685958740234375,-0.011020959354937077,-0.011201255023479462,-0.028063591569662094
1772639520577004000,0.696004150390625,-0.01516750082373619,-0.012132029980421066,-0.02773495763540268
1772639520587049000,0.706049072265625,-0.020110061392188072,-0.013937386684119701,-0.025128522887825966
1772639520597094000,0.716093994140625,-0.02177693508565426,-0.013366671279072762,-0.02618340030312538
1772639520607137800,0.7261376953125,-0.024232368916273117,-0.013421266339719296,-0.03062475472688675
1772639520617183000,0.736182861328125,-0.021465077996253967,-0.01531663816422224,-0.03834552317857742
1772639520627228000,0.746227783203125,-0.019364377483725548,-0.014488128945231438,-0.045632731169462204
1772639520637272800,0.75627294921875,-0.01715954579412937,-0.010117349214851856,-0.048837848007678986
1772639520647317800,0.76631787109375,-0.022062957286834717,-0.0075841499492526054,-0.04807671532034874
1772639520657363000,0.776363037109375,-0.023069366812705994,-0.010041715577244759,-0.04451127350330353
1772639520667408000,0.786407958984375,-0.02183818630874157,-0.01805942691862583,-0.039577238261699677
1772639520677452800,0.796452880859375,-0.01769963465631008,-0.02046079933643341,-0.03410017862915993
1772639520687497700,0.806497802734375,-0.01685195043683052,-0.015533152967691422,-0.02835041470825672
1772639520697543000,0.81654296875,-0.018077271059155464,-0.006200638134032488,-0.022789735347032547
1772639520707587000,0.826587158203125,-0.023272832855582237,-0.0016911072889342904,-0.017717212438583374
1772639520717631700,0.8366318359375,-0.028258802369236946,-0.006879477761685848,-0.01347666047513485
1772639520727677000,0.846677001953125,-0.028595158830285072,-0.01853799819946289,-0.006383863277733326
1772639520737721900,0.856721923828125,-0.024896562099456787,-0.023510385304689407,-0.00155288923997432
1772639520747767000,0.86676708984375,-0.02262834645807743,-0.02105335332453251,0.003766775131225586
1772639520757811700,0.876811767578125,-0.020501812919974327,-0.01369104441255331,0.009730124846100807
1772639520767857000,0.88685693359375,-0.020502611994743347,-0.011152786202728748,0.014005297794938087
1772639520777901800,0.89690185546875,-0.023239275440573692,-0.010275008156895638,0.01715288870036602
1772639520787947000,0.906947021484375,-0.02202753722667694,-0.01077035628259182,0.014511298388242722
1772639520797992000,0.916991943359375,-0.019878100603818893,-0.006069610361009836,0.008564991876482964
1772639520808035800,0.927035888671875,-0.01702425628900528,-0.003141997382044792,0.0002436792419757694
1772639520818081000,0.9370810546875,-0.017771007493138313,-0.00390259618870914,-0.011392470449209213
1772639520828126000,0.9471259765625,-0.021880798041820526,-0.0033569145016372204,-0.024651816114783287
1772639520838171000,0.9571708984375,-0.02412930503487587,0.0007803061744198203,-0.031079355627298355
1772639520848215800,0.9672158203125,-0.025730663910508156,0.0038717035204172134,-0.03446503356099129
1772639520858261000,0.977260986328125,-0.026487000286579132,-0.0012149340473115444,-0.03143435716629028
1772639520868306000,0.987305908203125,-0.0273250974714756,-0.0019177423091605306,-0.026675285771489143
1772639520878350800,0.997350830078125,-0.021072261035442352,0.0010684601729735732,-0.019787820056080818
1772639520888395800,1.007395751953125,-0.014625548385083675,0.0033691651187837124,-0.014546718448400497
1772639520898440000,1.01743994140625,-0.016584303230047226,0.010365023277699947,-0.011471566744148731
1772639520908484900,1.02748486328125,-0.023805463686585426,0.02586968056857586,-0.011406851932406425
1772639520918530000,1.037530029296875,-0.03223809599876404,0.03706614300608635,-0.00820866134017706
1772639520928574700,1.04757470703125,-0.04035967215895653,0.048052746802568436,-0.008786567486822605
1772639520938620000,1.057619873046875,-0.045405831187963486,0.068806491792202,-0.008736233226954937
1772639520948664800,1.067664794921875,-0.04316078498959541,0.07492643594741821,0.0005696501466445625
1772639520958710000,1.0777099609375,-0.03593696281313896,0.056775663048028946,0.007674165070056915
1772639520968755000,1.0877548828125,-0.028606344014406204,0.03629595413804054,0.019589412957429886
1772639520978799900,1.0977998046875,-0.022888803854584694,0.01943734660744667,0.030534207820892334
1772639520988844000,1.107843994140625,-0.016756609082221985,0.00538304727524519,0.04117806255817413
1772639520998889000,1.117888916015625,-0.013605823740363121,-0.008300273679196835,0.04051307216286659
1772639521008934000,1.127933837890625,-0.008757006376981735,-0.018490327522158623,0.030776821076869965
1772639521018978800,1.137978759765625,-0.00749093946069479,-0.025525599718093872,0.014153636060655117
1772639521029024000,1.14802392578125,-0.00806431844830513,-0.022652048617601395,-0.011634818278253078
1772639521039069000,1.15806884765625,-0.00624111806973815,-0.01483593787997961,-0.03277792036533356
1772639521049114000,1.168114013671875,-0.00845766719430685,-0.01005290076136589,-0.046183738857507706
1772639521059158800,1.17815869140625,-0.005970807280391455,-0.005093828309327364,-0.051370780915021896
1772639521069204000,1.188203857421875,-0.003450924064964056,-0.0012333098566159606,-0.047087352722883224
1772639521079248600,1.19824853515625,0.0021635519806295633,-0.005497829522937536,-0.03772181272506714
1772639521089292800,1.208292724609375,0.0013393036788329482,-0.012635900638997555,-0.027280090376734734
1772639521099337500,1.21833740234375,-0.003632551757618785,-0.021711153909564018,-0.02064748853445053
1772639521109382700,1.228382568359375,-0.0062246061861515045,-0.02516074664890766,-0.017707889899611473
1772639521119427600,1.238427490234375,-0.006315686274319887,-0.02257614955306053,-0.016879914328455925
1772639521129472800,1.24847265625,-0.0036107138730585575,-0.01606685109436512,-0.016098275780677795
1772639521139517700,1.258517578125,0.0054727960377931595,-0.006877347361296415,-0.012574913911521435
1772639521149562600,1.268562744140625,0.011007376946508884,0.007522630970925093,-0.004394215997308493
1772639521159607600,1.278607666015625,0.013373862020671368,0.013103551231324673,-0.0002668487431947142
1772639521169652700,1.28865283203125,0.008422513492405415,0.013109942898154259,0.003166232258081436
1772639521179697000,1.29869677734375,0.006102100946009159,0.00890774093568325,-0.0008202536264434457
1772639521189741600,1.308741455078125,0.0028940571937710047,0.00430286955088377,-0.003969974350184202
1772639521199786800,1.318786865234375,0.0006884271278977394,0.0007832356495782733,-0.007445665542036295
1772639521209831700,1.328831787109375,-0.001978462329134345,-0.004628307651728392,-0.011297129094600677
1772639521219876900,1.338876953125,-0.0020996362436562777,-0.0054826498962938786,-0.01961524598300457
1772639521229921500,1.348921630859375,0.0003153182624373585,-0.009277920238673687,-0.02851313352584839
1772639521239966700,1.358966796875,0.0005467469454742968,-0.009493636898696423,-0.032362200319767
1772639521250011600,1.36901171875,-0.0011073424248024821,-0.00920281931757927,-0.03717746213078499
1772639521260056800,1.379056884765625,0.0030032468494027853,-0.005528988782316446,-0.042513370513916016
1772639521270101800,1.389101806640625,0.011460114270448685,-0.000180029688635841,-0.04568279907107353
1772639521280145700,1.399145751953125,0.018094846978783607,0.0062421830371022224,-0.04422178864479065
1772639521290190600,1.409190673828125,0.019416041672229767,0.0026644926983863115,-0.03397873789072037
1772639521300235800,1.41923583984375,0.02008662559092045,-0.0034645062405616045,-0.020791830494999886
1772639521310280700,1.42928076171875,0.01913401298224926,-0.0031933963764458895,-0.0035425368696451187
1772639521320325600,1.43932568359375,0.02040833607316017,-0.004820321686565876,0.008975918404757977
1772639521330370600,1.44937060546875,0.01949380710721016,-0.009048888459801674,0.016099873930215836
1772639521340415700,1.459415771484375,0.018503377214074135,-0.015846608206629753,0.0203406922519207
1772639521350460700,1.469460693359375,0.01973082683980465,-0.015730492770671844,0.01865384541451931
1772639521360505600,1.479505615234375,0.015577361918985844,-0.012528841383755207,0.0139006357640028
1772639521370550500,1.489550537109375,0.013585316948592663,-0.0038871499709784985,0.00532499048858881
1772639521380594700,1.4995947265625,0.01209847442805767,0.008286159485578537,-0.0014977618120610714
1772639521390639900,1.509639892578125,0.009492837823927402,0.008282696828246117,-0.009704292751848698
1772639521400684500,1.5196845703125,0.00905474741011858,0.0015491608064621687,-0.0116750318557024
1772639521410729700,1.529729736328125,0.012870791368186474,-0.003871171036735177,-0.00908590666949749
1772639521420774700,1.539774658203125,0.01269582100212574,-0.0036693033762276173,-0.0012026835465803742
1772639521430819800,1.54981982421875,0.014597584493458271,-0.002186455298215151,0.00512685114517808
1772639521440864800,1.55986474609375,0.011448130942881107,0.003739344421774149,0.012082762084901333
1772639521450909700,1.56990966796875,0.008619054220616817,0.0005507417372427881,0.014366422779858112
1772639521460954600,1.57995458984375,0.004306597635149956,-0.0012175972806289792,0.015530223958194256
1772639521470998800,1.589998779296875,0.0027601001784205437,-0.005850698333233595,0.006785201840102673
1772639521481043500,1.60004345703125,0.0024546354543417692,-0.007850732654333115,-0.004021373111754656
1772639521491088600,1.610088623046875,0.001904160133562982,-0.00603472301736474,-0.015794143080711365
1772639521501133600,1.620133544921875,-0.001190166687592864,-0.0049582733772695065,-0.03212837502360344
1772639521511178800,1.6301787109375,-0.0013454289874061942,-0.007702927105128765,-0.04348782077431679
1772639521521223700,1.6402236328125,-0.001927862293086946,-0.008214253932237625,-0.049664225429296494
1772639521531268600,1.6502685546875,-0.003516171593219042,-0.01095464639365673,-0.05314497649669647
1772639521541313500,1.6603134765625,-0.001841575838625431,-0.01461755856871605,-0.054239269345998764
1772639521551358700,1.670358642578125,-0.0011472897604107857,-0.011032410897314548,-0.050390735268592834
1772639521561403600,1.680403564453125,-0.0015968313673511147,-0.011948272585868835,-0.04290991649031639
1772639521571447600,1.690447509765625,-0.008377239108085632,-0.01750735379755497,-0.035838425159454346
1772639521581492700,1.70049267578125,-0.012463327497243881,-0.019233616068959236,-0.02780659683048725
1772639521591537700,1.71053759765625,-0.013856959529221058,-0.017796307802200317,-0.02143152244389057
1772639521601582800,1.720582763671875,-0.008334629237651825,-0.010801514610648155,-0.018804313614964485
1772639521611627500,1.73062744140625,-0.0030099046416580677,-0.0007472829893231392,-0.01552356593310833
1772639521621672700,1.740672607421875,0.001967010786756873,0.005528189707547426,-0.01660693995654583
1772639521631717600,1.750717529296875,0.001156877144239843,0.002579537918791175,-0.014918762259185314
1772639521641762800,1.7607626953125,-0.001978462329134345,-0.004599811974912882,-0.015557387843728065
1772639521651807700,1.770807861328125,-0.00657507823780179,-0.013066267594695091,-0.01697365753352642
1772639521661851600,1.7808515625,-0.014244982041418552,-0.01817820407450199,-0.01703677326440811
1772639521671896600,1.790896484375,-0.019654661417007446,-0.018151573836803436,-0.016047142446041107
1772639521681941800,1.800941650390625,-0.019889285787940025,-0.014002367854118347,-0.014692659489810467
1772639521691986700,1.810986572265625,-0.01564713567495346,-0.010177535936236382,-0.013601296581327915
1772639521702031600,1.821031494140625,-0.011261975392699242,-0.008902947418391705,-0.008591623976826668
1772639521712076500,1.83107666015625,-0.008599081076681614,-0.010264888405799866,-0.0029862024821341038
1772639521722121700,1.841121826171875,-0.010676879435777664,-0.007529555354267359,-0.00042530681821517646
1772639521732166700,1.851166748046875,-0.006932474672794342,-0.0031526500824838877,-0.0017864484107121825
1772639521742211600,1.861211669921875,-0.006490123458206654,-0.0011941614793613553,-0.009729060344398022
1772639521752255700,1.871255859375,-0.004720453172922134,0.006362558342516422,-0.013247095979750156
1772639521762300700,1.88130078125,-0.0028594359755516052,0.00276089902035892,-0.01335868239402771
1772639521772345900,1.891345947265625,-0.000287088769255206,-0.0028940571937710047,-0.014503574930131435
1772639521782390500,1.901390625,-0.0005065332516096532,-0.005023254547268152,-0.01079991739243269
1772639521792435700,1.911435791015625,0.0025268071331083775,-0.001609614584594965,-0.007060039788484573
1772639521802480600,1.921480712890625,0.0035888757556676865,-0.007980961352586746,-0.000678307143971324
1772639521812525800,1.93152587890625,0.0027182884514331818,-0.011501127853989601,-0.0016279903938993812
1772639521822570800,1.94157080078125,0.002804841147735715,-0.011001784354448318,-0.00875061471015215
1772639521832615700,1.95161572265625,0.004376372788101435,-0.007232346571981907,-0.012743491679430008
1772639521842660600,1.96166064453125,0.003072755178436637,-0.004283694550395012,-0.01878434047102928
1772639521852704800,1.971704833984375,0.004804608877748251,0.00045673211570829153,-0.019722305238246918
1772639521862749700,1.981749755859375,0.00541260838508606,0.0014088122406974435,-0.020895428955554962
1772639521872794600,1.991794677734375,0.005947105120867491,-0.004372644238173962,-0.01552436500787735
1772639521882839600,2.001839599609375,0.0031550468411296606,-0.01480770856142044,-0.012900618836283684
1772639521892884700,2.011884765625,0.002439455594867468,-0.014614628627896309,-0.010349576361477375
1772639521902929700,2.0219296875,0.00008309062832267955,-0.009273393079638481,-0.011084076017141342
1772639521912974600,2.031974609375,0.0015931029338389635,-0.0001424791116733104,-0.01546684093773365
1772639521923019500,2.04201953125,0.000538491178303957,0.010178601369261742,-0.02225896716117859
1772639521933064700,2.052064697265625,-0.0007728493656031787,0.011552792973816395,-0.02827850915491581
1772639521943109600,2.062109619140625,-0.0008567389450035989,0.007154049351811409,-0.034280743449926376
1772639521953153500,2.072153564453125,-0.0015608787070959806,0.0009896307019516826,-0.04111547768115997
1772639521963198700,2.08219873046875,-0.000957939017098397,-0.003297259798273444,-0.04151468724012375
1772639521973243600,2.09224365234375,-0.00221974472515285,-0.00920361839234829,-0.040957286953926086
1772639521983288800,2.102288818359375,-0.001446362817659974,-0.010774617083370686,-0.03942037746310234
1772639521993333500,2.11233349609375,-0.0017741979099810123,-0.006947921123355627,-0.03526930883526802
1772639522003378700,2.122378662109375,-0.0041646515019237995,-0.0017595505341887474,-0.030490264296531677
1772639522013423600,2.132423583984375,-0.004010987002402544,-0.008769789710640907,-0.025316009297966957
1772639522023468800,2.14246875,0.0006173207075335085,-0.01914306730031967,-0.016654077917337418
1772639522033513700,2.152513671875,0.005061870440840721,-0.012255067937076092,-0.01047314703464508
1772639522043557600,2.1625576171875,0.004020840395241976,-0.002498843939974904,-0.006250705569982529
1772639522053602800,2.172602783203125,0.0010186590952798724,-0.00045540055725723505,-0.005301288329064846
1772639522063647700,2.182647705078125,0.003025350859388709,-0.00024714134633541107,-0.0022746059112250805
1772639522073692700,2.192692626953125,0.004260791465640068,0.00041811628034338355,0.0005957491230219603
1772639522083737900,2.20273779296875,0.007226753979921341,0.00538464542478323,0.0036884781438857317
1772639522093782800,2.21278271484375,0.007757255341857672,0.005305283237248659,0.004216582980006933
1772639522103828000,2.222827880859375,0.007997206412255764,0.0023068301379680634,0.0024194817524403334
1772639522113873000,2.232872802734375,0.0013973605819046497,-0.008372711949050426,-0.003870638320222497
1772639522123917800,2.242917724609375,-0.003094326937571168,-0.011234545148909092,-0.007935420610010624
1772639522133962800,2.252962646484375,-0.004517520312219858,-0.0062712118960917,-0.008450742810964584
1772639522144007000,2.2630068359375,-0.0043870252557098866,-0.008124505169689655,-0.0030418625101447105
1772639522154051800,2.2730517578125,-0.00042796999332495034,-0.010719489306211472,0.003917243797332048
1772639522164096800,2.2830966796875,0.0036828855518251657,-0.009325058199465275,0.014170946553349495
1772639522174142000,2.293141845703125,0.009020392782986164,-0.010780209675431252,0.019285013899207115
1772639522184187000,2.303186767578125,0.012196744792163372,-0.010128800757229328,0.01932096667587757
1772639522194232000,2.313232177734375,0.013828730210661888,-0.004699414130300283,0.016351543366909027
1772639522204276700,2.32327685546875,0.0149238221347332,-0.0011448930017650127,0.010572482831776142
1772639522214322000,2.333322021484375,0.014198376797139645,0.0011507519520819187,0.006295446306467056
1772639522224366800,2.343366943359375,0.013938452117145061,0.002752376953139901,0.00395639194175601
1772639522234412000,2.353412109375,0.009007609449326992,0.002341983839869499,0.00027510453946888447
1772639522244456000,2.3634560546875,0.008932508528232574,-0.0026053704787045717,0.005352421198040247
1772639522254500900,2.3735009765625,0.00806112214922905,-0.0067995828576385975,0.008243282325565815
1772639522264545800,2.3835458984375,0.01082867942750454,-0.006521282717585564,0.012882509268820286
1772639522274591000,2.393591064453125,0.0113386744633317,-0.01044465135782957,0.016457803547382355
1772639522284636000,2.403635986328125,0.011634019203484058,-0.015265505760908127,0.013257482089102268
1772639522294680800,2.413680908203125,0.010644388385117054,-0.021587051451206207,0.007755391299724579
1772639522304725800,2.423725830078125,0.009180182591080666,-0.019360382109880447,0.0015957661671563983
1772639522314771000,2.43377099609375,0.008964733220636845,-0.01685301586985588,0.00040959418402053416
1772639522324816000,2.44381591796875,0.009373527951538563,-0.01537842396646738,-0.0013843111228197813
1772639522334859800,2.45385986328125,0.010171410627663136,-0.018008295446634293,-0.00041278995922766626
1772639522344905000,2.463905029296875,0.012171711772680283,-0.017011741176247597,0.00046845004544593394
1772639522354950000,2.473949951171875,0.013560815714299679,-0.018793661147356033,0.003439472522586584
1772639522364995000,2.4839951171875,0.015593873336911201,-0.017374996095895767,0.007388407830148935
1772639522375039700,2.494039794921875,0.01738644763827324,-0.01570439524948597,0.016525980085134506
1772639522385085000,2.5040849609375,0.020624851807951927,-0.01375043299049139,0.02219238691031933
1772639522395129900,2.5141298828125,0.02069462649524212,-0.014847389422357082,0.02828862890601158
1772639522405175000,2.524175048828125,0.017967548221349716,-0.016412794589996338,0.028789836913347244
1772639522415219700,2.5342197265625,0.015253255143761635,-0.02365153282880783,0.0284713227301836
1772639522425265000,2.544264892578125,0.009707488119602203,-0.02587181143462658,0.024696025997400284
1772639522435309000,2.55430908203125,0.006039516534656286,-0.021760422736406326,0.015056979842483997
1772639522445354000,2.56435400390625,0.005909820552915335,-0.010371946729719639,0.005842442624270916
1772639522455399000,2.57439892578125,0.006157760974019766,-0.0034815503749996424,0.0034314829390496016
1772639522465443800,2.58444384765625,0.008144479244947433,0.002412291243672371,-0.000051399008953012526
1772639522475489000,2.594489013671875,0.012810070998966694,0.00555215822532773,0.006219812668859959
1772639522485534000,2.604533935546875,0.01543781254440546,0.008557535707950592,0.015517706982791424
1772639522495579000,2.614578857421875,0.017772605642676353,0.0013076120521873236,0.024022512137889862
1772639522505623800,2.624623779296875,0.016437295824289322,-0.005275988485664129,0.033543311059474945
1772639522515669000,2.6346689453125,0.012085691094398499,-0.008594552986323833,0.034983549267053604
1772639522525714000,2.6447138671875,0.008500277064740658,-0.006903446279466152,0.031073231250047684
1772639522535757800,2.6547578125,0.0026937874499708414,-0.0031017838045954704,0.02039395458996296
1772639522545802800,2.664802734375,-0.004782504867762327,-0.0020993698853999376,0.007455785758793354
1772639522555848000,2.674847900390625,-0.005681587848812342,-0.0011145329335704446,-0.0054608117789030075
1772639522565892900,2.684892822265625,-0.00016884441720321774,-0.0015092133544385433,-0.0130540169775486
1772639522575938000,2.69493798828125,0.0016194682102650404,0.000401604687795043,-0.015498798340559006
1772639522585982700,2.704982666015625,0.003878894029185176,0.004043477587401867,-0.01661040261387825
1772639522596028000,2.71502783203125,0.0006495449924841523,-0.001315068919211626,-0.01618988811969757
1772639522606072800,2.72507275390625,-0.003953196108341217,-0.010316819883883,-0.015736885368824005
1772639522616118000,2.735117919921875,-0.009792443364858627,-0.02388349547982216,-0.01997770369052887
1772639522626163000,2.745162841796875,-0.011707788333296776,-0.022545788437128067,-0.020891433581709862
1772639522636206800,2.755206787109375,-0.010765296407043934,-0.017593108117580414,-0.016454340890049934
1772639522646252000,2.765251953125,-0.010905378498136997,-0.012439358979463577,-0.00782623142004013
1772639522656297000,2.775296875,-0.004989964887499809,-0.009606022387742996,0.0005400890368036926
1772639522666342000,2.785341796875,-0.001130778226070106,-0.006448311731219292,0.012658004648983479
1772639522676386800,2.79538671875,0.0007267766632139683,-0.006382798310369253,0.019573435187339783
1772639522686432000,2.805431884765625,0.0011153318919241428,-0.007162571884691715,0.02215350605547428
1772639522696477000,2.815476806640625,0.004807005636394024,-0.00768668157979846,0.023677365854382515
1772639522706522000,2.825522216796875,0.005988117773085833,-0.0005877596559002995,0.023937024176120758
1772639522716566800,2.83556689453125,0.002223206916823983,0.005000350996851921,0.018031997606158257
1772639522726611000,2.84561083984375,-0.00279046013019979,0.0031316110398620367,0.012837767601013184
1772639522736656000,2.85565576171875,-0.006952181924134493,0.003835750976577401,0.005803294479846954
1772639522746701000,2.865701171875,-0.00598545465618372,0.002291117561981082,0.002174471039324999
1772639522756745700,2.875745849609375,-0.006338323466479778,-0.001145159243606031,-0.0005342300864867866
1772639522766791000,2.885791015625,-0.005869873333722353,-0.0013962953817099333,0.0008471515611745417
1772639522776835800,2.8958359375,-0.004304999951273203,-0.005029912106692791,0.0013432984706014395
1772639522786881000,2.905881103515625,-0.004283428192138672,-0.007623564917594194,0.0006852313526906073
1772639522796925700,2.91592578125,-0.00509862182661891,-0.008503473363816738,-0.0037561224307864904
1772639522806971000,2.925970947265625,-0.010144513100385666,-0.009620402939617634,-0.007701595313847065
1772639522817015800,2.936015869140625,-0.012752014212310314,-0.007233145646750927,-0.017009077593684196
1772639522827060000,2.94606005859375,-0.008885370567440987,-0.0035489285364747047,-0.025408953428268433
1772639522837105000,2.95610498046875,-0.0049036783166229725,-0.0010841728653758764,-0.024638500064611435
1772639522847149800,2.96614990234375,0.0020455741323530674,0.002526008291170001,-0.019998475909233093
1772639522857195000,2.976195068359375,0.003692206460982561,0.0021704763639718294,-0.014243916608393192
1772639522867240000,2.986239990234375,0.006369215901941061,0.004160656593739986,-0.006675213109701872
1772639522877285000,2.99628515625,0.005136971361935139,0.0006053365068510175,-0.0011547466274350882
1772639522887329800,3.006329833984375,0.0015675366157665849,-0.00336144189350307,-0.004650145769119263
1772639522897375000,3.016375,0.0024716798216104507,-0.002837598090991378,-0.009046225808560848
1772639522907420000,3.026419921875,0.0018644790397956967,-0.0016375777777284384,-0.018517758697271347
1772639522917463800,3.0364638671875,0.0021377194207161665,-0.004664526786655188,-0.025554629042744637
1772639522927508700,3.0465087890625,0.0007752461824566126,-0.005216067191213369,-0.027224430814385414
1772639522937554000,3.056553955078125,-0.001919340225867927,-0.004307663068175316,-0.02594345062971115
1772639522947598800,3.066598876953125,0.0017366473330184817,-0.005208876915276051,-0.02202514186501503
1772639522957644000,3.07664404296875,0.002794188680127263,-0.006714361719787121,-0.014458301477134228
1772639522967688700,3.086688720703125,0.0013259878614917397,-0.00640942994505167,-0.004796619527041912
1772639522977734000,3.09673388671875,0.005073055624961853,-0.0007904262165538967,0.005695702508091927
1772639522987778800,3.10677880859375,0.00401578051969409,-0.0006053365068510175,0.012087821960449219
1772639522997824000,3.116823974609375,0.006910103838890791,0.0004921521758660674,0.015988286584615707
1772639523007869000,3.126868896484375,0.008898952975869179,0.005041896365582943,0.01853799819946289
1772639523017913900,3.136913818359375,0.00983585324138403,0.003890611929818988,0.016986440867185593
1772639523027958000,3.1469580078125,0.0092334458604455,-0.0020908478181809187,0.013804228976368904
1772639523038003000,3.1570029296875,0.00803209375590086,-0.007798002101480961,0.008300540037453175
1772639523048047900,3.1670478515625,0.005106078926473856,-0.005934854503720999,0.0010309095960110426
1772639523058092800,3.1770927734375,0.0017624800093472004,-0.0035228293854743242,-0.0086643286049366
1772639523068138000,3.187137939453125,-0.0021409152541309595,-0.0007251787465065718,-0.013631124049425125
1772639523078183000,3.197182861328125,-0.0032176312524825335,0.00347435986623168,-0.013877732679247856
1772639523088227800,3.207227783203125,0.003837615018710494,0.004278634674847126,-0.006302370689809322
1772639523098272800,3.217272705078125,0.009372995235025883,0.010596451349556446,0.006016879808157682
1772639523108318000,3.22731787109375,0.014415957033634186,0.010513893328607082,0.01768871583044529
1772639523118361600,3.237361572265625,0.01366334781050682,0.0043595945462584496,0.021893048658967018
1772639523128406800,3.24740673828125,0.008379369974136353,-0.00881133507937193,0.015530223958194256
1772639523138451700,3.25745166015625,0.0007922904333099723,-0.014750716276466846,0.00618279492482543
1772639523148497000,3.267496826171875,-0.004156928043812513,-0.016652479767799377,-0.0040826257318258286
1772639523158541800,3.277541748046875,-0.007638478651642799,-0.01369370799511671,-0.012326707132160664
1772639523168586800,3.287586669921875,-0.002475142013281584,-0.01164653617888689,-0.0173273254185915
1772639523178631700,3.297631591796875,0.0017595505341887474,-0.007268565706908703,-0.01944373920559883
1772639523188676900,3.3076767578125,0.0031095067970454693,0.00038935415796004236,-0.01871456578373909
1772639523198721800,3.3177216796875,0.004489556886255741,0.005138036794960499,-0.01110112015157938
1772639523208766700,3.3277666015625,0.005679191090166569,0.002151301596313715,-0.008472314104437828
1772639523218811000,3.337810791015625,0.0036171053070575,-0.0008460862445645034,-0.009822004474699497
1772639523228855800,3.347855712890625,0.003885818412527442,0.0005573995877057314,-0.010725880973041058
1772639523238901000,3.35790087890625,-0.00039015308720991015,0.004935902543365955,-0.011100322008132935
1772639523248945700,3.367945556640625,-0.004795287735760212,0.012959474697709084,-0.008047806099057198
1772639523258990800,3.377990966796875,-0.0062464443035423756,0.016482038423419,-0.0032645028550177813
1772639523269035800,3.388035888671875,-0.007018494885414839,0.013291570357978344,0.008227037265896797
1772639523279081000,3.3980810546875,-0.0057162088342010975,0.01309103425592184,0.018798189237713814
1772639523289126000,3.4081259765625,-0.01278610248118639,0.019811788573861122,0.023258451372385025
1772639523299170800,3.4181708984375,-0.015836220234632492,0.020870661363005638,0.01715634949505329
1772639523309215700,3.4282158203125,-0.01588229276239872,0.018563032150268555,0.005901032127439976
1772639523319260000,3.438260009765625,-0.010839598253369331,0.025718679651618004,-0.005060272291302681
1772639523329304600,3.4483046875,-0.008387093432247639,0.025680329650640488,-0.016341954469680786
1772639523339349800,3.458349853515625,-0.006329268682748079,0.02936614491045475,-0.016322514042258263
1772639523349394700,3.468394775390625,-0.006761233322322369,0.029398901388049126,-0.013946708291769028
1772639523359440000,3.47843994140625,-0.005334577988833189,0.026567695662379265,-0.008505870588123798
1772639523369484800,3.48848486328125,-0.004674113821238279,0.016232499852776527,-0.00024234765442088246
1772639523379529700,3.49852978515625,-0.0023337281309068203,0.0127584058791399,0.010508833453059196
1772639523389574700,3.50857470703125,-0.0011552792275324464,0.012310728430747986,0.02190183661878109
1772639523399619800,3.518619873046875,-0.0013755226973444223,0.015116102062165737,0.02864282950758934
1772639523409664000,3.5286640625,0.0000021305288555595325,0.01261060032993555,0.03075498342514038
1772639523419708700,3.538708740234375,0.001106809708289802,0.004403004422783852,0.023875504732131958
1772639523429753900,3.54875390625,-0.0028594359755516052,-0.0017142767319455743,0.012426042929291725
1772639523439798800,3.558798828125,-0.0075971996411681175,-0.007571633439511061,0.0006556702428497374
1772639523449844000,3.568843994140625,-0.005291967187076807,-0.006926882080733776,-0.007653392385691404
1772639523459888600,3.578888671875,-0.0029198897536844015,-0.004736964590847492,-0.010641459375619888
1772639523469933800,3.588933837890625,0.0013116068439558148,-0.0031438616570085287,-0.0073569826781749725
1772639523479978800,3.598978759765625,0.004233094397932291,-0.005742307752370834,-0.0023640880826860666
1772639523490024000,3.60902392578125,0.00421391986310482,-0.006175337824970484,-0.001449292292818427
1772639523500068900,3.61906884765625,0.0033995250705629587,-0.0014287859667092562,0.0011558119440451264
1772639523510112800,3.62911279296875,0.00013848437811248004,0.0008487494196742773,-0.00024501082953065634
1772639523520157700,3.63915771484375,-0.003978762775659561,0.0005645901546813548,-0.0023965786676853895
1772639523530203000,3.649202880859375,-0.006885070353746414,-0.0014921691035851836,-0.0035662390291690826
1772639523540247800,3.659247802734375,-0.004938033409416676,-0.0032732912804931402,0.00007217166421469301
1772639523550292700,3.669292724609375,-0.005318066570907831,-0.005891445092856884,0.00036218989407643676
1772639523560337700,3.679337646484375,-0.004264520015567541,-0.010063553228974342,0.005052815657109022
1772639523570382800,3.6893828125,-0.0009781790431588888,-0.010913367383182049,0.006057359743863344
1772639523580427800,3.699427734375,-0.0052027516067028046,-0.011949070729315281,0.005546565633267164
1772639523590472700,3.70947265625,-0.00666429428383708,-0.011007909663021564,-0.00032730249222368
1772639523600517600,3.719517578125,-0.010718424804508686,-0.0084262415766716,-0.003995274193584919
1772639523610561800,3.729561767578125,-0.013014601543545723,-0.00902465358376503,-0.0073236930184066296
1772639523620607000,3.73960693359375,-0.010688597336411476,-0.007540740538388491,-0.007513043470680714
1772639523630651600,3.749651611328125,-0.007991880178451538,-0.0036187032237648964,-0.005131911486387253
1772639523640696800,3.75969677734375,-0.006087986286729574,0.002642388455569744,-0.0034522556234151125
1772639523650741800,3.76974169921875,-0.009737848304212093,-0.0007243797881528735,-0.006433930713683367
1772639523660787000,3.779786865234375,-0.012923788279294968,-0.005172391422092915,-0.008359928615391254
1772639523670831900,3.789831787109375,-0.015225025825202465,-0.006365753710269928,-0.01363245490938425
1772639523680876800,3.799876708984375,-0.014474812895059586,-0.0008868326549418271,-0.013186641968786716
1772639523690921700,3.809921630859375,-0.012498747557401657,0.0046392264775931835,-0.007841677404940128
1772639523700967000,3.819966796875,-0.010171943344175816,0.007160441018640995,-0.0037736992817372084
1772639523711010800,3.8300107421875,-0.006506635341793299,0.005696235224604607,0.0012460930738598108
1772639523721055700,3.8400556640625,-0.0035057852510362864,0.0033097765408456326,0.004278634674847126
1772639523731100700,3.8501005859375,-0.0034376082476228476,-0.00227913330309093,-0.0008231831016018987
1772639523741145900,3.860145751953125,-0.002960369922220707,-0.005172391422092915,-0.006562827620655298
1772639523751190800,3.870190673828125,-0.0026043052785098553,0.0029787456151098013,-0.016394419595599174
1772639523761235700,3.880235595703125,-0.006668821442872286,0.01506896410137415,-0.023546338081359863
1772639523771280600,3.89028076171875,-0.005797967780381441,0.021770276129245758,-0.022069882601499557
1772639523781325800,3.900325927734375,-0.007201453670859337,0.014683072455227375,-0.015533152967691422
1772639523791370800,3.910370849609375,-0.006783337332308292,0.0024176177103072405,-0.007967378944158554
1772639523801416000,3.920416015625,-0.006010221783071756,-0.00926433876156807,-0.0006327670416794717
1772639523811459800,3.9304599609375,-0.005085572600364685,-0.013519271276891232,0.0014748586108908057
1772639523821504800,3.9405048828125,-0.00794234499335289,-0.013862818479537964,-0.0012040151050314307
1772639523831550000,3.950550048828125,-0.013103284873068333,-0.009879794903099537,-0.011473163962364197
1772639523841594600,3.9605947265625,-0.018001370131969452,-0.004430168308317661,-0.019457055255770683
1772639523851639800,3.970639892578125,-0.02431625872850418,0.004378769546747208,-0.028129639104008675
1772639523861684700,3.980684814453125,-0.028908081352710724,0.015918511897325516,-0.03308951109647751
1772639523871730000,3.99072998046875,-0.021408353000879288,0.023730896413326263,-0.03767653927206993
1772639523881774800,4.00077490234375,-0.01236532349139452,0.026201510801911354,-0.03403599560260773
1772639523891819800,4.01081982421875,-0.005899168085306883,0.02359241060912609,-0.028374649584293365
1772639523901864000,4.020864013671875,0.0001637844106880948,0.018997659906744957,-0.01600266806781292
1772639523911908900,4.030908935546875,0.0030652983114123344,0.013938185758888721,-0.001181111903861165
1772639523921953800,4.040953857421875,0.007391070947051048,0.007035805378109217,0.0127584058791399
1772639523931998700,4.050998779296875,0.012456136755645275,0.0007089334540069103,0.026007631793618202
1772639523942044000,4.0610439453125,0.013379720970988274,-0.000020772657080669887,0.03356275334954262
1772639523952088800,4.0710888671875,0.011093397624790668,0.0019800602458417416,0.03454998880624771
1772639523962133800,4.0811337890625,0.011007110588252544,0.004920190200209618,0.03203196823596954
1772639523972178700,4.0911787109375,0.006275206338614225,0.005056011490523815,0.03009105660021305
1772639523982224000,4.101223876953125,0.005344697739928961,0.00038988678716123104,0.031201861798763275
1772639523992268800,4.111268798828125,0.005744970869272947,-0.00321896281093359,0.02707848884165287
1772639524002313000,4.12131298828125,0.007679491303861141,0.0020189424976706505,0.0285890344530344
1772639524012357600,4.131357666015625,0.009986321441829205,0.004905276466161013,0.028025243431329727
1772639524022402800,4.14140283203125,0.011572766117751598,0.0013930995482951403,0.027291808277368546
1772639524032447700,4.15144775390625,0.011695272289216518,-0.00466505903750658,0.023001989349722862
1772639524042493000,4.161492919921875,0.01073839794844389,-0.007927698083221912,0.017667677253484726
1772639524052537900,4.171537841796875,0.011846539564430714,-0.00814767461270094,0.011299259960651398
1772639524062582800,4.181582763671875,0.011689678765833378,-0.010456635616719723,0.007852330803871155
1772639524072627700,4.191627685546875,0.009283512830734253,-0.00941906776279211,0.002067944500595331
1772639524082673200,4.201673095703125,0.008362592197954655,-0.006037119776010513,0.0012460930738598108
1772639524092718000,4.211718017578125,0.008374576456844807,-0.004063451196998358,0.0012900352012366056
1772639524102763300,4.22176318359375,0.008839298039674759,-0.006244580261409283,0.0023430490400642157
1772639524112807200,4.23180712890625,0.006440056022256613,-0.013488112017512321,0.0021113541442900896
1772639524122852000,4.24185205078125,0.005233644042164087,-0.012445484288036823,-0.004304467234760523
1772639524132897000,4.25189697265625,0.004743089899420738,-0.01127768773585558,-0.009856625460088253
1772639524142942200,4.261942138671875,0.007394533138722181,-0.013942447490990162,-0.01943148858845234
1772639524152987100,4.271987060546875,0.007862716913223267,-0.008594286628067493,-0.026310965418815613
1772639524163032300,4.2820322265625,0.012238556519150734,0.00004660531703848392,-0.021630993112921715
1772639524173077000,4.292076904296875,0.018451711162924767,0.007668838836252689,-0.015169365331530571
1772639524183122200,4.3021220703125,0.014659636653959751,0.0007222492713481188,-0.002398176584392786
1772639524193167000,4.3121669921875,0.008288289420306683,-0.014762700535356998,0.002796052722260356
1772639524203211000,4.3222109375,-0.0002609897928778082,-0.020556407049298286,0.002948119305074215
1772639524213256200,4.332256103515625,-0.0013174657942727208,-0.016711335629224777,0.002296976512297988
1772639524223301000,4.342301025390625,-0.002782470779493451,-0.012040950357913971,0.001583249308168888
1772639524233346300,4.35234619140625,-0.0011209244839847088,-0.004743888974189758,0.0014319816837087274
1772639524243391200,4.36239111328125,0.006594253238290548,-0.0010125337867066264,0.002004827605560422
1772639524253436200,4.372436279296875,0.008190818130970001,0.002936135046184063,0.003747866488993168
1772639524263481000,4.382481201171875,0.009558884426951408,0.005850432440638542,0.005150021053850651
1772639524273526300,4.3925263671875,0.010923754423856735,0.0063798688352108,0.0026011094450950623
1772639524283571200,4.4025712890625,0.011019094847142696,0.003549993736669421,-0.0027049726340919733
1772639524293616400,4.412616455078125,0.012081163935363293,0.006198773626238108,-0.009137571789324284
1772639524303660000,4.422659912109375,0.01119486428797245,0.008636098355054855,-0.013646570034325123
1772639524313705200,4.432705322265625,0.00842783972620964,0.011642009019851685,-0.017294302582740784
1772639524323750100,4.442750244140625,0.007357781287282705,0.007225954905152321,-0.01684555970132351
1772639524333795000,4.452795166015625,0.007330883294343948,0.0052951630204916,-0.013137639500200748
1772639524343840000,4.462840087890625,0.010847588069736958,0.005203550215810537,-0.0071098413318395615
1772639524353885200,4.47288525390625,0.014449778944253922,0.006846188101917505,-0.0016737966798245907
1772639524363930000,4.48293017578125,0.0182943195104599,0.010408698581159115,0.003955326974391937
1772639524373975300,4.492975341796875,0.01895531453192234,0.005910086911171675,0.007721303030848503
1772639524384020000,4.50302001953125,0.017646905034780502,-0.0012444951571524143,0.009467537514865398
1772639524394065200,4.513065185546875,0.015923839062452316,-0.00777509855106473,0.007799067068845034
1772639524404109300,4.523109375,0.018186993896961212,-0.014524081721901894,0.008392419666051865
1772639524414154200,4.533154296875,0.014252971857786179,-0.010832940228283405,0.007902131415903568
1772639524424199200,4.54319921875,0.016049806028604507,-0.009828928858041763,0.006380667444318533
1772639524434244000,4.553244140625,0.012776781804859638,-0.011609784327447414,0.008798551745712757
1772639524444289300,4.563289306640625,0.013761618174612522,-0.010223609395325184,0.008611598052084446
1772639524454334200,4.573334228515625,0.015327024273574352,-0.005907956510782242,0.007143130525946617
1772639524464379100,4.583379150390625,0.01443859376013279,-0.006945523899048567,0.0037057886365801096
1772639524474424000,4.593424072265625,0.01164360623806715,-0.01007926557213068,-0.0007057376787997782
1772639524484469200,4.60346923828125,0.008874984458088875,-0.014888402074575424,-0.01058926060795784
1772639524494514200,4.61351416015625,0.005595034919679165,-0.016225041821599007,-0.02100994437932968
1772639524504558000,4.62355810546875,0.006040581967681646,-0.007336209993809462,-0.028133632615208626
1772639524514603300,4.633603271484375,0.002948119305074215,0.003709783311933279,-0.03014218993484974
1772639524524648200,4.643648193359375,0.002656236756592989,0.0062917182222008705,-0.028794895857572556
1772639524534693000,4.653693115234375,0.0011022823164239526,0.0007068029372021556,-0.024087226018309593
1772639524544738300,4.66373828125,0.00025246766745112836,-0.00532658863812685,-0.017589379101991653
1772639524554783200,4.673783203125,-0.002029062481597066,-0.004365986213088036,-0.011053450405597687
1772639524564828200,4.683828125,-0.004289819858968258,-0.004082892090082169,-0.006761766038835049
1772639524574873000,4.693873046875,-0.005019525997340679,0.0008362325606867671,-0.002638659905642271
1772639524584918300,4.703918212890625,-0.0035776905715465546,0.004323375876992941,0.002114816103130579
1772639524594962200,4.713962158203125,-0.003946538548916578,0.0037886130157858133,0.0029763488564640284
1772639524605007000,4.724007080078125,-0.006052832584828138,0.006411293987184763,0.003995806910097599
1772639524615052300,4.73405224609375,-0.008294414728879929,0.008489890955388546,0.006596649996936321
1772639524625097200,4.74409716796875,-0.009184709750115871,0.008406001143157482,0.006235525477677584
1772639524635142100,4.75414208984375,-0.011028150096535683,0.007336475886404514,0.005348426289856434
1772639524645187000,4.76418701171875,-0.010611365549266338,0.001014664419926703,0.005697567015886307
1772639524655232300,4.774232177734375,-0.01071043498814106,0.001368598430417478,0.004683967679738998
1772639524665277200,4.784277099609375,-0.007792409509420395,0.0033622407354414463,0.0013704627053812146
1772639524675322400,4.794322265625,-0.00993012823164463,0.007514907978475094,0.0005347627447918057
1772639524685367000,4.804366943359375,-0.009769540280103683,0.009289105422794819,-0.005732720717787743
1772639524695411200,4.8144111328125,-0.011145595461130142,0.004610730800777674,-0.01088886708021164
1772639524705456400,4.824456298828125,-0.005797435529530048,0.002007757080718875,-0.01631186157464981
1772639524715501000,4.8345009765625,0.0004271710349712521,0.00797377061098814,-0.015684420242905617
1772639524725546200,4.844546142578125,0.005052016582340002,0.017673002555966377,-0.011536015197634697
1772639524735591200,4.854591064453125,0.002773682354018092,0.014735003933310509,-0.008886968716979027
1772639524745636400,4.86463623046875,-0.001972603378817439,-0.000660463934764266,-0.009913350455462933
1772639524755681300,4.874681396484375,-0.006456567905843258,-0.008824117481708527,-0.012259862385690212
1772639524765726200,4.884726318359375,-0.005912217777222395,-0.010488593950867653,-0.014687599614262581
1772639524775771100,4.894771240234375,-0.008943427354097366,-0.009562612511217594,-0.01528494618833065
1772639524785816300,4.90481640625,-0.006135124247521162,-0.005696767941117287,-0.018272213637828827
1772639524795860200,4.914860107421875,-0.0035380094777792692,-0.005624063778668642,-0.018126539885997772
1772639524805905200,4.9249052734375,-0.0023869911674410105,-0.00529569573700428,-0.02064535766839981
1772639524815950000,4.9349501953125,-0.0031015174463391304,-0.0022884542122483253,-0.023028353229165077
1772639524825995300,4.944995361328125,-0.003635747591033578,0.005348159931600094,-0.0257535669952631
1772639524836040200,4.955040283203125,-0.007981494069099426,0.009458483196794987,-0.02828143909573555
1772639524846085000,4.965085205078125,-0.012838300317525864,0.011545602232217789,-0.030014624819159508
1772639524856130000,4.975130126953125,-0.014306501485407352,0.015105183236300945,-0.02792377583682537
1772639524866175200,4.98517529296875,-0.015267635695636272,0.008621185086667538,-0.027182618156075478
1772639524876220200,4.99522021484375,-0.013142433948814869,0.00002157160452043172,-0.02311757020652294
1772639524886265300,5.005265380859375,-0.011546934023499489,-0.0067828050814569,-0.026200445368885994
1772639524896309200,5.015309326171875,-0.011958658695220947,-0.009843842126429081,-0.027655862271785736
1772639524906354200,5.025354248046875,-0.009504023008048534,-0.009589510038495064,-0.0308119747787714
1772639524916399400,5.0353994140625,-0.009530654177069664,-0.007405451964586973,-0.03127935901284218
1772639524926444300,5.0454443359375,-0.01079725380986929,-0.00860094465315342,-0.03285675123333931
1772639524936489200,5.0554892578125,-0.01266839075833559,-0.007486412301659584,-0.02929716929793358
1772639524946534100,5.0655341796875,-0.008052600547671318,0.0018365158466622233,-0.02093510888516903
1772639524956579300,5.075579345703125,-0.005478122271597385,0.001362473238259554,-0.013040700927376747
1772639524966624300,5.085624267578125,-0.0021552962716668844,-0.004248274490237236,-0.00950775109231472
1772639524976669200,5.095669189453125,-0.00007110639853635803,-0.0035236284602433443,-0.002413090318441391
1772639524986714000,5.105714111328125,0.00008841694943839684,-0.0032349417451769114,0.002130262553691864
1772639524996758300,5.11575830078125,-0.00138031633105129,-0.0034432008396834135,0.00307541829533875
1772639525006803200,5.12580322265625,-0.0019414444686844945,-0.004008856136351824,0.0003326288133393973
1772639525016848100,5.13584814453125,-0.00264771468937397,-0.00017310546536464244,-0.0035369442775845528
1772639525026893000,5.14589306640625,-0.002971821464598179,-0.0021339908707886934,-0.006620884872972965
1772639525036938200,5.155938232421875,-0.0010396981379017234,0.0013550163712352514,-0.009544502943754196
1772639525046983200,5.165983154296875,-0.0004599279200192541,-0.002270078519359231,-0.011081946082413197
1772639525057028400,5.1760283203125,0.00021944446780253202,-0.007184942252933979,-0.010645720176398754
1772639525067073000,5.186072998046875,0.0013946974650025368,-0.012673450633883476,-0.014021276496350765
1772639525077118200,5.1961181640625,0.0001691107318038121,-0.013518738560378551,-0.014072675257921219
1772639525087162400,5.206162353515625,-0.001612011343240738,-0.009260343387722969,-0.016379505395889282
1772639525097206300,5.216206298828125,0.00031664984999224544,-0.004126834217458963,-0.015371765941381454
1772639525107251500,5.22625146484375,-0.00012756542128045112,-0.001984587637707591,-0.01369051169604063
1772639525117296400,5.23629638671875,0.002267149044200778,-0.0011060107499361038,-0.016748087480664253
1772639525127341600,5.246341552734375,0.0034732946660369635,-0.0006977482116781175,-0.016920393332839012
1772639525137386200,5.25638623046875,0.002603772561997175,-0.003980360459536314,-0.017152089625597
1772639525147431400,5.266431396484375,0.0011925635626539588,-0.006853378843516111,-0.015259913168847561
1772639525157476400,5.276476318359375,0.00034967303508892655,-0.007757788058370352,-0.014749385416507721
1772639525167521500,5.286521484375,0.001121989800594747,-0.006104764062911272,-0.007567372173070908
1772639525177566500,5.29656640625,0.002086320426315069,-0.005154281854629517,0.002382996492087841
1772639525187611400,5.306611328125,0.006569219287484884,-0.004606735892593861,0.006069610361009836
1772639525197655600,5.316655517578125,0.006640325766056776,-0.004795554094016552,0.01173362135887146
1772639525207700500,5.326700439453125,0.007771636825054884,-0.012252138927578926,0.014197844080626965
1772639525217745700,5.33674560546875,0.0065588331781327724,-0.015021027065813541,0.012912869453430176
1772639525227790300,5.346790283203125,0.0005467469454742968,-0.015597867779433727,0.008354069665074348
1772639525237835500,5.35683544921875,-0.003715908620506525,-0.013744574040174484,0.0006524744676426053
1772639525247880400,5.36688037109375,-0.0054786549881100655,-0.01128301490098238,-0.008553806692361832
1772639525257925600,5.376925537109375,-0.006508765742182732,-0.011265704408288002,-0.01637204922735691
1772639525267970300,5.38697021484375,-0.003687146585434675,-0.007285343483090401,-0.017122793942689896
1772639525278015500,5.397015380859375,-0.0028812738601118326,0.004668254870921373,-0.01931936852633953
1772639525288059400,5.407059326171875,-0.005858155433088541,0.01182257104665041,-0.016945160925388336
1772639525298104600,5.4171044921875,-0.010268350131809711,0.0004551342281047255,-0.018865300342440605
1772639525308149200,5.427149169921875,-0.01575579307973385,-0.011271030642092228,-0.02197027951478958
1772639525318194400,5.4371943359375,-0.018203770741820335,-0.01275734044611454,-0.027531759813427925
1772639525328239400,5.4472392578125,-0.019903667271137238,-0.0071069118566811085,-0.032454878091812134
1772639525338284500,5.457284423828125,-0.021801169961690903,-0.0003062635369133204,-0.031140875071287155
1772639525348329500,5.46732958984375,-0.01853613369166851,-0.0013337110867723823,-0.028604215011000633
1772639525358374400,5.47737451171875,-0.013688115403056145,-0.004267183132469654,-0.02605903148651123
1772639525368419300,5.48741943359375,-0.008953015320003033,-0.00839668046683073,-0.02117665857076645
1772639525378464500,5.497464599609375,-0.011257714591920376,-0.012864133343100548,-0.02196069248020649
1772639525388508400,5.50750830078125,-0.009527991525828838,-0.012777314521372318,-0.025550100952386856
1772639525398553300,5.51755322265625,-0.014808240346610546,-0.01381035428494215,-0.03311161324381828
1772639525408598500,5.5275986328125,-0.019690614193677902,-0.006299441214650869,-0.03809492290019989
1772639525418643500,5.5376435546875,-0.020963072776794434,-0.0005336974863894284,-0.04320792481303215
1772639525428688600,5.547688720703125,-0.019665313884615898,0.0020809939596801996,-0.04246250540018082
1772639525438733300,5.5577333984375,-0.0144724166020751,-0.004827245604246855,-0.03730449452996254
1772639525448778500,5.567778564453125,-0.011818576604127884,-0.015027152374386787,-0.029510753229260445
1772639525458823400,5.577823486328125,-0.01005103625357151,-0.025953037664294243,-0.024900289252400398
1772639525468868600,5.58786865234375,-0.01209900714457035,-0.03313877806067467,-0.020145215094089508
1772639525478913500,5.59791357421875,-0.017887387424707413,-0.03093847446143627,-0.016772055998444557
1772639525488957400,5.60795751953125,-0.02171408385038376,-0.02460680902004242,-0.015423431061208248
1772639525499002400,5.61800244140625,-0.02419508434832096,-0.016035957261919975,-0.010576478205621243
1772639525509047600,5.628047607421875,-0.020771058276295662,-0.008174306713044643,-0.005032309330999851
1772639525519092200,5.63809228515625,-0.017524931579828262,-0.003632818115875125,-0.00026498452643863857
1772639525529137400,5.648137451171875,-0.014481470920145512,-0.004549744538962841,0.004849616438150406
1772639525539182300,5.658182373046875,-0.01152802538126707,-0.00860307551920414,0.006563360337167978
1772639525549227500,5.6682275390625,-0.009839581325650215,-0.009473929181694984,0.00506826164200902
1772639525559272400,5.6782724609375,-0.010997789911925793,-0.011875035241246223,0.0028692898340523243
1772639525569317400,5.6883173828125,-0.01127955224364996,-0.007047256920486689,-0.0032107068691402674
1772639525579362300,5.6983623046875,-0.012397280894219875,-0.0025632926262915134,-0.011294999159872532
1772639525589406500,5.708406494140625,-0.014360297471284866,0.00003435477628954686,-0.018261827528476715
1772639525599451600,5.71845166015625,-0.013635118491947651,0.003908987622708082,-0.025661688297986984
1772639525609496300,5.728496337890625,-0.011781292036175728,0.004234159830957651,-0.02448776550590992
1772639525619541500,5.73854150390625,-0.009862218052148819,0.00333214714191854,-0.019965453073382378
1772639525629586400,5.74858642578125,-0.007333280518651009,0.003186738584190607,-0.011875567957758904
1772639525639631600,5.758631591796875,-0.007924235425889492,-0.0022186795249581337,-0.0003376888344064355
1772639525649676300,5.76867626953125,-0.0030101709999144077,-0.009157279506325722,0.012484632432460785
1772639525659721500,5.778721435546875,-0.0021909826900810003,-0.011985289864242077,0.020743893459439278
1772639525669766400,5.788766357421875,0.00032676986302249134,-0.01829352043569088,0.021222464740276337
1772639525679811600,5.7988115234375,0.0031915323343127966,-0.011259845457971096,0.016496950760483742
1772639525689855200,5.808855224609375,0.004599811974912882,-0.004655738361179829,0.0115573201328516
1772639525699900400,5.818900390625,0.0010183927370235324,0.0028583707753568888,0.0020421119406819344
1772639525709945300,5.8289453125,-0.0016162724932655692,0.016046877950429916,0.0007707187905907631
1772639525719990500,5.838990478515625,-0.005379585549235344,0.016321714967489243,-0.0025768745690584183
1772639525730035500,5.849035400390625,-0.0046392264775931835,0.010073406621813774,0.0008942894637584686
1772639525740080400,5.859080322265625,-0.0034522556234151125,0.009135175496339798,0.006453372072428465
1772639525750125300,5.869125244140625,-0.0018879148410633206,0.007965248078107834,0.007650196552276611
1772639525760170500,5.87917041015625,0.0017483652336522937,-0.006426207721233368,0.0041486723348498344
1772639525770215400,5.88921533203125,0.0006242449744604528,-0.009790046140551567,0.0031997880432754755
1772639525780260400,5.89926025390625,-0.00694845337420702,-0.010159959085285664,-0.0034016557037830353
1772639525790304500,5.909304443359375,-0.010877149179577827,-0.006668022833764553,-0.009591907262802124
1772639525800349400,5.919349365234375,-0.0136638805270195,-0.004609399009495974,-0.015213574282824993
1772639525810394600,5.92939453125,-0.006283728405833244,-0.007211307529360056,-0.017185911536216736
1772639525820439300,5.939439208984375,0.001800030586309731,0.0008468852029182017,-0.008678709156811237
1772639525830484500,5.949484375,0.0062403189949691296,0.009659551084041595,0.0018405106384307146
1772639525840529400,5.959529296875,0.004494616761803627,0.00871998816728592,0.012436696328222752
1772639525850574600,5.96957470703125,0.001353418454527855,-0.0034384073223918676,0.014088388532400131
1772639525860619500,5.97961962890625,0.00023542344570159912,-0.01500984188169241,0.011100322008132935
1772639525870664400,5.98966455078125,-0.0003632551815826446,-0.019539879634976387,0.003058374160900712
1772639525880709400,5.99970947265625,-0.0008455536444671452,-0.017185645177960396,-0.007643272168934345
1772639525890753500,6.00975341796875,-0.00487198680639267,-0.010237190872430801,-0.011376491747796535
1772639525900798200,6.019798095703125,-0.007446997333317995,-0.0075548551976680756,-0.009326656349003315
1772639525910843400,6.029843505859375,-0.005050152540206909,0.001998968655243516,-0.0031129689887166023
1772639525920888300,6.039888427734375,0.00026072346372529864,-0.0004703142330981791,-0.00016405072528868914
1772639525930933500,6.04993359375,0.007485080510377884,-0.010751447640359402,-0.00019148127466905862
1772639525940978400,6.059978515625,0.009097091853618622,-0.01560878660529852,-0.0031369375064969063
1772639525951023400,6.0700234375,0.005682653281837702,-0.013321664184331894,-0.0073503246530890465
1772639525961068300,6.080068359375,0.001785116852261126,-0.006835002917796373,-0.011482751928269863
1772639525971113500,6.090113525390625,-0.003177417442202568,-0.00021411814668681473,-0.011666775681078434
1772639525981158400,6.100158447265625,-0.003043726785108447,0.0011563445441424847,-0.0126420259475708
1772639525991202300,6.110202392578125,-0.00199284334667027,-0.00640756543725729,-0.012310994789004326
1772639526001247500,6.12024755859375,0.0003608583356253803,-0.01152536179870367,-0.007548197638243437
1772639526011292400,6.13029248046875,-0.0030511836521327496,-0.01506816502660513,-0.0036495958920568228
1772639526021337600,6.140337646484375,-0.0021518340799957514,-0.021259482949972153,-0.0003193130251020193
1772639526031382300,6.15038232421875,-0.001675128354690969,-0.022890934720635414,-0.004315119702368975
1772639526041427500,6.160427490234375,-0.005126318894326687,-0.015812251716852188,-0.00663366774097085
1772639526051472400,6.170472412109375,-0.006613161414861679,-0.006352171767503023,-0.009488577023148537
1772639526061517600,6.180517578125,-0.004033357370644808,0.003451456781476736,-0.01131204329431057
1772639526071562500,6.1905625,-0.0028479844331741333,0.00635004136711359,-0.013062804937362671
1772639526081606400,6.2006064453125,0.0025800704024732113,0.0033515882678329945,-0.010356500744819641
1772639526091651800,6.21065185546875,0.004312989301979542,-0.0038991342298686504,-0.0076027922332286835
1772639526101697000,6.220697021484375,0.0008625978953205049,-0.011078749783337116,-0.006128199864178896
1772639526111742000,6.230741943359375,-0.0004617921367753297,-0.014304903335869312,-0.00703820213675499
1772639526121787000,6.240786865234375,-0.001606418751180172,-0.010172742418944836,-0.005203284323215485
1772639526131831800,6.250831787109375,-0.0026234800461679697,-0.012484366074204445,-0.005106078926473856
1772639526141877000,6.260876953125,-0.003914314322173595,-0.01161564327776432,-0.004581702407449484
1772639526151922000,6.270921875,-0.0031707596499472857,-0.009188172407448292,-0.004388889297842979
1772639526161967000,6.280967041015625,-0.00020985709852539003,-0.009861685335636139,-0.005850698333233595
1772639526172011800,6.29101171875,0.001871136948466301,-0.011652661487460136,-0.013437777757644653
1772639526182056000,6.301055908203125,0.000005592638444795739,-0.009758088737726212,-0.016096411272883415
1772639526192101000,6.31110107421875,-0.0021315941121429205,-0.009555954486131668,-0.02219212055206299
1772639526202146000,6.32114599609375,-0.0014050838071852922,-0.004418450407683849,-0.025476064532995224
1772639526212191000,6.33119091796875,0.0017161410069093108,0.004895422607660294,-0.025300828740000725
1772639526222236000,6.34123583984375,0.0019323896849527955,0.006981743033975363,-0.02075481228530407
1772639526232281000,6.351281005859375,0.0021076255943626165,0.005042162723839283,-0.01654542051255703
1772639526242326000,6.361325927734375,-0.0011965582380071282,-0.003802727675065398,-0.012644155882298946
1772639526252371000,6.371370849609375,0.0005483448621816933,-0.009461412206292152,-0.010774084366858006
1772639526262416000,6.381415771484375,0.0018253305461257696,-0.008084025233983994,-0.009080580435693264
1772639526272461000,6.3914609375,-0.00013875069271307439,-0.0036101811565458775,-0.006445115897804499
1772639526282505000,6.4015048828125,0.0014394385507330298,0.0009118663729168475,-0.003245860803872347
1772639526292550000,6.4115498046875,-0.0005241101025603712,-0.00046392265358008444,0.0012042814632877707
1772639526302594800,6.4215947265625,-0.00039068571641109884,-0.001350755337625742,-0.0006450176006183028
1772639526312640000,6.431639892578125,0.0034911378752440214,-0.006808104924857616,-0.005221127066761255
1772639526322685000,6.441684814453125,0.0035398737527430058,-0.013273993507027626,-0.012595154345035553
1772639526332730000,6.451730224609375,0.0026911243330687284,-0.011630822904407978,-0.022249378263950348
1772639526342774800,6.46177490234375,-0.004932973068207502,0.00036698358599096537,-0.03309270739555359
1772639526352820000,6.471820068359375,-0.005628857295960188,0.0013965616235509515,-0.04038843512535095
1772639526362865000,6.481864990234375,-0.005782788153737783,0.0014884406700730324,-0.03820810467004776
1772639526372910000,6.49191015625,-0.0002913498319685459,-0.0008412926108576357,-0.030776554718613625
1772639526382954000,6.5019541015625,0.00293347192928195,0.003771568648517132,-0.025261681526899338
1772639526392999000,6.5119990234375,0.002746784361079335,0.008411061950027943,-0.01852681301534176
1772639526403044000,6.522044189453125,-0.0004194478678982705,0.008404936641454697,-0.014128335751593113
1772639526413089000,6.532089111328125,-0.004176901653409004,-0.0017246630741283298,-0.013831659220159054
1772639526423134000,6.542134033203125,-0.004979312419891357,-0.015531289391219616,-0.012880112044513226
1772639526433179000,6.552178955078125,-0.005293298978358507,-0.01744956336915493,-0.00780492601916194
1772639526443224000,6.56222412109375,-0.0036216326989233494,-0.013367470353841782,0.0007225155713967979
1772639526453269000,6.57226904296875,-0.004160390235483646,-0.005545766558498144,0.0038458709605038166
1772639526463314200,6.582314208984375,-0.003634415799751878,-0.005210474599152803,0.005043494515120983
1772639526473358800,6.59235888671875,-0.003689809702336788,0.002546780975535512,0.006811034400016069
1772639526483403000,6.602403076171875,-0.0025097629986703396,0.00911227148026228,0.006527673918753862
1772639526493448000,6.612447998046875,-0.0007344998302869499,0.00818123109638691,0.0017574200173839927
1772639526503492900,6.622492919921875,0.002624278888106346,0.00845580268651247,-0.004711132030934095
1772639526513537800,6.632537841796875,0.003367567202076316,0.008780175819993019,-0.010837467387318611
1772639526523583000,6.6425830078125,-0.0018093516118824482,0.002067412016913295,-0.017592042684555054
1772639526533628000,6.6526279296875,-0.004711132030934095,0.0005187837523408234,-0.023923974484205246
1772639526543673000,6.662673095703125,-0.005881058517843485,-0.00040746363811194897,-0.02395113930106163
1772639526553717800,6.6727177734375,-0.007726895622909069,-0.0009323726990260184,-0.021811289712786674
1772639526563763000,6.682762939453125,-0.004736431874334812,0.0023409186396747828,-0.011949603445827961
1772639526573807000,6.69280712890625,-0.0024261397775262594,0.00019494339358061552,-0.0054914383217692375
1772639526583852000,6.70285205078125,-0.0007970841252245009,-0.0068331388756632805,0.0013483584625646472
1772639526593897000,6.71289697265625,-0.001047687605023384,-0.010150105692446232,0.004831773228943348
1772639526603942000,6.72294189453125,-0.0020453077740967274,-0.009305351413786411,-0.0013960290234535933
1772639526613987000,6.732987060546875,-0.0011560781858861446,-0.0035143073182553053,-0.007699464913457632
1772639526624032000,6.743031982421875,-0.0011638014111667871,-0.003306314582005143,-0.013673733919858932
1772639526634077000,6.753076904296875,-0.0005925533478148282,-0.0013164004776626825,-0.016497217118740082
1772639526644121900,6.763121826171875,0.0024146882351487875,-0.005102883093059063,-0.016756609082221985
1772639526654167000,6.7731669921875,0.004667722620069981,-0.006090383045375347,-0.01745489053428173
1772639526664212000,6.7832119140625,0.007426757365465164,-0.009225189685821533,-0.019275160506367683
1772639526674257200,6.793257080078125,0.007486145943403244,-0.007045126520097256,-0.015515576116740704
1772639526684300800,6.80330078125,0.004822185728698969,-0.009749299846589565,-0.014201040379703045
1772639526694346000,6.813345947265625,0.0008024104172363877,-0.01227717287838459,-0.013835920952260494
1772639526704391000,6.823390869140625,-0.002115348819643259,-0.012295814231038094,-0.014230867847800255
1772639526714436000,6.83343603515625,-0.005514075048267841,-0.012824186123907566,-0.011836685240268707
1772639526724480800,6.843480712890625,-0.006689327768981457,-0.011811652220785618,-0.012584234587848186
1772639526734526000,6.85352587890625,-0.011489675380289555,-0.007199855986982584,-0.016017848625779152
1772639526744571000,6.86357080078125,-0.012914733029901981,-0.002531334524974227,-0.018458902835845947
1772639526754616000,6.873615966796875,-0.013806359842419624,0.0020237360149621964,-0.015805061906576157
1772639526764660700,6.88366064453125,-0.012033226899802685,0.0048861014656722546,-0.00830746442079544
1772639526774705000,6.893704833984375,-0.011332815513014793,0.0032344090286642313,-0.0012772521004080772
1772639526784750000,6.90375,-0.01070990227162838,-0.0009155947482213378,0.0043891556560993195
1772639526794795000,6.913794921875,-0.011470234952867031,-0.006434197071939707,0.009504289366304874
1772639526804840000,6.92383984375,-0.01261006761342287,-0.0067636300809681416,0.008342085406184196
1772639526814884900,6.933884765625,-0.01432301290333271,-0.003369697602465749,0.008171376772224903
1772639526824930000,6.943929931640625,-0.018765166401863098,-0.0010727213229984045,0.0034474621061235666
1772639526834975000,6.95397509765625,-0.02087598666548729,0.0004340952436905354,-0.002290318487212062
1772639526845020200,6.964020263671875,-0.019773172214627266,0.004999818746000528,-0.008242749609053135
1772639526855064800,6.97406494140625,-0.019209381192922592,0.0025598304346203804,-0.014780277386307716
1772639526865110000,6.984110107421875,-0.015470036305487156,-0.0003246393462177366,-0.019085276871919632
1772639526875154000,6.99415380859375,-0.012855610810220242,-0.005678125657141209,-0.019268237054347992
1772639526885198800,7.00419873046875,-0.01218582596629858,-0.007407050114125013,-0.014222345314919949
1772639526895243800,7.014243896484375,-0.016746222972869873,-0.009770872071385384,-0.009400958195328712
1772639526905289000,7.0242890625,-0.020259466022253036,-0.018854115158319473,-0.00028868665685877204
1772639526915334000,7.034333984375,-0.019566776230931282,-0.019477294757962227,0.02154284343123436
1772639526925379000,7.044379150390625,-0.028321653604507446,-0.048175517469644547,0.05989422649145126
1772639526935423700,7.054423828125,-0.021191304549574852,-0.09423515200614929,0.06900649517774582
1772639526945469000,7.064468994140625,-0.0015733955660834908,-0.09792416542768478,0.06681205332279205
1772639526955513900,7.074513916015625,0.013892912305891514,-0.09268572926521301,0.049131326377391815
1772639526965559000,7.08455908203125,0.015294534154236317,-0.06493399292230606,0.00452843913808465
1772639526975603000,7.09460302734375,0.006277336739003658,-0.018399514257907867,-0.05450505390763283
1772639526985647900,7.10464794921875,-0.005891711451113224,0.0373242013156414,-0.11329593509435654
1772639526995693000,7.114693115234375,-0.015782425180077553,0.07291628420352936,-0.15468864142894745
1772639527005738000,7.124738037109375,-0.02689792588353157,0.07753048092126846,-0.16779832541942596
1772639527015783000,7.134782958984375,-0.03292465955018997,0.07425878196954727,-0.13421186804771423
1772639527025827800,7.144827880859375,-0.011347996070981026,0.06788424402475357,-0.07885753363370895
1772639527035873000,7.154873046875,0.007668306119740009,0.025709623470902443,-0.03115898370742798
