time,seconds_elapsed,z,y,x
1772731624365996800,0.069996826171875,0.14029636979103088,0.1014324501156807,-0.04460664093494415
1772731624376025000,0.080025146484375,0.15435679256916046,0.08047869801521301,-0.052203573286533356
1772731624386052900,0.090052978515625,0.1778949499130249,0.053978413343429565,-0.05431819334626198
1772731624396081000,0.100080810546875,0.1844966560602188,0.037434324622154236,-0.05432138964533806
1772731624406109000,0.11010888671875,0.18211022019386292,0.03508264571428299,-0.057661838829517365
1772731624416137000,0.120136962890625,0.18200822174549103,0.032412558794021606,-0.06250346451997757
1772731624426165000,0.1301650390625,0.1889466941356659,0.0497581921517849,-0.07391524314880371
1772731624436193000,0.140193115234375,0.2079307734966278,0.058220651000738144,-0.08010735362768173
1772731624446220800,0.150220703125,0.22450155019760132,0.04966501146554947,-0.08277750760316849
1772731624456249000,0.1602490234375,0.2292233407497406,0.03240320086479187,-0.0879397764801979
1772731624466275800,0.17027587890625,0.22440049052238464,0.010526204481720924,-0.09980004280805588
1772731624476304000,0.180303955078125,0.21623338758945465,-0.004488963633775711,-0.11488791555166245
1772731624486332000,0.190331787109375,0.2152407169342041,-0.01874838024377823,-0.1261623054742813
1772731624496360000,0.20035986328125,0.20954635739326477,-0.041533321142196655,-0.12239526212215424
1772731624506388000,0.210387939453125,0.19479568302631378,-0.04756960645318031,-0.10193213075399399
1772731624516415700,0.220415771484375,0.17246775329113007,-0.04593069478869438,-0.06802529841661453
1772731624526444000,0.230444091796875,0.1600281000137329,-0.06097370386123657,-0.034337352961301804
1772731624536471800,0.240471923828125,0.15058240294456482,-0.07994340360164642,-0.012621668167412281
1772731624546499800,0.250499755859375,0.1428140550851822,-0.1061394065618515,-0.00263490853831172
1772731624556527900,0.26052783203125,0.1438542902469635,-0.13464081287384033,0.011011128313839436
1772731624566556000,0.270555908203125,0.13967226445674896,-0.16322895884513855,0.027431726455688477
1772731624576583000,0.2805830078125,0.12146342545747757,-0.18834443390369415,0.04130839556455612
1772731624586611000,0.29061083984375,0.10880216211080551,-0.19759736955165863,0.05002285912632942
1772731624596639000,0.300638916015625,0.11115799099206924,-0.19051122665405273,0.04766915738582611
1772731624606666800,0.310666748046875,0.12515027821063995,-0.16195747256278992,0.046080831438302994
1772731624616695000,0.320695068359375,0.13859231770038605,-0.13269013166427612,0.05037438124418259
1772731624626722800,0.330722900390625,0.14987532794475555,-0.0944288820028305,0.06513706594705582
1772731624636750800,0.340750732421875,0.1617937684059143,-0.06597407162189484,0.08619814366102219
1772731624646779000,0.35077880859375,0.1702023148536682,-0.049245089292526245,0.11159896105527878
1772731624656807000,0.360806884765625,0.17608842253684998,-0.0409565307199955,0.12388119846582413
1772731624666835000,0.3708349609375,0.18220020830631256,-0.03896123915910721,0.11851322650909424
1772731624676863000,0.380863037109375,0.19490908086299896,-0.039307184517383575,0.09530431032180786
1772731624686890800,0.390890869140625,0.20829693973064423,-0.04758530110120773,0.06633539497852325
1772731624696919000,0.4009189453125,0.2224729359149933,-0.05443068966269493,0.030788585543632507
1772731624706945800,0.41094580078125,0.2242821455001831,-0.05604729801416397,-0.002201446332037449
1772731624716974000,0.42097412109375,0.2188064306974411,-0.04130217432975769,-0.025294780731201172
1772731624727001900,0.431001953125,0.20949840545654297,-0.021964022889733315,-0.029276754707098007
1772731624737030100,0.441030029296875,0.20705629885196686,-0.005029247608035803,-0.01487997267395258
1772731624747058000,0.451057861328125,0.2066562920808792,-0.011894202791154385,0.004513953346759081
1772731624757085700,0.461085693359375,0.19843830168247223,-0.030985338613390923,0.004596777725964785
1772731624767114000,0.471114013671875,0.17721304297447205,-0.05266515538096428,-0.011167636141180992
1772731624777141800,0.481141845703125,0.1574161797761917,-0.06982816010713577,-0.022789403796195984
1772731624787170000,0.491170166015625,0.14422070980072021,-0.07390706241130829,-0.02503976970911026
1772731624797197800,0.50119775390625,0.14785325527191162,-0.06391514837741852,-0.009545765817165375
1772731624807225900,0.511225830078125,0.14361433684825897,-0.048158660531044006,0.010489415377378464
1772731624817254000,0.52125390625,0.13362933695316315,-0.03849378600716591,0.029038066044449806
1772731624827281000,0.531281005859375,0.12046011537313461,-0.01988277956843376,0.03835345804691315
1772731624837309000,0.541308837890625,0.1008259579539299,-0.00505856005474925,0.04229733347892761
1772731624847337000,0.5513369140625,0.08995503187179565,0.007565675303339958,0.03769395500421524
1772731624857365000,0.561364990234375,0.08117911964654922,0.02285834588110447,0.03159904479980469
1772731624867393000,0.57139306640625,0.08118783682584763,0.027795951813459396,0.025295397266745567
1772731624877420800,0.5814208984375,0.08021099120378494,0.034038133919239044,0.025712713599205017
1772731624887449000,0.591448974609375,0.07694000005722046,0.031562142074108124,0.026933612301945686
1772731624897476900,0.601476806640625,0.061032138764858246,0.024302631616592407,0.02712482586503029
1772731624907505200,0.611505126953125,0.039244186133146286,0.014452343806624413,0.03419109806418419
1772731624917533000,0.621532958984375,0.020410843193531036,0.008057561703026295,0.04399339482188225
1772731624927560700,0.631560791015625,0.008113234303891659,0.014323607087135315,0.05227363854646683
1772731624937589000,0.641589111328125,-0.01195022277534008,0.03151724115014076,0.056774113327264786
1772731624947616800,0.65161669921875,-0.03050609864294529,0.05226512998342514,0.056368790566921234
1772731624957644000,0.66164404296875,-0.037876930087804794,0.0646059513092041,0.049270667135715485
1772731624967671800,0.671671875,-0.0430137999355793,0.07305607199668884,0.036293789744377136
1772731624977700000,0.6817001953125,-0.049551062285900116,0.08843902498483658,0.015898503363132477
1772731624987728000,0.691727783203125,-0.04946624115109444,0.094040647149086,0.0027902976144105196
1772731624997756000,0.701755859375,-0.050726715475320816,0.09464304894208908,-0.003061466384679079
1772731625007784000,0.711783935546875,-0.06010683625936508,0.08881570398807526,-0.0068067507818341255
1772731625017812000,0.72181201171875,-0.08002568036317825,0.07189317792654037,-0.004068488255143166
1772731625027840000,0.731840087890625,-0.09904511272907257,0.05447173863649368,0.005896469112485647
1772731625037868000,0.741867919921875,-0.11178646981716156,0.0408126525580883,0.013065432198345661
1772731625047895800,0.751895751953125,-0.12682701647281647,0.023103266954421997,0.02196178026497364
1772731625057924000,0.761924072265625,-0.1428709626197815,0.012692969292402267,0.02370801568031311
1772731625067951900,0.771951904296875,-0.1592472940683365,0.014384735375642776,0.01787358894944191
1772731625077979000,0.781978759765625,-0.16984134912490845,0.019926240667700768,0.010354685597121716
1772731625088007000,0.7920068359375,-0.17651526629924774,0.026325639337301254,0.0012435481185093522
1772731625098035000,0.802034912109375,-0.18153345584869385,0.031507618725299835,-0.00036526747862808406
1772731625108063000,0.81206298828125,-0.1898951232433319,0.03337710350751877,-0.0020930138416588306
1772731625118090800,0.8220908203125,-0.2050628960132599,0.04126591980457306,-0.007573266979306936
1772731625128119000,0.832119140625,-0.22020559012889862,0.03702313080430031,-0.0064688981510698795
1772731625138146800,0.842146728515625,-0.23149873316287994,0.027325496077537537,0.0018159294268116355
1772731625148175000,0.852175048828125,-0.24680893123149872,0.02102140337228775,0.012742321938276291
1772731625158203000,0.862202880859375,-0.2622728645801544,0.03430977836251259,0.017448659986257553
1772731625168231000,0.87223095703125,-0.276106595993042,0.04144413769245148,0.02697421982884407
1772731625178259000,0.882259033203125,-0.286268949508667,0.04906291142106056,0.03443453088402748
1772731625188287000,0.892286865234375,-0.2891122102737427,0.05575514957308769,0.03107871674001217
1772731625198314000,0.90231396484375,-0.30107590556144714,0.05211780220270157,0.019753625616431236
1772731625208341800,0.912341796875,-0.3244497776031494,0.03924429789185524,0.010355168953537941
1772731625218370000,0.9223701171875,-0.33601027727127075,0.03558724373579025,-0.006751380395144224
1772731625228397800,0.932397705078125,-0.3437105119228363,0.03003004379570484,-0.01398562639951706
1772731625238425900,0.94242578125,-0.34434008598327637,0.027108822017908096,-0.005507719237357378
1772731625248454000,0.952453857421875,-0.3409985899925232,0.028968382626771927,0.016329647973179817
1772731625258482000,0.96248193359375,-0.3423791527748108,0.034794047474861145,0.030165301635861397
1772731625268510000,0.972510009765625,-0.348299115896225,0.02481825277209282,0.04370639845728874
1772731625278538000,0.9825380859375,-0.3579554855823517,0.00936126708984375,0.05315076559782028
1772731625288565800,0.992565673828125,-0.36885619163513184,-0.002026480156928301,0.05581726133823395
1772731625298594000,1.002593994140625,-0.37513965368270874,-0.0017071670154109597,0.048753492534160614
1772731625308621800,1.012621826171875,-0.37605491280555725,-0.003938470035791397,0.05071299150586128
1772731625318650000,1.022650146484375,-0.37916895747184753,-0.011620357632637024,0.05203764885663986
1772731625328676900,1.0326767578125,-0.37991347908973694,-0.007520759478211403,0.053571246564388275
1772731625338705000,1.042704833984375,-0.378001868724823,-0.003975559026002884,0.05132646858692169
1772731625348733000,1.05273291015625,-0.37745529413223267,-0.008228059858083725,0.04324236884713173
1772731625358761200,1.06276123046875,-0.37805238366127014,-0.01631235145032406,0.03391171991825104
1772731625368789500,1.07278955078125,-0.3781832158565521,-0.02759740687906742,0.021272173151373863
1772731625378817300,1.0828173828125,-0.3653084337711334,-0.03607238456606865,0.003729398362338543
1772731625388845600,1.092845458984375,-0.36191609501838684,-0.0461156964302063,-0.006880901753902435
1772731625398873300,1.102873291015625,-0.35248318314552307,-0.053269870579242706,-0.00462095532566309
1772731625408901400,1.1129013671875,-0.34666842222213745,-0.06677928566932678,0.009208041243255138
1772731625418929400,1.122929443359375,-0.3460889458656311,-0.08673834800720215,0.024098040536046028
1772731625428957400,1.13295751953125,-0.3428131639957428,-0.11088161170482635,0.03901035338640213
1772731625438985500,1.1429853515625,-0.33967968821525574,-0.13957875967025757,0.04756709188222885
1772731625449012500,1.153012451171875,-0.3283037543296814,-0.16283629834651947,0.05170060321688652
1772731625459040500,1.16304052734375,-0.31275781989097595,-0.1834733933210373,0.04705711454153061
1772731625469068500,1.173068603515625,-0.3088947832584381,-0.20780357718467712,0.03695828467607498
1772731625479096300,1.183096435546875,-0.30745160579681396,-0.21315626800060272,0.03133049234747887
1772731625489124400,1.193124267578125,-0.3023030459880829,-0.21550415456295013,0.021231088787317276
1772731625499152400,1.20315234375,-0.29097554087638855,-0.2057764232158661,0.006271049380302429
1772731625509180400,1.213180419921875,-0.2801111936569214,-0.18411175906658173,-0.010429611429572105
1772731625519208400,1.22320849609375,-0.27740728855133057,-0.16576044261455536,-0.035462528467178345
1772731625529236200,1.233236328125,-0.28654441237449646,-0.149149551987648,-0.05501961708068848
1772731625539264500,1.243264404296875,-0.302120178937912,-0.14801372587680817,-0.07220073789358139
1772731625549292300,1.253292236328125,-0.31898966431617737,-0.149525448679924,-0.0760173574090004
1772731625559320600,1.263320556640625,-0.33130091428756714,-0.1515132337808609,-0.06658177822828293
1772731625569347300,1.273347412109375,-0.3449200987815857,-0.14375385642051697,-0.06043517217040062
1772731625579375600,1.283375732421875,-0.35926759243011475,-0.12660282850265503,-0.053055018186569214
1772731625589403400,1.2934033203125,-0.3659892678260803,-0.09812622517347336,-0.0459754578769207
1772731625599431400,1.303431396484375,-0.37318140268325806,-0.06759201735258102,-0.040046993643045425
1772731625609459500,1.31345947265625,-0.38450998067855835,-0.030201658606529236,-0.04298947751522064
1772731625619487500,1.323487548828125,-0.3974319100379944,-0.015101269818842411,-0.03811962157487869
1772731625629515500,1.333515625,-0.408761203289032,-0.006104134954512119,-0.027963202446699142
1772731625639543600,1.34354345703125,-0.42762118577957153,-0.004267618991434574,-0.009464619681239128
1772731625649571300,1.3535712890625,-0.4512823224067688,-0.007611377164721489,0.01778222620487213
1772731625659599400,1.363599365234375,-0.46062201261520386,-0.007475556340068579,0.041041743010282516
1772731625669627400,1.37362744140625,-0.45697078108787537,-0.025161057710647583,0.06333049386739731
1772731625679655400,1.383655517578125,-0.44950538873672485,-0.05530111491680145,0.08475296199321747
1772731625689683500,1.393683349609375,-0.45568302273750305,-0.05997556820511818,0.09888730198144913
1772731625699710500,1.40371044921875,-0.4632149934768677,-0.05827780440449715,0.10870504379272461
1772731625709738500,1.413738525390625,-0.47127822041511536,-0.04702528938651085,0.12408481538295746
1772731625719766300,1.423766357421875,-0.4730454981327057,-0.02693493478000164,0.14899948239326477
1772731625729794600,1.433794677734375,-0.4736526906490326,-0.014729243703186512,0.17110766470432281
1772731625739822300,1.443822265625,-0.4770210385322571,-0.01508264522999525,0.19325292110443115
1772731625749850600,1.4538505859375,-0.47684478759765625,-0.016964877024292946,0.211694598197937
1772731625759878400,1.46387841796875,-0.4726116955280304,-0.012825792655348778,0.21969181299209595
1772731625769906400,1.473906494140625,-0.46136051416397095,-0.012113574892282486,0.21428196132183075
1772731625779934500,1.4839345703125,-0.43891966342926025,-0.015141323208808899,0.20100343227386475
1772731625789962500,1.49396240234375,-0.4173193871974945,-0.023266414180397987,0.1820780485868454
1772731625799990500,1.503990478515625,-0.39824235439300537,-0.028898201882839203,0.16063907742500305
1772731625810017300,1.514017333984375,-0.38464462757110596,-0.033124834299087524,0.13762176036834717
1772731625820045600,1.524045654296875,-0.3651212453842163,-0.028839807957410812,0.11738519370555878
1772731625830073300,1.5340732421875,-0.34078195691108704,-0.021829888224601746,0.09949339181184769
1772731625840101400,1.544101318359375,-0.3210996091365814,-0.009091190062463284,0.09169725328683853
1772731625850129400,1.55412939453125,-0.3134240210056305,-0.00808380451053381,0.09341330081224442
1772731625860157400,1.564157470703125,-0.3173297941684723,-0.014243430458009243,0.09173870831727982
1772731625870185500,1.574185546875,-0.32243257761001587,-0.01754983328282833,0.07896023988723755
1772731625880213500,1.584213623046875,-0.31874915957450867,-0.00655949953943491,0.062908835709095
1772731625890241300,1.5942412109375,-0.3134573698043823,0.00492476113140583,0.05146300792694092
1772731625900269600,1.60426953125,-0.29574841260910034,0.015044773928821087,0.041749127209186554
1772731625910297300,1.61429736328125,-0.27819493412971497,0.01938178390264511,0.03451162576675415
1772731625920325600,1.62432568359375,-0.25996133685112,0.018130097538232803,0.02903377078473568
1772731625930353400,1.634353515625,-0.24614198505878448,0.016402453184127808,0.025221016258001328
1772731625940380400,1.64438037109375,-0.23767712712287903,0.019889064133167267,0.020508820191025734
1772731625950408400,1.654408447265625,-0.22724215686321259,0.031588826328516006,0.012510892935097218
1772731625960436200,1.664436279296875,-0.21859221160411835,0.040243834257125854,0.0024518673308193684
1772731625970464500,1.674464599609375,-0.20758897066116333,0.0319107323884964,0.0028725196607410908
1772731625980492300,1.6844921875,-0.1945008635520935,0.01987404190003872,0.012117949314415455
1772731625990520600,1.6945205078125,-0.1860896646976471,0.012549888342618942,0.025038935244083405
1772731626000548400,1.70454833984375,-0.17561118304729462,0.014406910166144371,0.031731728464365005
1772731626010576400,1.714576416015625,-0.16789202392101288,0.017914151772856712,0.038112934678792953
1772731626020604400,1.7246044921875,-0.16545017063617706,0.016012920066714287,0.04103921726346016
1772731626030632400,1.734632568359375,-0.17008253931999207,0.011356614530086517,0.04531819000840187
1772731626040660500,1.744660400390625,-0.1673932820558548,0.01245064102113247,0.044615115970373154
1772731626050688500,1.7546884765625,-0.16006159782409668,0.011721218004822731,0.0375681035220623
1772731626060715500,1.764715576171875,-0.1436874121427536,0.011034123599529266,0.029140794649720192
1772731626070743300,1.774743408203125,-0.1207350566983223,0.017357071861624718,0.01785976067185402
1772731626080771300,1.784771240234375,-0.09318039566278458,0.012361514382064342,0.006906444672495127
1772731626090799400,1.79479931640625,-0.06419947743415833,-0.0074511440470814705,0.0035318266600370407
1772731626100827400,1.804827392578125,-0.05333990976214409,-0.03354586288332939,0.004617597442120314
1772731626110855400,1.81485546875,-0.0541129931807518,-0.05009579285979271,0.004157900810241699
1772731626120883500,1.824883544921875,-0.04585293307900429,-0.045136187225580215,-0.012066875584423542
1772731626130911200,1.8349111328125,-0.023661475628614426,-0.009748955257236958,-0.048297200351953506
1772731626140939500,1.844939453125,0.004255109932273626,0.006003642920404673,-0.07673310488462448
1772731626150967300,1.85496728515625,0.030714282765984535,-0.002554638311266899,-0.077689029276371
1772731626160995600,1.86499560546875,0.0484972707927227,-0.018242254853248596,-0.06327813118696213
1772731626171023400,1.8750234375,0.05554942414164543,-0.018817177042365074,-0.053779806941747665
1772731626181050400,1.88505029296875,0.058940961956977844,-0.01680409349501133,-0.052339036017656326
1772731626191078400,1.895078369140625,0.056305598467588425,-0.01702655851840973,-0.05329547077417374
1772731626201106400,1.9051064453125,0.0515955314040184,-0.01672322303056717,-0.053816650062799454
1772731626211134500,1.915134521484375,0.050184085965156555,-0.012072526849806309,-0.05290188640356064
1772731626221162200,1.925162353515625,0.05167971923947334,-0.016226790845394135,-0.04044308885931969
1772731626231190500,1.9351904296875,0.057469360530376434,-0.02693951688706875,-0.03491484001278877
1772731626241218300,1.94521826171875,0.06097248196601868,-0.03649973124265671,-0.029456160962581635
1772731626251246300,1.955246337890625,0.06774507462978363,-0.04070690646767616,-0.02726455219089985
1772731626261274400,1.9652744140625,0.07308737188577652,-0.036618154495954514,-0.03298236057162285
1772731626271302400,1.975302490234375,0.08157739788293839,-0.03819149732589722,-0.032092977315187454
1772731626281330400,1.985330322265625,0.08948831260204315,-0.048597000539302826,-0.03073636256158352
1772731626291358500,1.9953583984375,0.103490449488163,-0.04924599453806877,-0.0365881621837616
1772731626301385500,2.005385498046875,0.11291538178920746,-0.050947222858667374,-0.04640723764896393
1772731626311413500,2.01541357421875,0.12527470290660858,-0.05193772166967392,-0.05557289719581604
1772731626321441500,2.025441650390625,0.14175887405872345,-0.053118303418159485,-0.06337223201990128
1772731626331469300,2.03546923828125,0.14496035873889923,-0.05638299882411957,-0.06498223543167114
1772731626341497300,2.045497314453125,0.14597342908382416,-0.05024388059973717,-0.059661511331796646
1772731626351525400,2.055525390625,0.14407362043857574,-0.039731018245220184,-0.054374951869249344
1772731626361553000,2.065552978515625,0.14152391254901886,-0.03394077345728874,-0.0488843135535717
1772731626371581000,2.075580810546875,0.14657007157802582,-0.03659100830554962,-0.04468904808163643
1772731626381609000,2.08560888671875,0.14750245213508606,-0.03454437106847763,-0.03722607344388962
1772731626391636700,2.09563671875,0.15522845089435577,-0.02467009611427784,-0.03905767574906349
1772731626401665000,2.1056650390625,0.16200965642929077,-0.024718299508094788,-0.04676726087927818
1772731626411692000,2.115692138671875,0.164541557431221,-0.01826276071369648,-0.05367129668593407
1772731626421720000,2.125719970703125,0.1695094108581543,-0.00966421328485012,-0.06348824501037598
1772731626431747800,2.135747802734375,0.17102834582328796,-0.009761489927768707,-0.06587696075439453
1772731626441775900,2.14577587890625,0.17104113101959229,-0.003031149273738265,-0.06707565486431122
1772731626451804000,2.155803955078125,0.17198701202869415,0.009976226836442947,-0.06625053286552429
1772731626461832000,2.16583203125,0.17765821516513824,0.0291946642100811,-0.0661485344171524
1772731626471860000,2.17585986328125,0.17645570635795593,0.036378875374794006,-0.07224225997924805
1772731626481887700,2.1858876953125,0.17540109157562256,0.03664279729127884,-0.07779388874769211
1772731626491916000,2.195916015625,0.16943861544132233,0.03720596432685852,-0.0843765065073967
1772731626501943800,2.20594384765625,0.16105924546718597,0.03395983949303627,-0.07465597242116928
1772731626511971800,2.215971923828125,0.1569853276014328,0.027424264699220657,-0.05426698923110962
1772731626522000000,2.225999755859375,0.15513204038143158,0.028118548914790154,-0.024639055132865906
1772731626532027000,2.23602685546875,0.15041226148605347,0.025284752249717712,-0.0018838163232430816
1772731626542055000,2.246054931640625,0.1473482996225357,0.01809954270720482,0.017898408696055412
1772731626552083000,2.2560830078125,0.13693110644817352,0.009717794135212898,0.03321980684995651
1772731626562111000,2.266111083984375,0.12423421442508698,0.002700364449992776,0.03625767305493355
1772731626572139000,2.276138916015625,0.11422755569219589,-0.005470533389598131,0.031088585034012794
1772731626582166800,2.286166748046875,0.11010045558214188,-0.006848718971014023,0.024544399231672287
1772731626592195000,2.296195068359375,0.11238224804401398,-0.005031378008425236,0.022982453927397728
1772731626602222800,2.306222900390625,0.1197325736284256,-0.011125756427645683,0.021839693188667297
1772731626612251000,2.3162509765625,0.12117244303226471,-0.006539295427501202,0.01953321136534214
1772731626622279000,2.32627880859375,0.12347527593374252,-0.0009610385168343782,0.02127917855978012
1772731626632306700,2.336306640625,0.1240888386964798,0.008773046545684338,0.02304571121931076
1772731626642335000,2.3463349609375,0.12682443857192993,0.013850362971425056,0.022530656307935715
1772731626652362000,2.356362060546875,0.1324905902147293,0.01194247417151928,0.02341535873711109
1772731626662390000,2.36639013671875,0.1341036707162857,0.01243196427822113,0.017252802848815918
1772731626672417800,2.376417724609375,0.13844238221645355,0.010390331968665123,0.008692177943885326
1772731626682446000,2.386446044921875,0.14393995702266693,0.009255291894078255,-0.005903009325265884
1772731626692473900,2.396473876953125,0.1448967158794403,0.012261023744940758,-0.0032693189568817616
1772731626702502000,2.406501953125,0.14988534152507782,0.008262287825345993,0.004838674794882536
1772731626712530000,2.416530029296875,0.16051359474658966,-0.00013739382848143578,0.013413935899734497
1772731626722558000,2.426557861328125,0.16526786983013153,-0.010127976536750793,0.02143164910376072
1772731626732586000,2.4365859375,0.18275371193885803,-0.005256220232695341,0.01157495379447937
1772731626742614000,2.446614013671875,0.19689643383026123,-0.006702050566673279,0.006646775174885988
1772731626752641800,2.456641845703125,0.21227069199085236,-0.009651856496930122,-0.005851000547409058
1772731626762669800,2.466669921875,0.22574016451835632,-0.009534411132335663,-0.024312298744916916
1772731626772697000,2.476697021484375,0.23159825801849365,-0.0055493079125881195,-0.045361291617155075
1772731626782724900,2.486724853515625,0.24155396223068237,-0.00756958220154047,-0.05726855248212814
1772731626792753000,2.4967529296875,0.2486848384141922,-0.021015474572777748,-0.06455869972705841
1772731626802781000,2.506781005859375,0.2557927966117859,-0.0216213446110487,-0.07107971608638763
1772731626812809000,2.51680908203125,0.2636505663394928,-0.025342650711536407,-0.06999433785676956
1772731626822837000,2.5268369140625,0.26310619711875916,-0.03335290774703026,-0.06331831961870193
1772731626832865000,2.536864990234375,0.2545904219150543,-0.029944345355033875,-0.06345941871404648
1772731626842892800,2.546892822265625,0.23510725796222687,-0.006216377951204777,-0.06641393154859543
1772731626852921000,2.556921142578125,0.21810497343540192,0.029698658734560013,-0.06217774748802185
1772731626862948900,2.566948974609375,0.21154001355171204,0.06544307619333267,-0.039990153163671494
1772731626872977000,2.576976806640625,0.21406203508377075,0.08219408988952637,-0.00502817565575242
1772731626883005000,2.5870048828125,0.21651320159435272,0.04881935566663742,0.03639436513185501
1772731626893032000,2.597031982421875,0.20721808075904846,0.021248500794172287,0.04059646278619766
1772731626903060000,2.60706005859375,0.19582852721214294,-0.006258491426706314,0.018478643149137497
1772731626913087700,2.617087646484375,0.18373160064220428,-0.03007824718952179,-0.014993744902312756
1772731626923116000,2.627115966796875,0.17486700415611267,-0.030357614159584045,-0.04163547605276108
1772731626933143800,2.637143798828125,0.17295145988464355,-0.007608730345964432,-0.04189625382423401
1772731626943172000,2.647172119140625,0.16993169486522675,0.02747309021651745,-0.01879839040338993
1772731626953199900,2.657199951171875,0.16860245168209076,0.05160477012395859,0.015309817157685757
1772731626963228000,2.667227783203125,0.16581518948078156,0.06944102793931961,0.03237109258770943
1772731626973256000,2.677255859375,0.16449019312858582,0.0951763242483139,0.009620564989745617
1772731626983284000,2.687283935546875,0.16073833405971527,0.09672681987285614,-0.005868646316230297
1772731626993312000,2.69731201171875,0.15683497488498688,0.04574645683169365,0.012970279902219772
1772731627003340000,2.707340087890625,0.1455990970134735,-0.019380079582333565,0.031174851581454277
1772731627013367000,2.717366943359375,0.12108668684959412,-0.041451346129179,0.028724588453769684
1772731627023394800,2.727394775390625,0.10303764790296555,-0.020251519978046417,0.028264127671718597
1772731627033422800,2.7374228515625,0.09686244279146194,0.03515055775642395,0.017567669972777367
1772731627043451000,2.747450927734375,0.12029985338449478,0.11386294662952423,-0.0038356243167072535
1772731627053479000,2.75747900390625,0.1529541015625,0.15579794347286224,-0.004700235556811094
1772731627063507000,2.7675068359375,0.1697610467672348,0.14516660571098328,0.015409559942781925
1772731627073535000,2.777534912109375,0.1643896847963333,0.09075314551591873,0.03365304693579674
1772731627083562800,2.787562744140625,0.1455981582403183,0.0434466227889061,0.01945573464035988
1772731627093591000,2.797591064453125,0.12502330541610718,0.023132668808102608,-0.002952311420813203
1772731627103618800,2.807618896484375,0.11407585442066193,0.039176084101200104,-0.013181246817111969
1772731627113647000,2.817647216796875,0.12026716768741608,0.06416971236467361,-0.004253251478075981
1772731627123673900,2.827673828125,0.1277189552783966,0.08307123184204102,0.01620568335056305
1772731627133702000,2.837701904296875,0.13680513203144073,0.08512335270643234,0.04228492081165314
1772731627143730000,2.84772998046875,0.1400025337934494,0.07132658362388611,0.057735517621040344
1772731627153757700,2.8577578125,0.14228494465351105,0.06893696635961533,0.04670648276805878
1772731627163786000,2.867785888671875,0.14522774517536163,0.07607290148735046,0.020985674113035202
1772731627173813800,2.877813720703125,0.14584186673164368,0.06953217834234238,0.0064711794257164
1772731627183842000,2.887842041015625,0.14882834255695343,0.056465912610292435,0.0073873065412044525
1772731627193869800,2.897869873046875,0.15923774242401123,0.039216049015522,0.005217447876930237
1772731627203897900,2.90789794921875,0.15885530412197113,0.029345041140913963,-0.003986170515418053
1772731627213926000,2.91792578125,0.15788927674293518,0.024442890658974648,-0.0038808509707450867
1772731627223954000,2.927953857421875,0.15683306753635406,0.0393105186522007,0.00042548050987534225
1772731627233982000,2.93798193359375,0.15516166388988495,0.06385208666324615,0.0029845121316611767
1772731627244009000,2.948009033203125,0.1547078639268875,0.07509967684745789,0.006788571365177631
1772731627254037000,2.958037109375,0.14899535477161407,0.07235713303089142,0.008222452364861965
1772731627264065000,2.96806494140625,0.14566268026828766,0.062427274882793427,0.005577134434133768
1772731627274092800,2.9780927734375,0.1417778879404068,0.055556975305080414,-0.0062858946621418
1772731627284120800,2.988120849609375,0.14582295715808868,0.05438438430428505,-0.024192189797759056
1772731627294148900,2.99814892578125,0.1486942619085312,0.05645465850830078,-0.03836273029446602
1772731627304177000,3.008177001953125,0.1521337330341339,0.050264932215213776,-0.034610070288181305
1772731627314205000,3.018204833984375,0.1545959711074829,0.03906018286943436,-0.025851650163531303
1772731627324232700,3.028232666015625,0.15328116714954376,0.02157226949930191,-0.014476491138339043
1772731627334261000,3.038260986328125,0.14588113129138947,0.013553101569414139,-0.007015944458544254
1772731627344288800,3.048288818359375,0.13364416360855103,0.012815406545996666,-0.0026571485213935375
1772731627354316500,3.058316650390625,0.1271810680627823,0.01477836724370718,-0.005173191428184509
1772731627364344600,3.068344482421875,0.12066670507192612,0.004863153211772442,-0.008844624273478985
1772731627374371600,3.07837158203125,0.11559291929006577,-0.00784023106098175,-0.01771860010921955
1772731627384399600,3.088399658203125,0.10086271166801453,0.004084072075784206,-0.033679988235235214
1772731627394427600,3.098427734375,0.0857720747590065,0.014628272503614426,-0.032957904040813446
1772731627404455400,3.108455322265625,0.07951604574918747,0.01940012536942959,-0.023487435653805733
1772731627414483500,3.1184833984375,0.07444561272859573,0.020466987043619156,-0.019507329910993576
1772731627424511500,3.128511474609375,0.07073130458593369,0.022265153005719185,-0.01541325356811285
1772731627434539500,3.13853955078125,0.06425463408231735,0.01912427321076393,-0.007688337471336126
1772731627444567600,3.148567626953125,0.05581853538751602,0.016991347074508667,0.0038005392998456955
1772731627454595600,3.158595703125,0.040587417781353,0.004707003012299538,0.006296419072896242
1772731627464623400,3.168623291015625,0.02646574191749096,0.001403351780027151,-0.0031817711424082518
1772731627474651600,3.178651611328125,0.013522978872060776,0.00583614781498909,-0.013972563669085503
1772731627484678400,3.188678466796875,0.00870292354375124,0.007735514082014561,-0.011219654232263565
1772731627494706700,3.198706787109375,0.012379986234009266,0.006453877780586481,0.0026002684608101845
1772731627504734500,3.208734375,0.014883090741932392,0.01365400105714798,0.015226581133902073
1772731627514762800,3.2187626953125,0.013277334161102772,0.009516192600131035,0.026266559958457947
1772731627524790500,3.22879052734375,0.01642092876136303,-0.008877728134393692,0.030520960688591003
1772731627534818600,3.238818603515625,0.012283708900213242,-0.0069069890305399895,0.02381245791912079
1772731627544846600,3.2488466796875,0.01121657993644476,0.0012084615882486105,0.007595670875161886
1772731627554874600,3.25887451171875,0.007204297464340925,0.005036365240812302,0.005133823491632938
1772731627564902700,3.268902587890625,0.001883834134787321,0.0096628088504076,0.00708458898589015
1772731627574930400,3.278930419921875,0.0060797762125730515,0.027661588042974472,0.00634515518322587
1772731627584958500,3.28895849609375,0.016825364902615547,0.043436821550130844,-0.0008879904635250568
1772731627594986500,3.298986572265625,0.027714863419532776,0.027879631146788597,0.004600401967763901
1772731627605013500,3.309013427734375,0.03141026571393013,0.011967773549258709,0.01199972815811634
1772731627615041500,3.31904150390625,0.028531188145279884,0.011665275320410728,0.016867918893694878
1772731627625069600,3.329069580078125,0.025343118235468864,0.023431120440363884,0.005425912793725729
1772731627635097600,3.33909765625,0.023711400106549263,0.029461972415447235,-0.0020977729000151157
1772731627645125600,3.349125732421875,0.013888596557080746,0.008992384187877178,0.013667075894773006
1772731627655153400,3.3591533203125,0.0023023486137390137,-0.01850990206003189,0.04355963319540024
1772731627665181700,3.369181640625,-0.0036040102131664753,-0.04131215438246727,0.07021814584732056
1772731627675209500,3.37920947265625,-0.0010381562169641256,-0.04755783453583717,0.0841769129037857
1772731627685237800,3.38923779296875,0.0009168703691102564,-0.02569940686225891,0.0723242536187172
1772731627695265500,3.399265625,0.010780121199786663,0.01494213379919529,0.03763769194483757
1772731627705293600,3.40929345703125,0.028679227456450462,0.03661547228693962,-0.003050084225833416
1772731627715321600,3.419321533203125,0.034815121442079544,0.023608701303601265,-0.018544306978583336
1772731627725348400,3.429348388671875,0.031217722222208977,-0.01027150172740221,-0.010705291293561459
1772731627735376600,3.439376708984375,0.02707720547914505,-0.04046860709786415,-0.004506146069616079
1772731627745404400,3.449404296875,0.029164858162403107,-0.10004191845655441,-0.02311258763074875
1772731627755432700,3.4594326171875,0.018155880272388458,-0.12054252624511719,-0.05623327195644379
1772731627765460500,3.46946044921875,0.004855255130678415,-0.11369846761226654,-0.08750810474157333
1772731627775488500,3.479488525390625,-0.0004104150866623968,-0.12988638877868652,-0.10156580805778503
1772731627785516500,3.4895166015625,0.00933142751455307,-0.16933180391788483,-0.11442115157842636
1772731627795544600,3.499544677734375,-0.005451612174510956,-0.1852351874113083,-0.1256241649389267
1772731627805572600,3.509572509765625,-0.02119249291718006,-0.18808449804782867,-0.11999211460351944
1772731627815600600,3.5196005859375,-0.02584260143339634,-0.16669943928718567,-0.09759122133255005
1772731627825628400,3.52962841796875,-0.018541013821959496,-0.12083687633275986,-0.06652864068746567
1772731627835656700,3.53965673828125,-0.006225460674613714,-0.06166420876979828,-0.017824271693825722
1772731627845683500,3.549683349609375,-0.005162326619029045,-0.00916531402617693,0.01696779765188694
1772731627855711500,3.55971142578125,-0.009279274381697178,0.0344168022274971,0.03881793096661568
1772731627865739500,3.569739501953125,-0.02346140518784523,0.05871042609214783,0.04953635856509209
1772731627875767600,3.579767578125,-0.03449970856308937,0.06423898041248322,0.048684995621442795
1772731627885795600,3.589795654296875,-0.04194004833698273,0.052944254130125046,0.035135895013809204
1772731627895823400,3.5998232421875,-0.05207603797316551,0.03005438670516014,0.030155250802636147
1772731627905851600,3.6098515625,-0.05912968888878822,0.006026546470820904,0.018539074808359146
1772731627915879400,3.61987939453125,-0.060127142816782,-0.0018161082407459617,0.008058562874794006
1772731627925907700,3.62990771484375,-0.05358854681253433,0.00038046715781092644,0.007872940972447395
1772731627935935500,3.639935546875,-0.05644838511943817,0.012230006977915764,0.015194895677268505
1772731627945963500,3.649963623046875,-0.055931463837623596,0.02527097426354885,0.032557904720306396
1772731627955991600,3.659991455078125,-0.054052069783210754,0.03610817715525627,0.03704080358147621
1772731627966018600,3.6700185546875,-0.05773758515715599,0.03745241463184357,0.03726901859045029
1772731627976046600,3.680046630859375,-0.062359437346458435,0.03169909864664078,0.03219028562307358
1772731627986074400,3.690074462890625,-0.07152950018644333,0.029804792255163193,0.017979927361011505
1772731627996102700,3.7001025390625,-0.07639285922050476,0.022488201037049294,-0.00006894191028550267
1772731628006130400,3.71013037109375,-0.07855348289012909,0.015272632241249084,-0.007623530924320221
1772731628016158500,3.720158447265625,-0.0819854661822319,0.007116171531379223,-0.007675734348595142
1772731628026186500,3.7301865234375,-0.08098944276571274,0.00835906807333231,0.0015811475459486246
1772731628036214500,3.740214599609375,-0.08121983706951141,0.01728624850511551,0.003675995394587517
1772731628046242600,3.75024267578125,-0.08389578014612198,0.019543277099728584,0.0007145600393414497
1772731628056270600,3.7602705078125,-0.08326351642608643,0.02095649391412735,-0.004546802025288343
1772731628066298400,3.77029833984375,-0.08484543114900589,0.01769465208053589,-0.0004005267983302474
1772731628076325600,3.78032568359375,-0.09256567806005478,0.0023821520153433084,0.011112038977444172
1772731628086353700,3.790353759765625,-0.09819266945123672,-0.006107206456363201,0.024560734629631042
1772731628096381400,3.80038134765625,-0.09966792911291122,-0.020725902169942856,0.044847771525382996
1772731628106409500,3.810409423828125,-0.09932171553373337,-0.03334049507975578,0.06252716481685638
1772731628116437500,3.8204375,-0.10024956613779068,-0.03827932849526405,0.06471601873636246
1772731628126465500,3.830465576171875,-0.1059947982430458,-0.03866522014141083,0.052845776081085205
1772731628136493600,3.84049365234375,-0.10582774877548218,-0.0387277714908123,0.044422924518585205
1772731628146521600,3.850521484375,-0.10159572213888168,-0.034642212092876434,0.037988729774951935
1772731628156549400,3.86054931640625,-0.09350986778736115,-0.025776036083698273,0.028615236282348633
1772731628166577700,3.87057763671875,-0.07316438108682632,-0.009807722643017769,0.012832279317080975
1772731628176605400,3.88060546875,-0.0599963441491127,-0.012076451443135738,-0.0009994155261665583
1772731628186633500,3.890633544921875,-0.05708497762680054,-0.01980840601027012,-0.005143027752637863
1772731628196660500,3.900660400390625,-0.06377087533473969,-0.015055214986205101,-0.005081207491457462
1772731628206688800,3.910688720703125,-0.05392144247889519,-0.008638594299554825,-0.004728871397674084
1772731628216716500,3.920716552734375,-0.04698187857866287,0.006634315475821495,-0.016901809722185135
1772731628226744600,3.93074462890625,-0.04658559709787369,0.007259625010192394,-0.02992147020995617
1772731628236772600,3.940772705078125,-0.06492206454277039,-0.005804405082017183,-0.020079704001545906
1772731628246800400,3.95080029296875,-0.08092020452022552,-0.006703754421323538,-0.0014567499747499824
1772731628256828700,3.96082861328125,-0.08848680555820465,0.0016517536714673042,0.019211824983358383
1772731628266856400,3.9708564453125,-0.09172521531581879,0.029910556972026825,0.018577460199594498
1772731628276884500,3.980884521484375,-0.08238930255174637,0.0571683794260025,-0.001954123843461275
1772731628286912500,3.99091259765625,-0.07611595839262009,0.0546564906835556,-0.01481586042791605
1772731628296940500,4.0009404296875,-0.07843810319900513,0.03770287707448006,-0.005239006131887436
1772731628306968600,4.010968505859375,-0.08476471155881882,0.012135464698076248,0.011948502622544765
1772731628316995600,4.02099560546875,-0.08739317953586578,0.00015406287275254726,0.026645099744200706
1772731628327023600,4.031023681640625,-0.0913706123828888,0.02613719366490841,0.01746358536183834
1772731628337051600,4.0410517578125,-0.08849482983350754,0.05228987708687782,-0.007725214585661888
1772731628347079400,4.051079345703125,-0.08457199484109879,0.0494389645755291,-0.010479189455509186
1772731628357108200,4.061108154296875,-0.0802726149559021,0.041317906230688095,0.00014765732339583337
1772731628367136000,4.071135986328125,-0.06930838525295258,0.026757070794701576,0.015853649005293846
1772731628377164000,4.0811640625,-0.06680005043745041,0.011080054566264153,0.026717588305473328
1772731628387192000,4.091192138671875,-0.06276562809944153,0.0006204899400472641,0.02985665574669838
1772731628397220000,4.10122021484375,-0.06225457414984703,0.008623429574072361,0.027275772765278816
1772731628407248100,4.111248046875,-0.06658407300710678,0.020245198160409927,0.021666089072823524
1772731628417276200,4.121276123046875,-0.06621289998292923,0.029655054211616516,0.017123591154813766
1772731628427304000,4.131303955078125,-0.060826122760772705,0.028942391276359558,0.010022273287177086
1772731628437331000,4.1413310546875,-0.055915717035532,0.02147398144006729,0.014013229869306087
1772731628447359000,4.15135888671875,-0.05106663331389427,0.019733071327209473,0.013900045305490494
1772731628457387000,4.161386962890625,-0.039146024733781815,0.020218193531036377,0.015696033835411072
1772731628467415000,4.1714150390625,-0.028398042544722557,0.023711195215582848,0.010544948279857635
1772731628477443000,4.181443115234375,-0.026132456958293915,0.024924691766500473,0.005734435748308897
1772731628487471000,4.19147119140625,-0.029913080856204033,0.029020100831985474,0.00482097128406167
1772731628497499000,4.201498779296875,-0.019707247614860535,0.03145291656255722,0.0021897200495004654
1772731628507527200,4.211527099609375,-0.01390635035932064,0.015706177800893784,0.001928730052895844
1772731628517555000,4.221554931640625,-0.01875290460884571,-0.0019595641642808914,0.010335125029087067
1772731628527583200,4.231583251953125,-0.027788210660219193,-0.012914210557937622,0.023928165435791016
1772731628537611000,4.241611083984375,-0.02970029227435589,-0.008539276197552681,0.022529948502779007
1772731628547639000,4.25163916015625,-0.0206905510276556,0.013688531704246998,0.010375547222793102
1772731628557666000,4.261666015625,-0.006011474411934614,0.024172063916921616,-0.0033778150100260973
1772731628567693800,4.27169384765625,-0.003442589659243822,0.0028609177097678185,0.006513698026537895
1772731628577722000,4.28172216796875,-0.010723070241510868,-0.024759363383054733,0.02481515146791935
1772731628587750000,4.29175,-0.02087397687137127,-0.04464545473456383,0.03884974494576454
1772731628597778200,4.301778076171875,-0.025569064542651176,-0.04463542252779007,0.03895805403590202
1772731628607806000,4.311805908203125,-0.027419162914156914,-0.033125508576631546,0.030466562137007713
1772731628617834000,4.321833984375,-0.03113810159265995,-0.026394154876470566,0.018092554062604904
1772731628627862000,4.331862060546875,-0.02951730042695999,-0.015282115899026394,0.012844529934227467
1772731628637890000,4.34189013671875,-0.025093022733926773,-0.013492222875356674,0.0072623128071427345
1772731628647918000,4.35191796875,-0.02524562180042267,-0.014736452139914036,0.002606308087706566
1772731628657946000,4.361946044921875,-0.031860679388046265,-0.01314004510641098,-0.006964510306715965
1772731628667974000,4.371973876953125,-0.036562755703926086,-0.0049361782148480415,-0.009320076555013657
1772731628678001000,4.3820009765625,-0.038527704775333405,-0.0047266059555113316,-0.0028512158896774054
1772731628688029000,4.39202880859375,-0.0392100065946579,-0.0054872045293450356,0.01110614463686943
1772731628698057000,4.402056884765625,-0.03860054537653923,-0.011691766791045666,0.022960800677537918
1772731628708085000,4.4120849609375,-0.04475271329283714,-0.019222119823098183,0.0273134708404541
1772731628718113000,4.422113037109375,-0.050032224506139755,-0.02481081709265709,0.03438346087932587
1772731628728141000,4.43214111328125,-0.05154410004615784,-0.026416702196002007,0.03380502387881279
1772731628738168800,4.4421689453125,-0.0539812296628952,-0.023092439398169518,0.036249060183763504
1772731628748197000,4.452197021484375,-0.053810253739356995,-0.018733110278844833,0.03856707736849785
1772731628758225000,4.462224853515625,-0.050505708903074265,-0.014402349479496479,0.035299524664878845
1772731628768253200,4.472253173828125,-0.03810017183423042,-0.019481530413031578,0.02649138867855072
1772731628778281000,4.482281005859375,-0.026325702667236328,-0.023580756038427353,0.017088472843170166
1772731628788308200,4.49230810546875,-0.009660971350967884,-0.023333614692091942,0.00737912068143487
1772731628798336000,4.5023359375,0.0010518934577703476,-0.019564958289265633,0.00144210085272789
1772731628808364000,4.512364013671875,0.008344960398972034,-0.014884453266859055,-0.006405169609934092
1772731628818392000,4.52239208984375,0.015009653754532337,-0.004124553874135017,-0.013370261527597904
1772731628828419800,4.532419921875,0.028264740481972694,0.00669160857796669,-0.02564583718776703
1772731628838448000,4.5424482421875,0.03047109954059124,0.009849957190454006,-0.026206374168395996
1772731628848476000,4.552475830078125,0.04028511419892311,0.010654231533408165,-0.030411772429943085
1772731628858504000,4.56250390625,0.04192899167537689,0.003786935703828931,-0.03514540567994118
1772731628868532000,4.572531982421875,0.044404663145542145,-0.009827942587435246,-0.029943453148007393
1772731628878560000,4.58256005859375,0.04823661595582962,-0.018881376832723618,-0.023735852912068367
1772731628888588000,4.592588134765625,0.049049943685531616,-0.023134445771574974,-0.01785452850162983
1772731628898616000,4.602615966796875,0.04468785598874092,-0.02101023681461811,-0.010000744834542274
1772731628908643800,4.612643798828125,0.04215572401881218,-0.017665572464466095,-0.009460922330617905
1772731628918671000,4.622671142578125,0.034670040011405945,-0.009773846715688705,-0.005168397445231676
1772731628928699100,4.63269921875,0.02874450758099556,-0.008424689061939716,0.0028317382093518972
1772731628938727200,4.64272705078125,0.027425775304436684,-0.0051287258975207806,0.008062649518251419
1772731628948755000,4.6527548828125,0.029066549614071846,-0.007345807738602161,0.01131543517112732
1772731628958783200,4.662783203125,0.027109159156680107,-0.015832342207431793,0.01679883897304535
1772731628968811000,4.67281103515625,0.027199972420930862,-0.025294555351138115,0.020970946177840233
1772731628978839000,4.682839111328125,0.018849169835448265,-0.030758684501051903,0.021332304924726486
1772731628988867000,4.6928671875,0.0156930573284626,-0.03593054413795471,0.021244153380393982
1772731628998894800,4.702894775390625,0.012310173362493515,-0.0409298837184906,0.01640290766954422
1772731629008923100,4.712923095703125,0.008647794835269451,-0.02467767708003521,0.016625814139842987
1772731629018951000,4.722950927734375,0.009227397851645947,-0.009891754016280174,0.014722080901265144
1772731629028978200,4.732978271484375,0.013234922662377357,0.0020429363939911127,0.007059367839246988
1772731629039006000,4.743005859375,0.013068574480712414,0.003414783626794815,0.003962007351219654
1772731629049034200,4.7530341796875,0.02078641578555107,0.0036643221974372864,-0.011700841598212719
1772731629059062000,4.76306201171875,0.027100970968604088,0.007439708337187767,-0.023770473897457123
1772731629069090000,4.773090087890625,0.02904481254518032,0.00018525728955864906,-0.03514350205659866
1772731629079118000,4.7831181640625,0.022342601791024208,-0.008947040885686874,-0.03349516540765762
1772731629089146000,4.79314599609375,0.012440969236195087,-0.0005016250070184469,-0.03497215732932091
1772731629099174100,4.803174072265625,0.009212685748934746,-0.00036473851650953293,-0.029299888759851456
1772731629109202200,4.8132021484375,0.0037422869354486465,-0.014614780433475971,-0.018054159358143806
1772731629119230000,4.82322998046875,0.0038155238144099712,-0.02366979420185089,0.0026862728409469128
1772731629129258200,4.83325830078125,-0.0014588667545467615,-0.018579429015517235,0.009274667128920555
1772731629139286000,4.8432861328125,-0.002900998340919614,-0.012915575876832008,0.002155822003260255
1772731629149313000,4.85331298828125,-0.005012086126953363,-0.007857700809836388,-0.01304496917873621
1772731629159341000,4.863341064453125,-0.00862996093928814,0.0026382417418062687,-0.021279247477650642
1772731629169369000,4.873369140625,-0.007343919947743416,0.007242048159241676,-0.017265597358345985
1772731629179397000,4.883397216796875,-0.009649652056396008,0.008549145422875881,-0.015319926664233208
1772731629189425000,4.8934248046875,-0.009829681366682053,0.00022703339345753193,-0.008839123882353306
1772731629199453200,4.903453125,-0.01244933158159256,-0.0011291364207863808,-0.002280381741002202
1772731629209481000,4.91348095703125,-0.01118779182434082,-0.0014111651107668877,-0.006483915261924267
1772731629219509200,4.92350927734375,-0.017177211120724678,-0.0013932872097939253,-0.007100231014192104
1772731629229537000,4.933537109375,-0.02152428962290287,-0.00014932476915419102,-0.004324151668697596
1772731629239565000,4.94356494140625,-0.02834923192858696,-0.00017588306218385696,-0.0003245040134061128
1772731629249593000,4.953593017578125,-0.03134448826313019,-0.008059105835855007,0.006647385191172361
1772731629259621000,4.96362109375,-0.026502937078475952,-0.017806153744459152,0.015456349588930607
1772731629269648100,4.973648193359375,-0.025178546085953712,-0.028532302007079124,0.01748807355761528
1772731629279676000,4.983676025390625,-0.021028872579336166,-0.03027578443288803,0.010090162046253681
1772731629289704200,4.9937041015625,-0.010857461020350456,-0.02648237720131874,-0.010570641607046127
1772731629299732000,5.00373193359375,-0.004340840503573418,-0.04273824393749237,-0.026268253102898598
1772731629309760000,5.013760009765625,-0.0027043281588703394,-0.05879097431898117,-0.02272731438279152
1772731629319788000,5.0237880859375,-0.0058555142022669315,-0.07750174403190613,-0.003985456191003323
1772731629329816000,5.033816162109375,-0.010871311649680138,-0.08876291662454605,0.011645168997347355
1772731629339844000,5.043843994140625,-0.01236401405185461,-0.07178632915019989,0.005847999360412359
1772731629349872000,5.0538720703125,-0.0020653032697737217,-0.03976501524448395,-0.013707059435546398
1772731629359900000,5.06389990234375,0.007533627562224865,-0.032535016536712646,-0.019915524870157242
1772731629369928200,5.07392822265625,0.012317996472120285,-0.040695205330848694,-0.00931428000330925
1772731629379956000,5.0839560546875,0.012163368985056877,-0.03632385656237602,0.006873400416225195
1772731629389983000,5.09398291015625,0.0068695382215082645,-0.033692389726638794,0.014393368735909462
1772731629400011000,5.104010986328125,0.005322271957993507,-0.029188556596636772,-0.0016546228434890509
1772731629410039000,5.1140390625,0.0009922386379912496,-0.02599089965224266,-0.013308881781995296
1772731629420067000,5.124067138671875,0.003557195421308279,-0.022870171815156937,-0.015659457072615623
1772731629430094800,5.1340947265625,0.00796632468700409,-0.01746981404721737,-0.012225577607750893
1772731629440123100,5.144123046875,0.013366020284593105,-0.01747055910527706,-0.006175521295517683
1772731629450151000,5.15415087890625,0.01643531210720539,-0.019423188641667366,0.002732752589508891
1772731629460179200,5.16417919921875,0.014254815876483917,-0.008248511701822281,0.0024460910353809595
1772731629470207000,5.17420703125,0.016596533358097076,0.003182041458785534,-0.0023819536436349154
1772731629480235000,5.184235107421875,0.022307217121124268,0.008192939683794975,-0.00976269319653511
1772731629490263000,5.194262939453125,0.027591461315751076,0.027685146778821945,-0.01842569001019001
1772731629500291000,5.204291015625,0.033991534262895584,0.06454368680715561,-0.013008800335228443
1772731629510318000,5.214318115234375,0.05142299085855484,0.0673338770866394,0.0043856361880898476
1772731629520345900,5.224345947265625,0.06704555451869965,0.042573124170303345,0.025328248739242554
1772731629530374100,5.2343740234375,0.07141873240470886,0.003870468121021986,0.025094689801335335
1772731629540402000,5.24440185546875,0.060793519020080566,0.0004982321988791227,-0.00477025518193841
1772731629550430000,5.254429931640625,0.04968414083123207,0.009415560401976109,-0.027406591922044754
1772731629560458000,5.2644580078125,0.04802832752466202,0.019730569794774055,-0.028825901448726654
1772731629570486000,5.274486083984375,0.047576654702425,0.025189252570271492,-0.01469250675290823
1772731629580514000,5.28451416015625,0.049663837999105453,0.02038295567035675,0.009171995334327221
1772731629590542000,5.2945419921875,0.05354459583759308,0.013692828826606274,0.029222935438156128
1772731629600569900,5.30456982421875,0.056518446654081345,0.014385480433702469,0.038022901862859726
1772731629610597000,5.31459716796875,0.052669379860162735,0.015739697962999344,0.04071083292365074
1772731629620625000,5.324625,0.049397654831409454,0.013517786748707294,0.04397166147828102
1772731629630652000,5.33465185546875,0.045969899743795395,0.007864163257181644,0.03306654840707779
1772731629640680200,5.34468017578125,0.047612305730581284,-0.003927764017134905,0.02913409098982811
1772731629650708000,5.3547080078125,0.050874143838882446,-0.02170436456799507,0.035295311361551285
1772731629660736000,5.364736083984375,0.05051032453775406,-0.02071608230471611,0.044120531529188156
1772731629670764000,5.374763916015625,0.051214199513196945,-0.0053022392094135284,0.04587795212864876
1772731629680792000,5.3847919921875,0.05025702714920044,0.004836397245526314,0.051589399576187134
1772731629690820000,5.394820068359375,0.04236235097050667,0.00933048129081726,0.0572291761636734
1772731629700848000,5.40484814453125,0.027144845575094223,-0.003247717395424843,0.06411150097846985
1772731629710876000,5.4148759765625,0.01488098967820406,-0.010712823830544949,0.06687213480472565
1772731629720904200,5.424904296875,0.00797404907643795,-0.0022198965307325125,0.06079831346869469
1772731629730932000,5.434931884765625,0.012005808763206005,0.012453055940568447,0.04389416426420212
1772731629740959000,5.444958984375,0.013847019523382187,0.014750512316823006,0.031802453100681305
1772731629750987000,5.454987060546875,0.014190301299095154,0.010274803265929222,0.028123561292886734
1772731629761015000,5.46501513671875,0.009833537973463535,-0.0025233363267034292,0.0434003584086895
1772731629771043000,5.47504296875,-0.0013666525483131409,-0.01779044046998024,0.06244195997714996
1772731629781070800,5.48507080078125,-0.014443543739616871,-0.024164149537682533,0.07148918509483337
1772731629791099100,5.49509912109375,-0.014919983223080635,-0.028091246262192726,0.06305708736181259
1772731629801127000,5.505126953125,-0.018619442358613014,-0.03349458426237106,0.05503521114587784
1772731629811155200,5.5151552734375,-0.020381122827529907,-0.032794442027807236,0.05003086477518082
1772731629821183000,5.525182861328125,-0.013510302640497684,-0.0142563721165061,0.0433291457593441
1772731629831211000,5.5352109375,-0.011462065391242504,-0.008715932257473469,0.037390563637018204
1772731629841239000,5.545239013671875,-0.015256369486451149,-0.012671045958995819,0.037359245121479034
1772731629851267000,5.55526708984375,-0.02351349964737892,-0.003402712056413293,0.03233732283115387
1772731629861295000,5.565295166015625,-0.025205710902810097,0.0011949681211262941,0.03237434849143028
1772731629871322000,5.575322021484375,-0.02148713916540146,-0.011330144479870796,0.032569557428359985
1772731629881350100,5.58535009765625,-0.014375297352671623,-0.017500102519989014,0.034457091242074966
1772731629891378000,5.5953779296875,-0.013139856979250908,-0.010642729699611664,0.02766656130552292
1772731629901406000,5.605406005859375,-0.007467426359653473,-0.015626337379217148,0.026091115549206734
1772731629911434000,5.61543408203125,-0.004856463056057692,-0.02249542996287346,0.023557385429739952
1772731629921462000,5.6254619140625,-0.006222893949598074,-0.016019687056541443,0.019215358421206474
1772731629931490000,5.635489990234375,-0.003065982833504677,-0.015432458370923996,0.015449648723006248
1772731629941518000,5.64551806640625,0.0008214628323912621,-0.017096634954214096,0.016978776082396507
1772731629951547100,5.655547119140625,0.011385157704353333,-0.01777733862400055,0.016178762540221214
1772731629961575000,5.665574951171875,0.016679655760526657,-0.02635772153735161,0.013125864788889885
1772731629971603200,5.675603271484375,0.01927810348570347,-0.03124542161822319,0.002591996919363737
1772731629981631000,5.685630859375,0.020620133727788925,-0.02900233119726181,-0.0029296167194843292
1772731629991659000,5.695658935546875,0.01939081959426403,-0.024159105494618416,0.000021698244381695986
1772731630001687000,5.70568701171875,0.009815990924835205,-0.016054965555667877,0.0029804471414536238
1772731630011714800,5.71571484375,0.0012448735069483519,-0.019522933289408684,0.009030616842210293
1772731630021743000,5.7257431640625,0.0009465002804063261,-0.014741014689207077,0.014384474605321884
1772731630031771000,5.73577099609375,0.0016330631915479898,-0.015642493963241577,0.014680352061986923
1772731630041798100,5.745798095703125,0.010337341576814651,-0.007472324185073376,0.006070633418858051
1772731630051826000,5.755825927734375,0.012150155380368233,-0.0037103425711393356,0.002943816129118204
1772731630061854200,5.765854248046875,0.011898448690772057,0.007556159049272537,-0.008464626967906952
1772731630071882000,5.775882080078125,0.01601596362888813,0.02128581888973713,-0.020278409123420715
1772731630081910000,5.785909912109375,0.013473612256348133,0.017033889889717102,-0.016894744709134102
1772731630091938000,5.79593798828125,0.012298625893890858,0.016504719853401184,-0.005656204652041197
1772731630101966000,5.805966064453125,0.006635177414864302,0.02162134274840355,-0.004742789547890425
1772731630111994000,5.815994140625,0.008405647240579128,0.01488167978823185,-0.0003086264187004417
1772731630122022100,5.826022216796875,0.007197504863142967,0.006276669912040234,0.004528879188001156
1772731630132050000,5.8360498046875,0.006428384222090244,0.008515856228768826,0.007160082459449768
1772731630142078000,5.846077880859375,0.013568253256380558,0.020064085721969604,0.0023643318563699722
1772731630152106000,5.85610595703125,0.020183278247714043,0.022394351661205292,-0.0011872596805915236
1772731630162133000,5.866133056640625,0.01713595539331436,0.023079920560121536,0.0002080966078210622
1772731630172161000,5.8761611328125,0.02374645322561264,0.027168404310941696,0.0006365992594510317
1772731630182189000,5.88618896484375,0.031476348638534546,0.02903490886092186,-0.005023738835006952
1772731630192217000,5.896217041015625,0.03662583604454994,0.011071886867284775,-0.005079931579530239
1772731630202245000,5.9062451171875,0.024527331814169884,-0.0033839093521237373,0.006064650136977434
1772731630212273200,5.916273193359375,0.017246780917048454,-0.012331332080066204,0.020681675523519516
1772731630222301000,5.926301025390625,0.02192731387913227,0.0016508304979652166,0.01807970181107521
1772731630232329200,5.9363291015625,0.039226677268743515,0.01172636728733778,-0.0025672533083707094
1772731630242357000,5.94635693359375,0.04947258532047272,-0.0015139640308916569,-0.011658960953354836
1772731630252385000,5.956385009765625,0.04209909215569496,-0.025268828496336937,-0.0017293647397309542
1772731630262413000,5.9664130859375,0.0343017615377903,-0.04520599544048309,0.01538026425987482
1772731630272441000,5.976441162109375,0.0235282089561224,-0.04740337282419205,0.03157627955079079
1772731630282468000,5.986468017578125,0.018427954986691475,-0.024100320413708687,0.02719167247414589
1772731630292496000,5.996495849609375,0.018407979980111122,0.015794897451996803,0.0013363733887672424
1772731630302524200,6.006524169921875,0.021277574822306633,0.017204508185386658,-0.02005787007510662
1772731630312552000,6.016552001953125,0.0196935273706913,-0.00461982935667038,-0.012121384032070637
1772731630322580200,6.026580322265625,0.011867028661072254,-0.017941759899258614,0.003385403426364064
1772731630332608000,6.03660791015625,0.0014735099393874407,-0.021851280704140663,0.017119059339165688
1772731630342636000,6.046635986328125,0.006605216301977634,-0.010699508711695671,0.01252607349306345
1772731630352664000,6.0566640625,0.011761096306145191,-0.004034947603940964,0.003916606307029724
1772731630362692400,6.0666923828125,0.0019389925291761756,0.0031850950326770544,0.004289552569389343
1772731630372720000,6.07672021484375,-0.009896094910800457,0.007280770689249039,0.011773302219808102
1772731630382748400,6.08674853515625,-0.02485210821032524,0.008740733377635479,0.009990280494093895
1772731630392776200,6.096776123046875,-0.0318777933716774,0.00787200964987278,-0.001844274578616023
1772731630402803500,6.106803466796875,-0.02860410325229168,0.002075036522001028,-0.00919259525835514
1772731630412831200,6.116831298828125,-0.023634377866983414,0.004209293983876705,-0.008162219077348709
1772731630422859500,6.126859619140625,-0.017429307103157043,0.005135613027960062,-0.0005854049231857061
1772731630432887300,6.13688720703125,-0.01813051849603653,0.011165808886289597,0.005136662628501654
1772731630442915300,6.146915283203125,-0.01755877397954464,0.018026908859610558,0.00018318989896215498
1772731630452943400,6.156943359375,-0.02164539508521557,0.014867335557937622,0.0006287368014454842
1772731630462971400,6.166971435546875,-0.023119086399674416,0.01109606958925724,0.0035839693155139685
1772731630472999400,6.17699951171875,-0.01845908723771572,0.015411188825964928,-0.0012214385205879807
1772731630483027200,6.187027099609375,-0.013797825202345848,0.016143132001161575,-0.006567679345607758
1772731630493055200,6.19705517578125,-0.0050434814766049385,0.019741330295801163,-0.01091688685119152
1772731630503083300,6.207083251953125,0.005450337193906307,0.031823910772800446,-0.013001518324017525
1772731630513111300,6.217111328125,0.014671532437205315,0.04528699070215225,-0.017879365012049675
1772731630523138300,6.22713818359375,0.019116081297397614,0.04071114584803581,-0.01429368369281292
1772731630533166300,6.237166259765625,0.01762218214571476,0.03616825491189957,-0.016319144517183304
1772731630543194400,6.2471943359375,0.016644401475787163,0.03407549113035202,-0.020253051072359085
1772731630553222400,6.257222412109375,0.02034965716302395,0.02781413123011589,-0.028745071962475777
1772731630563250200,6.267250244140625,0.02917364239692688,0.02660498581826687,-0.04110865667462349
1772731630573278500,6.277278564453125,0.03929498791694641,0.026708850637078285,-0.044812582433223724
1772731630583306200,6.28730615234375,0.04686981439590454,0.013521533459424973,-0.040698256343603134
1772731630593334500,6.29733447265625,0.04037516564130783,0.004850015044212341,-0.02725914493203163
1772731630603362300,6.3073623046875,0.03274407610297203,0.0005813401658087969,-0.019063208252191544
1772731630613390300,6.317390380859375,0.02654610201716423,-0.008329862728714943,-0.015425863675773144
1772731630623418400,6.32741845703125,0.021041283383965492,-0.013906166888773441,-0.014427361078560352
1772731630633446100,6.337446044921875,0.015892060473561287,-0.015243873000144958,-0.012781526893377304
1772731630643473400,6.347473388671875,0.009583728387951851,-0.02419438399374485,-0.008572331629693508
1772731630653501200,6.357501220703125,0.0038374257273972034,-0.023670008406043053,-0.008864213712513447
1772731630663529500,6.367529541015625,0.009335190989077091,-0.02300586923956871,-0.014895383268594742
1772731630673557200,6.37755712890625,0.004446959123015404,-0.023885246366262436,-0.011944601312279701
1772731630683585300,6.387585205078125,0.004090527072548866,-0.026141386479139328,-0.004517219960689545
1772731630693613300,6.39761328125,0.007460490800440311,-0.022218549624085426,-0.0003539001627359539
1772731630703641300,6.407641357421875,0.005754475947469473,-0.025029798969626427,0.003450455842539668
1772731630713669400,6.41766943359375,0.0010721059516072273,-0.028985658660531044,0.0002506677701603621
1772731630723697400,6.427697509765625,-0.009941666387021542,-0.023339349776506424,-0.008071460761129856
1772731630733725200,6.43772509765625,-0.021233469247817993,-0.023886628448963165,-0.015356804244220257
1772731630743753500,6.44775341796875,-0.03290070965886116,-0.028429413214325905,-0.011641765013337135
1772731630753781200,6.45778125,-0.041360240429639816,-0.023969950154423714,-0.006662718951702118
1772731630763808300,6.467808349609375,-0.03839538246393204,-0.020374558866024017,0.0008127958280965686
1772731630773836300,6.477836181640625,-0.033389970660209656,-0.02627638913691044,0.009198024868965149
1772731630783864300,6.4878642578125,-0.036314643919467926,-0.01850384660065174,0.01115602906793356
1772731630793892400,6.497892333984375,-0.03995971381664276,-0.0045978836715221405,0.0027412392664700747
1772731630803920400,6.50792041015625,-0.04284489154815674,0.0001452744472771883,-0.00220119534060359
1772731630813948400,6.517948486328125,-0.04545824974775314,0.002762629184871912,-0.008848445490002632
1772731630823976200,6.52797607421875,-0.04788585379719734,0.00030912994407117367,-0.00483679911121726
1772731630834004500,6.53800439453125,-0.03712055832147598,-0.0006464123725891113,-0.0014700309839099646
1772731630844032300,6.5480322265625,-0.02381833642721176,-0.009095948189496994,0.0009853924857452512
1772731630854060300,6.558060302734375,-0.01887604221701622,-0.010604096576571465,-0.0018474118551239371
1772731630864088300,6.56808837890625,-0.014378095977008343,-0.010255559347569942,-0.0010898704640567303
1772731630874115300,6.578115234375,-0.013832413591444492,-0.01039191335439682,0.000576735706999898
1772731630884143400,6.588143310546875,-0.011660140007734299,-0.003523922525346279,-0.004059758502990007
1772731630894171100,6.598171142578125,-0.008725070394575596,-0.006971650756895542,-0.0043218135833740234
1772731630904199400,6.608199462890625,-0.003664894960820675,0.0017092607449740171,-0.006721735466271639
1772731630914227200,6.618227294921875,0.002553320024162531,0.004249117337167263,-0.010452557355165482
1772731630924255500,6.62825537109375,0.010564112104475498,0.003991448786109686,-0.01835600472986698
1772731630934283300,6.638283203125,0.014908526092767715,0.0005602319724857807,-0.019899306818842888
1772731630944311300,6.648311279296875,0.019484464079141617,-0.002198875416070223,-0.020782798528671265
1772731630954339300,6.65833935546875,0.017325973138213158,-0.0049347407184541225,-0.02249627560377121
1772731630964367400,6.668367431640625,0.013855209574103355,-0.00658170972019434,-0.019224708899855614
1772731630974395400,6.6783955078125,0.007398642133921385,-0.00438673235476017,-0.011873852461576462
1772731630984423400,6.68842333984375,0.0077416906133294106,-0.0026074571069329977,-0.009411794133484364
1772731630994450400,6.698450439453125,0.004693436436355114,0.005488552153110504,-0.01639699935913086
1772731631004478200,6.708478271484375,0.00404169037938118,-0.00047108787111938,-0.021329129114747047
1772731631014506200,6.71850634765625,0.001268541207537055,0.0010778068099170923,-0.02574465051293373
1772731631024534300,6.7285341796875,0.0009469342767260969,0.007669166661798954,-0.02948327735066414
1772731631034562300,6.738562255859375,-0.0020421978551894426,0.0069005778059363365,-0.03317708149552345
1772731631044590300,6.74859033203125,-0.007280102930963039,0.0032086377032101154,-0.02689335308969021
1772731631054618400,6.758618408203125,-0.017941802740097046,0.013705220073461533,-0.021387265995144844
1772731631064646100,6.768646240234375,-0.027625322341918945,0.009470262564718723,-0.006227487698197365
1772731631074674400,6.77867431640625,-0.03576420992612839,0.005474988371133804,-0.001183727290481329
1772731631084702200,6.7887021484375,-0.03876955434679985,0.005014296155422926,-0.001875143265351653
1772731631094730500,6.79873046875,-0.03751786798238754,0.008392516523599625,-0.011415119282901287
1772731631104758300,6.80875830078125,-0.031404417008161545,0.011292236857116222,-0.019338175654411316
1772731631114785500,6.81878564453125,-0.03184836357831955,0.013992948457598686,-0.023476460948586464
1772731631124813300,6.828813232421875,-0.030627431347966194,0.02126142755150795,-0.023549789562821388
1772731631134841300,6.83884130859375,-0.02770487777888775,0.013690860942006111,-0.013695826753973961
1772731631144869400,6.848869384765625,-0.02860020287334919,0.005410185549408197,-0.0019723791629076004
1772731631154897400,6.8588974609375,-0.02589576318860054,-0.00011454243212938309,0.004674870520830154
1772731631164925400,6.868925537109375,-0.021492693573236465,-0.0038357421290129423,0.0017423934768885374
1772731631174953200,6.878953125,-0.015649717301130295,-0.00043062446638941765,-0.004134670365601778
1772731631184981200,6.888981201171875,-0.012675367295742035,0.014130811206996441,-0.011542393825948238
1772731631195009300,6.89900927734375,-0.0065980348736047745,0.024303022772073746,-0.017644494771957397
1772731631205037300,6.909037353515625,-0.004147994797676802,0.028403865173459053,-0.02204131707549095
1772731631215065300,6.9190654296875,0.006892938632518053,0.023737473413348198,-0.02173132449388504
1772731631225093400,6.92909326171875,0.011264552362263203,0.017877062782645226,-0.0196096058934927
1772731631235120400,6.939120361328125,0.02300403267145157,0.008505399338901043,-0.013639597222208977
1772731631245148400,6.9491484375,0.027891600504517555,-0.0033449390903115273,-0.018591338768601418
1772731631255176200,6.95917626953125,0.031502049416303635,-0.00591808557510376,-0.027104133740067482
1772731631265204500,6.96920458984375,0.03660662844777107,-0.0012713491450995207,-0.03380581736564636
1772731631275232300,6.979232177734375,0.03591021150350571,0.0064472900703549385,-0.035924095660448074
1772731631285260500,6.989260498046875,0.02755184844136238,0.010503267869353294,-0.029112227261066437
1772731631295288300,6.999288330078125,0.025412531569600105,0.010243875905871391,-0.014351923018693924
1772731631305316400,7.00931640625,0.023639367893338203,0.007632221560925245,-0.008451903238892555
1772731631315344400,7.019344482421875,0.023873459547758102,-0.001499757869169116,-0.005769833922386169
1772731631325372200,7.0293720703125,0.024625835940241814,-0.009906007908284664,-0.006040446925908327
1772731631335400400,7.039400390625,0.018537849187850952,-0.009748615324497223,-0.01221205573529005
1772731631345428200,7.04942822265625,0.013325905427336693,-0.010012589395046234,-0.009053705260157585
1772731631355455500,7.05945556640625,0.010012933053076267,-0.012295983731746674,-0.003836039686575532
1772731631365483300,7.069483154296875,-0.0003561834746506065,-0.006114574149250984,-0.0010217719245702028
1772731631375511300,7.07951123046875,-0.008616243489086628,-0.0059683662839233875,0.003291217377409339
1772731631385539000,7.0895390625,-0.015208899043500423,-0.011627317406237125,0.013549447990953922
1772731631395567000,7.099567138671875,-0.02064361236989498,-0.01207685936242342,0.021237460896372795
1772731631405595100,7.10959521484375,-0.026939425617456436,-0.012227505445480347,0.022369395941495895
1772731631415623200,7.119623046875,-0.031265731900930405,-0.01116490364074707,0.02130120061337948
1772731631425651200,7.129651123046875,-0.03249624744057655,-0.009795027785003185,0.016819749027490616
1772731631435679200,7.13967919921875,-0.03604544326663017,-0.0067632850259542465,0.01097970362752676
1772731631445707000,7.14970703125,-0.03788994252681732,-0.004407470114529133,0.006246758624911308
1772731631455735300,7.1597353515625,-0.03795146197080612,-0.011264843866229057,0.011281464248895645
1772731631465763000,7.16976318359375,-0.04148591309785843,-0.014505058526992798,0.01610594242811203
1772731631475790300,7.179790283203125,-0.041997503489255905,-0.01078888401389122,0.02736179158091545
1772731631485818000,7.189818115234375,-0.04372895509004593,-0.014732829295098782,0.02897154726088047
1772731631495846100,7.19984619140625,-0.04823076352477074,-0.011613734997808933,0.02625778503715992
1772731631505874200,7.209874267578125,-0.047924503684043884,-0.013808837160468102,0.02218952775001526
1772731631515902200,7.219902099609375,-0.04495001584291458,-0.014336143620312214,0.022281939163804054
1772731631525930200,7.22993017578125,-0.0395834781229496,-0.013211632147431374,0.020044364035129547
1772731631535958000,7.2399580078125,-0.041545432060956955,-0.01981174387037754,0.025642860680818558
1772731631545986000,7.249986083984375,-0.03503463417291641,-0.0227199699729681,0.022327598184347153
1772731631556014000,7.26001416015625,-0.029460106045007706,-0.025310425087809563,0.01972968503832817
1772731631566042000,7.2700419921875,-0.0273436289280653,-0.02553115040063858,0.01563684269785881
1772731631576070100,7.280070068359375,-0.02524053119122982,-0.02256971411406994,0.009788007475435734
1772731631586097200,7.29009716796875,-0.019055938348174095,-0.02909849025309086,0.003788774134591222
1772731631596125200,7.300125244140625,-0.01582658849656582,-0.029632719233632088,-0.004811638034880161
1772731631606153200,7.3101533203125,-0.00917134527117014,-0.03403494134545326,-0.009255627170205116
1772731631616181200,7.32018115234375,-0.0009480365552008152,-0.03262506425380707,-0.009195440448820591
1772731631626209300,7.330209228515625,0.0004830444813705981,-0.036539554595947266,-0.0050559984520077705
1772731631636237000,7.340237060546875,-0.0025766612961888313,-0.03484232351183891,-0.0038253518287092447
1772731631646265300,7.350265380859375,-0.011549782007932663,-0.033640775829553604,0.005228471010923386
1772731631656293000,7.360293212890625,-0.01621697098016739,-0.03331214189529419,0.011778782121837139
1772731631666321200,7.370321044921875,-0.02234613336622715,-0.03289011865854263,0.017925534397363663
1772731631676349200,7.38034912109375,-0.03046238422393799,-0.024650830775499344,0.01712658628821373
1772731631686377000,7.390376953125,-0.03474028408527374,-0.015346580184996128,0.014293055050075054
1772731631696405200,7.4004052734375,-0.02888852171599865,-0.00505133206024766,0.004871323239058256
1772731631706433000,7.41043310546875,-0.01754296012222767,0.006783079821616411,-0.005191945470869541
1772731631716460300,7.420460205078125,-0.006362742744386196,0.019916193559765816,-0.02434486709535122
1772731631726488000,7.430488037109375,0.010881425812840462,0.020738542079925537,-0.042311545461416245
1772731631736516400,7.440516357421875,0.01881658099591732,0.013845482841134071,-0.04878515750169754
1772731631746544000,7.450544189453125,0.021892229095101357,0.012054096907377243,-0.05483078211545944
1772731631756572200,7.460572265625,0.016949933022260666,-0.00023106555454432964,-0.04541011527180672
1772731631766600200,7.47060009765625,0.015949716791510582,-0.014788934029638767,-0.036841198801994324
1772731631776628200,7.480628173828125,0.01247748825699091,-0.02228892780840397,-0.030585166066884995
1772731631786656300,7.49065625,0.013289219699800014,-0.026834677904844284,-0.02382845990359783
1772731631796684300,7.500684326171875,0.0053074597381055355,-0.03325316309928894,-0.010807733051478863
1772731631806712000,7.510712158203125,-0.0008122512372210622,-0.02846881002187729,-0.003909311722964048
1772731631816740400,7.520740234375,-0.014441510662436485,-0.02467700093984604,0.006435471121221781
1772731631826767000,7.53076708984375,-0.02461698278784752,-0.0256781205534935,0.012915545143187046
1772731631836795100,7.540795166015625,-0.03183228522539139,-0.02560647949576378,0.014773099683225155
1772731631846823200,7.5508232421875,-0.02996797300875187,-0.022372284904122353,0.018706483766436577
1772731631856851200,7.560851318359375,-0.034346211701631546,-0.024436501786112785,0.02720170095562935
1772731631866879200,7.570879150390625,-0.03882921114563942,-0.014818406663835049,0.025062741711735725
1772731631876907000,7.580906982421875,-0.04443623125553131,0.0021382065024226904,0.017914550378918648
1772731631886935300,7.590935302734375,-0.04467088729143143,0.01643790677189827,0.021024348214268684
1772731631896963000,7.600963134765625,-0.04708264768123627,0.032106880098581314,0.023655017837882042
1772731631906991400,7.610991455078125,-0.04394497722387314,0.0415143221616745,0.023339513689279556
1772731631917019100,7.62101904296875,-0.039799764752388,0.0425201952457428,0.01806246116757393
1772731631927047200,7.631047119140625,-0.03533098101615906,0.034271590411663055,0.012785674072802067
1772731631937075200,7.6410751953125,-0.02843605726957321,0.03948578983545303,0.0056401463225483894
1772731631947102000,7.65110205078125,-0.02106609009206295,0.03978722542524338,-0.004505894612520933
1772731631957130200,7.661130126953125,-0.011125575751066208,0.03920292854309082,-0.011191494762897491
1772731631967158000,7.671157958984375,-0.0036842995323240757,0.05070863664150238,-0.012016118504106998
1772731631977186300,7.681186279296875,0.006773135159164667,0.05138667672872543,-0.011228888295590878
1772731631987214000,7.691214111328125,0.014047320932149887,0.03803202509880066,-0.0079173119738698
1772731631997242000,7.7012421875,0.014865710400044918,0.034577637910842896,-0.013847905211150646
1772731632007270100,7.711270263671875,0.024765213951468468,0.0329524390399456,-0.01940937153995037
1772731632017298200,7.721298095703125,0.030656659975647926,0.015471179969608784,-0.014394372701644897
1772731632027326200,7.731326171875,0.031101010739803314,0.00899110734462738,-0.003628936130553484
1772731632037354200,7.741354248046875,0.031882911920547485,0.014269227162003517,-0.0008714990690350533
1772731632047382000,7.751382080078125,0.031520090997219086,0.018612395972013474,0.0023840393405407667
1772731632057410300,7.761410400390625,0.028443871065974236,0.01745472103357315,0.005110849626362324
1772731632067437000,7.77143701171875,0.02414935640990734,0.01727994717657566,0.005496624857187271
1772731632077465000,7.781465087890625,0.029092183336615562,0.016802441328763962,0.004471573978662491
1772731632087493000,7.7914931640625,0.034150030463933945,0.013403680175542831,0.002499032998457551
1772731632097521200,7.801521240234375,0.037767134606838226,0.005672524217516184,-0.0008853122126311064
1772731632107549200,7.811549072265625,0.046448372304439545,0.007474755868315697,-0.006368635222315788
1772731632117577000,7.821576904296875,0.04593544825911522,0.0058411723002791405,-0.006810720078647137
1772731632127605200,7.831605224609375,0.04934762045741081,0.009857556782662868,-0.009596261195838451
1772731632137633000,7.841633056640625,0.04455392807722092,0.021299295127391815,-0.01446398627012968
1772731632147661300,7.851661376953125,0.041729021817445755,0.020197086036205292,-0.014829783700406551
1772731632157689000,7.861689208984375,0.038903675973415375,0.025826210156083107,-0.01816565915942192
1772731632167717000,7.871717041015625,0.03190571442246437,0.021149324253201485,-0.00890243798494339
1772731632177744100,7.881744140625,0.023250440135598183,0.015363873913884163,-0.0024778274819254875
1772731632187772200,7.891772216796875,0.018600597977638245,0.016623957082629204,0.00422772578895092
1772731632197800200,7.90180029296875,0.014530221931636333,0.011150095611810684,0.00539951678365469
1772731632207828200,7.911828125,0.01174135971814394,0.01070907711982727,0.009311700239777565
1772731632217856300,7.921856201171875,0.010531219653785229,0.006155071314424276,0.011195354163646698
1772731632227884000,7.931884033203125,0.009220673702657223,0.003855181857943535,0.01937282830476761
1772731632237912000,7.941912109375,0.011618850752711296,0.004949474707245827,0.016894491389393806
1772731632247940000,7.951940185546875,0.014080310240387917,0.003990683704614639,0.010907276533544064
1772731632257968000,7.961968017578125,0.017195411026477814,-0.006681401282548904,0.007951966486871243
1772731632267996200,7.97199609375,0.020836126059293747,-0.018413759768009186,0.018433239310979843
1772731632278024200,7.982024169921875,0.018834760412573814,-0.028467193245887756,0.02924780361354351
1772731632288052000,7.992052001953125,0.01388007402420044,-0.03177954629063606,0.031736623495817184
1772731632298079200,8.002079345703125,0.012094425037503242,-0.025640426203608513,0.02286030724644661
1772731632308107300,8.012107177734375,0.006376652978360653,-0.02448846772313118,0.018462609499692917
1772731632318135300,8.02213525390625,0.001413852209225297,-0.032042790204286575,0.023873619735240936
1772731632328163000,8.0321630859375,-0.005184529814869165,-0.03498897701501846,0.030598491430282593
1772731632338191400,8.04219140625,-0.010426696389913559,-0.03068850189447403,0.03871980309486389
1772731632348219100,8.05221923828125,-0.018237948417663574,-0.01982756331562996,0.03318355232477188
1772731632358247000,8.062246826171876,-0.02608708292245865,-0.012927313335239887,0.032123614102602005
1772731632368275000,8.07227490234375,-0.030856866389513016,-0.011253693141043186,0.03228721767663956
1772731632378302700,8.082302734375,-0.036942724138498306,-0.005444540176540613,0.024527298286557198
1772731632388331000,8.0923310546875,-0.04389576613903046,-0.0011405153200030327,0.019137416034936905
1772731632398358800,8.10235888671875,-0.05348687618970871,0.007190118543803692,0.004709208384156227
1772731632408387000,8.112386962890625,-0.06096293777227402,0.016867637634277344,0.0014604354510083795
1772731632418413800,8.122413818359375,-0.0597543939948082,0.023789193481206894,0.006027756724506617
1772731632428441900,8.13244189453125,-0.05652078613638878,0.02831457555294037,0.012657681480050087
1772731632438470000,8.142469970703125,-0.06099143624305725,0.029368121176958084,0.024062935262918472
1772731632448497700,8.15249755859375,-0.06462075561285019,0.02663254179060459,0.02172650769352913
1772731632458526000,8.16252587890625,-0.0642247423529625,0.02699153684079647,0.009546540677547455
1772731632468553700,8.1725537109375,-0.05916344001889229,0.02929794229567051,-0.0034725377336144447
1772731632478582000,8.18258203125,-0.052952948957681656,0.03970983251929283,-0.02044752612709999
1772731632488609800,8.19260986328125,-0.04657294601202011,0.048154521733522415,-0.026979070156812668
1772731632498637800,8.202637939453124,-0.03489604964852333,0.05016467720270157,-0.020046595484018326
1772731632508665900,8.212665771484374,-0.030247138813138008,0.045407526195049286,-0.0008208088111132383
1772731632518694000,8.22269384765625,-0.02382945455610752,0.03521188348531723,0.012223353609442711
1772731632528722000,8.232721923828125,-0.023846931755542755,0.019936982542276382,0.02919955737888813
1772731632538748700,8.242748779296875,-0.022479930892586708,0.006305857561528683,0.0353434681892395
1772731632548777000,8.25277685546875,-0.012810423038899899,0.0027223448269069195,0.026451362296938896
1772731632558804700,8.2628046875,0.004550723824650049,0.002295440062880516,0.02393946796655655
1772731632568832800,8.272832763671875,0.023120343685150146,0.013205984607338905,0.016412632539868355
1772731632578860800,8.28286083984375,0.04456118866801262,0.023920679464936256,0.00897948443889618
1772731632588888800,8.292888916015626,0.05627976357936859,0.010766332969069481,0.003668735036626458
1772731632598916900,8.302916748046876,0.07469392567873001,-0.00861375592648983,0.0011152962688356638
1772731632608945000,8.31294482421875,0.09817778319120407,-0.030957108363509178,-0.0025919012259691954
1772731632618972700,8.32297265625,0.1244722381234169,-0.04234398528933525,-0.015523412264883518
1772731632629001000,8.3330009765625,0.1396082043647766,-0.042283445596694946,-0.031237037852406502
1772731632639028700,8.34302880859375,0.14357231557369232,-0.032346390187740326,-0.04496430233120918
1772731632649057000,8.35305712890625,0.14502088725566864,-0.023397868499159813,-0.05825940519571304
1772731632659083800,8.363083740234375,0.146993488073349,-0.0176590234041214,-0.054605547338724136
1772731632669111800,8.37311181640625,0.14141489565372467,-0.021216632798314095,-0.04227318987250328
1772731632679139800,8.383139892578125,0.13505686819553375,-0.02907242625951767,-0.03493059054017067
1772731632689167600,8.393167724609375,0.12388813495635986,-0.037902526557445526,-0.03551650419831276
1772731632699196000,8.40319580078125,0.11263760924339294,-0.051189571619033813,-0.03444751352071762
1772731632709223700,8.4132236328125,0.10045640915632248,-0.0649772360920906,-0.024866897612810135
1772731632719252000,8.423251953125,0.09037954360246658,-0.06783454120159149,-0.010789959691464901
1772731632729279700,8.43327978515625,0.07530928403139114,-0.06609363108873367,0.0070297797210514545
1772731632739307800,8.443307861328124,0.05578272417187691,-0.056773096323013306,0.015460548922419548
1772731632749335800,8.453335693359374,0.032295603305101395,-0.045102402567863464,0.02479933388531208
1772731632759363800,8.46336376953125,0.016444198787212372,-0.030417729169130325,0.02575221285223961
1772731632769390800,8.473390869140625,0.002571097342297435,-0.022081058472394943,0.02204313687980175
1772731632779419000,8.4834189453125,-0.006345432251691818,-0.013803154230117798,0.016183117404580116
1772731632789447000,8.493447021484375,-0.014461014419794083,-0.00719219446182251,0.0067982799373567104
1772731632799474700,8.503474609375,-0.0204070545732975,-0.003132205456495285,0.003189430572092533
1772731632809502700,8.513502685546875,-0.024654431268572807,0.00020745140500366688,0.004202923271805048
1772731632819530800,8.52353076171875,-0.033785078674554825,-0.000388031592592597,0.011972695589065552
1772731632829558800,8.533558837890626,-0.04415006935596466,-0.0014239833690226078,0.018285417929291725
1772731632839586800,8.5435869140625,-0.04824068397283554,0.002400582190603018,0.021968835964798927
1772731632849614800,8.55361474609375,-0.05044711381196976,0.0036047385074198246,0.01367520447820425
1772731632859642600,8.563642578125,-0.05089399218559265,0.0075539397075772285,0.010025874711573124
1772731632869671000,8.5736708984375,-0.05095904320478439,0.013118579052388668,0.004239428322762251
1772731632879698700,8.58369873046875,-0.04888230934739113,0.021860141307115555,-0.0019140713848173618
1772731632889726000,8.593725830078125,-0.04796258360147476,0.01653987355530262,-0.00554302055388689
1772731632899753700,8.603753662109375,-0.04426558315753937,0.014783517457544804,-0.0030159468296915293
1772731632909782000,8.613781982421875,-0.03763151541352272,0.019865024834871292,-0.0027550822123885155
1772731632919809800,8.623809814453125,-0.030433788895606995,0.017854871228337288,-0.013439684174954891
1772731632929837800,8.633837890625,-0.0228141900151968,0.016591092571616173,-0.027452223002910614
1772731632939865900,8.643865966796875,-0.011182833462953568,0.018890999257564545,-0.038834840059280396
1772731632949894000,8.653893798828125,-0.00599309615790844,0.010881684720516205,-0.04558810219168663
1772731632959922000,8.663921875,-0.00021909648785367608,-0.0019891061820089817,-0.03985138610005379
1772731632969949700,8.67394970703125,0.008483617566525936,-0.013632569462060928,-0.03449712321162224
1772731632979977700,8.683977783203124,0.015531939454376698,-0.02001909539103508,-0.02890288643538952
1772731632990005800,8.694005859375,0.02354322373867035,-0.021988913416862488,-0.02610441856086254
1772731633000033800,8.70403369140625,0.0248793326318264,-0.01827433705329895,-0.030813153833150864
1772731633010060800,8.714060791015624,0.017666293308138847,-0.020487617701292038,-0.04152718931436539
1772731633020088800,8.7240888671875,0.015490490943193436,-0.024454131722450256,-0.04507984593510628
1772731633030116900,8.734116943359375,0.01880023255944252,-0.023811794817447662,-0.04352745786309242
1772731633040145000,8.744144775390625,0.023335330188274384,-0.01862076111137867,-0.035229314118623734
1772731633050173000,8.7541728515625,0.026582157239317894,-0.012667849659919739,-0.029960941523313522
1772731633060201000,8.764200927734375,0.01716921478509903,-0.005260533187538385,-0.026304421946406364
1772731633070228700,8.774228759765625,0.009913702495396137,-0.0019213362829759717,-0.027937721461057663
1772731633080257000,8.784257080078126,0.00345420534722507,0.00021851365454494953,-0.02809857577085495
1772731633090284800,8.794284912109376,-0.002658015815541148,-0.0016472970601171255,-0.021465441212058067
1772731633100312800,8.804312744140624,-0.01144222542643547,-0.004340820480138063,-0.011974463239312172
1772731633110340900,8.8143408203125,-0.017153309658169746,-0.009442336857318878,-0.00003771315095946193
1772731633120368600,8.82436865234375,-0.017440130934119225,0.001511245034635067,0.0012477947166189551
1772731633130396000,8.83439599609375,-0.011879281140863895,0.010412134230136871,-0.004143920727074146
1772731633140423700,8.844423583984375,-0.0077103679068386555,0.009780965745449066,-0.00883348099887371
1772731633150452000,8.854451904296875,-0.006156484596431255,0.015787707641720772,-0.01068114023655653
1772731633160479700,8.864479736328125,-0.003912238869816065,0.027859549969434738,-0.012224175967276096
1772731633170508000,8.874508056640625,0.00007584493141621351,0.02756580337882042,-0.016826918348670006
1772731633180535800,8.884535888671875,-0.003984410315752029,0.014425498433411121,-0.010449712164700031
1772731633190563800,8.894563720703125,-0.011320552788674831,0.0048667751252651215,0.0049235946498811245
1772731633200592000,8.904591796875,-0.01857154071331024,-0.0025786245241761208,0.013199900276958942
1772731633210620000,8.914619873046876,-0.011826520785689354,-0.0003049243241548538,0.015757285058498383
1772731633220648000,8.92464794921875,-0.004456755705177784,0.010377546772360802,0.011774796061217785
1772731633230676000,8.934676025390624,0.0002249513054266572,0.02976781129837036,0.00164508237503469
1772731633240703700,8.944703857421874,0.010306879878044128,0.040813006460666656,-0.006359314080327749
1772731633250730800,8.954730712890624,0.01815238781273365,0.03459310159087181,-0.007430794183164835
1772731633260758800,8.9647587890625,0.019628578796982765,0.028423359617590904,-0.00511197978630662
1772731633270786800,8.974786865234375,0.021042650565505028,0.01855684444308281,-0.000016749167116358876
1772731633280814800,8.98481494140625,0.016499031335115433,0.007151325233280659,0.00029697120771743357
1772731633290843000,8.9948427734375,0.01375959999859333,0.008843726478517056,-0.0014491884503513575
1772731633300871000,9.004870849609375,0.020537611097097397,0.013829164206981659,-0.009107907302677631
1772731633310898700,9.014898681640625,0.030088044703006744,0.018309950828552246,-0.011648336425423622
1772731633320927000,9.024927001953126,0.03186357393860817,0.027145519852638245,-0.016343755647540092
1772731633330954800,9.034954833984376,0.030469974502921104,0.023842154070734978,-0.01280977576971054
1772731633340983000,9.044983154296874,0.03056052140891552,0.019555529579520226,-0.00988962035626173
1772731633351010800,9.0550107421875,0.029202744364738464,0.015018249861896038,-0.011428020894527435
1772731633361038300,9.065038330078124,0.026258353143930435,0.011311396025121212,-0.01449411828070879
1772731633371066400,9.07506640625,0.024597540497779846,0.010086040012538433,-0.015293261967599392
1772731633381094100,9.08509423828125,0.025718199089169502,0.012853863649070263,-0.019084803760051727
1772731633391122400,9.095122314453125,0.02613617666065693,0.011624492704868317,-0.018460452556610107
1772731633401150200,9.105150146484375,0.02223358117043972,0.005892838351428509,-0.014431888237595558
1772731633411178200,9.11517822265625,0.020343869924545288,0.005139591172337532,-0.00937300268560648
1772731633421206300,9.125206298828125,0.014453224837779999,0.004000556655228138,-0.0010202637640759349
1772731633431234300,9.135234375,0.009174240753054619,0.00042070006020367146,0.007581551093608141
1772731633441262300,9.145262451171876,0.004585081711411476,-0.002345259068533778,0.011362174525856972
1772731633451290400,9.155290283203126,0.0052862889133393764,0.0010725161992013454,0.009977048262953758
1772731633461318100,9.165318115234374,0.006353151518851519,-0.006218153052031994,0.0075421202927827835
1772731633471346400,9.175346435546874,0.008950363844633102,-0.007335562724620104,0.0015198084292933345
1772731633481373200,9.185373291015624,0.009841457940638065,0.016719970852136612,0.0019959816709160805
1772731633491401500,9.1954013671875,0.006390767637640238,0.005678755231201649,0.011216678656637669
1772731633501429200,9.20542919921875,0.004726557992398739,0.006611127406358719,0.014527254737913609
1772731633511457500,9.21545751953125,0.0005309188272804022,0.010127638466656208,0.012452773749828339
1772731633521485300,9.2254853515625,0.0010563605464994907,0.008704445324838161,0.018379107117652893
1772731633531513000,9.23551318359375,0.006286572199314833,0.002250965218991041,0.027160296216607094
1772731633541541400,9.245541259765625,0.0032281980384141207,0.004074697848409414,0.027823422104120255
1772731633551569200,9.255569091796875,-0.000512040569446981,0.0025088321417570114,0.03073997236788273
1772731633561597400,9.265597412109376,-0.00221673003397882,0.006752845365554094,0.02941984497010708
1772731633571625200,9.275625244140626,0.0016701498534530401,0.009623074904084206,0.029772164300084114
1772731633581653200,9.2856533203125,0.00614346144720912,0.005342842545360327,0.03202600032091141
1772731633591681300,9.295681396484374,0.012644803151488304,-0.005688485689461231,0.04055153951048851
1772731633601708300,9.305708251953124,0.014868808910250664,-0.011094436049461365,0.04795778915286064
1772731633611735300,9.3157353515625,0.0200333409011364,-0.013864053413271904,0.045705679804086685
1772731633621763300,9.325763427734374,0.020508982241153717,-0.010044015012681484,0.04693765938282013
1772731633631791400,9.335791259765625,0.024326924234628677,-0.008004814386367798,0.04139025881886482
1772731633641819100,9.345819091796875,0.026231084018945694,-0.0037586709950119257,0.03476644679903984
1772731633651847400,9.355847412109375,0.029516832903027534,-0.009367871098220348,0.037460070103406906
1772731633661874200,9.365874267578125,0.030682232230901718,-0.016832446679472923,0.040349867194890976
1772731633671902500,9.37590234375,0.028325729072093964,-0.023045388981699944,0.04568295553326607
1772731633681930200,9.38593017578125,0.029885808005928993,-0.02241448499262333,0.0430552139878273
1772731633691958500,9.39595849609375,0.03252992406487465,-0.015679016709327698,0.038756996393203735
1772731633701986300,9.405986328125,0.03295842930674553,-0.01021021418273449,0.0302447322756052
1772731633712014300,9.416014404296876,0.03318663313984871,-0.008760281838476658,0.026467889547348022
1772731633722042400,9.42604248046875,0.03432513400912285,-0.002665903652086854,0.022739730775356293
1772731633732070400,9.4360703125,0.03241122514009476,-0.006090283859521151,0.018310274928808212
1772731633742098400,9.446098388671874,0.035530053079128265,-0.012158563360571861,0.018041294068098068
1772731633752126200,9.456126220703124,0.034588251262903214,-0.013037583790719509,0.012112652882933617
1772731633762154200,9.466154296875,0.03199779614806175,-0.009641787968575954,0.006188185419887304
1772731633772182300,9.476182373046875,0.026213107630610466,-0.012178591452538967,0.009373345412313938
1772731633782209300,9.486209228515625,0.01865931786596775,-0.013899260200560093,0.012942247092723846
1772731633792237300,9.4962373046875,0.013542653992772102,-0.012672572396695614,0.014738478697836399
1772731633802265300,9.506265380859375,0.014291002415120602,-0.023590736091136932,0.010499791242182255
1772731633812293400,9.51629345703125,0.011803507804870605,-0.023399697616696358,0.008402111008763313
1772731633822321400,9.5263212890625,0.010498825460672379,-0.01583259180188179,0.006358667276799679
1772731633832349200,9.53634912109375,0.01130487211048603,-0.012249110266566277,0.007351898588240147
1772731633842377500,9.54637744140625,0.0075242486782372,-0.0077025615610182285,0.013515518978238106
1772731633852405200,9.5564052734375,0.008071093820035458,-0.007027131505310535,0.015600400976836681
1772731633862433500,9.56643359375,0.0036505130119621754,-0.010758752934634686,0.02006785199046135
1772731633872461300,9.57646142578125,0.004116960801184177,-0.018636438995599747,0.015282793901860714
1772731633882489300,9.5864892578125,0.0027765915729105473,-0.017365045845508575,0.0073140827007591724
1772731633892517400,9.596517333984375,0.0002591699012555182,-0.012967456132173538,-0.00021582098270300776
1772731633902544400,9.60654443359375,0.009089146740734577,-0.006114344112575054,-0.003299228847026825
1772731633912572400,9.616572509765625,0.009562291204929352,0.005741995759308338,-0.004391819704324007
1772731633922600200,9.62660009765625,0.016028180718421936,0.01602339558303356,-0.0059058270417153835
1772731633932628500,9.63662841796875,0.02312260866165161,0.015073854476213455,-0.006853933911770582
1772731633942656300,9.64665625,0.03130783513188362,0.011518534272909164,-0.011166657321155071
1772731633952684300,9.656684326171876,0.03051535040140152,0.008557119406759739,-0.018038980662822723
1772731633962712300,9.66671240234375,0.03146503493189812,0.0037383956369012594,-0.030430668964982033
1772731633972740400,9.676740234375,0.033203013241291046,0.005052132532000542,-0.0415554940700531
1772731633982768400,9.686768310546874,0.03469637781381607,0.006544905714690685,-0.04952621087431908
1772731633992796400,9.69679638671875,0.03823784738779068,0.010082914493978024,-0.04742364585399628
1772731634002824200,9.70682421875,0.041026271879673004,0.004450664855539799,-0.03770963102579117
1772731634012852500,9.7168525390625,0.04198794066905975,-0.001669812249019742,-0.028902558609843254
1772731634022879500,9.72687939453125,0.0392863005399704,-0.0032756442669779062,-0.020299863070249557
1772731634032907300,9.7369072265625,0.03300470486283302,-0.002405855804681778,-0.03151416778564453
1772731634042935300,9.746935302734375,0.028568174690008163,-0.005360349081456661,-0.04218761995434761
1772731634052963300,9.75696337890625,0.018329918384552002,-0.016795163974165916,-0.03918703645467758
1772731634062991400,9.766991455078125,0.012453319504857063,-0.024706510826945305,-0.030056333169341087
1772731634073019400,9.777019287109376,-0.0007897816249169409,-0.029391011223196983,-0.0063573941588401794
1772731634083047400,9.78704736328125,-0.005438792984932661,-0.01765376701951027,0.00571758858859539
1772731634093075200,9.7970751953125,-0.010343537665903568,0.002066408284008503,0.001380364177748561
1772731634103103500,9.807103515625,-0.010489502921700478,0.0006487746722996235,0.0008741687051951885
1772731634113131300,9.81713134765625,-0.015014213509857655,-0.00817507691681385,0.0013846966903656721
1772731634123159300,9.8271591796875,-0.020159084349870682,-0.012280271388590336,0.007029923610389233
1772731634133186300,9.837186279296875,-0.024150630459189415,-0.022248484194278717,0.003131588688120246
1772731634143214300,9.84721435546875,-0.03785482048988342,-0.021839739754796028,0.0005835816264152527
1772731634153242400,9.857242431640625,-0.040936898440122604,-0.0033672568388283253,-0.0029927773866802454
1772731634163270100,9.867270263671875,-0.03734036535024643,0.010824551805853844,-0.0057405391708016396
1772731634173298400,9.87729833984375,-0.03041933849453926,0.011088738217949867,-0.0007316656410694122
1772731634183326200,9.887326171875,-0.028504066169261932,0.01153799332678318,0.0029408710543066263
1772731634193354500,9.8973544921875,-0.031227681785821915,0.014904229901731014,0.0012697376077994704
1772731634203382300,9.90738232421875,-0.041151151061058044,0.014626461081206799,-0.004280290100723505
1772731634213410300,9.917410400390626,-0.0467350035905838,0.010644769296050072,-0.0057543497532606125
1772731634223438300,9.927438232421874,-0.049998994916677475,0.012690311297774315,-0.004113506525754929
1772731634233466400,9.93746630859375,-0.04768364503979683,0.011439157649874687,0.001965424744412303
1772731634243494400,9.947494384765625,-0.039712850004434586,0.01537917647510767,0.004879442974925041
1772731634253521400,9.957521484375,-0.03136942908167839,0.017063627019524574,0.0047974176704883575
1772731634263549400,9.967549560546875,-0.028199799358844757,0.018664009869098663,0.0037540746852755547
1772731634273577500,9.977577392578125,-0.029016591608524323,0.018984388560056686,0.0043271868489682674
1772731634283605200,9.987605224609375,-0.032799214124679565,0.015500777401030064,-0.003081334987655282
1772731634293633300,9.99763330078125,-0.036410991102457047,0.011328935623168945,-0.007415097206830978
1772731634303661300,10.007661376953125,-0.03389503434300423,0.00232441583648324,-0.007644983008503914
1772731634313689300,10.017689453125,-0.03192296251654625,-0.001163260079920292,-0.002157007111236453
1772731634323717400,10.02771728515625,-0.02643861435353756,-0.003917589318007231,0.0064244079403579235
1772731634333745200,10.0377451171875,-0.024247631430625916,0.00023161550052464008,0.01430470123887062
1772731634343773400,10.0477734375,-0.02598464861512184,0.0009687417186796665,0.012987575493752956
1772731634353801200,10.05780126953125,-0.03295787051320076,0.007975518703460693,0.005838054232299328
1772731634363829200,10.067829345703124,-0.035941142588853836,0.013833800330758095,-0.0012893490493297577
1772731634373856500,10.0778564453125,-0.0366189144551754,0.008725322782993317,-0.015470948070287704
1772731634383884500,10.087884521484375,-0.03318833187222481,0.007434437051415443,-0.02035774290561676
1772731634393912600,10.09791259765625,-0.033280208706855774,0.00037599424831569195,-0.014651121571660042
1772731634403940400,10.1079404296875,-0.034233324229717255,0.0024462277069687843,-0.0057418327778577805
1772731634413968600,10.11796875,-0.041704822331666946,0.0027844496071338654,0.0028010550886392593
1772731634423996400,10.127996337890625,-0.05234465375542641,0.008181629702448845,0.00753345713019371
1772731634434024400,10.1380244140625,-0.06393632292747498,0.009751562960445881,0.012019019573926926
1772731634444052500,10.148052490234376,-0.06981242448091507,0.004893637262284756,0.0195942185819149
1772731634454080300,10.158080322265626,-0.07336881011724472,-0.003443388268351555,0.01760963164269924
1772731634464108500,10.168108642578124,-0.06939966976642609,-0.004169117193669081,0.010211672633886337
1772731634474136300,10.17813623046875,-0.06594288349151611,-0.0028838757425546646,0.0053902859799563885
1772731634484164400,10.188164306640624,-0.062042754143476486,0.006940099410712719,0.0023785727098584175
1772731634494191400,10.19819140625,-0.06152902916073799,0.013316771015524864,0.010037291795015335
1772731634504219600,10.2082197265625,-0.061272263526916504,0.006740770302712917,0.01855991780757904
1772731634514247400,10.218247314453125,-0.07083221524953842,-0.001903583644889295,0.02867673523724079
1772731634524275500,10.228275390625,-0.07363412529230118,-0.010269904509186745,0.03371383994817734
1772731634534303500,10.238303466796875,-0.07106523960828781,-0.015258271247148514,0.030606195330619812
1772731634544331500,10.24833154296875,-0.067266546189785,-0.007508881390094757,0.022839372977614403
1772731634554359600,10.258359619140625,-0.05513211712241173,0.0025072675198316574,0.014019516296684742
1772731634564387600,10.2683876953125,-0.049041494727134705,0.015396401286125183,0.006838369648903608
1772731634574415400,10.278415283203126,-0.037792034447193146,0.018007896840572357,0.00565965473651886
1772731634584443600,10.288443603515624,-0.03340747952461243,0.019020944833755493,0.0013621493708342314
1772731634594471400,10.298471435546874,-0.02896719053387642,0.018783655017614365,-0.0007377531728707254
1772731634604499500,10.30849951171875,-0.025502046570181847,0.007760602980852127,-0.005435376428067684
1772731634614526500,10.3185263671875,-0.015733305364847183,0.004307548515498638,-0.011507383547723293
1772731634624554500,10.328554443359375,-0.0068589551374316216,0.008215826004743576,-0.02765563875436783
1772731634634582500,10.33858251953125,0.0012604899238795042,0.010782048106193542,-0.03721638396382332
1772731634644610300,10.3486103515625,0.002091093920171261,0.020137323066592216,-0.041438810527324677
1772731634654638600,10.358638671875,0.0075963810086250305,0.01726670190691948,-0.03219125047326088
1772731634664666400,10.368666259765625,0.009410062804818153,0.013012195006012917,-0.0252846609801054
1772731634674694700,10.378694580078125,0.012707854621112347,0.003268488682806492,-0.015428036451339722
1772731634684722400,10.388722412109376,0.015544950030744076,-0.0016121277585625648,-0.016219312325119972
1772731634694750500,10.39875048828125,0.010798930190503597,-0.0035133585333824158,-0.021159742027521133
1772731634704778500,10.408778564453126,0.0015115550486370921,-0.007082189433276653,-0.02280491590499878
1772731634714806500,10.418806640625,-0.006049159448593855,-0.008629219606518745,-0.019655995070934296
1772731634724833500,10.42883349609375,-0.008815481327474117,-0.009901073761284351,-0.008747833780944347
1772731634734861300,10.438861328125,-0.008070595562458038,-0.008606511168181896,0.004803395830094814
1772731634744889600,10.4488896484375,-0.008670572191476822,-0.015037495642900467,0.017461897805333138
1772731634754917400,10.45891748046875,-0.011267154477536678,-0.011693097651004791,0.01934128999710083
1772731634764945400,10.4689453125,-0.016213808208703995,-0.002833079546689987,0.008957996964454651
1772731634774973400,10.478973388671875,-0.016599169000983238,-0.002120950259268284,-0.0010304544121026993
1772731634785001500,10.48900146484375,-0.022321132943034172,0.0010694283992052078,-0.009933224879205227
1772731634795029500,10.499029541015625,-0.021866265684366226,0.005479889921844006,-0.01145602110773325
1772731634805057500,10.5090576171875,-0.020041700452566147,0.007727881893515587,-0.009141236543655396
1772731634815085300,10.519085205078126,-0.01533536333590746,0.007707108743488789,0.0003372204664628953
1772731634825113600,10.529113525390626,-0.011804415844380856,0.010447447188198566,0.011668547987937927
1772731634835141400,10.539141357421874,-0.01093302946537733,0.0111246882006526,0.016118157655000687
1772731634845168400,10.54916845703125,-0.012004485353827477,0.010332096368074417,0.013125899247825146
1772731634855196400,10.559196533203124,-0.018266908824443817,0.007251618430018425,0.005692217964679003
1772731634865224400,10.569224365234374,-0.015545154921710491,0.006527630612254143,-0.004192088730633259
1772731634875252500,10.57925244140625,-0.010691809467971325,0.0024330199230462313,-0.005540447309613228
1772731634885280300,10.5892802734375,-0.0015762762632220984,-0.002726020524278283,-0.003811327274888754
1772731634895308500,10.59930859375,0.005090148188173771,-0.0168069526553154,-0.0026467267889529467
1772731634905336300,10.60933642578125,0.0017395312897861004,-0.019966455176472664,-0.0010308620985597372
1772731634915364600,10.619364501953125,-0.006105875130742788,-0.01127283088862896,-0.0008857197826728225
1772731634925392400,10.629392333984375,-0.007363729178905487,0.00028264010325074196,0.01311396062374115
1772731634935420400,10.63942041015625,-0.0035237176343798637,0.010198920965194702,0.024143975228071213
1772731634945448400,10.649448486328126,-0.005539896432310343,0.007116489112377167,0.034878019243478775
1772731634955476500,10.6594765625,-0.008853401057422161,-0.009642783552408218,0.0444217212498188
1772731634965503500,10.66950341796875,-0.006963387131690979,-0.02058027870953083,0.048172034323215485
1772731634975531300,10.67953125,-0.003580906428396702,-0.030431045219302177,0.04911985248327255
1772731634985559600,10.6895595703125,-0.0009013654780574143,-0.030302485451102257,0.04929336532950401
1772731634995587300,10.69958740234375,-0.0036923582665622234,-0.02569015696644783,0.04471592232584953
1772731635005615400,10.709615478515625,-0.0059022456407547,-0.029614465311169624,0.047775644809007645
1772731635015643400,10.719643310546875,-0.0020166938193142414,-0.0307292640209198,0.05659550428390503
1772731635025671400,10.72967138671875,-0.002024988876655698,-0.0368657223880291,0.06912487745285034
1772731635035699500,10.739699462890625,0.0001084695104509592,-0.03989426791667938,0.0739087164402008
1772731635045727500,10.7497275390625,-0.0014648211654275656,-0.040421273559331894,0.0679631382226944
1772731635055755300,10.75975537109375,-0.004522396717220545,-0.034043800085783005,0.06351272761821747
1772731635065783600,10.769783447265626,-0.010781525634229183,-0.026151735335588455,0.05887419357895851
1772731635075810600,10.779810546875,-0.012488345615565777,-0.01048196293413639,0.052160099148750305
1772731635085838600,10.789838623046874,-0.011927355080842972,-0.005551440175622702,0.04636756703257561
1772731635095866400,10.799866455078124,-0.009853817522525787,-0.015022706240415573,0.04676038399338722
1772731635105894700,10.809894775390624,-0.007983608171343803,-0.01937212608754635,0.051375798881053925
1772731635115922400,10.81992236328125,-0.005949219688773155,-0.011872930452227592,0.045234814286231995
1772731635125950500,10.829950439453125,-0.0004937013145536184,0.0030676862224936485,0.027680285274982452
1772731635135978500,10.839978515625,-0.002581886015832424,0.0047263032756745815,0.02574150450527668
1772731635146006300,10.85000634765625,-0.015011025592684746,-0.005167021416127682,0.0420689731836319
1772731635156034600,10.86003466796875,-0.02821897342801094,-0.020006420090794563,0.06898367404937744
1772731635166062300,10.870062255859375,-0.027567200362682343,-0.021622374653816223,0.0783805325627327
1772731635176090400,10.88009033203125,-0.02062540501356125,-0.00443965895101428,0.06011524423956871
1772731635186118400,10.890118408203126,-0.00831284373998642,0.0017114263027906418,0.04220738634467125
1772731635196145400,10.9001455078125,-0.004039535764604807,0.001970285549759865,0.035516995936632156
1772731635206173400,10.91017333984375,0.00365786487236619,0.009538758546113968,0.034798137843608856
1772731635216201500,10.920201416015624,0.016188835725188255,0.020901136100292206,0.022813379764556885
1772731635226229500,10.9302294921875,0.01965015009045601,0.0145536158233881,0.009833414107561111
1772731635236257500,10.940257568359375,0.02014629729092121,0.0008018510416150093,0.012964226305484772
1772731635246285300,10.950285400390625,0.023786503821611404,-0.0016923598013818264,0.01771775633096695
1772731635256313600,10.960313720703125,0.03538696467876434,-0.001851883134804666,0.014945406466722488
1772731635266341400,10.97034130859375,0.040681999176740646,-0.004539615474641323,0.009444788098335266
1772731635276369700,10.98036962890625,0.0442061573266983,0.0021382607519626617,-0.0016997421626001596
1772731635286397400,10.9903974609375,0.04784331098198891,0.00916183553636074,-0.01041790097951889
1772731635296425200,11.00042529296875,0.05157626420259476,0.0030067376792430878,-0.011608067899942398
1772731635306453500,11.01045361328125,0.05423199385404587,-0.010766299441456795,-0.005821888335049152
1772731635316480500,11.02048046875,0.05954792723059654,-0.023399803787469864,-0.007338558789342642
1772731635326508500,11.030508544921876,0.058070406317710876,-0.019305193796753883,-0.000051084847655147314
1772731635336536300,11.040536376953124,0.05504132807254791,-0.03275655210018158,0.008459046483039856
1772731635346564600,11.050564697265624,0.05537911877036095,-0.04009312018752098,0.0065345559269189835
1772731635356592400,11.06059228515625,0.04810868948698044,-0.04443566873669624,0.01385478675365448
1772731635366620200,11.0706201171875,0.03983108699321747,-0.0627581998705864,0.027988413348793983
1772731635376648200,11.080648193359375,0.036631032824516296,-0.07166407257318497,0.030781803652644157
1772731635386676000,11.090676025390625,0.02014802396297455,-0.04689941182732582,0.028241561725735664
1772731635396704300,11.100704345703125,0.007653537672013044,0.006724400445818901,0.029382193461060524
1772731635406732000,11.11073193359375,-0.0003048138751182705,0.029337801039218903,0.04492500051856041
1772731635416760300,11.12076025390625,0.0014579325215891004,-0.004087533801794052,0.04544484615325928
1772731635426787000,11.130787109375,0.00406096875667572,0.0071897972375154495,0.027483336627483368
1772731635436815400,11.1408154296875,0.013030228205025196,0.00716183427721262,0.018075985834002495
1772731635446843100,11.150843017578126,0.02365524135529995,0.003769144183024764,0.021006979048252106
1772731635456871200,11.16087109375,0.02461397834122181,0.004755578935146332,0.030554411932826042
1772731635466899200,11.170899169921874,0.02084660530090332,0.006996718235313892,0.034083981066942215
1772731635476927200,11.18092724609375,0.02001303620636463,0.00026211654767394066,0.03383417800068855
1772731635486955300,11.190955322265625,0.017686469480395317,-0.006596480496227741,0.03149650990962982
1772731635496983000,11.200983154296875,0.010327623225748539,-0.0150418970733881,0.03708381950855255
1772731635507011000,11.211010986328125,-0.0027434048242866993,-0.02601942978799343,0.03711547330021858
1772731635517039000,11.2210390625,-0.012495368719100952,-0.042706266045570374,0.03150898963212967
1772731635527067100,11.231067138671875,-0.01307747233659029,-0.06478609144687653,0.008299185894429684
1772731635537095200,11.24109521484375,0.0051305596716701984,-0.09815336763858795,-0.013033000752329826
1772731635547122200,11.2511220703125,0.02864650823175907,-0.1430019587278366,-0.04205501079559326
1772731635557150200,11.261150146484376,0.039378780871629715,-0.18007369339466095,-0.06652972847223282
1772731635567178200,11.27117822265625,0.04445093870162964,-0.22995340824127197,-0.06842366605997086
1772731635577206000,11.2812060546875,0.04471219703555107,-0.2868260145187378,-0.08310753852128983
1772731635587234300,11.291234375,0.04607323184609413,-0.2740122377872467,-0.11001311242580414
1772731635597262000,11.301261962890624,0.031831443309783936,-0.24139706790447235,-0.12384823709726334
1772731635607290400,11.311290283203125,0.030720310285687447,-0.20704098045825958,-0.12085183709859848
1772731635617318100,11.321318115234375,0.032333649694919586,-0.16955992579460144,-0.11323360353708267
1772731635627346200,11.33134619140625,0.0321524553000927,-0.13620761036872864,-0.09334101527929306
1772731635637374200,11.341374267578125,0.025823723524808884,-0.1062539741396904,-0.06817387789487839
1772731635647402000,11.351402099609375,0.027502648532390594,-0.07781977951526642,-0.037120673805475235
1772731635657430300,11.36143017578125,0.030502166599035263,-0.052708566188812256,-0.01603509485721588
1772731635667457000,11.37145703125,0.02688589133322239,-0.03042507916688919,-0.011174328625202179
1772731635677485300,11.3814853515625,0.026626233011484146,-0.011104377917945385,-0.018413865938782692
1772731635687513000,11.39151318359375,0.024297397583723068,0.0008466099388897419,-0.02486894279718399
1772731635697541000,11.401541015625,0.03256145492196083,0.0020418367348611355,-0.041912905871868134
1772731635707569200,11.411569091796874,0.029939543455839157,-0.008584599941968918,-0.05005013942718506
1772731635717597200,11.42159716796875,0.02093939110636711,-0.02057148888707161,-0.06089852750301361
1772731635727625200,11.431625244140625,0.014919573441147804,-0.023273780941963196,-0.06865981221199036
1772731635737653200,11.4416533203125,0.013942725956439972,-0.015941035002470016,-0.061250366270542145
1772731635747681000,11.451680908203125,0.02490573190152645,0.004363881889730692,-0.04543367773294449
1772731635757709300,11.461709228515625,0.03224966302514076,0.009058237075805664,-0.032116007059812546
1772731635767737000,11.471737060546875,0.019523346796631813,-0.004905445966869593,-0.02495650388300419
1772731635777764000,11.48176416015625,0.0004977246862836182,-0.024048781022429466,-0.030395744368433952
1772731635787792100,11.491792236328125,-0.02068006433546543,-0.040553223341703415,-0.041914381086826324
1772731635797820200,11.501820068359375,-0.03804520517587662,-0.05037309601902962,-0.03679072484374046
1772731635807848200,11.51184814453125,-0.04469098895788193,-0.05293619632720947,-0.025067614391446114
1772731635817876200,11.521876220703126,-0.03772921860218048,-0.04020974785089493,-0.015550541691482067
1772731635827904300,11.531904296875,-0.03712674230337143,-0.02778966724872589,-0.014030462130904198
1772731635837932000,11.54193212890625,-0.038792017847299576,-0.014462144114077091,-0.021055616438388824
1772731635847960300,11.551960205078124,-0.040414389222860336,0.004255384206771851,-0.03878035023808479
1772731635857988000,11.561988037109375,-0.03290374204516411,0.005708404816687107,-0.05575161054730415
1772731635868016000,11.57201611328125,-0.025386366993188858,-0.014318280853331089,-0.06498829275369644
1772731635878044200,11.582044189453125,-0.02304704673588276,-0.027699865400791168,-0.06995108723640442
1772731635888072200,11.592072265625,-0.02921513095498085,-0.019225511699914932,-0.05827881023287773
1772731635898099200,11.60209912109375,-0.024623041972517967,-0.0039754523895680904,-0.04099702462553978
1772731635908127000,11.612126953125,-0.019238697364926338,0.009705987758934498,-0.026076097041368484
1772731635918155300,11.6221552734375,-0.009914436377584934,0.013948936015367508,-0.02767132967710495
1772731635928183000,11.63218310546875,-0.004365075379610062,0.011957494542002678,-0.04573169723153114
1772731635938211300,11.64221142578125,0.0038518416695296764,0.007675131782889366,-0.06020677462220192
1772731635948239000,11.652239013671876,0.007321976125240326,-0.009669894352555275,-0.06672435253858566
1772731635958267100,11.66226708984375,0.009521480649709702,-0.022800343111157417,-0.062286194413900375
1772731635968295200,11.672295166015624,0.0074207172729074955,-0.031038476154208183,-0.05475575104355812
1772731635978323200,11.6823232421875,0.011234630830585957,-0.030125010758638382,-0.040510501712560654
1772731635988351200,11.692351318359375,0.01600494608283043,-0.011671259999275208,-0.023343855515122414
1772731635998379300,11.702379150390625,0.021221812814474106,-0.001084927935153246,-0.005869524087756872
1772731636008406300,11.71240625,0.022969676181674004,-0.006817488931119442,-0.000018075545085594058
1772731636018434000,11.72243408203125,0.015462225303053856,-0.01773245446383953,-0.007453355006873608
1772731636028462000,11.732462158203125,0.0031054900027811527,-0.02991664782166481,-0.019536985084414482
1772731636038490000,11.742489990234375,-0.0005955047672614455,-0.03196355327963829,-0.028863906860351562
1772731636048518100,11.75251806640625,-0.0014725830405950546,-0.024786120280623436,-0.021339042112231255
1772731636058546200,11.762546142578126,0.0031013961415737867,-0.013854910619556904,-0.009468800388276577
1772731636068574200,11.77257421875,0.006429255474358797,-0.001395877217873931,0.004027101211249828
1772731636078602000,11.78260205078125,0.010622669011354446,0.0008989686612039804,0.005915548652410507
1772731636088630300,11.79263037109375,0.008321825414896011,-0.0004451838321983814,0.007642184384167194
1772731636098658000,11.802657958984375,0.005652273073792458,-0.00743358489125967,0.002720130141824484
1772731636108686300,11.812686279296875,-0.0020250845700502396,-0.005144205875694752,-0.012483840808272362
1772731636118714000,11.822714111328125,-0.0012607574462890625,-0.0026080776005983353,-0.02582867443561554
1772731636128741400,11.832741455078125,0.005264483857899904,0.010255379602313042,-0.03275873139500618
1772731636138769200,11.84276904296875,0.014814047142863274,0.01135499868541956,-0.028462788090109825
1772731636148797200,11.852797119140625,0.019261429086327553,0.006782423704862595,-0.018269415944814682
1772731636158825200,11.8628251953125,0.02081458456814289,0.003194879973307252,-0.004434560425579548
1772731636168853200,11.872853271484376,0.017964031547307968,0.0014015764463692904,-0.0020421126391738653
1772731636178881300,11.88288134765625,0.01348938886076212,0.0015171573031693697,-0.0030128350481390953
1772731636188909000,11.892908935546876,0.012055682949721813,0.007076419424265623,-0.005689672660082579
1772731636198937000,11.90293701171875,0.013129736296832561,0.014974823221564293,-0.008737660013139248
1772731636208965000,11.912965087890624,0.022594306617975235,0.02698739990592003,-0.00976269319653511
1772731636218993200,11.9229931640625,0.03160351514816284,0.023179078474640846,-0.01366955041885376
1772731636229021200,11.933021240234375,0.030825337395071983,0.01153467409312725,-0.01861557364463806
1772731636239049200,11.94304931640625,0.023325078189373016,0.003213095013052225,-0.01679557003080845
1772731636249076200,11.953076171875,0.014531787484884262,0.004133980721235275,-0.015126495622098446
1772731636259104300,11.963104248046875,0.012012969702482224,0.02106982097029686,-0.010764237493276596
1772731636269132000,11.973132080078125,0.013560667634010315,0.03559010475873947,-0.0026041697710752487
1772731636279160300,11.983160400390625,0.01731545850634575,0.0470195934176445,0.003198858117684722
1772731636289188000,11.99318798828125,0.01619875803589821,0.04462793096899986,0.0008134829113259912
1772731636299216400,12.00321630859375,0.017376674339175224,0.03572231903672218,0.00020734741701744497
1772731636309244200,12.013244140625,0.02219533361494541,0.03428390994668007,-0.004206238780170679
1772731636319272200,12.023272216796874,0.024636121466755867,0.042026784271001816,-0.01105961762368679
