time,seconds_elapsed,z,y,x
1772731945872389000,0.08038916015625,-1.4186252739191054,0.053120764812827105,0.5020493947157636
1772731945882417000,0.0904169921875,-1.6421365076631307,0.37781229927018284,0.6225206348218023
1772731945892445200,0.100445068359375,-1.3624772702395915,0.6052592650279403,0.5827265307024121
1772731945902473000,0.110472900390625,-0.7874702278733253,0.6568712327130138,0.4065791056796908
1772731945912501000,0.1205009765625,-0.2386217091143131,0.7206409634426236,0.08183796906010248
1772731945922529000,0.130529052734375,-0.2332148816347122,0.7448778713375329,0.44558056158404796
1772731945932556000,0.14055615234375,-0.4155710981696844,0.41860622808188197,1.1366541062913835
1772731945942584000,0.150583984375,-0.2291074463158846,-0.023151596876233815,1.224865327577293
1772731945952611800,0.16061181640625,0.25940730751156804,-0.15741539815440772,0.9597481910515576
1772731945962640100,0.17064013671875,0.7460024914532899,-0.04243979632258415,0.5576727534666657
1772731945972668000,0.18066796875,0.7735942627340555,0.3283881970182061,0.2839886083973571
1772731945982696000,0.190696044921875,0.6002239012092352,0.6541819936290383,-0.7451690363038331
1772731945992724000,0.200723876953125,0.6399269660443068,1.0189002719178795,-1.1348577243939042
1772731946002752000,0.210751953125,0.46093408846259115,0.9127201170906424,-1.7687860345453024
1772731946012780000,0.220780029296875,1.0631658223628997,1.5469246138349175,-2.0854997219912708
1772731946022808000,0.23080810546875,1.6643734739124774,1.2810419728294014,-1.5670175537928939
1772731946032835800,0.2408359375,1.4936352144569158,1.1992425182819366,-1.5156195211194454
1772731946042864000,0.250864013671875,1.5381944871515034,1.3611343311980366,-0.6741664317112416
1772731946052892000,0.260891845703125,1.7847692010968923,1.0724114973530172,0.30749848065935076
1772731946062919000,0.2709189453125,2.4397534510195253,0.6197732358098029,0.6765108759455383
1772731946072947000,0.280947021484375,2.9679192472338674,0.19232085344940422,0.43597471151202916
1772731946082975000,0.29097509765625,3.001814502573013,0.012217384277284145,0.16116554446816445
1772731946093003000,0.3010029296875,2.9809383032828567,-0.2048617705926299,0.010224091568216681
1772731946103031000,0.311031005859375,2.606772982212901,-0.6839771201729774,-0.40035255931504066
1772731946113059000,0.32105908203125,1.9505413625776766,-0.2625061503097415,-1.183803906935826
1772731946123086800,0.3310869140625,1.9195166942387818,0.32209728018045425,-1.242377311131358
1772731946133115100,0.341115234375,2.040533183670044,0.3678787881463766,-2.0365302316389977
1772731946143143000,0.351142822265625,2.4196733705431224,-0.15287000980973242,-4.0932492648258805
1772731946153171000,0.3611708984375,5.830747303920984,-1.5892577349126338,-8.816943381601572
1772731946163199000,0.371198974609375,2.960426261129975,-0.5881865496739744,-3.997811745548248
1772731946173227000,0.38122705078125,2.9495465551972386,0.6214335702374577,-0.6988838896647095
1772731946183255000,0.391255126953125,3.224802589225769,0.6604808015123009,0.14676643223762512
1772731946193281800,0.40128173828125,2.5698452273100614,1.1583809310615063,0.5545049370855093
1772731946203310000,0.41131005859375,2.063314339798689,0.6619868221610784,0.09397621455341577
1772731946213337900,0.421337890625,2.7182471517950293,0.09833236393630504,-0.6026346156127751
1772731946223366100,0.4313662109375,2.5381489433199165,0.12839081759154797,-1.1756693349927663
1772731946233394000,0.441393798828125,1.753006866133213,-0.004042261128127575,-0.11824980119690298
1772731946243422000,0.451421875,1.8003303428441284,-0.5780103158354759,0.3987828988455236
1772731946253450000,0.461449951171875,0.33977088403701783,-0.1727308945775032,0.8129996597968041
1772731946263478000,0.47147802734375,-2.5822172176271674,-0.3894461845710873,1.8402143172040581
1772731946273506000,0.481506103515625,-7.163019990032911,-2.3022392696432767,3.062046852956712
1772731946283534000,0.4915341796875,-14.33669230698347,-2.277313794962317,6.342131476682424
1772731946293561900,0.501561767578125,-26.478355280590055,-1.51098119379431,10.539472107362746
1772731946303590100,0.511590087890625,-37.09865273677111,-0.48942076275646684,12.740622553968429
1772731946313618000,0.521617919921875,-41.757004612803456,1.2586482085831463,14.758396793341635
1772731946323645000,0.53164501953125,-37.215811966252325,-0.2232311016283929,11.79709316485524
1772731946333673000,0.5416728515625,-29.009061506688592,-1.2745739458590746,8.814979388052224
1772731946343701000,0.551700927734375,-21.933358565580843,-3.1622774517297745,7.372420280838012
1772731946353729000,0.56172900390625,-17.39075371414423,-4.8508092153429985,6.944815046003461
1772731946363756800,0.5717568359375,-14.78035728073716,-6.082602004095912,5.1691234698534005
1772731946373785000,0.58178515625,-12.265033332687615,-6.697593850848079,1.8279878728374839
1772731946383812900,0.591812744140625,-8.705142464283108,-5.110765388908982,2.086621273367107
1772731946393841200,0.601841064453125,-4.502536460420489,-3.950419879776239,1.5374097665145992
1772731946403869000,0.611868896484375,-1.5109861622303724,-3.1089933130487797,0.9753840785354375
1772731946413897000,0.62189697265625,1.8679139327734708,-2.2504070833362637,-0.6975371512308717
1772731946423925000,0.631925048828125,5.922525423908233,-1.7543267165601253,-2.0298300033479926
1772731946433953000,0.641953125,8.984775398221611,-2.588850079770386,-3.2004949541822074
1772731946443980000,0.65197998046875,11.106961029183864,-3.0865304290890694,-3.1255396664410826
1772731946454008000,0.662008056640625,13.902827427232264,-2.213155211045593,-2.555416596724093
1772731946464036000,0.6720361328125,15.522078149348497,-1.587089012571424,-1.7348983779907226
1772731946474064100,0.682064208984375,14.416262102782726,-0.7897877110354602,-1.429209357906133
1772731946484092000,0.692091796875,13.613531177413464,0.7766729395270348,-2.2201943159021438
1772731946494120000,0.702119873046875,13.570227457737921,2.1353350353926417,-2.5459800753369928
1772731946504148000,0.71214794921875,13.832680124294757,3.1081282206520435,-2.816632122701406
1772731946514176000,0.722176025390625,14.61138953808546,3.7641485356241464,-3.195161484199762
1772731946524204000,0.7322041015625,15.904997270238399,4.123277031081915,-3.32277868707031
1772731946534231800,0.742231689453125,16.767085224461553,4.391021666567028,-3.5998826870530842
1772731946544260000,0.752260009765625,16.78663748167157,4.518948373778164,-3.9415959373295304
1772731946554287900,0.762287841796875,16.27728627604246,4.837528585748374,-4.068620727264881
1772731946564316200,0.772316162109375,15.432129582875966,5.107544088774919,-4.183963262712955
1772731946574344000,0.782343994140625,14.552339967745542,5.114812618473172,-4.34116487198621
1772731946584371200,0.79237109375,13.744413811820746,5.351525863617658,-4.2442730622470375
1772731946594399000,0.80239892578125,12.791868757081032,5.496050069886445,-4.314543991564214
1772731946604427000,0.812427001953125,10.917143390727043,5.649371330595016,-4.4576112770229575
1772731946614455000,0.822455078125,8.539804602566361,6.171666188949346,-3.5655823580443857
1772731946624483000,0.832483154296875,8.026337778311968,6.653313395094871,-4.254225131940841
1772731946634511000,0.842510986328125,7.831864423003792,4.871989366015792,-3.791316528534889
1772731946644539000,0.852538818359375,5.909460775151849,3.482831009599566,-2.643036135727167
1772731946654567000,0.86256689453125,4.681528168958425,4.540601402659714,-2.7638690852850676
1772731946664595000,0.872594970703125,4.994461314952373,4.499293532976508,-2.772922744834423
1772731946674623200,0.882623291015625,5.6565562736630435,3.1630384992301463,-2.8120114771634337
1772731946684651300,0.8926513671875,6.038631344944238,2.73394974783957,-2.1651158411502838
1772731946694679300,0.90267919921875,6.879608122077584,2.373017125569284,-1.760061022428423
1772731946704707300,0.912707275390625,7.654601730215549,2.2118749619767066,-1.9556512529373167
1772731946714734300,0.922734375,7.879451519086957,2.0661644685328007,-1.9825474431693553
1772731946724762400,0.932762451171875,7.659778256070614,1.9579563150092958,-1.9232259240202605
1772731946734790400,0.942790283203125,7.3254574541330335,1.7826599538579582,-2.0136155122585593
1772731946744818400,0.952818359375,7.5702008609980345,1.6422494665183125,-1.9519177654974162
1772731946754846200,0.96284619140625,8.001670370045304,1.4929909252040088,-1.5943876451469956
1772731946764874500,0.97287451171875,8.160937971937656,1.5217825737938284,-1.2066827512852847
1772731946774902300,0.98290234375,8.26494019820392,1.355591456248611,-0.7634222666792571
1772731946784930600,0.9929306640625,8.146225555974244,1.2314276087023317,-0.5748877999007701
1772731946794958300,1.002958251953125,7.467196998119354,1.4290439382113516,-0.5504685211762785
1772731946804986400,1.012986328125,6.606928076016903,1.688472873032838,-1.1061410407364367
1772731946815014400,1.023014404296875,5.65417726957202,1.31242831408754,-1.8641168785780666
1772731946825042400,1.03304248046875,4.086033049836755,0.9196580996602773,-2.2134081628933546
1772731946835070500,1.043070556640625,1.3761942454248666,-0.05569719117209315,-1.8975668743677436
1772731946845097200,1.05309716796875,-2.050710294291377,-3.4019711739897724,-1.0761444002710283
1772731946855125500,1.06312548828125,-6.562674508270621,-7.697864533358812,-3.2071646412044763
1772731946865153300,1.0731533203125,-9.022218116909265,-10.4438454952538,-3.0104584122776985
1772731946875181300,1.083181396484375,-9.781386379405856,-13.558104473745821,2.9314468348830935
1772731946885209300,1.093209228515625,-14.466208329212664,-15.560409925830363,11.144489672589302
1772731946895237400,1.1032373046875,-32.6925056895256,-7.500484350693226,19.914763657474516
1772731946905265400,1.113265380859375,-59.57828675575256,1.907508422667533,18.774149853771924
1772731946915293400,1.12329345703125,-73.5208453048706,7.492990195545554,11.169156496334075
1772731946925321200,1.1333212890625,-69.72492274384499,15.738665721309184,9.768784671986102
1772731946935349500,1.143349609375,-56.27774883432388,10.269252313935755,6.253785084709524
1772731946945377300,1.153377197265625,-37.865236828482146,4.929760586982965,7.745927430260181
1772731946955405600,1.163405517578125,-22.541609705901145,0.19099632684737441,9.709756144434213
1772731946965433300,1.173433349609375,-12.718749744856357,-4.618110466536879,9.011602030348778
1772731946975460400,1.18346044921875,-7.7074442626088855,-5.679859992361068,8.479722766569257
1772731946985488400,1.19348828125,-6.0825575804322956,-4.741928569385409,7.3890586964279406
1772731946995516400,1.203516357421875,-4.773422608801722,-3.240084329509735,6.100688864928483
1772731947005544400,1.21354443359375,-2.1868781756252047,-2.54632991168797,4.3522982604190705
1772731947015572200,1.223572265625,0.5030056359946727,-2.2310613084837794,2.9347037908524274
1772731947025600500,1.2336005859375,3.576538636344671,-2.018201232613623,2.565021168154478
1772731947035628300,1.243628173828125,7.445863118189573,-1.6056532816573976,2.8896207865446804
1772731947045656300,1.25365625,11.212524513417481,-1.1884247716695069,3.0899992742434144
1772731947055684400,1.263684326171875,13.867702337837219,-0.7471709507107734,1.9622876222118735
1772731947065712400,1.27371240234375,14.55159645590186,0.2576376674905419,0.27120938898622987
1772731947075740400,1.283740478515625,14.083040201997756,1.349374627560377,-0.6266442175578326
1772731947085768400,1.2937685546875,12.934681483256815,2.009890061994642,-1.6152883943565188
1772731947095795500,1.30379541015625,10.689815813565254,2.3952849253483115,-2.868258265042305
1772731947105823200,1.3138232421875,10.06318145981431,2.520662386468053,-3.1400586056590076
1772731947115851500,1.3238515625,11.684293299627303,2.291146359351277,-2.7743171218022704
1772731947125879300,1.33387939453125,13.878300888741016,1.6822035835050047,-2.1546666355893014
1772731947135907300,1.3439072265625,16.04988621816635,1.214285919765383,-2.1526051730148494
1772731947145935400,1.353935302734375,17.60423864391446,1.3691693152241409,-1.9646290707714855
1772731947155963400,1.36396337890625,18.259763576585055,1.9011859416477381,-1.7731426223196087
1772731947165991400,1.373991455078125,17.84704319167137,2.2785312079280615,-1.4219642090834677
1772731947176019500,1.38401953125,16.841887659728528,2.673594063337147,-0.7342349698353559
1772731947186047200,1.394047119140625,15.33975057438612,3.0779969940215346,-0.24458878255886957
1772731947196075500,1.404075439453125,13.611868797159195,3.2352298752158877,-0.26006662993682544
1772731947206103300,1.414103271484375,11.911922490084171,3.288586202350259,-0.28511695484016086
1772731947216131300,1.42413134765625,10.499140096974372,3.2091590298920867,-0.14274257441586813
1772731947226158300,1.434158447265625,9.532572362101078,2.9841499588057396,0.15835867035388945
1772731947236186400,1.444186279296875,9.01501213105321,2.8372999399378895,0.6247025089055299
1772731947246214400,1.45421435546875,8.733807417753338,2.735906142604351,1.120786163617298
1772731947256242200,1.4642421875,8.687156141215562,2.5873311996400354,1.1320485852573066
1772731947266270500,1.4742705078125,8.546780286797881,2.588119135147333,0.7373289172627031
1772731947276298200,1.48429833984375,8.075807034879922,2.7648031512647866,0.14317914833538234
1772731947286326500,1.494326416015625,7.309826754280924,3.049334963160753,-0.5699371186908334
1772731947296354300,1.504354248046875,6.37634412740767,3.2514784147053954,-1.3755235065564513
1772731947306382300,1.51438232421875,5.416068186154961,3.2552734230741858,-2.0098826093405484
1772731947316410400,1.524410400390625,4.804807342624664,3.087429716016352,-2.416785978538543
1772731947326438400,1.5344384765625,4.796375029844046,2.783066245447099,-2.512404261210561
1772731947336466400,1.544466552734375,5.117174671429395,2.4101605690494177,-2.175323200779408
1772731947346494500,1.554494384765625,5.684364318042993,1.9365294960990547,-1.8206242122016847
1772731947356521500,1.564521484375,6.385697646686435,1.468984026672691,-1.5473368478976188
1772731947366549200,1.57454931640625,6.9704024917244904,0.9946045465078204,-1.5169915401250122
1772731947376577300,1.584577392578125,7.557820102852583,0.5974838087208568,-1.4892901709899304
1772731947386605300,1.594605224609375,7.971459940698742,0.29112441509403286,-1.7173291112914681
1772731947396633300,1.60463330078125,8.422934126898646,-0.022579934468120334,-1.964958887247741
1772731947406661400,1.614661376953125,8.693608678355812,-0.31017931724116204,-1.829466420957446
1772731947416689400,1.624689453125,8.449421736329793,-0.6081733989089727,-1.9573484122440217
1772731947426717200,1.63471728515625,7.88490919997096,-0.7385683959297835,-2.1464257537275553
1772731947436745500,1.644745361328125,7.006598425221442,-0.8616223825380206,-2.1634432317629457
1772731947446773200,1.654773193359375,6.003772213008999,-0.814478427112475,-1.9722424683846531
1772731947456801500,1.664801513671875,4.516039500594139,-0.8762698435064404,-1.8749638512849807
1772731947466829300,1.674829345703125,2.7871143517941235,-1.3063358424313365,-1.6423817145958541
1772731947476856600,1.684856689453125,1.4694745866686105,-1.8756879277758298,-1.5541414133459328
1772731947486884400,1.69488427734375,-0.15064707306325434,-2.6356626843497155,-1.704287258888781
1772731947496912400,1.704912353515625,-3.196717481470108,-4.751108485662937,-3.2930367520183323
1772731947506940400,1.7149404296875,-5.725939606490731,-8.710289764043688,-6.43803749025464
1772731947516968400,1.724968505859375,-5.217911173897981,-13.16000648842454,-8.196762149512768
1772731947526996500,1.73499658203125,-2.6157798800110816,-15.316727426195143,-6.009744273155928
1772731947537024300,1.745024169921875,-3.8151463169336317,-17.945151683723925,-1.3502974414937197
1772731947547052300,1.75505224609375,-14.562102652347088,-13.70911804203391,7.066130226120352
1772731947557080300,1.765080322265625,-36.031848850166796,-0.9402457643326372,13.958569772720336
1772731947567108400,1.7751083984375,-59.252609863519666,8.463514559090138,8.485607148432731
1772731947577136400,1.785136474609375,-71.12902849402427,17.502137867355344,1.4258514257803558
1772731947587164400,1.795164306640625,-69.027672300601,18.37879561420083,-3.3772149183958766
1772731947597192200,1.805192138671875,-55.577519667530055,12.991584689217806,-2.869699988283217
1772731947607219500,1.815219482421875,-39.85377795910835,10.614472111028432,5.037490893861651
1772731947617247200,1.825247314453125,-27.53273223181963,6.867247237676382,9.644562664511799
1772731947627275500,1.835275634765625,-20.86227364065647,4.320774410386384,10.009995813071727
1772731947637303300,1.84530322265625,-16.884894442284107,4.17203726259768,7.504925548011064
1772731947647331600,1.85533154296875,-13.77099786736369,5.3483402193188665,4.474964562883973
1772731947657359400,1.865359375,-10.957056883442402,5.648835908544063,2.8855215345323084
1772731947667387400,1.875387451171875,-7.346107443451881,5.221254639106989,2.1938597050756217
1772731947677416000,1.885416015625,-2.731623350718617,3.9380204169303177,2.09805715187788
1772731947687443700,1.895443603515625,2.72387843568027,2.1053967009857297,2.786014866119623
1772731947697471700,1.9054716796875,8.053930134114623,0.9103618635267019,3.825915840490162
1772731947707499800,1.915499755859375,13.215838850283623,0.018796762667596337,3.4254140088975427
1772731947717527600,1.925527587890625,17.97676964178085,-0.541177107348293,1.952211926138401
1772731947727555800,1.935555908203125,21.357136886727808,-0.627455022484064,1.0314617934577166
1772731947737582600,1.94558251953125,22.355661602354047,-0.22045827591419218,1.3185051497831939
1772731947747611000,1.95561083984375,21.57478244330883,0.18953750634118913,1.9916114779822527
1772731947757638700,1.965638671875,21.14116773892641,0.3523626545846462,2.060941473187506
1772731947767667000,1.9756669921875,20.31897924889326,0.27450360822603104,1.248214931243658
1772731947777694700,1.98569482421875,19.483299993646142,0.1708116169527173,0.3150863054398447
1772731947787722800,1.99572265625,19.46822166697979,0.08798340387940407,-0.11198142498452215
1772731947797750800,2.005750732421875,19.69321115658283,-0.042877749348431825,0.17216398140974343
1772731947807778800,2.01577880859375,19.387291104221344,0.032638094884902234,0.31372371184974907
1772731947817806800,2.025806884765625,18.50020431782007,0.4196735650524497,-0.1658693382449448
1772731947827835000,2.0358349609375,17.1380999725461,0.9076561116993427,-0.8142672685798257
1772731947837862700,2.045862548828125,15.435020628142356,1.3796410248778759,-1.2818190946817398
1772731947847891000,2.055890869140625,13.790444910633564,1.7587579770058392,-1.556351198349893
1772731947857917700,2.065917724609375,12.51161856802702,1.9705682515621183,-1.0477066796854138
1772731947867945700,2.07594580078125,11.127877560484409,1.990420076240599,-0.28000563970841463
1772731947877973800,2.085973876953125,9.52700946727693,1.9806832567326724,0.12898746831044555
1772731947888001800,2.096001708984375,8.240219598445297,1.9495956061601638,0.9082721247058361
1772731947898029800,2.10602978515625,7.4668153053253885,1.5510913781255482,2.2168324382536113
1772731947908057600,2.1160576171875,7.0181596836775535,0.9948083254516125,2.6320634908139704
1772731947918086000,2.1260859375,7.033884491553902,0.8162452175892889,2.0754373237907884
1772731947928113700,2.13611376953125,7.2909642329007385,0.9887211144924163,1.1399209260676055
1772731947938141700,2.1461416015625,7.303398767060041,1.126503591416031,0.17784020041525364
1772731947948169700,2.156169677734375,7.037130926129222,1.1145390128560364,-0.5227733625862747
1772731947958197800,2.16619775390625,6.799969937217235,1.1614886878184973,-0.8967606967408209
1772731947968225800,2.176225830078125,6.590693565052748,1.1616433669235557,-1.0503696883495897
1772731947978253800,2.18625390625,6.286252937594056,1.0196087124481796,-1.212561360995099
1772731947988280800,2.19628076171875,5.90352729344964,0.8555914318107068,-1.532388577351719
1772731947998308600,2.20630859375,5.900082705953717,0.6200970609366894,-1.633215826843679
1772731948008337000,2.2163369140625,6.407128557249903,0.24376363858003167,-0.9488017765581608
1772731948018364700,2.22636474609375,6.643278323292732,-0.3545735720997676,-0.3349392626294866
1772731948028392700,2.236392822265625,6.6960811081975695,-0.8392444003827869,-0.24050960522014647
1772731948038420700,2.246420654296875,6.358991426068544,-1.2469257682159542,-0.2878687012337148
1772731948048448800,2.25644873046875,5.716538740938901,-1.5663826168902217,-0.17398074850812553
1772731948058476800,2.266476806640625,4.795737900984287,-1.8539051350347697,0.08570924840234219
1772731948068504800,2.2765048828125,3.7133769642859695,-2.2690888413220645,0.09569039806015789
1772731948078532600,2.28653271484375,3.1959441590100526,-2.76512317699939,0.21894918652549386
1772731948088561000,2.296560791015625,3.2094203111767765,-3.1135946693643928,0.8221810373790561
1772731948098588700,2.306588623046875,2.2842191904366014,-3.3697570036053657,1.2929746949464083
1772731948108615700,2.31661572265625,0.041458384069800375,-3.4117613311201334,1.4723787836775182
1772731948118643700,2.326643798828125,-2.6709301048249006,-3.5000869725659487,0.9070288466464728
1772731948128671700,2.336671630859375,-4.699380636513233,-4.558459715433418,-0.17540756644085048
1772731948138699800,2.34669970703125,-6.561763238644599,-6.456286848172545,-0.840532248236239
1772731948148727600,2.3567275390625,-9.646946344777941,-8.370138940778375,-0.9178875828564167
1772731948158755800,2.366755859375,-13.206226972329615,-10.591243211132287,-0.3221469645410776
1772731948168783600,2.37678369140625,-16.585822648382187,-11.433985828894375,0.8342626664474606
1772731948178812000,2.38681201171875,-21.948083841025827,-9.419709953030944,2.5266508132278918
1772731948188839700,2.396839599609375,-29.838467673015593,-5.306606525439023,4.927745155507326
1772731948198867700,2.40686767578125,-37.39102824790478,-0.16589651851281523,5.630460878419876
1772731948208895700,2.416895751953125,-43.68470636706352,4.48241195628047,2.8427643428236244
1772731948218923800,2.426923828125,-48.978220771217345,8.543898593881726,0.5901151796489954
1772731948228950800,2.43695068359375,-50.43369430506229,11.544952633476257,1.1273957179501652
1772731948238978800,2.446978759765625,-45.67762205951214,10.8674637062788,3.7087393676131963
1772731948249006800,2.4570068359375,-35.94943126372099,8.987382365849614,6.552385169446468
1772731948259034600,2.46703466796875,-24.437130023002624,6.74732906487584,7.660933271324634
1772731948269062700,2.477062744140625,-13.82126090465784,4.54169095146209,7.366002230489253
1772731948279090700,2.487090576171875,-6.2136594105482095,2.849186777086556,6.101486152786016
1772731948289118700,2.49711865234375,-2.3141800289362666,2.3184084602862596,4.217577655284106
1772731948299146800,2.507146728515625,-0.8001742266237736,2.6058149508357045,1.9629507622957227
1772731948309174800,2.5171748046875,-0.21629355745017528,2.9863597438097,-0.028111954663391222
1772731948319202600,2.52720263671875,1.2152402978807686,3.2678628555342555,-1.8034082889847456
1772731948329230800,2.53723095703125,3.430512208819389,3.190525348831713,-2.9928613807886837
1772731948339258600,2.547258544921875,6.418098279553652,2.554282331997156,-3.633065410208702
1772731948349286000,2.557285888671875,9.66035469240546,1.4532175716117024,-3.6087361478552222
1772731948359313700,2.567313720703125,11.898640983706713,0.7710824260435998,-2.989699409626424
1772731948369342000,2.577342041015625,12.608511254549025,0.509131717659533,-2.001264272468537
1772731948379369700,2.58736962890625,12.418817534732819,0.63204571127519,-1.1238791611965746
1772731948389397800,2.597397705078125,11.957456745290756,1.0887687579140066,-0.5833574490170925
1772731948399425800,2.60742578125,12.469308535563945,1.1181371834784746,0.13603471994083374
1772731948409453600,2.61745361328125,13.922439305675029,0.7353922501116991,0.9506215393312275
1772731948419481900,2.62748193359375,15.024707304370402,0.3964369202412665,1.6527093396037815
1772731948429509600,2.637509521484375,15.11238792591095,0.2572548056527972,1.6662155946478248
1772731948439537700,2.64753759765625,15.520882217562198,0.012396101845055818,1.7208274748012422
1772731948449565700,2.657565673828125,15.91859091130495,-0.28613763965740796,1.7387505233742295
1772731948459593700,2.66759375,16.021768377184866,-0.10010463430583476,1.134349628741294
1772731948469621800,2.677621826171875,16.105827301096916,-0.010170388619601727,1.206618746138364
1772731948479648800,2.687648681640625,14.456039986419677,0.24941125254556534,1.1323618159249424
1772731948489676800,2.6976767578125,12.359126159358024,0.4370790194921195,1.027565735867247
1772731948499704800,2.707704833984375,11.05247423671484,0.5446053282313048,1.2017100043740123
1772731948509732600,2.717732666015625,10.52158106136322,0.7562835008405149,1.6788067806735634
1772731948519761000,2.727760986328125,9.912162046307325,0.9054457421734928,1.9724306844331323
1772731948529788700,2.73778857421875,8.732658832240103,1.0533338719174266,1.7676979470476508
1772731948539817000,2.74781689453125,7.550451035389304,1.2966719420291484,1.2764246882922947
1772731948549844700,2.7578447265625,6.824017752280831,1.5226089416153727,1.0078946015179158
1772731948559872500,2.76787255859375,6.537640020257234,1.6223814213573933,0.8580921625852584
1772731948569900800,2.77790087890625,6.637169485023617,1.508411051045358,0.7904653911013155
1772731948579928600,2.787928466796875,7.072282903531193,1.317596802766621,0.8214611986719071
1772731948589955800,2.797955810546875,7.1866299982011315,1.1714246831603348,0.9561797579802572
1772731948599983600,2.807983642578125,6.781585554742812,1.1599312292434274,0.9471718372687696
1772731948610012000,2.818011962890625,6.389833139055967,1.0388576027974485,0.5943630098192021
1772731948620039700,2.828039794921875,6.5540165700405835,0.5057356454804539,-0.1563344710499048
1772731948630067700,2.838067626953125,6.6430556204527615,1.5470082004651426,0.9117290602266788
1772731948640095700,2.848095703125,6.195629248338937,1.6467421017624437,1.2659021252341567
1772731948650123800,2.858123779296875,6.229471896708011,0.756478000499308,0.34713490999899804
1772731948660151800,2.86815185546875,6.936439431846141,0.8390557459428906,0.46473969129063186
1772731948670179800,2.878179931640625,7.398125799980759,0.8040453689686954,0.29023437091913074
1772731948680207600,2.88820751953125,7.687178888693452,0.5697881386741995,-0.273176232079789
1772731948690236000,2.89823583984375,7.953047501173615,0.7618437653161585,-0.4152149782083928
1772731948700263700,2.908263671875,7.920144179481268,1.6119092733122407,0.0757659465368837
1772731948710292000,2.9182919921875,7.072647645190358,1.000813849476725,-0.978538377847895
1772731948720318700,2.928318603515625,6.155719262754917,1.2825047388583422,-1.2502686489030719
1772731948730346800,2.9383466796875,5.95929068172574,1.0861766955941914,-1.0290719026464967
1772731948740374800,2.948374755859375,6.2984846426576375,0.20597265444397925,-0.20466456752009687
1772731948750402800,2.95840283203125,5.6364042969942085,-0.49507484299540516,0.06595839988030493
1772731948760430800,2.968430908203125,3.509937043190002,-2.297396359656751,0.3015419834077358
1772731948770458600,2.978458740234375,-1.1241799707740545,-4.973209852609038,-0.5509501672133803
1772731948780487000,2.98848681640625,-6.3694017609238625,-7.230332946327328,-1.9504320569843052
1772731948790514700,2.9985146484375,-10.186858108365534,-7.863925448653101,0.7526235170282423
1772731948800542700,3.008542724609375,-12.422037081301212,-9.799791220146417,4.220827889251709
1772731948810570800,3.01857080078125,-15.581878245794773,-11.007372527706622,6.352723013323545
1772731948820598800,3.028598876953125,-26.862348752713203,-4.364649500209093,8.953357931172848
1772731948830626800,3.038626708984375,-42.72977997014522,1.5833903041839599,7.705031356248259
1772731948840653600,3.048653564453125,-54.221620606636996,2.1139261905305085,5.685082695445418
1772731948850681900,3.058681884765625,-54.484978113079066,2.8015508734256027,6.726568600919842
1772731948860709600,3.068709716796875,-43.79912769601345,2.0053483269117773,5.90647386829555
1772731948870737700,3.078737548828125,-29.975456223082542,-0.7308819330804049,4.0466017876803875
1772731948880765700,3.088765625,-18.46592327803373,-3.3529625206708906,3.672366323983669
1772731948890793700,3.098793701171875,-11.398887627506255,-4.921790046495199,4.689223399636149
1772731948900821800,3.10882177734375,-8.360618832761048,-5.0824464723974465,5.495659024742245
1772731948910849800,3.118849853515625,-6.933912543717026,-3.721512924468517,3.945764747446775
1772731948920877600,3.128877685546875,-5.149371890679001,-1.6078542988330125,0.5835401851728558
1772731948930905900,3.13890576171875,-2.8730075053960085,0.38370238022208214,-2.4828385595083233
1772731948940933600,3.14893359375,0.5095686477720737,1.3911186967037616,-4.312078185972571
1772731948950962000,3.1589619140625,3.5937650809556243,1.8711948541402816,-5.074982712388039
1772731948960988700,3.16898876953125,5.1343414948076,2.1563107495345175,-5.743643605485558
1772731948971016700,3.1790166015625,6.046151219055056,2.2714438800156116,-6.235662568041682
1772731948981044700,3.189044677734375,7.235785951036214,1.9451196297898887,-5.976438800403475
1772731948991072800,3.19907275390625,7.95911776099801,1.51119542106688,-5.39109741102755
1772731949001100800,3.209100830078125,7.847134472849965,1.5223676802054047,-5.208370023092627
1772731949011128600,3.219128662109375,8.491862701696157,1.582128467554599,-5.156468570941686
1772731949021156900,3.229156982421875,10.249928020262718,1.2801333335518836,-5.045597627949714
1772731949031184600,3.2391845703125,12.193811678516864,0.9262984144575893,-4.515646701884269
1772731949041212700,3.249212646484375,13.725743013620376,0.5254841559149325,-3.451048216369748
1772731949051240700,3.25924072265625,14.562405434685944,0.11753317736014723,-2.155564753472805
1772731949061268700,3.269268798828125,14.458223760199546,-0.014715192442387342,-1.3219921151161194
1772731949071296800,3.279296875,13.509773865818977,0.08903890428170562,-1.241519525258243
1772731949081323800,3.28932373046875,12.479511949670314,0.28820772392973304,-1.4997735710814595
1772731949091351800,3.299351806640625,12.236523862040043,0.4574734266147017,-1.514273659468442
1772731949101379600,3.309379638671875,12.169123811984061,0.5967021568238735,-1.2852933466635643
1772731949111407900,3.319407958984375,11.630725375568867,0.5327321542818099,-1.0133136308919637
1772731949121435600,3.329435546875,10.88357780573368,0.4169719779435545,-0.6012315438818187
1772731949131463700,3.339463623046875,10.231709642004967,0.4200652677837759,-0.41146015571951866
1772731949141491700,3.34949169921875,10.066943442696333,0.5385404021691531,-0.9087350660424679
1772731949151519700,3.359519775390625,10.6674999368608,0.5872095213353633,-1.3898159435421227
1772731949161547800,3.3695478515625,10.844511869758367,0.6701921943180262,-1.5865207111641764
1772731949171575800,3.379575927734375,9.972917251521348,0.7707455953046679,-1.619729445543885
1772731949181603600,3.389603515625,9.183975782051682,0.8273911732427776,-1.5194190595328807
1772731949191632000,3.3996318359375,8.898578877758979,0.8888201860651374,-1.422194072316587
1772731949201658600,3.40965869140625,8.794291989332438,0.8729050432484596,-1.290338208962977
1772731949211687000,3.41968701171875,8.899175090086459,0.892254252167046,-1.2028463879927993
1772731949221714700,3.429714599609375,8.957014700114726,0.8492185357779264,-1.0038888730078934
1772731949231743000,3.439742919921875,8.789480789658427,0.6682065734587609,-0.5764959657497704
1772731949241770800,3.449770751953125,8.532075469619036,0.4778192453552037,-0.17998451896756887
1772731949251798500,3.459798583984375,7.906545277717709,0.49467313032671806,-0.13465543094426394
1772731949261826800,3.469826904296875,7.154318212661146,0.7524201034106314,-0.5645687965907156
1772731949271854600,3.4798544921875,6.896287454199791,1.1245181897524743,-1.0294168436266482
1772731949281883000,3.4898828125,6.238371827000379,1.2236400235660374,-1.175117107937485
1772731949291910700,3.49991064453125,4.93944903730452,1.2060757983680814,-1.025923010161519
1772731949301938700,3.509938720703125,4.089120494458079,1.3098656239926814,-0.8402873335644603
1772731949311966700,3.519966796875,3.81309815223217,1.3844167148470878,-0.5737807154417037
1772731949321993700,3.52999365234375,3.5139719977945085,1.564292512743175,-0.5630635065943003
1772731949332021800,3.540021728515625,2.8615426930516956,1.770873654474318,-0.5972334872215986
1772731949342049800,3.5500498046875,2.271024777820706,1.5240898278228938,-0.7602803153917193
1772731949352077800,3.560077880859375,2.195609763613343,0.9659925653338431,-0.6611534400768577
1772731949362105900,3.57010595703125,0.3729021692663431,0.19756065379902718,-0.19443010068833827
1772731949372133600,3.580133544921875,-5.024594002887606,-0.9947093951217829,-0.015784575239568947
1772731949382162000,3.590161865234375,-12.261401113665103,-2.0582553028434516,1.004634576808661
1772731949392189700,3.600189697265625,-18.092542385339737,-3.7087759002313017,3.686447456306219
1772731949402217700,3.6102177734375,-23.32271799752712,-5.68414512233436,8.349199613124132
1772731949412245800,3.620245849609375,-28.053875582051276,-5.752542366734147,11.407920828789472
1772731949422273500,3.6302734375,-33.95240287525654,-1.0155479658152908,11.633674873024225
1772731949432301800,3.6403017578125,-43.64999511916637,4.030238097378612,7.611198057296872
1772731949442329600,3.65032958984375,-52.22791931676864,5.751072294181585,4.1628655296266075
1772731949452356900,3.66035693359375,-55.99425104165077,6.513308127555251,4.742046058285236
1772731949462384600,3.670384521484375,-53.82632481925487,5.675873553073406,6.011192133876681
1772731949472413000,3.680412841796875,-44.751257740211486,3.372719945064187,5.931020280531048
1772731949482440700,3.690440673828125,-31.2928212629199,0.2363818212330341,4.529001565758883
1772731949492468700,3.70046875,-17.34530246104598,-2.8445015418797728,4.346393128028512
1772731949502496800,3.710496826171875,-6.871958484107256,-4.88225064778924,4.971256964975595
1772731949512524800,3.72052490234375,-0.22380700182020663,-4.653045586317777,4.245140200470388
1772731949522552800,3.730552734375,4.542238940733671,-3.3668677119046446,1.889368516473472
1772731949532580900,3.740580810546875,9.31661782734692,-3.1478081968724725,-1.0575962055370212
1772731949542608600,3.750608642578125,13.295457745921611,-2.8939380652219056,-2.3953008535698053
1772731949552637000,3.760636962890625,16.047973662543296,-2.7714742995917794,-1.3324822372093796
1772731949562663700,3.77066357421875,18.202397429287434,-2.0742923915393647,-0.5126186829924583
1772731949572691700,3.780691650390625,19.599207177239656,-0.45900092844292517,-1.092814818434417
1772731949582719700,3.7907197265625,19.466650472140312,1.1453491616614162,-1.7299604831971227
1772731949592747800,3.800747802734375,17.353643588411806,2.0032811652489007,-2.382689209277928
1772731949602775800,3.81077587890625,15.260014774370193,2.4990941132605076,-2.7524884440928696
1772731949612803600,3.820803466796875,13.265408644616603,2.567523506364226,-2.675664439870417
1772731949622831900,3.830831787109375,12.9126298104465,2.6631045257657764,-2.510428869484365
1772731949632859600,3.840859619140625,13.787732729065418,2.632696235759556,-2.523447925533354
1772731949642888000,3.850887939453125,14.561195474374294,2.3968704409740864,-2.0872227463915944
1772731949652915700,3.860915771484375,14.354898994803428,1.9997155817218124,-1.1149161756053567
1772731949662943700,3.87094384765625,13.022137648391723,1.7028301919482647,-0.14075608590692282
1772731949672971800,3.8809716796875,11.124809989607334,1.5406687683105469,-0.13840287384428082
1772731949682998800,3.890998779296875,9.66265303247571,1.6615243680916725,-0.9175297823946923
1772731949693026800,3.90102685546875,8.899678947955369,1.8286157954774795,-1.8990563822731374
1772731949703054800,3.911054931640625,8.731795493409036,1.8115685068257152,-2.353628242227435
1772731949713083000,3.921082763671875,8.446045537894964,1.7435479867838322,-2.2377166747197506
1772731949723111000,3.93111083984375,8.001857417050003,1.5672231593675912,-1.7620963276483117
1772731949733138700,3.941138671875,7.870788904681802,1.2023897302664817,-1.1241531558323652
1772731949743167000,3.9511669921875,7.840103259038925,1.0720546467393637,-0.8126696241248399
1772731949753194800,3.96119482421875,7.72164697548449,1.1749480349808932,-0.8343735064107924
1772731949763223000,3.97122314453125,7.6208590350896115,1.233762919782102,-1.1441394205454736
1772731949773250800,3.981250732421875,7.745841505542397,1.1972972294330597,-1.2007171208791434
1772731949783278800,3.99127880859375,7.863720865991711,1.1619177268855274,-1.1944422053281216
1772731949793307000,4.001306884765625,7.853799775958061,1.145114768383652,-1.2856124956153332
1772731949803333600,4.011333740234375,7.717605006617307,1.2026412208095192,-1.4993129678323864
1772731949813362000,4.02136181640625,7.794063392397761,1.2704941291995346,-1.7184002476543188
1772731949823389700,4.0313896484375,8.487385848543047,1.275561203330755,-1.7931188040301203
1772731949833418000,4.04141796875,9.11974617872536,1.2046863167710602,-1.5809119313716888
1772731949843445800,4.05144580078125,9.556313303172589,1.09202147609964,-1.2755600342869757
1772731949853473800,4.061473876953125,9.792916658201813,1.0023328757375478,-1.0212267421040684
1772731949863501800,4.071501708984375,10.12940662087202,1.054731463755667,-0.9828315449971705
1772731949873529900,4.08152978515625,9.98328433175683,1.0865963823109865,-1.0008622917283325
1772731949883558000,4.091557861328125,9.351703753775357,1.1302033227168022,-1.0958932029664517
1772731949893586000,4.1015859375,8.92079187861085,1.2519317598097026,-1.2503897910647093
1772731949903613700,4.11161376953125,8.778799821168183,1.3562868911668657,-1.33991355625391
1772731949913642000,4.12164208984375,8.69452696224451,1.2317575713090598,-1.3046524193890392
1772731949923668700,4.131668701171875,8.654497149673103,1.1569891844421625,-1.1617613672800362
1772731949933697000,4.141697021484375,8.50500859899521,1.184738338241726,-1.0682296816237271
1772731949943724800,4.151724853515625,8.12469176955819,1.1894105678364635,-1.130591006860137
1772731949953752800,4.1617529296875,7.68287388497591,1.2548365413405,-1.2640966832473874
1772731949963780900,4.17178076171875,6.567078880709409,0.9058395637966692,-1.6367372789680956
1772731949973808600,4.18180859375,4.6642485328555106,-0.47602775882855053,-2.121758199330419
1772731949983837000,4.1918369140625,2.842179820933938,-2.3217088170059026,-2.699964768390357
1772731949993864700,4.20186474609375,1.0668331126987933,-4.795741992637515,-2.9165640307888387
1772731950003893000,4.21189306640625,-2.6770301752656698,-9.334227718317509,-0.19059066865593194
1772731950013920800,4.221920654296875,-7.2162167426913975,-9.263080298426747,8.942306960326432
1772731950023948800,4.23194873046875,-15.841137084746359,-7.519022462424635,17.698449544006586
1772731950033976800,4.241976806640625,-31.121308511960503,0.18327661931551992,20.336760404777525
1772731950044003800,4.25200390625,-57.18928500232696,17.37530947677493,18.099414024674893
1772731950054032000,4.262031982421875,-80.80217369441985,20.992439651226995,6.202943955266475
1772731950064060000,4.272059814453125,-87.95965826215743,18.873389980202912,4.2475177432566875
1772731950074088000,4.282087890625,-75.20538595302105,16.45718691611886,13.068810552239418
1772731950084116000,4.292115966796875,-48.67093527572155,7.398538472434878,13.614958579868077
1772731950094143700,4.302143798828125,-23.09621576527357,1.3959012548051775,10.338094964015482
1772731950104171800,4.312171875,-8.185801195037364,-4.522368119093776,6.3260658925443884
1772731950114199800,4.32219970703125,-3.2322599194943904,-6.371495518332719,6.428015277934074
1772731950124227800,4.332227783203125,-2.4282921458065507,-5.947645252117514,6.169553726840019
1772731950134255900,4.342255859375,0.12566519201993942,-4.338875592005253,3.0865555635303257
1772731950144283600,4.35228369140625,6.012154841428995,-2.9001299055993557,0.1962497173309326
1772731950154311000,4.362310791015625,11.715495078098773,-3.1417619024455545,-0.27556736500002443
1772731950164339000,4.3723388671875,14.369996026170252,-3.584851706659794,1.0657943442355842
1772731950174367000,4.382366943359375,14.165712639987468,-3.0834225262016055,1.674448439333588
1772731950184394800,4.392394775390625,13.208808220994472,-1.8242735284894704,0.9555220247238874
1772731950194423000,4.402423095703125,12.696564801055192,-0.373512117858231,-0.9834201585400849
1772731950204450800,4.412450927734375,9.724078684297204,1.0269795334771274,-3.580723520813882
1772731950214478800,4.422478759765625,7.3231257963150735,1.8614228171885012,-3.9330470124319192
1772731950224507000,4.4325068359375,9.70974328495264,1.0042888321109116,-3.3143308844596144
1772731950234535000,4.442534912109375,13.600477634572982,0.05050912100970745,-2.8038229100108145
1772731950244563000,4.45256298828125,17.8007373675704,-0.2736670112714171,-1.1031291455693542
1772731950254591000,4.462591064453125,20.96400850651264,-0.8568084063850343,1.150140122264996
1772731950264618800,4.47261865234375,21.115247700250148,-1.234941608172655,2.9886019697785375
1772731950274645800,4.482645751953125,17.894294772189856,-1.0468459712028504,2.8295135238453746
1772731950284674000,4.492674072265625,13.118366318047046,-0.28242373370081186,1.3942515879020094
1772731950294701800,4.502701904296875,9.528383678239583,0.7400786543622613,0.3373778514206409
1772731950304729900,4.512729736328125,7.723878095537423,1.3121674711942672,-1.2334490315273403
1772731950314758000,4.5227578125,7.590042456543445,1.5704131875805556,-1.9400768133170903
1772731950324786000,4.532785888671875,7.450686592823266,1.5108770027674734,-1.9267080670475958
1772731950334814000,4.54281396484375,7.056215565827489,1.227233518013358,-1.7610995716959237
1772731950344842000,4.552842041015625,6.863181887933611,1.1075878054786472,-1.6122329523086547
1772731950354869800,4.562869873046875,6.746426563078165,1.0984942523103207,-1.5634747666195035
1772731950364898000,4.57289794921875,6.749093151938915,1.0531761240724473,-1.6414450182676315
1772731950374925800,4.58292578125,7.248671736094355,0.9579510785017162,-1.6335956199415027
1772731950384953900,4.592953857421875,7.720587821820378,0.9042935033984482,-1.6744234510228038
1772731950394980900,4.60298095703125,7.6841405439108605,0.8193805930055678,-1.858853258961439
1772731950405009000,4.6130087890625,7.522443084523081,0.8045337370075285,-2.1612556585907936
1772731950415037000,4.623036865234375,7.693898552337289,1.004085929949954,-2.4940935284942385
1772731950425064700,4.633064697265625,8.405938568434118,1.2372988388232886,-2.720857334293425
1772731950435093000,4.643093017578125,9.109991092908382,1.3475902283616363,-2.876499146904051
1772731950445120800,4.653120849609375,9.485542315378785,1.3018889460250735,-2.8797470427840945
1772731950455149000,4.663149169921875,9.434234152945876,1.2706684628531335,-2.697811097487807
1772731950465176800,4.6731767578125,9.156092334347964,1.3603988565303384,-2.5396651931017638
1772731950475204900,4.683204833984375,8.924194380530714,1.4650009483858941,-2.401208616308868
1772731950485233000,4.69323291015625,9.09011559509337,1.4401231122389435,-2.238909976157546
1772731950495261000,4.703260986328125,9.416052015045285,1.5194249047517776,-2.173113854166865
1772731950505289000,4.7132890625,9.325033773514628,1.6660821775265038,-2.1972205598108467
1772731950515315700,4.723315673828125,8.787369496592879,1.675272322937101,-2.2830023619927466
1772731950525344000,4.733343994140625,8.106279330033063,1.7468793231636284,-2.2976373288057745
1772731950535371800,4.743371826171875,7.677370026862621,1.7606823691971598,-2.1899247037142513
1772731950545399800,4.75339990234375,7.338967508569359,1.692766186312586,-2.0334030395291744
1772731950555427800,4.763427734375,6.763827779734134,1.6726983807958662,-1.9468315482743084
1772731950565456000,4.773455810546875,5.976718786388635,1.651697532212734,-1.935886668150872
1772731950575484000,4.78348388671875,5.31597524228692,1.918230599950999,-2.056865894311666
1772731950585512000,4.793511962890625,4.480585325375199,1.2530971503272652,-1.987808286307007
1772731950595539700,4.803539794921875,2.6721009021699427,-0.32787411001622674,-0.5464487641409039
1772731950605568000,4.813568115234375,-1.5004314504683016,-2.4107149880617857,1.1929616844467819
1772731950615595800,4.823595703125,-7.122000581902265,-6.095198450818658,2.620889185848832
1772731950625623000,4.833623046875,-13.306942432010173,-8.461611940339207,4.635141096314787
1772731950635650800,4.84365087890625,-19.95009917474985,-8.66710996300876,6.620184447953105
1772731950645678800,4.853678955078125,-27.390433884906766,-9.711592127689718,7.613024688202143
1772731950655707000,4.863706787109375,-36.616962276005744,-2.6410414547786116,12.032975804394482
1772731950665734700,4.873734619140625,-48.71231474933624,3.7900764653459187,12.019379825240373
1772731950675763000,4.883762939453125,-58.70846206979751,2.846002886353433,8.974913929420708
1772731950685790500,4.89379052734375,-59.547208895921706,3.710800391796231,8.562358964201808
1772731950695818500,4.903818603515625,-50.26395850064754,2.6072125426739454,7.489311799293756
1772731950705846500,4.913846435546875,-36.43190030764341,-0.9080668844573199,5.272169418308138
1772731950715874600,4.92387451171875,-22.560368182384966,-4.51495579701066,4.80535445511341
1772731950725902600,4.933902587890625,-11.46704521793127,-7.486926949983835,5.230617510735988
1772731950735930400,4.943930419921875,-4.380374308085441,-8.783408191746473,4.87177923039645
1772731950745957600,4.95395751953125,-0.34129239451587196,-7.715162289640307,2.5123987082526087
1772731950755985400,4.9639853515625,2.9505612851977348,-5.521680770227313,-0.5198274453274906
1772731950766013700,4.974013671875,6.519387739729881,-4.1126480850398535,-2.2522043420165776
1772731950776041500,4.98404150390625,9.61264893837869,-3.8875148030519484,-2.4109946817860006
1772731950786069500,4.994069580078125,10.539712930381297,-3.3211458251714703,-2.3474200352370738
1772731950796097500,5.00409765625,9.959776030397414,-2.069810569950193,-3.2999609983235594
1772731950806125600,5.01412548828125,9.293217662537097,-0.7817765462763607,-4.490740224164724
1772731950816153600,5.024153564453125,8.86754485706985,0.12382109852321445,-5.3739335102587935
1772731950826181600,5.034181640625,8.788771180084348,0.7661001075863838,-5.51221210013628
1772731950836209400,5.04420947265625,10.280963794517517,0.9401954223848878,-4.2812730056032535
1772731950846237400,5.054237548828125,12.846293590229749,0.524091824773699,-2.787169881373644
1772731950856265500,5.064265380859375,15.437704752659796,0.36680955147966743,-1.3747950461514293
1772731950866292500,5.07429248046875,17.52930176861286,0.25086072070151566,0.25237381041189655
1772731950876320500,5.084320556640625,18.60319006052017,-0.19090236495360732,1.8069748954251408
1772731950886348500,5.0943486328125,17.7975692589283,-0.4457381267659366,2.4428490789473054
1772731950896376600,5.10437646484375,15.165250916570423,-0.1422512929007411,2.1098848061852156
1772731950906404600,5.114404541015625,12.20898352868557,0.6088156423352659,1.3207026598274707
1772731950916432600,5.1244326171875,10.03175405589342,1.3163358429200946,0.4139343638133257
1772731950926460400,5.13446044921875,8.63587311322391,1.5024028966717422,-0.2236690911868587
1772731950936488700,5.14448876953125,7.915759680786729,1.3978475665673613,-0.4287937504993751
1772731950946516500,5.1545166015625,7.676639374500513,1.2952509693153202,-0.26160152962021527
1772731950956544500,5.16454443359375,7.696585014942288,1.0228744362458586,-0.029774814408272503
1772731950966572500,5.174572509765625,8.001480400431156,0.7786105565261096,0.2620755038075149
1772731950976599600,5.184599609375,8.267025772306322,0.6062246759939939,0.5913770162783563
1772731950986627600,5.194627685546875,8.286115088179708,0.398164401620999,0.6612634032573551
1772731950996655400,5.2046552734375,8.25585789708197,0.2912088785070926,0.48926980997845526
1772731951006683600,5.21468359375,8.273961709049344,0.4024144602809101,0.1894360187280923
1772731951016711400,5.22471142578125,8.341222642895579,0.3453761566981673,-0.13173976269327103
1772731951026739700,5.23473974609375,9.100510147857666,0.23785832352638242,-0.26619104936756194
1772731951036767500,5.244767578125,9.557312835603952,0.15095380092486738,-0.1736537815760821
1772731951046795500,5.25479541015625,9.300683176112175,0.044193361991643906,-0.06411916522178798
1772731951056823600,5.264823486328125,9.123429835674166,0.17080518721193075,-0.1688437144132331
1772731951066851600,5.2748515625,9.010088118654489,0.3420627943664789,-0.4383586840391159
1772731951076879600,5.284879638671875,8.943556083604692,0.4542691506806761,-0.7001919035233557
1772731951086907600,5.29490771484375,9.139646810981631,0.5096655322752892,-0.7940414960224181
1772731951096934700,5.3049345703125,9.503912669327855,0.5770875019021332,-0.7609368796043098
1772731951106962400,5.31496240234375,9.447156178361176,0.6397273518189788,-0.8464014325305819
1772731951116990500,5.324990478515625,9.088610451227426,0.794043176522851,-1.0395746650256217
1772731951127018500,5.3350185546875,8.873871722003818,0.9928349795520305,-1.1743808295521885
1772731951137046500,5.345046630859375,8.811906556478142,1.0274266927227378,-1.0871652682401238
1772731951147074600,5.355074462890625,8.552351949450372,0.9218497644856571,-0.9192291336584836
1772731951157101600,5.3651015625,7.9907100000917906,0.8470289167791605,-0.6078706165701151
1772731951167129600,5.375129638671875,6.836023247373103,0.8682531988546252,-0.3433359561074525
1772731951177157600,5.38515771484375,5.046729262328148,0.913716726912558,-0.5100418913070112
1772731951187185400,5.395185302734375,2.5155022272258996,0.40489758233353496,-1.1289992076240478
1772731951197213700,5.405213623046875,-0.03602583762705326,-0.5252030008859933,-1.287225337639451
1772731951207241500,5.415241455078125,-4.257468643906712,-1.4094744376055894,0.3394407752998173
1772731951217269500,5.42526953125,-11.331541353464125,-2.104017083195597,2.952761425590515
1772731951227297500,5.435297607421875,-19.012012853473422,-2.5605238567352293,8.426026247695088
1772731951237325300,5.4453251953125,-24.793253491425514,-4.29507035254836,13.736661882519721
1772731951247353600,5.455353515625,-32.395217856431,-4.534648923996091,13.968593154084681
1772731951257381400,5.46538134765625,-44.35976368319988,2.936224716809392,11.721928326016664
1772731951267408600,5.47540869140625,-54.45661243481636,7.526041985797882,6.662113372144103
1772731951277436400,5.4854365234375,-61.46507665390968,8.688606924545764,5.131125455370545
1772731951287464700,5.495464599609375,-64.1513194786787,9.847740719801187,5.08971324853003
1772731951297492500,5.505492431640625,-57.99964744548797,8.259564350384473,3.7957115486234425
1772731951307520500,5.5155205078125,-42.30689474956989,3.7511417545348404,2.363563068525493
1772731951317548500,5.525548583984375,-25.46848616412878,-0.9551425238870084,4.261151716333628
1772731951327576600,5.53557666015625,-14.258925176692008,-4.504101517780125,5.72127862894237
1772731951337604600,5.5456044921875,-7.669470798045396,-5.201031935289502,4.564050082786381
1772731951347632600,5.555632568359375,-1.638827529245615,-3.6932951302438974,0.1637212933655828
1772731951357660400,5.565660400390625,5.031389654377103,-2.439551644837111,-3.970573025488853
1772731951367688400,5.5756884765625,9.486100533783436,-1.8251611249789594,-5.255980500051379
1772731951377716500,5.585716552734375,12.061857030963896,-2.036290285403281,-4.564368939477205
1772731951387743500,5.595743408203125,14.924417376625536,-1.5750710963889956,-3.720826695770025
1772731951397771500,5.605771484375,17.743171313786505,-0.21176424345746636,-2.895573265208304
1772731951407799600,5.615799560546875,20.461041448962686,0.28873174780383704,-2.75562995698899
1772731951417827600,5.62582763671875,22.773688276982305,0.4839417468234896,-2.4059794839724895
1772731951427855600,5.635855712890625,21.69999638442993,0.7885257282756268,-2.5178417760893703
1772731951437883600,5.645883544921875,20.168240405893325,1.2083994920752943,-3.4322739577949046
1772731951447911400,5.655911376953125,20.259507653748987,0.9049136811234056,-3.578587970089912
1772731951457939700,5.665939697265625,20.711445950329303,-0.05728007644936442,-1.938245506236702
1772731951467967500,5.675967529296875,21.153870568633078,-1.0102247980311512,1.5182859638497233
1772731951477995500,5.68599560546875,20.450959615409374,-1.7426657971218227,3.5925676878646016
1772731951488023600,5.6960234375,17.882514318025112,-1.1209933035619557,2.514091191384196
1772731951498051600,5.706051513671875,14.722032517540454,0.018975334104895592,1.3190432021826506
1772731951508079600,5.71607958984375,11.694984204989671,0.8312076627910137,0.15649338793866335
1772731951518107600,5.726107666015625,8.955171702596544,1.5323315864674747,-0.3761608788013458
1772731951528135400,5.736135498046875,6.5067532990843056,2.0460753279671073,-0.601717573833093
1772731951538163500,5.74616357421875,4.725281970489025,2.241651676081121,-0.8826070106387138
1772731951548191500,5.75619140625,4.091074551135302,2.2162974545940757,-0.8499252958077936
1772731951558218500,5.766218505859375,4.304752373129129,1.9861381611377,0.03078216481991112
1772731951568246500,5.77624658203125,4.791824526932835,1.4531933139532804,1.1206200132701545
1772731951578274600,5.786274658203125,5.12055905317068,1.0792393706116825,1.263565645110607
1772731951588302600,5.796302490234375,5.723203459525108,1.184122106039524,0.3076157503634691
1772731951598330600,5.80633056640625,6.320028365945816,1.23660618038401,-0.6060803721524775
1772731951608358700,5.816358642578125,6.536936840423941,1.0006811630077659,-0.9406694696374237
1772731951618386400,5.826386474609375,6.373011768114567,0.8419924569819122,-0.8716749899968504
1772731951628414700,5.836414794921875,6.389358507281542,0.652798722577095,-0.7033459105748683
1772731951638442500,5.8464423828125,7.160967733678222,0.36155769536606963,-0.5715050986599177
1772731951648470500,5.856470458984375,7.86933695230782,0.18930150562822817,-0.6453855967763811
1772731951658498600,5.86649853515625,8.220437624132632,0.0495231787122786,-0.8234356405500322
1772731951668526600,5.876526611328125,8.421610769340395,-0.03888751066848636,-0.9325077904917299
1772731951678553600,5.8865537109375,8.716341903689504,-0.30098113465458154,-0.7144011192049831
1772731951688581600,5.89658154296875,8.818688179442287,-0.5422885026562959,-0.6245514830622821
1772731951698609700,5.906609619140625,8.545431210276483,-0.5809655854444951,-0.8566974202912301
1772731951708637700,5.9166376953125,8.309878241083025,-0.4743908783417195,-1.3075506250485778
1772731951718665500,5.92666552734375,8.270472113367914,-0.4093191251028329,-1.4470549573287368
1772731951728693800,5.93669384765625,8.342420328247547,-0.414108770532161,-1.3713669713988899
1772731951738721500,5.946721435546875,8.231504961591959,-0.4072307745214551,-1.27974871814847
1772731951748749800,5.956749755859375,7.963436208719014,-0.33003793698661027,-1.3266834878027438
1772731951758777600,5.966777587890625,7.585679000636935,-0.11215221497416496,-1.5131981391914189
1772731951768805600,5.9768056640625,7.692436078569292,-0.02826448291055858,-1.6059709693044424
1772731951778833700,5.986833740234375,8.056340117865801,-0.2634751414723694,-1.246349721893668
1772731951788860700,5.996860595703125,7.716502598333358,-0.46587256777808067,-0.8589811473142355
1772731951798888700,6.006888671875,6.31284108479023,-0.6594673866860569,-0.7734132801439613
1772731951808916500,6.01691650390625,4.071747919374704,-1.0657483862020074,-0.6157564013838768
1772731951818944800,6.02694482421875,1.0967395906627178,-2.131497356925905,-0.3431749933920801
1772731951828972500,6.03697265625,-3.0109242762237787,-4.342376878124475,-0.4252141019143164
1772731951839000600,6.04700048828125,-8.060137756583094,-5.4797436627298595,1.0242135758951305
1772731951849028600,6.057028564453125,-12.65715984238386,-5.071097979909181,6.7142924721926445
1772731951859056600,6.067056640625,-19.149327566754817,-7.94826318950653,10.373802237212658
1772731951869084700,6.077084716796875,-30.401523580825327,-1.486761383164674,13.701707473516464
1772731951879112700,6.08711279296875,-44.8946807072401,12.830094150578974,12.498084548193216
1772731951889140500,6.097140380859375,-60.831548448991775,14.307277996450662,4.276892306300997
1772731951899168800,6.107168701171875,-70.67019751532078,14.353063596069813,2.0943978987179697
1772731951909195800,6.11719580078125,-64.30457176580428,13.072823879534006,3.2378231065794822
1772731951919223600,6.1272236328125,-46.16940136809349,8.316668047353625,3.524089194922149
1772731951929251600,6.13725146484375,-28.570971702718733,2.7927099798440933,3.5772871166244147
1772731951939279600,6.147279541015625,-17.694902665179967,-1.7160598220080137,3.7667704085603355
1772731951949307600,6.1573076171875,-12.771998519963025,-3.9128994196772573,4.419006528818607
1772731951959335700,6.167335693359375,-9.843658418923615,-3.541327622231841,2.6135698027461767
1772731951969363700,6.17736376953125,-5.986724632096291,-1.9314893099747596,-1.3475458046980202
1772731951979391500,6.1873916015625,-1.209094634732604,-0.9102108376834541,-4.732018585267663
1772731951989419800,6.197419677734375,3.481753735756874,-0.7819209231831132,-5.4037774443805215
1772731951999447600,6.207447509765625,7.463901463705301,-1.2873168153151868,-3.6993446395412084
1772731952009475600,6.2174755859375,11.177498792743682,-2.4479461098253728,-1.7533596250936387
1772731952019503600,6.227503662109375,15.287393779683113,-3.075083444662392,-0.6202765822220593
1772731952029531000,6.23753076171875,18.44741263883114,-2.746291927540302,-0.542452826372534
1772731952039558700,6.24755859375,19.685172811555862,-2.26688665510267,-1.3613310228139162
1772731952049586700,6.257586669921875,18.798074334716794,-1.7892502920337021,-2.1815984816566107
1772731952059614700,6.26761474609375,16.724485269141198,-1.4615702432848512,-2.485228669515252
1772731952069642500,6.277642578125,15.72297013952732,-1.1823187098793684,-1.9293107968918979
1772731952079670800,6.2876708984375,16.162504881608484,-1.0906390818305314,-1.1777044940821826
1772731952089698600,6.297698486328125,17.003475229001044,-0.9566006868060678,-0.902133256624639
1772731952099726600,6.3077265625,17.407292176491023,-0.7876320673715322,-0.9682996001672
1772731952109754600,6.317754638671875,17.317541178417205,-0.7872711251046508,-0.5205621893428266
1772731952119782700,6.32778271484375,16.8584272911191,-0.7627415178734809,0.470160474230349
1772731952129810700,6.337810791015625,15.493899518090485,-0.6911005423121154,1.210210633150488
1772731952139837700,6.347837646484375,13.614265336906909,-0.47949455815628167,1.4193025886587798
1772731952149865700,6.35786572265625,11.575445971417427,-0.09434037169069051,1.2393173390388488
1772731952159893800,6.367893798828125,9.89600001605749,0.2236212699897587,0.9645468235049396
1772731952169921500,6.377921630859375,8.89958542445302,0.4940678579099476,0.7061505196668207
1772731952179949800,6.38794970703125,8.357246141457557,0.5504901850188151,0.5709620778243989
1772731952189977600,6.3979775390625,8.277779806032777,0.3901325228674337,0.7206950317174196
1772731952200006000,6.408005859375,8.267523784956335,0.363647982176207,0.7952475838765501
1772731952210033700,6.41803369140625,8.00023887593746,0.3001944047236815,0.6207396696891635
1772731952220061700,6.428061767578125,7.654791115307807,0.22798651599455624,0.3155927205920219
1772731952230089700,6.43808984375,7.5925915565043685,0.279153881717287,-0.1463004952263087
1772731952240117500,6.448117431640625,7.826475715702772,0.35815965042561293,-0.5388793152673169
1772731952250145800,6.458145751953125,8.050090409821271,0.39708398597314953,-1.004780122759193
1772731952260172500,6.468172607421875,8.527598616465927,0.3833057455873117,-1.4510522102713583
1772731952270200800,6.478200927734375,9.126399206873774,0.21100396314207462,-1.6328735892772674
1772731952280228600,6.488228515625,9.306178850919007,0.027597872227989137,-1.5173507288262247
1772731952290256600,6.498256591796875,9.008490035808085,-0.0067912675753235814,-1.232595629568398
1772731952300284700,6.50828466796875,8.57949188531041,0.050229463818110526,-1.1875050264760851
1772731952310312700,6.518312744140625,8.35023070973754,0.10655085130315273,-1.2526819936551152
1772731952320340700,6.5283408203125,8.461170626312494,0.09819986013043672,-1.1346613250389694
1772731952330368800,6.53836865234375,8.372444295111299,0.12024579731971025,-0.9885486074697226
1772731952340396500,6.548396484375,7.311632926920056,0.3770050014752894,-1.3873431236878038
1772731952350424800,6.5584248046875,7.3267334654182195,0.5396927870746702,-1.5703085581623017
1772731952360452600,6.56845263671875,7.315810504865646,0.45386751107722517,-1.3789002895131706
1772731952370479600,6.578479736328125,6.43708588861823,0.63052354320921,-1.4196917341068387
1772731952380507600,6.588507568359375,5.423747634741663,0.8330816399693488,-1.197543751540035
1772731952390535700,6.59853564453125,3.6242964128196236,0.8218305434409529,-1.1841853805340825
1772731952400563700,6.608563720703125,1.2810346663057803,0.708916915640235,-0.8744904858089982
1772731952410591500,6.618591552734375,-0.9385095151245594,-0.11682334859035909,-0.15827698341980576
1772731952420619800,6.628619873046875,-4.129989095941186,-0.8313623418960719,2.0216154249712823
1772731952430647600,6.6386474609375,-10.015138436657189,-0.7470856105148792,5.232493826001882
1772731952440675800,6.64867578125,-17.412430123901366,-1.204875555732846,9.055748046067357
1772731952450703600,6.65870361328125,-25.36477327619791,-1.1201423858210444,11.941645428174734
1772731952460731600,6.668731689453125,-35.8805184710145,5.145421691748499,14.292053539311885
1772731952470759700,6.678759765625,-46.248634479284284,11.736029332083463,13.964148449635506
1772731952480787700,6.68878759765625,-53.841835692119595,12.190980254483222,9.81843629938364
1772731952490814700,6.698814697265625,-57.647349088311195,12.311124052733183,7.2722677157372235
1772731952500842500,6.708842529296875,-55.53221688299179,11.518393127852677,5.167480378821492
1772731952510870800,6.718870849609375,-47.736663544297215,9.117765818563104,4.306377343982458
1772731952520898600,6.728898681640625,-37.18319564480781,4.945878778091073,4.468489229390025
1772731952530926600,6.738926513671875,-25.760401072013376,1.1432958823934196,5.221484940731525
1772731952540954600,6.74895458984375,-15.292668505215644,-1.8165309515386818,4.617050143828988
1772731952550982700,6.758982666015625,-7.85301768566966,-3.2682539006784554,2.0298300033479926
1772731952561010700,6.7690107421875,-3.5891128712356086,-3.3630671505779026,-1.2115391783405094
1772731952571038700,6.779038818359375,0.07120528755784035,-3.2605443492144346,-3.068740797637403
1772731952581066500,6.78906640625,4.302617699187993,-3.5476714383006094,-3.521306286205351
1772731952591094800,6.7990947265625,8.648796307682991,-4.2249984529346225,-3.498912083567679
1772731952601122600,6.80912255859375,12.819037334513663,-5.045665432488918,-2.7959140365824102
1772731952611149600,6.819149658203125,16.100608689665794,-5.638716665589809,-1.7046309577599166
1772731952621177600,6.829177490234375,18.257503814959524,-5.539816146376729,-0.9901344153564423
1772731952631205600,6.83920556640625,18.573786271381376,-4.438284060740471,-0.731170979154855
1772731952641233700,6.849233642578125,16.503103448641298,-3.150133424949646,-1.162868963195756
1772731952651261700,6.85926171875,14.117484907913207,-2.173307184781879,-1.8270387554191052
1772731952661289700,6.869289794921875,13.290326812773943,-1.6446243789561092,-2.0507520876064897
1772731952671317500,6.8793173828125,13.515392290222644,-1.4798907667428254,-1.7194304674848913
1772731952681345000,6.889344970703125,14.43889712843895,-1.583718220964074,-0.9872105637989937
1772731952691372800,6.899372802734375,16.110952389025687,-1.5359247886538505,-0.6705456839308143
1772731952701401000,6.909401123046875,17.836574404627083,-1.4754251656360924,-0.4867059873724356
1772731952711428900,6.919428955078125,18.69342153558731,-1.6576486957021057,0.673174351933971
1772731952721455900,6.929455810546875,18.28321576384306,-1.7907541207253932,1.8673481155842542
1772731952731484000,6.93948388671875,16.75384931079149,-1.7761124319106338,2.4709078832179308
1772731952741512000,6.949511962890625,14.592693020921944,-1.3879688543707132,2.287833143150061
1772731952751540000,6.9595400390625,12.414080569338799,-1.0136324145175517,1.6080011599577961
1772731952761567700,6.969567626953125,11.061793853724001,-0.6336364875979721,0.8622055892534554
1772731952771596000,6.979595947265625,10.447127001142501,-0.32924379093423484,0.4949432525049895
1772731952781623800,6.989623779296875,9.74152023296356,-0.16135922214305026,0.33711014039516446
1772731952791651800,6.99965185546875,9.011069530907273,0.002314231759123504,0.20044822846669702
1772731952801680000,7.009679931640625,8.482488139629364,0.19425733793731778,0.06195050681266002
1772731952811708000,7.0197080078125,8.247008235672116,0.3285015942648053,0.04095722961463034
1772731952821736000,7.02973583984375,8.39209592104256,0.3513770045481622,0.21320868837842716
1772731952831763000,7.039762939453125,8.60817729704678,0.25676006267210466,0.7108062365181743
1772731952841791000,7.049791015625,8.573961139190196,0.14656060746721922,0.9274255187913775
1772731952851818800,7.05981884765625,8.262314525875448,0.18091893200716003,0.6292695245601236
1772731952861847000,7.069846923828125,8.065546922150254,0.388514493211545,0.14707056628335266
1772731952871874800,7.079874755859375,7.841163581746816,0.5599124952174723,-0.39553105744272465
1772731952881902800,7.08990283203125,7.507773923179506,0.6460656149297952,-0.8190577177267521
1772731952891931000,7.099930908203125,7.348685184985399,0.6350238503031432,-0.8565053317852318
1772731952901959000,7.109958984375,7.356502580738067,0.6196684602610767,-0.7523417774774134
1772731952911987000,7.119987060546875,7.253909636747837,0.6620342414993793,-0.788455074192211
1772731952922015000,7.130014892578125,7.141441779953241,0.6030343555200844,-0.8472975776527076
1772731952932042800,7.140042724609375,7.583980964547395,0.541914262516424,-0.7951817520987242
1772731952942071000,7.150071044921875,7.984172707277536,0.6852535698495805,-0.698797088164091
1772731952952097800,7.160097900390625,7.550310165613889,0.6437593838140369,-0.6253108500622212
1772731952962126000,7.1701259765625,6.786555744370817,0.5296656063180416,-0.34519298215098676
1772731952972153900,7.18015380859375,6.101108551645279,0.43424927595891055,0.09056012249961495
1772731952982182100,7.19018212890625,5.403849925094843,0.16402867881432176,0.17010222657434643
1772731952992210000,7.2002099609375,4.330405285301804,-0.10112228691577911,-0.21736754335723815
1772731953002237700,7.21023779296875,2.6803748095184563,-0.47858694179207084,-0.7604639283303171
1772731953012266000,7.220265869140625,-0.09803776490390301,-1.1295878211669623,-1.2346385335728525
1772731953022293800,7.230293701171875,-4.373306853917241,-2.37276344306916,-1.3992286456622183
1772731953032322000,7.240322021484375,-8.598681738948821,-3.6096769358366725,-0.1538818172007799
1772731953042349800,7.250349853515625,-12.87602237353921,-3.7935897341638802,4.27974068146944
1772731953052377900,7.2603779296875,-20.676325537109374,-3.3504093290567396,8.38694862128198
1772731953062404900,7.27040478515625,-32.534567874932286,-1.4429948682829736,9.660814126610756
1772731953072433000,7.280432861328125,-42.58553399629593,6.655232380458712,10.82615554433465
1772731953082461000,7.2904609375,-49.100549512290954,10.548462054026126,5.819202412077784
1772731953092489000,7.300489013671875,-54.434751316142076,9.654590137529373,1.3469322028443216
1772731953102517000,7.31051708984375,-56.159259233021736,9.62598480529189,1.5367936804428697
1772731953112545000,7.320544921875,-50.63870249838829,6.530792930841446,1.6937752172246574
1772731953122572800,7.33057275390625,-39.06146788998842,2.6396128832802175,1.6153662818983197
1772731953132601000,7.34060107421875,-26.376103697383403,-0.720091805127263,2.491785836073756
1772731953142628900,7.35062890625,-16.130519843804834,-3.6927743212401865,3.511494794026017
1772731953152657000,7.360656982421875,-10.360203919970989,-4.4428336868688465,3.4612001925498244
1772731953162685000,7.370684814453125,-8.217953406101465,-3.2317280045747756,2.123645328251272
1772731953172712700,7.380712646484375,-6.392566947934031,-2.082226253278553,0.41787228778414426
1772731953182740000,7.390739990234375,-2.966316488212347,-1.3547972371309995,-1.1729033043455332
1772731953192767700,7.400767822265625,1.8303741834521292,-0.8229125665239989,-2.2971109668441114
1772731953202796000,7.410796142578125,7.055439320757984,-0.8048786779876798,-2.5969343097656963
1772731953212823800,7.42082373046875,11.638695916056632,-1.1038005420248955,-2.459688570067286
1772731953222852000,7.43085205078125,14.215895013260841,-1.3538877210706473,-2.1322480291627346
1772731953232879900,7.4408798828125,14.745794501399994,-1.2648597765743732,-1.7838709370829164
1772731953242908000,7.450907958984375,14.218775537133215,-0.8388364771690219,-1.5912074076756835
1772731953252936000,7.46093603515625,14.137028981816767,-0.5199607163183391,-1.5918230553559958
1772731953262964000,7.4709638671875,14.35979962632656,-0.2409020751364529,-1.520815190066397
1772731953272992000,7.480991943359375,14.1408131765306,0.1880897917509079,-1.6689625552684069
1772731953283020000,7.49102001953125,14.127019628977775,0.47317404989786443,-1.923977473039925
1772731953293047000,7.501047119140625,15.445957032698391,0.31461423094868657,-1.777252980247885
1772731953303074800,7.51107470703125,17.214948234426974,-0.019393267256021498,-1.226989187863469
1772731953313102800,7.521102783203125,18.522825314950943,-0.2272504202723503,-0.8431162733800709
1772731953323131000,7.531130859375,19.12973673110008,-0.33109891728162766,-0.558013895054534
1772731953333159000,7.541158935546875,19.240216044425964,-0.49889104028269643,-0.29138891124911603
1772731953343187000,7.55118701171875,18.43011663611531,-0.6938418038442731,-0.22035682483371347
1772731953353215000,7.561215087890625,16.72921522027254,-0.706929687345773,-0.032306890169158574
1772731953363242800,7.57124267578125,14.618151287305354,-0.4470295548159629,-0.2590410314824432
1772731953373271000,7.58127099609375,12.67236208769083,-0.12565817775726318,-0.7603044269196688
1772731953383298800,7.591298828125,11.544183402669429,0.06343779536150396,-1.3054019225820899
1772731953393327000,7.6013271484375,11.28184764049053,-0.016836203184351323,-1.4151362627595663
1772731953403353900,7.611353759765625,11.255062509417533,-0.006748816673085093,-1.0093999645795673
1772731953413382000,7.6213818359375,10.785354747390747,-0.029026114932820198,-0.6656908643107861
1772731953423410000,7.631409912109375,9.909053558897972,-0.04144990850239992,-0.3568336625188589
1772731953433438000,7.64143798828125,9.159080410248041,0.06959310312084853,-0.15610292731635272
1772731953443466000,7.651466064453125,8.667219853124022,0.18058102355599404,-0.3066867258850485
1772731953453493800,7.66149365234375,8.116569837900995,0.3506936984591186,-0.6393463166121393
1772731953463522000,7.67152197265625,7.424910346531868,0.5960020457305014,-1.0848863635227084
1772731953473549800,7.6815498046875,6.940493091151118,0.7761627980478107,-1.477530759613216
1772731953483577900,7.691577880859375,6.712051999789476,0.8204495374113321,-1.6887489134952425
1772731953493606000,7.70160595703125,6.988074342015385,0.8548289230056106,-1.769628038327396
1772731953503634000,7.711634033203125,7.202947511273622,0.8518531220652162,-1.7111755570977925
1772731953513662000,7.721661865234375,6.883254954147339,0.8216021415125578,-1.5337012673854826
1772731953523688700,7.731688720703125,6.556415447875857,0.7337656718231738,-1.294860654823482
1772731953533717000,7.741717041015625,6.721066496372223,0.6663366879336535,-0.998590328208357
1772731953543744800,7.751744873046875,6.923402255618572,0.7306801999632269,-0.7978706258565187
1772731953553772800,7.761772705078125,6.133591017577052,0.8150031816389411,-0.6175927499655633
1772731953563800800,7.77180078125,4.663807218828797,0.9982438528582454,-0.45304223923422393
1772731953573828900,7.781828857421875,3.19262875085175,1.2263809928372502,-0.3863169466346502
1772731953583857000,7.79185693359375,1.9480349327147006,1.2544646392881869,-0.42705490747541186
1772731953593885000,7.801885009765625,1.1564040780305862,1.0032448760159314,-0.2929536032825708
1772731953603912700,7.81191259765625,-0.09266717778146266,1.1108516295801847,0.16976824537962673
1772731953613941000,7.82194091796875,-4.458870921695232,1.422530318533629,1.0299190940603613
1772731953623968800,7.83196875,-12.519682632017135,0.8257077502004802,2.2428256882965565
1772731953633996000,7.84199609375,-19.195715223920345,-0.16170023586675525,5.123393984335661
1772731953644023800,7.85202392578125,-21.916716058337688,-1.026036407408118,8.236567505678535
1772731953654052000,7.862052001953125,-22.81260340631008,-3.9583874976545568,8.357658813911677
1772731953664080000,7.872079833984375,-25.79284203689098,-2.870488800573349,9.208516349068283
1772731953674108000,7.88210791015625,-31.943328659689424,1.802181962060183,11.316192977684736
1772731953684136400,7.892136474609375,-41.535699949192995,3.2661876157984135,11.496453683245182
1772731953694164200,7.902164306640625,-54.92933165361881,7.809426381224394,11.536976247769594
1772731953704192500,7.912192626953125,-63.1981559997797,12.606374242520332,7.856745181760192
1772731953714220300,7.92222021484375,-58.211524940061565,12.333522931545971,2.7134087718531488
1772731953724248000,7.932248046875,-43.01699532203674,7.69038908291161,2.4306029069669544
1772731953734276400,7.9422763671875,-25.22032856490612,2.175805139077455,5.346589576259255
1772731953744304000,7.95230419921875,-11.53622104548812,-2.213150681000948,7.4410577637344595
1772731953754331400,7.962331298828125,-2.582228908064961,-4.392381556743383,7.356504334303736
1772731953764359200,7.972359130859375,1.9712351910382508,-4.263283759926259,4.75793833168298
1772731953774387500,7.982387451171875,4.594558326035738,-3.755359079968929,0.6466754173912107
1772731953784415200,7.992415283203125,9.150346484172344,-4.614342346175015,-2.1291336965344847
1772731953794443300,8.002443359375,14.948513707005977,-5.809229884117841,-2.3082199514880775
1772731953804471300,8.01247119140625,18.869734380304813,-5.976740998220444,-1.7824112397938965
1772731953814499300,8.022499267578125,20.44684691939354,-4.84785007327646,-2.1717650699064133
1772731953824527400,8.03252734375,21.378233450770377,-3.40122094014436,-3.085136052121222
1772731953834555400,8.042555419921875,21.58913596283197,-2.505560971187055,-3.7222190269112585
1772731953844583200,8.052583251953125,21.14621566996574,-1.9805492550894617,-4.353317374333739
1772731953854611500,8.062611572265626,20.215579664695262,-0.9524066691823303,-4.486236483004689
1772731953864638200,8.07263818359375,17.653320946991442,-0.4270926822025329,-4.03770127286613
1772731953874666200,8.082666259765626,14.581359141480922,-0.052629401099309324,-3.462976554572582
1772731953884694300,8.0926943359375,12.013325347507,0.5356117283061146,-3.1606735236644745
1772731953894722300,8.102722412109374,10.619055931687354,0.9237449305824935,-2.7157372148007153
1772731953904750300,8.112750244140624,10.425336025094985,1.0740630639523268,-2.1120709180526434
1772731953914778000,8.122778076171874,10.79519575792551,1.0247340926378965,-1.1064256298314779
1772731953924806400,8.132806396484375,10.834601885640621,0.7211925329107791,0.438549347773008
1772731953934834200,8.142834228515625,10.319780724167822,0.2514963882565498,0.5039283768627792
1772731953944862500,8.152862548828125,10.240945087862015,0.30675255766287446,-0.3410576359119266
1772731953954890200,8.16289013671875,10.589444052755832,0.4610980103200301,-1.2545233837381005
1772731953964918300,8.172918212890625,10.820603755426406,0.3075307389611378,-1.6372927208937704
1772731953974946300,8.1829462890625,10.69929442052841,0.07945873664021491,-1.4521730309948324
1772731953984973300,8.192973388671875,10.214974780303239,-0.08935257334075868,-1.1585125215519219
1772731953995001300,8.20300146484375,9.820585001850128,-0.2945322325098328,-1.0382296070922166
1772731954005029000,8.213029052734376,10.002357281017304,-0.4873663875099271,-0.8019619137581437
1772731954015057400,8.223057373046874,10.274594844007492,-0.6087773561514914,-0.5282396651681512
1772731954025085200,8.233085205078124,10.436437264823914,-0.8715819779511541,-0.22599194464385508
1772731954035113200,8.24311328125,10.59344101343751,-1.0253316201396285,0.22455540903471408
1772731954045141200,8.253141357421875,10.109682514226437,-0.9367797687225043,0.11589476250335573
1772731954055169300,8.263169189453125,9.391627767884732,-0.860920371748507,-0.3625453181639314
1772731954065197300,8.273197265625,9.214038911882042,-0.7257175360545516,-0.783050292539224
1772731954075225300,8.283225341796875,9.150659787905216,-0.6493151913102716,-1.0184260785348713
1772731954085252400,8.29325244140625,8.973339811971783,-0.6397034594867378,-1.0697272997703402
1772731954095280000,8.303280029296875,8.789044736328721,-0.5805333315070719,-1.153129294143617
1772731954105308400,8.313308349609375,8.855221382069587,-0.4734173571344465,-1.347973820851743
1772731954115336200,8.323336181640625,9.329362158107758,-0.5177198785889894,-1.594903777975589
1772731954125364200,8.3333642578125,9.867837751412392,-0.3890325257362798,-1.6024113771267234
1772731954135392300,8.343392333984376,9.789415956604481,-0.2210291528710164,-1.4941761894658208
1772731954145420300,8.353420166015624,9.277180135449766,-0.10446963371546007,-1.3157133271075785
1772731954155448300,8.3634482421875,8.40369926507473,0.11286101169749163,-1.1648014656282961
1772731954165476400,8.373476318359375,7.039600531113147,0.2900105355679989,-1.2717303929962218
1772731954175504100,8.383504150390625,5.295370261153578,0.7544969096846879,-1.6652090479537844
1772731954185532400,8.393532470703125,3.4099399609118697,1.081146446342021,-2.432041123076528
1772731954195560200,8.403560302734375,1.7549422181099652,1.1400421412944792,-2.8872973120331764
1772731954205587500,8.41358740234375,0.40044425618648527,1.5710463709175586,-2.7209605024069545
1772731954215615200,8.423615234375,-0.5403092384725808,1.3087902498461306,-2.6564783856242893
1772731954225643500,8.4336435546875,-0.7201537644475698,0.36567298519778996,-2.5406851837992668
1772731954235671300,8.44367138671875,-1.030393433573842,-0.9981379813309759,-1.4240185112647712
1772731954245699300,8.45369921875,-3.6812978184580802,-2.3893214868992567,1.1792670672237873
1772731954255727400,8.463727294921876,-8.58346604963839,-2.950460455171764,3.970757734405994
1772731954265755100,8.473755126953124,-14.659890826404094,-1.3188289749100803,7.00675273900032
1772731954275783400,8.483783447265624,-21.0776629427433,2.1592466568559407,9.625711249047518
1772731954285811200,8.493811279296875,-27.054785049235818,6.77230217809081,12.120222710692882
1772731954295839200,8.503839111328125,-34.65454927384853,10.08233507309556,14.509399820685386
1772731954305867300,8.5138671875,-44.230528231477734,11.866551901006698,14.440225162172316
1772731954315895300,8.523895263671875,-51.74442619049549,14.305115265458822,10.675620114952325
1772731954325922300,8.53392236328125,-53.902611940121645,16.06296197283864,3.9308445339515803
1772731954335950300,8.543950439453125,-49.97787010695934,15.02920812292099,-1.406102769215405
1772731954345978400,8.553978271484375,-40.43241722049713,11.968548632669448,-1.2465592729911208
1772731954356006400,8.56400634765625,-29.324303514146802,8.266001689955592,2.3839710657820103
1772731954366034200,8.5740341796875,-18.66481269621849,4.609209074939787,5.537340696173906
1772731954376062500,8.5840625,-9.887802681076526,1.449993641129136,6.776977184164524
1772731954386090200,8.59409033203125,-4.918046768313646,-0.15471072403928265,6.5131906386554235
1772731954396118500,8.604118408203124,-3.8295799159556627,-0.27593285557786,4.555746949343383
1772731954406146300,8.614146240234374,-4.420933112967014,0.11863570437510497,2.1433684119835497
1772731954416174000,8.624174072265625,-4.081626923832297,0.03872970802458003,0.31609942800514396
1772731954426202400,8.634202392578125,-2.3101970967799423,-1.1686655206453054,-0.7280995358202605
1772731954436229000,8.64422900390625,0.6743477065622806,-2.8302967831775545,-1.5589447219744323
1772731954446257400,8.65425732421875,4.727124968007207,-3.731144091644883,-1.8656255295753479
1772731954456285200,8.66428515625,8.920873711675405,-3.743196348488331,-1.9120804067581891
1772731954466313500,8.6743134765625,12.262380772352218,-3.026124767965078,-1.8183952841058373
1772731954476341200,8.68434130859375,13.845930066490173,-2.250194317368418,-1.9498194780439138
1772731954486369300,8.694369384765626,14.170795642340183,-1.616038774332404,-2.374472877335548
1772731954496397300,8.704397216796876,12.675965080618857,-0.9210422474950551,-3.1916587367758154
1772731954506425300,8.71442529296875,9.969177480471133,0.22297058752868323,-4.051004114292562
1772731954516453400,8.724453369140624,8.877405741348863,1.191601794270426,-4.429468886122107
1772731954526481400,8.7344814453125,9.912707989752292,1.364958857922256,-4.0243697898671025
1772731954536509200,8.74450927734375,11.555219175946712,1.2923274830840528,-3.280609232121706
1772731954546536200,8.7545361328125,13.245223934721945,1.0560411581147462,-2.6995877517715097
1772731954556564200,8.764564208984375,14.807371544390916,0.3943228872293606,-1.9623428595304488
1772731954566592300,8.77459228515625,15.813249545389413,-0.5305019840769469,-0.8706096988528966
1772731954576620300,8.784620361328125,16.56009433288574,-1.435558580802381,0.6713635031197219
1772731954586648300,8.7946484375,16.532890684139726,-2.0747233303025365,1.9990522955074905
1772731954596676400,8.80467626953125,15.187646288251877,-2.0791702267087997,1.697983482569456
1772731954606704000,8.8147041015625,13.424321441721915,-1.4460191845402122,0.27954949343875046
1772731954616732400,8.824732421875,11.703739173853396,-1.0595409829292446,-0.9092164198186248
1772731954626760200,8.83476025390625,10.238327598839998,-1.030141796900332,-1.240967444333434
1772731954636788500,8.84478857421875,8.948850098359584,-1.0531879606407135,-0.80411836113967
1772731954646816300,8.854816162109374,7.743069118219614,-1.1565088535793124,-0.3782888307407498
1772731954656843300,8.86484326171875,6.913757644438743,-1.1276276270098984,0.013746712736412882
1772731954666871300,8.874871337890625,6.545174507415294,-1.0032133118338882,0.43716625938415526
1772731954676899000,8.884899169921875,6.899155118590593,-1.0255391984757036,1.0854841832853852
1772731954686927400,8.89492724609375,6.881447612464427,-0.8287173072800039,1.1974798194583505
1772731954696955100,8.904955078125,6.620505350470543,-0.43687122196033595,0.6683245007500052
1772731954706983400,8.9149833984375,6.448489326164126,0.06808054313343018,-0.12878083982244135
1772731954717011200,8.92501123046875,6.497891947236657,0.276305762277171,-0.7120438885543495
1772731954727039200,8.935039306640626,6.902147286143898,0.3763935915786773,-0.8504908207360654
1772731954737067300,8.9450673828125,7.329802205339074,0.47536907572410997,-0.5806733244996518
1772731954747095300,8.95509521484375,7.572612598314881,0.4562514836043119,-0.47631673183776435
1772731954757123300,8.965123291015624,7.791774989199638,0.34667189559713,-0.4429763339024037
1772731954767151400,8.9751513671875,8.27122848469317,0.27593188746348024,-0.4189566489547491
1772731954777178400,8.985178466796874,8.692599209052323,0.29615239932388066,-0.3220606744971126
1772731954787206100,8.9952060546875,8.427188277211785,0.28629940609037874,-0.18254282514825462
1772731954797234200,9.005234130859375,7.865646865618229,0.22862638480067252,0.07639452676400542
1772731954807262200,9.01526220703125,6.894839008957147,0.26252149400934577,0.4799636369727552
1772731954817290200,9.025290283203125,5.243151998138427,0.42786286285743114,0.49348713541254396
1772731954827318300,9.035318359375,3.23257731488049,0.3954873644314706,0.22596746778972446
1772731954837346300,9.04534619140625,1.7293243772506712,-0.052299657688289876,-0.19729557312205434
1772731954847374000,9.0553740234375,0.7563648955136537,-0.6495297839090227,-0.609424275752902
1772731954857402400,9.06540234375,-0.8738847750008105,-2.0498833419479427,-0.9915494697861373
1772731954867430100,9.07543017578125,-4.188853372842074,-3.3831016383469104,-0.3431049968957901
1772731954877458400,9.08545849609375,-10.118225886166096,-2.8422867884397505,1.3251855043299496
1772731954887485200,9.095485107421876,-18.921452877104283,-1.6561930900663135,2.1951503294080497
1772731954897513500,9.105513427734374,-27.64595879802704,-1.5570916414536535,2.15155887883231
1772731954907541200,9.115541259765624,-32.558308816003795,0.1845854368917644,3.8224849892586468
1772731954917569300,9.1255693359375,-33.33966962108612,2.3842757478170093,5.352874355617165
1772731954927597300,9.135597412109375,-32.77677504131794,2.0588586755640805,5.8316369462370865
1772731954937625000,9.145625,-34.45754435423613,2.7933479854866863,6.651895344990492
1772731954947653400,9.1556533203125,-36.37087856044769,3.8355502225369213,5.409989158502221
1772731954957681200,9.16568115234375,-34.564719949841496,3.893660466200113,2.5837182698398826
1772731954967709200,9.175709228515625,-27.965507562768458,3.0685403066292403,1.0850517832174897
1772731954977737200,9.1857373046875,-19.224784666538238,1.3318161745160817,1.3670638673774897
1772731954987765200,9.19576513671875,-11.466790366387366,-0.5915476966701447,2.4173975345656276
1772731954997792300,9.205792236328126,-5.756653893706202,-1.565782459039986,2.384116173341125
1772731955007820300,9.2158203125,-1.6091624588221312,-1.6766747370809316,0.8464949560329318
1772731955017848300,9.225848388671874,1.2219617150902748,-1.3150190612331032,-0.706498602452129
1772731955027876400,9.23587646484375,4.140771771240234,-1.1830994849935172,-0.881865398491174
1772731955037904400,9.245904296875,7.433774036467075,-1.507916107135266,0.03798135560899973
1772731955047932400,9.255932373046875,9.815672679889202,-1.6922557525724171,0.27841420579850673
1772731955057960200,9.265960205078125,10.883654962623119,-1.098524501318112,-0.5682451470158993
1772731955067988500,9.275988525390625,11.854599597406386,-0.661581163969636,0.21566804596297443
1772731955078016300,9.286016357421875,11.379769085538387,-0.569614316477254,-0.7436365660395473
1772731955088044300,9.296044189453125,10.069818121349812,0.33107078716568644,-1.5696911569163203
1772731955098072300,9.306072265625,9.003385990667343,1.1686458660967647,-2.14185625385493
1772731955108099300,9.316099365234376,9.514594806861878,1.251376025623083,-1.9729849573150275
1772731955118127400,9.32612744140625,11.735900737267732,0.9692962830543518,-1.373146986683458
1772731955128155100,9.336155029296876,13.632155213862656,0.5872567945431918,-0.8854253559950739
1772731955138183400,9.346183349609374,14.477466220808028,0.5035449305031449,-0.8366396247118711
1772731955148211200,9.356211181640624,14.164087669134139,0.5808216469291597,-1.0867688893336802
1772731955158239500,9.366239501953125,12.656979809641838,0.6465069289565086,-1.2861428030997515
1772731955168266200,9.376266357421875,10.844278061002493,0.7456588656473905,-2.1272158802144228
1772731955178294300,9.386294189453125,9.613412323966621,0.952385407198593,-2.6793732312604783
1772731955188322300,9.396322265625,8.893975767877697,0.9809904471751302,-2.520960492631793
1772731955198350000,9.40635009765625,8.534997494545578,0.8376127805929631,-2.4177808347947893
1772731955208378400,9.41637841796875,8.694990488103032,0.5817487717114389,-2.172444868864119
1772731955218406100,9.42640625,9.234354554679989,0.31581315840967,-1.477568899666518
1772731955228434400,9.436434326171875,8.893210044202208,0.09202091576717793,-0.9742737061407416
1772731955238462200,9.446462158203126,8.224784713426232,0.15887195363827047,-1.0501564109250903
1772731955248490200,9.456490234375,7.671559879279136,0.2796128409985453,-1.5875979850068687
1772731955258518300,9.466518310546874,7.82890440415442,0.4765230680648237,-2.020158942552656
1772731955268546300,9.47654638671875,8.006660433417558,0.5851607721120119,-2.392580050303787
1772731955278573300,9.4865732421875,8.324885256078838,0.5767669647108763,-2.2563538629114626
1772731955288601300,9.496601318359374,8.810929235878586,0.5657013077519834,-1.7247868799515067
1772731955298629400,9.50662939453125,8.736662807184457,0.49267479611635207,-1.341700439670682
1772731955308657200,9.5166572265625,8.502278297248482,0.5507854781709611,-1.2934623323328793
1772731955318685200,9.526685302734375,8.429137073191999,0.6107404729180037,-1.4165288861617444
1772731955328713200,9.536713134765625,8.549860717156529,0.3437922485075891,-1.0470834332205354
1772731955338741200,9.5467412109375,8.345335923433304,0.10234861384034157,-0.2942212851308286
1772731955348769300,9.556769287109375,7.976720053184032,0.26757030183151365,0.32570319571793077
1772731955358797300,9.56679736328125,6.699126467242837,0.161494630292058,0.5789832525208592
1772731955368825000,9.5768251953125,4.6739890056252476,-0.4292322515144944,0.4278423315260559
1772731955378853400,9.586853271484374,2.5174925242602826,-1.1899515428453684,0.4292146427925676
1772731955388880100,9.596880126953126,0.6908551892489194,-2.196210652115941,0.9265805193345993
1772731955398908400,9.606908447265624,-1.7943799100071192,-3.689248777462542,1.5804878607407211
1772731955408936200,9.616936279296874,-4.7271138620913025,-5.261766097715497,3.3607869306862352
1772731955418964500,9.626964599609375,-7.623755925574899,-5.18119092426598,6.430676021575928
1772731955428992300,9.6369921875,-12.502146975326538,-4.6757501700788735,9.329252267992496
1772731955439020300,9.647020263671875,-19.956056621849537,-4.0750183193475005,8.174410616973041
1772731955449048300,9.65704833984375,-25.972757874536512,-2.2930928172439335,3.314951646706462
1772731955459076400,9.667076416015625,-28.442970761227606,0.007597031000256538,-0.2705262655602768
1772731955469104400,9.6771044921875,-29.849910273528096,1.2821506647236645,-0.45494536944180725
1772731955479132200,9.687132080078126,-32.16333802279234,1.7202921988807618,1.4414862172856926
1772731955489160200,9.69716015625,-34.56130400391817,2.1452210541129113,3.8047882967874407
1772731955499187200,9.707187255859376,-34.11268345358371,2.860217581927776,3.3387925410211086
1772731955509215200,9.71721533203125,-29.29478749680519,3.308696093443036,1.7770974974252283
1772731955519243300,9.7272431640625,-22.45114909825325,2.3921825754188,1.4403053369380532
1772731955529271300,9.737271240234374,-15.859970380032061,0.3990342432580888,2.887606231851876
1772731955539299300,9.74729931640625,-9.58105903737247,-1.284784081967175,3.578590308177471
1772731955549327400,9.757327392578125,-2.8464474152505397,-1.9968124076262115,1.771468697758019
1772731955559355100,9.767355224609375,3.5784009230852125,-2.243991517205536,-0.7871325934167951
1772731955569383400,9.777383544921875,7.994302471625804,-2.187718571972102,-2.230048916570842
1772731955579411200,9.7874111328125,10.066738860034942,-2.000276576605439,-2.5252076286822556
1772731955589439500,9.797439453125,12.101903794670104,-1.850176177639514,-2.643746329823136
1772731955599467300,9.80746728515625,13.24116969089508,-1.2143142690770328,-2.3373775107808408
1772731955609494300,9.817494384765626,12.190285842478275,-0.6061236998375504,-1.529974355816841
1772731955619522300,9.827522216796876,8.9694112403512,0.22184140083566306,-1.4201611051842569
1772731955629550300,9.83755029296875,5.2382934521913525,1.280557988704741,-1.9910805859759448
1772731955639578400,9.847578369140624,3.6651346191644665,1.3387673088282346,-2.5304572197735307
1772731955649606100,9.857606201171874,5.126605932119489,0.5014688548814505,-1.6847954996943473
1772731955659634400,9.867634521484375,8.39771083831489,-0.314873247211054,-0.2936472115699202
1772731955669662200,9.877662109375,11.436778674483298,-0.9853510535374284,0.5798084147660061
1772731955679690200,9.887690185546875,13.424099323403835,-1.3189620997704565,1.7586828659430145
1772731955689719000,9.897718994140625,13.487490722340345,-1.6935256263777612,2.4748621738016605
1772731955699746800,9.907746826171875,12.092621587061881,-1.6628639461323618,2.250289740566909
1772731955709774800,9.91777490234375,10.818014323455095,-1.0005730995234101,1.5872744521409272
1772731955719801900,9.9278017578125,9.546735327488184,-0.4965575558338314,0.5814008350566029
1772731955729830000,9.937829833984376,8.397271862375735,-0.08812164330631495,-0.21645452016554773
1772731955739858000,9.94785791015625,7.605836822524666,0.1853282180830836,-0.48915005605630574
1772731955749885700,9.9578857421875,7.371227271661162,0.31913039319887754,-0.3635608884146437
1772731955759914000,9.9679140625,7.561323142537474,0.3835569073367864,-0.3053942566554062
1772731955769941800,9.977941650390624,7.6851161109447474,0.46062136925160885,-0.33631869775652884
1772731955779970000,9.987969970703125,7.999702284842729,0.475979389642179,-0.4390520731307566
1772731955789997800,9.997997802734375,8.46787158525586,0.5948549945872277,-0.3349812386076897
1772731955800025900,10.00802587890625,8.548120595490932,0.5715945305090397,0.13646185931172222
1772731955810054000,10.018053955078125,8.71571471170187,0.5754070014692843,0.5610261190151795
1772731955820082000,10.02808203125,8.395789514863491,0.7342756671719253,0.5659049040326848
1772731955830109000,10.03810888671875,8.240880108180642,0.7664480442412197,0.2728162396609783
1772731955840136700,10.04813671875,8.5758199187994,0.8531449154414236,-0.009590908231213688
1772731955850165000,10.0581650390625,8.730701852953434,0.8625234230309724,-0.04648139986358583
1772731955860192800,10.06819287109375,8.357984392604232,0.861821119980514,0.11817943937443195
1772731955870220800,10.078220703125,7.627395743381976,0.8527379420757293,0.045634025786630804
1772731955880248800,10.088248779296874,7.376665078800916,0.8372693009175359,0.04297755646109581
1772731955890276900,10.09827685546875,7.635703553000092,0.6902671602278947,0.1474489346090704
1772731955900305000,10.108304931640625,7.731575079780817,0.29147753938063975,-0.026919132716208695
1772731955910333000,10.1183330078125,7.4610162636578075,-0.20795929821655154,-0.37697193945590407
1772731955920360700,10.128360595703125,5.908554766222834,-0.8766063089191913,-0.9716030256267636
1772731955930389000,10.138388916015625,3.355736661559343,-1.6646983219526708,-1.793149929820746
1772731955940416800,10.148416748046875,0.8193395303428173,-3.0423984418958425,-2.584903680232167
1772731955950444000,10.158444091796875,-2.204304526722431,-4.34020421026051,-1.3070618186183274
1772731955960471800,10.168471923828125,-7.561427187433838,-4.627207965227961,2.442864130385965
1772731955970499800,10.178499755859375,-14.236453817164897,-4.184788607621193,6.784688781455158
1772731955980527900,10.18852783203125,-23.002809167301653,-3.0816578546166418,8.718256797400116
1772731955990555600,10.1985556640625,-31.707034516739842,-0.8008113554835319,6.812122731825709
1772731956000584000,10.208583984375,-35.11498885679245,3.049515580424666,2.9908325053095814
1772731956010611700,10.21861181640625,-35.47200547466278,4.339920424883068,-0.4004309583134949
1772731956020640000,10.228639892578125,-36.31551264705658,4.96880431112647,0.2876527934607118
1772731956030667800,10.238667724609375,-36.90177407388687,4.824288288164139,2.3753407462112603
1772731956040695800,10.24869580078125,-33.88345267314911,2.9182532990500327,3.030022944447398
1772731956050723800,10.258723876953125,-27.408544711136816,1.4569360076129436,1.9839149321302771
1772731956060750800,10.268750732421875,-19.66042181665897,0.31133301732093094,0.7703430789183825
1772731956070779000,10.27877880859375,-13.15282388344407,-0.9377340007074176,0.6742260529439896
1772731956080807000,10.288806884765625,-8.965957885026931,-1.4305698326043783,1.170759351119399
1772731956090835000,10.2988349609375,-5.438085956695676,-0.9521518176384269,0.45750141060017047
1772731956100863000,10.308863037109376,-2.306350358223915,-0.09879603592529893,-1.909417325028777
1772731956110890800,10.318890869140626,1.0547422774106263,0.5257904453851282,-4.474121974579989
1772731956120918800,10.328918701171874,4.893506785818934,0.753627433373779,-5.089643690425158
1772731956130946800,10.33894677734375,7.7841387952327725,0.46489948496222494,-4.395859461987018
1772731956140974800,10.348974853515625,9.990397963154315,-0.1521766207180917,-3.3965105704963205
1772731956151003000,10.3590029296875,11.877276708638668,-0.6073391400419176,-1.940838883730769
1772731956161030700,10.36903076171875,13.274206868100165,-0.5567920251093804,-0.6418367451883852
1772731956171058000,10.379057861328125,14.283759173697232,-0.33278219419345256,-0.2633870065311901
1772731956181086000,10.3890859375,14.941815086150168,-0.19224376962520182,-0.158288162400946
1772731956191114000,10.399114013671875,14.626566064429282,0.1796890431523323,-0.43837673115245995
1772731956201141800,10.409141845703125,12.875623729610442,0.6315150384645909,-1.1680799027770756
1772731956211170000,10.419170166015626,11.957566635406016,0.7136909251090139,-1.3638887444727121
1772731956221197800,10.42919775390625,12.466804443788527,0.6218466080177575,-0.6919243528503924
1772731956231225900,10.439225830078126,12.922207786130905,0.561790783244744,-0.026137900944333523
1772731956241254000,10.44925390625,13.277078039622307,0.7040622421506791,0.03457941081156023
1772731956251282000,10.459281982421874,13.202201954597234,0.6376213925156742,0.3041642764690332
1772731956261310000,10.46931005859375,12.401069112074374,0.3086076840102672,1.2086331547006963
1772731956271338000,10.479337890625,11.45535010396242,0.1759847087416798,1.8909495020546019
1772731956281365000,10.489364990234375,10.305848060405253,0.26834501253105697,2.0267536646425723
1772731956291392800,10.499392822265625,9.000550474980473,0.3156455467578024,1.9389963246040045
1772731956301420800,10.5094208984375,8.00900904237032,0.5313303246598691,1.6026448936216533
1772731956311448800,10.51944873046875,7.3024378130733965,0.6865555192936211,1.2050672058474272
1772731956321476900,10.529476806640625,7.2928756194800135,0.6101701987493783,1.136260211602971
1772731956331505000,10.5395048828125,7.6150617469877,0.44716962087377904,1.4459407124765216
1772731956341533000,10.549532958984376,7.672379963490367,0.013250818978250025,1.6375700765304266
1772731956351560700,10.559560791015626,7.91855311089754,-0.32601021584048867,1.5568774141810833
1772731956361589000,10.569589111328124,8.336714810082317,-0.702419808705896,1.2140206198927015
1772731956371616800,10.57961669921875,9.134483729130029,-1.1440243427984416,1.0565051223646849
1772731956381645000,10.58964501953125,9.766244924375414,-1.5794341139040886,0.9929819868072867
1772731956391671800,10.599671875,9.950212083238362,-1.991111127244681,0.6920745019108057
1772731956401699800,10.609699951171875,9.519069321927427,-2.0396451487891376,0.25199410864561794
1772731956411728000,10.619727783203125,8.48240279943347,-2.0550847099833187,-0.09997393886456266
1772731956421756000,10.629755859375,7.066467495250701,-2.1273883141718803,-0.4063561105787754
1772731956431784000,10.639783935546875,5.957669802525639,-2.5626649604171514,-0.6058226345317438
1772731956441811700,10.649811767578125,5.59464371510744,-3.2222312774330377,-0.13572169020259753
1772731956451840000,10.659840087890625,5.267119149181246,-4.272252956062555,0.7145294948250055
1772731956461867800,10.66986767578125,4.721694759652018,-5.313367105615138,1.4236661906957626
1772731956471895800,10.679895751953126,2.6594337282985445,-5.958247310152649,1.1379570055834949
1772731956481923800,10.689923828125,-0.8168214100420474,-7.281873163950443,-1.2926729355208575
1772731956491951900,10.699951904296874,-3.710921972349286,-8.040347598963976,-4.162391482374072
1772731956501979000,10.709978759765624,-6.544058070605993,-7.193498130404949,-4.931868957439065
1772731956512006700,10.720006591796874,-9.683920861431956,-6.461222551009058,-2.7636826228022575
1772731956522035000,10.730034912109375,-13.868773181939124,-5.106259894183278,1.1066095350310206
1772731956532062700,10.740062744140625,-20.933391249930857,-0.7557978362154215,3.8228304416954515
1772731956542091000,10.750091064453125,-29.983038641035556,5.671670840686559,3.939957814733684
1772731956552118800,10.760118896484375,-38.43808464698791,9.522433829924463,0.9156634770661592
1772731956562146800,10.770146728515625,-42.497346009755134,9.508188446950912,-0.5233795848511159
1772731956572174800,10.7801748046875,-38.80360255122184,8.543175540304183,1.4870312861472368
1772731956582203000,10.790202880859376,-29.001958396685122,6.009060382544994,3.504680437836051
1772731956592231000,10.80023095703125,-18.645445147925614,3.1506431280374527,4.511173355862498
1772731956602259000,10.810259033203126,-11.648726311683655,1.2052190354082732,4.364633425857127
1772731956612286700,10.82028662109375,-9.439103804808855,0.5308747629120946,3.9610336282491683
1772731956622314000,10.83031396484375,-10.2918125207901,0.8414975861370563,3.1871003428190945
1772731956632341800,10.840341796875,-10.606963342833518,1.6120676787443458,1.8254792510174214
1772731956642370000,10.8503701171875,-8.790870782712101,2.1410938911803066,-0.05711597192883491
1772731956652397800,10.860397705078125,-5.645939018058777,2.238223455198109,-1.6278116297125815
1772731956662425900,10.87042578125,-2.256945983585715,1.9598782229825853,-2.3967194881960747
1772731956672454000,10.880453857421875,0.8078612739950418,1.401023127863556,-2.0273522150576113
1772731956682481700,10.890481689453125,3.391957729497552,0.6479675030283629,-1.5268994784161447
1772731956692509000,10.900509033203125,5.254112952613831,0.06485789129249751,-1.2213479671061038
1772731956702537000,10.910536865234375,7.00626758583188,-0.2472992288276553,-1.0387031428880988
1772731956712565000,10.92056494140625,8.37520265390873,-0.4026089599397033,-1.0049337789509445
1772731956722592000,10.930592041015625,9.250400849595666,-0.6104401017319411,-0.832856087585166
1772731956732620000,10.9406201171875,10.153355651736259,-0.8774337727192789,-0.4117604538403451
1772731956742648000,10.95064794921875,11.036264275670051,-1.1197791054666042,-0.14085366452988235
1772731956752676000,10.960676025390624,11.714933937084675,-1.1225227781515568,-0.10646613216176629
1772731956762704100,10.9707041015625,12.266449044704437,-1.1630371593695132,-0.26445089116934684
1772731956772732000,10.98073193359375,13.064752801281212,-1.294294691503793,-0.5370215585714205
1772731956782760200,10.99076025390625,13.754665156722067,-1.3680515632405876,-0.5145446826189756
1772731956792788000,11.0007880859375,13.896069185143709,-1.546455827279389,-0.41836704903114585
1772731956802816300,11.010816162109375,13.656944787204266,-1.6964163793832063,-0.3210417432455346
1772731956812844000,11.020843994140625,13.138237724208832,-1.6581754960551858,-0.2761141486952081
1772731956822871800,11.030871826171875,12.267249839693307,-1.5551292553395033,-0.1778562382346019
1772731956832900000,11.040900146484375,11.730334919834137,-1.5683137310832738,0.055448404042795295
1772731956842927000,11.050927001953125,11.557634420394896,-1.6002894165366888,0.11287293046414852
1772731956852955100,11.060955078125,11.49492925015688,-1.5947572091117501,0.15281338425166904
1772731956862983000,11.07098291015625,11.341243247789144,-1.6257541126608848,0.2513275344956666
1772731956873011200,11.08101123046875,10.905532447910309,-1.6107716475844382,0.4557713719371706
1772731956883039000,11.0910390625,9.985864411377905,-1.4078317849650979,0.5523358128855005
1772731956893067000,11.10106689453125,8.964722205752134,-1.127200195378065,0.3403893081963062
1772731956903095000,11.111094970703125,8.376122106841207,-0.8642850989412516,0.14181710273455828
1772731956913123000,11.121123046875,8.20929020717442,-0.6221851923223585,-0.041179019139148294
1772731956923151000,11.131151123046875,8.377948153224587,-0.3441960800681263,-0.09895707170590758
1772731956933179100,11.14117919921875,8.23940828206241,0.01817892303019762,0.023109986224211752
1772731956943207000,11.15120703125,7.66314159502387,0.31178426821976896,0.11230740553587674
1772731956953234000,11.16123388671875,7.650959574320912,0.4862086688421666,0.14699782984070478
1772731956963262200,11.17126220703125,7.895113198599219,0.705099110917747,0.34325463449954985
1772731956973290000,11.1812900390625,7.251805942466855,0.46226197606548663,0.8866347317848354
1772731956983318000,11.191318115234376,5.47970449976325,0.5374956423565745,1.460167244619131
1772731956993346000,11.201345947265626,1.9725065261483192,0.8436249535545707,0.7811556378990411
1772731957003374000,11.2113740234375,-1.2760937027722596,0.5155599971413612,-0.3787480457503348
1772731957013402000,11.221402099609374,-3.4218273825824257,-0.3350261737279594,-0.5203967696480453
1772731957023430100,11.23143017578125,-5.190875867456198,-2.045936942409724,-0.8731905821915715
1772731957033458000,11.2414580078125,-6.9600354114890095,-4.074043336835503,-1.7107134925439953
1772731957043486200,11.251486328125,-10.89795704421997,-4.211782413008809,-0.19573475354611872
1772731957053514000,11.261513916015625,-18.826742795318363,-4.167976004508137,0.6739999891031533
1772731957063541000,11.271541015625,-26.571500012755394,-3.0556589054852723,0.5656158214256167
1772731957073569000,11.281569091796875,-31.55362323966026,1.7314548134081065,2.1778093185067178
1772731957083597000,11.29159716796875,-35.60704873588085,1.858367375140637,0.869404780042544
1772731957093625000,11.301625,-37.76555947967768,1.4390864626675843,0.9972840679153799
1772731957103652900,11.31165283203125,-35.97493746089935,2.7994904337644577,2.356474717699736
1772731957113681200,11.32168115234375,-31.858818484878537,1.843341070922464,1.8346096290647982
1772731957123709000,11.331708984375,-26.11547473912239,0.2967684853956103,0.12353154099211096
1772731957133737000,11.341737060546874,-18.763830704331397,-1.239483050994575,-0.171257899415493
1772731957143765000,11.351764892578124,-11.204534099185466,-2.9349942982316017,1.1320700664367527
1772731957153793000,11.36179296875,-4.981764914986491,-3.73329396315515,2.638478034031391
1772731957163821000,11.371821044921875,0.23803777174651622,-3.295812646472454,2.0435221363529563
1772731957173848000,11.38184814453125,5.1642321906805035,-2.2818032153360543,0.013464900120347737
1772731957183876000,11.3918759765625,9.304062881678343,-1.7232481260769068,-1.4759402755513786
1772731957193903900,11.40190380859375,12.669943336111306,-1.874608754236996,-1.6751219546809792
1772731957203932200,11.41193212890625,15.318298621034621,-2.1046518739677964,-0.8263181371837854
1772731957213960000,11.4219599609375,16.80918599808812,-2.223152435055375,-0.4095441294977441
1772731957223988000,11.431988037109376,16.611815167772768,-1.545832434684038,-1.2644149554163218
1772731957234016000,11.44201611328125,13.638430640870332,0.5151794733911752,-2.7830115926504133
1772731957244044000,11.4520439453125,10.559172833132743,1.376602241703868,-3.635152153354883
1772731957254072000,11.462072021484374,10.10087493839264,1.158731205803901,-3.232182178083062
1772731957264100000,11.47210009765625,10.881104109096526,1.1908449845537543,-2.551257723478973
1772731957274128000,11.4821279296875,11.376874533140658,0.7967034087080508,-1.9316427469708024
1772731957284155100,11.492155029296875,11.15096383703947,0.10600121806375681,-0.2898162916375324
1772731957294183000,11.502182861328125,10.194876579648255,-0.47150158664099867,1.571560457919538
1772731957304211200,11.512211181640625,8.543898009359836,-0.9316854412581771,1.9586292458347976
1772731957314239000,11.522239013671875,6.958677567139268,-0.9816669581972062,1.158928408876434
1772731957324267300,11.532267333984375,5.779286581274866,-0.6909141528945416,0.35896950550377366
1772731957334295000,11.542294921875,5.4965515896677966,-0.451716981979832,-0.11877050060275941
1772731957344322800,11.55232275390625,5.70507217502892,-0.23341361907720565,-0.16301614077091217
1772731957354351000,11.56235107421875,5.803518520733713,0.01668868447244167,-0.07007211880944669
1772731957364379000,11.57237890625,5.93252893152833,0.2370133971348405,-0.003464899631589651
1772731957374407200,11.5824072265625,6.339402928501367,0.47476373024210333,0.1083739750770852
1772731957384435000,11.59243505859375,6.7492913048595184,0.7301750999853015,0.16975871036630122
1772731957394462200,11.602462158203124,7.1950307467997066,0.8537604169912636,0.00457318966705352
1772731957404490000,11.612489990234375,7.914626292842626,1.0010423975355922,-0.07721252861600368
1772731957414518000,11.62251806640625,8.257776297923922,1.0328061938039959,-0.2519036173505708
1772731957424546000,11.632546142578125,8.518096044105292,1.094159511041641,-0.3549645076461136
1772731957434574000,11.642573974609375,8.524006729453802,1.2882662249945103,-0.3894725611213594
1772731957444602000,11.65260205078125,8.195281555566192,1.5365961120441556,-0.6458009726442396
1772731957454630100,11.662630126953125,8.350063536477089,1.46564757572636,-0.7683706828668713
1772731957464658000,11.672657958984376,8.700750366804003,1.1821405768334865,-0.4178279371857643
1772731957474686200,11.682686279296876,8.868314672398567,0.6986483273431658,0.02788421488869935
1772731957484714000,11.6927138671875,8.531194595131277,-0.6862094092696904,0.13158146685902028
1772731957494742300,11.7027421875,7.801067133679986,-2.483294194321334,-0.7100023727893829
1772731957504769000,11.71276904296875,7.065548626840114,-3.9765968158230183,-2.3116319518886503
1772731957514797000,11.722797119140624,6.2252270987451075,-5.253030418074131,-3.28385595895797
1772731957524825000,11.7328251953125,3.560478897425532,-6.014264965450764,-2.3478309541255236
1772731957534852900,11.742852783203125,-2.1177041016340254,-5.914124675309658,0.30277642057351767
1772731957544881200,11.752881103515625,-10.509584334099292,-4.97287024539113,1.955884915562719
1772731957554909000,11.762908935546875,-18.941700715363023,-4.077500491552055,1.9743723200201988
1772731957564937200,11.772937255859375,-25.645528492164612,-1.330793553470075,2.1176545634038746
1772731957574965000,11.782965087890625,-29.533132142543792,0.971346347451955,1.9835005061104893
1772731957584993000,11.792992919921875,-29.801105033826826,1.1848415063552558,2.5169419046401975
1772731957595021000,11.80302099609375,-27.931565545678136,0.5995139993742108,4.20873150100559
1772731957605049000,11.813049072265626,-25.785561232233047,-0.15545695756301284,4.840581251317262
1772731957615076000,11.823076171875,-22.928149355375766,-0.5471985595948994,4.054239150691032
1772731957625104000,11.833103759765624,-19.627386977541445,-0.4313111036151647,2.7139184749409555
1772731957635132200,11.843132080078124,-16.852005733639,-0.19436624167189,2.4498800004974006
1772731957645160000,11.853159912109374,-14.566974057775735,-0.23385800184383987,3.6153204946815967
1772731957655188000,11.86318798828125,-12.740914814913273,-0.0358856985040009,3.6151255566313862
1772731957665216000,11.873216064453125,-10.861323888349533,0.3114437842190265,1.8396419241435824
1772731957675244000,11.883244140625,-7.919908617159724,-0.07489391294270753,0.19604433095194398
1772731957685272000,11.89327197265625,-2.976025396800041,-1.142265954823792,-0.21387750928439198
1772731957695299800,11.9032998046875,2.841433386480808,-2.135976255905628,0.2710939459130168
1772731957705327900,11.913327880859375,6.937445394018292,-2.8241473206371066,0.6548806434176861
1772731957715356000,11.92335595703125,8.728135801857709,-2.64818665035814,0.1697032173193991
1772731957725383000,11.9333828125,8.891478105843067,-1.6735592354089022,-1.1204418071590363
1772731957735411000,11.943410888671876,7.7996911691516635,-0.4603592111840844,-2.641728560259938
1772731957745438700,11.953438720703126,6.759562523505092,0.8070680777907371,-3.9572605394512412
1772731957755467000,11.963467041015624,6.8870198596388095,1.3069408225871622,-4.387977184304595
1772731957765494800,11.973494873046874,7.027984327599405,0.4667039040356874,-2.372402062410861
1772731957775523000,11.983523193359375,8.454675419074297,1.063194025544077,-3.4922435655891895
1772731957785550800,11.99355078125,11.275469337630271,1.6880287825271487,-3.1184502927020192
1772731957795579000,12.003578857421875,6.659751903709769,-0.9403674179509282,1.4265572359621523
1772731957805607000,12.01360693359375,6.616204438406228,-1.5618281684562563,1.6245220866478978
1772731957815635000,12.023635009765625,7.577619028300046,-1.2761791890986263,1.8276504575766621
1772731957825663000,12.0336630859375,5.161836235454678,-1.85098574045673,2.203450978633016
1772731957835690000,12.04368994140625,7.2778159975141286,-0.9190215553224086,-0.09823986334726213
1772731957845718000,12.053718017578126,9.34464974361062,0.47757367309629917,-1.9203093059211969
1772731957855745800,12.063745849609376,9.458080892479419,1.4105844446741043,-3.1414795783728358
1772731957865773800,12.07377392578125,9.72651087988019,2.367003856629133,-3.4192803284481164
1772731957875801900,12.0838017578125,10.03279918103218,2.440422874713689,-3.1313796246409416
1772731957885830000,12.093829833984374,9.981052627182006,2.5675077242732045,-2.879897264909744
1772731957895858000,12.10385791015625,9.593560207027195,2.5609710159808396,-2.474088851341605
1772731957905886000,12.113885986328125,8.662131590074301,2.5090324466899037,-2.194695132986456
1772731957915913700,12.123913818359375,7.546968453970551,2.5378327169775963,-2.5226138127967714
1772731957925942000,12.13394189453125,7.572262469702959,2.404436784575134,-2.900471850904822
1772731957935969800,12.1439697265625,7.413581727787852,2.1163409965872764,-2.2477349415175616
1772731957945997000,12.1539970703125,6.614753070554137,1.8157381937257944,-1.3020527582846582
1772731957956024800,12.16402490234375,6.094232820656895,1.6507853858038781,-0.5227050465904176
1772731957966053000,12.17405322265625,5.334629089352489,1.7187217346936463,-0.5865810141734779
1772731957976081000,12.184080810546876,3.97904683932364,1.7685171544760465,-1.1747944518543778
1772731957986109000,12.19410888671875,3.607977146181464,1.5248989522486924,-1.2296766733817754
1772731957996137000,12.204136962890624,4.276864833772183,1.4497355747148393,-1.1974898293957112
1772731958006165000,12.2141650390625,4.062088695147633,1.4185314581558108,-1.5573634441323578
1772731958016193000,12.224193115234375,2.4474393293470142,1.2256605696082115,-1.760091855958104
1772731958026220800,12.234220703125,0.6117980191469192,0.9766364166840911,-1.0797589375063776
1772731958036248800,12.244248779296875,-1.0848328797698021,0.32480712366104125,0.37464477514997124
1772731958046276900,12.25427685546875,-2.2392256179779766,-0.42960050030499697,1.1123983475655317
1772731958056303900,12.264303955078125,-2.6573212661892174,-0.5685509980946779,1.002777258504182
1772731958066332000,12.274331787109375,-3.395853567892313,-0.47079234239310025,0.24078853175938128
1772731958076360000,12.28435986328125,-4.55033456890583,-0.40387013898193835,-0.253165198251605
1772731958086388000,12.294387939453125,-5.954177868756651,-0.518396974132955,-0.013923530608043074
1772731958096416000,12.304416015625,-6.62957362306714,-0.51186026584059,0.23727540907189248
1772731958106443800,12.31444384765625,-6.345657897242903,-0.3340811479628086,0.022338234666734933
1772731958116472000,12.32447216796875,-5.563134478121996,-0.0601402881860733,-0.27167912538982925
1772731958126499800,12.334499755859374,-4.707999411776662,0.10985796655714511,0.06784560186639428
1772731958136528100,12.344528076171875,-4.456400732189417,-0.024639351215958595,1.3867507107526063
1772731958146556000,12.354555908203125,-4.93650421602428,0.14785598104000092,1.420867792148888
1772731958156584000,12.364583984375,-5.466117872959375,0.45847442035079,0.3589555500436574
1772731958166611000,12.37461083984375,-4.875473701000213,0.27645459616333246,-0.05740764835178852
1772731958176638700,12.384638671875,-3.789700910031795,-0.1992031603090465,0.30316826943531633
1772731958186667000,12.3946669921875,-2.968050180137157,-0.782996589590609,0.8184655970524995
1772731958196694800,12.40469482421875,-3.225851806017756,-1.1163270653165875,0.7666487544450908
1772731958206723000,12.41472314453125,-3.5231337938934564,-1.1992607845909893,0.30953955803290006
1772731958216750800,12.424750732421876,-3.5966420976966615,-1.479333278990537,0.3728033120017499
1772731958226779000,12.43477880859375,-3.764484635710716,-1.5710902100592852,1.0393909790217877
1772731958236807000,12.444806884765624,-4.25239908555746,-1.1642280496545134,0.9020862026125193
1772731958246835000,12.4548349609375,-4.968726569715142,-0.39915217054933305,-0.18534655745737252
1772731958256863000,12.464863037109374,-5.388866875496507,0.20163564815297721,-1.0081149662703275
1772731958266891000,12.47489111328125,-5.049045138055086,0.31883272542655466,-1.1332762273561208
1772731958276918000,12.48491796875,-4.102245933490991,0.11499226070567965,-0.894482011219114
1772731958286945800,12.49494580078125,-2.9081378554880617,-0.10403145236074923,-0.481728308557719
1772731958296973800,12.504973876953125,-2.018475665640831,-0.22109671994820235,-0.332997225183621
1772731958307001900,12.515001953125,-1.3008335917532443,-0.26768501425236463,-0.31779249565862117
1772731958317030000,12.52502978515625,-0.5097212079852819,-0.22427491159290075,-0.3433155709065497
1772731958327058000,12.535057861328125,0.386164386421442,-0.1838632600970566,-0.3570977202825248
1772731958337086000,12.5450859375,0.9183283123612404,-0.3191699945569038,-0.11063340790905057
1772731958347113700,12.55511376953125,0.9390724097043275,-0.4114392590619623,0.14749723073020576
1772731958357142000,12.56514208984375,0.5934183128476143,-0.2762516209371388,-0.02338482111021876
