time,seconds_elapsed,z,y,x
1772731945872389000,0.08038916015625,0.2009391486644745,0.14678364992141724,0.5281395316123962
1772731945882417000,0.0904169921875,0.29065194725990295,0.16920040547847748,0.6677520275115967
1772731945892445200,0.100445068359375,0.3968135416507721,0.2172752469778061,0.7480559349060059
1772731945902473000,0.110472900390625,0.48107287287712097,0.30349302291870117,0.7663362622261047
1772731945912501000,0.1205009765625,0.5782955288887024,0.3653806149959564,0.7825708985328674
1772731945922529000,0.130529052734375,0.7336568236351013,0.37098145484924316,0.8422228693962097
1772731945932556000,0.14055615234375,0.8995869159698486,0.39193999767303467,0.900539219379425
1772731945942584000,0.150583984375,1.0435339212417603,0.5043122172355652,0.9131569862365723
1772731945952611800,0.16061181640625,1.1306899785995483,0.6710103750228882,0.9153702855110168
1772731945962640100,0.17064013671875,1.1751203536987305,0.8246206045150757,0.9649868607521057
1772731945972668000,0.18066796875,1.116290807723999,0.895808756351471,1.0838946104049683
1772731945982696000,0.190696044921875,1.0484427213668823,0.9654068946838379,1.196923851966858
1772731945992724000,0.200723876953125,0.8992754220962524,0.9814196825027466,1.2895755767822266
1772731946002752000,0.210751953125,0.6918215751647949,1.043857216835022,1.2641830444335938
1772731946012780000,0.220780029296875,0.5459402799606323,1.0745333433151245,1.1544020175933838
1772731946022808000,0.23080810546875,0.4325079917907715,1.0446596145629883,1.0694594383239746
1772731946032835800,0.2408359375,0.4203623831272125,1.0052871704101562,0.9657905101776123
1772731946042864000,0.250864013671875,0.5114030241966248,0.9049184918403625,0.83613121509552
1772731946052892000,0.260891845703125,0.6554850935935974,0.7443463802337646,0.6330910325050354
1772731946062919000,0.2709189453125,0.7876986265182495,0.5596210956573486,0.38345834612846375
1772731946072947000,0.280947021484375,0.8331201672554016,0.4453667104244232,0.12204669415950775
1772731946082975000,0.29097509765625,0.8359084129333496,0.49367663264274597,-0.12706312537193298
1772731946093003000,0.3010029296875,0.7786810994148254,0.8000230193138123,-0.3291584253311157
1772731946103031000,0.311031005859375,0.546394944190979,1.1723092794418335,-0.4076120853424072
1772731946113059000,0.32105908203125,0.23121435940265656,1.431092381477356,-0.4072411060333252
1772731946123086800,0.3310869140625,-0.08332949876785278,1.5247955322265625,-0.3121659755706787
1772731946133115100,0.341115234375,-0.5184289813041687,1.2289636135101318,-0.2797744572162628
1772731946143143000,0.351142822265625,-1.186722993850708,0.5451332330703735,-0.4202147126197815
1772731946153171000,0.3611708984375,-0.9765885472297668,0.16968929767608643,-0.4036106765270233
1772731946163199000,0.371198974609375,-0.6078669428825378,-0.033012643456459045,-0.5169056057929993
1772731946173227000,0.38122705078125,-0.48787209391593933,0.27262502908706665,-0.5763201713562012
1772731946183255000,0.391255126953125,-0.46878868341445923,0.11059938371181488,-0.49648794531822205
1772731946193281800,0.40128173828125,-0.5822159051895142,-0.14062298834323883,-0.42766308784484863
1772731946203310000,0.41131005859375,-0.7856611013412476,-0.6805648803710938,-0.4016110897064209
1772731946213337900,0.421337890625,-0.960401177406311,-1.236548662185669,-0.3510371446609497
1772731946223366100,0.4313662109375,-1.0429540872573853,-1.4715819358825684,-0.3198068141937256
1772731946233394000,0.441393798828125,-1.1180866956710815,-1.3645915985107422,-0.39567306637763977
1772731946243422000,0.451421875,-1.099453091621399,-0.8794630765914917,-0.6346435546875
1772731946253450000,0.461449951171875,-1.0057103633880615,-0.21340085566043854,-0.957731306552887
1772731946263478000,0.47147802734375,-1.0280507802963257,0.6925244927406311,-1.4463106393814087
1772731946273506000,0.481506103515625,-0.8950748443603516,1.6764582395553589,-1.875104308128357
1772731946283534000,0.4915341796875,-0.6709094047546387,1.8235381841659546,-1.4716907739639282
1772731946293561900,0.501561767578125,-0.3590717017650604,0.9798901081085205,-0.4587201178073883
1772731946303590100,0.511590087890625,-0.04499838501214981,-0.22687458992004395,0.4704436659812927
1772731946313618000,0.521617919921875,-0.369326651096344,-1.5590269565582275,0.4687671959400177
1772731946323645000,0.53164501953125,-0.7220916748046875,-2.543762445449829,0.03267570212483406
1772731946333673000,0.5416728515625,-0.7453131079673767,-2.862034797668457,-0.4121909737586975
1772731946343701000,0.551700927734375,-0.2855662405490875,-2.5871524810791016,-0.5756796002388
1772731946353729000,0.56172900390625,0.053232308477163315,-1.8385952711105347,-0.46848762035369873
1772731946363756800,0.5717568359375,0.38262268900871277,-1.048043131828308,-0.07154262810945511
1772731946373785000,0.58178515625,0.6745506525039673,-0.15954044461250305,0.18663911521434784
1772731946383812900,0.591812744140625,0.8110915422439575,0.1923081874847412,0.2519133985042572
1772731946393841200,0.601841064453125,0.8286332488059998,0.10736346989870071,0.2830989956855774
1772731946403869000,0.611868896484375,0.7299820780754089,-0.20129862427711487,0.31751713156700134
1772731946413897000,0.62189697265625,0.5770109295845032,-0.4336509108543396,0.3069683611392975
1772731946423925000,0.631925048828125,0.4355360269546509,-0.35294198989868164,0.37334081530570984
1772731946433953000,0.641953125,0.44990456104278564,0.12770746648311615,0.44608691334724426
1772731946443980000,0.65197998046875,0.643063485622406,0.32296451926231384,0.38494250178337097
1772731946454008000,0.662008056640625,0.8281907439231873,0.5219050645828247,0.199107363820076
1772731946464036000,0.6720361328125,0.9134847521781921,0.5496781468391418,0.25669488310813904
1772731946474064100,0.682064208984375,0.818462610244751,0.45187434554100037,0.42816412448883057
1772731946484092000,0.692091796875,0.6822413802146912,0.35742560029029846,0.6542417407035828
1772731946494120000,0.702119873046875,0.49500441551208496,0.2876337468624115,0.9024690985679626
1772731946504148000,0.71214794921875,0.30399489402770996,0.24226713180541992,1.0851870775222778
1772731946514176000,0.722176025390625,0.15240617096424103,0.26566699147224426,1.0972307920455933
1772731946524204000,0.7322041015625,0.023172477260231972,0.3560112416744232,0.9845910668373108
1772731946534231800,0.742231689453125,-0.0910225361585617,0.5106930136680603,0.8349065184593201
1772731946544260000,0.752260009765625,-0.17240440845489502,0.687961220741272,0.6652005314826965
1772731946554287900,0.762287841796875,-0.23378680646419525,0.8593095541000366,0.4720302224159241
1772731946564316200,0.772316162109375,-0.28337427973747253,1.0518399477005005,0.24308113753795624
1772731946574344000,0.782343994140625,-0.292085736989975,1.1790446043014526,-0.051355019211769104
1772731946584371200,0.79237109375,-0.36229240894317627,1.1046152114868164,-0.41913551092147827
1772731946594399000,0.80239892578125,-0.41163119673728943,0.9116765856742859,-0.6893031001091003
1772731946604427000,0.812427001953125,-0.43472686409950256,0.6880760192871094,-0.7683383226394653
1772731946614455000,0.822455078125,-0.6851241588592529,0.9743762016296387,-0.8064524531364441
1772731946624483000,0.832483154296875,-0.6783689856529236,1.1552939414978027,-0.836613655090332
1772731946634511000,0.842510986328125,-0.5254960656166077,1.2557151317596436,-0.6022757291793823
1772731946644539000,0.852538818359375,-0.5046255588531494,1.1563600301742554,-0.30117833614349365
1772731946654567000,0.86256689453125,-0.5675179362297058,0.7651054263114929,-0.09757620096206665
1772731946664595000,0.872594970703125,-0.6006079912185669,0.47051921486854553,0.05252882465720177
1772731946674623200,0.882623291015625,-0.539046049118042,0.23180224001407623,0.1523164063692093
1772731946684651300,0.8926513671875,-0.4778849482536316,-0.007790768519043922,0.1567913144826889
1772731946694679300,0.90267919921875,-0.44966450333595276,-0.2739793062210083,0.06519986689090729
1772731946704707300,0.912707275390625,-0.44375085830688477,-0.5582820177078247,-0.046653226017951965
1772731946714734300,0.922734375,-0.45177122950553894,-0.921316385269165,-0.1405424326658249
1772731946724762400,0.932762451171875,-0.4577045738697052,-1.2526212930679321,-0.2011018991470337
1772731946734790400,0.942790283203125,-0.44172292947769165,-1.3323408365249634,-0.20334427058696747
1772731946744818400,0.952818359375,-0.3622151017189026,-1.21759831905365,-0.14031489193439484
1772731946754846200,0.96284619140625,-0.24653218686580658,-1.0349037647247314,-0.10191209614276886
1772731946764874500,0.97287451171875,-0.0916854664683342,-0.8768215775489807,-0.1442837119102478
1772731946774902300,0.98290234375,0.0436534509062767,-0.640986979007721,-0.19696609675884247
1772731946784930600,0.9929306640625,0.06861722469329834,-0.3194328546524048,-0.25033754110336304
1772731946794958300,1.002958251953125,-0.05166950821876526,-0.11194275319576263,-0.3544871211051941
1772731946804986400,1.012986328125,-0.24009545147418976,-0.08241328597068787,-0.4138067662715912
1772731946815014400,1.023014404296875,-0.5053907632827759,-0.09164460003376007,-0.3858558237552643
1772731946825042400,1.03304248046875,-0.8177264928817749,-0.022338729351758957,-0.20509837567806244
1772731946835070500,1.043070556640625,-1.027431607246399,-0.31425741314888,0.1420217603445053
1772731946845097200,1.05309716796875,-1.399783968925476,-1.0507142543792725,0.7806921601295471
1772731946855125500,1.06312548828125,-1.449472427368164,-1.3905171155929565,0.8004667162895203
1772731946865153300,1.0731533203125,-0.2846887409687042,-0.6739915013313293,-0.4410836696624756
1772731946875181300,1.083181396484375,1.89708411693573,2.5283191204071045,-2.87790846824646
1772731946885209300,1.093209228515625,3.690150022506714,4.998656272888184,-4.37444543838501
1772731946895237400,1.1032373046875,3.767493963241577,3.7421162128448486,-3.77262282371521
1772731946905265400,1.113265380859375,1.98961341381073,0.012202362529933453,-2.103172540664673
1772731946915293400,1.12329345703125,0.033861372619867325,-4.095982551574707,0.45954427123069763
1772731946925321200,1.1333212890625,-1.9301984310150146,-6.092528820037842,2.3434035778045654
1772731946935349500,1.143349609375,-2.4759936332702637,-5.488617897033691,2.95678973197937
1772731946945377300,1.153377197265625,-2.1257081031799316,-3.251335620880127,3.028214693069458
1772731946955405600,1.163405517578125,-1.349432349205017,-0.5979133248329163,2.759549140930176
1772731946965433300,1.173433349609375,-0.6558018922805786,1.2118405103683472,2.3712735176086426
1772731946975460400,1.18346044921875,-0.35314449667930603,1.5699968338012695,1.9237372875213623
1772731946985488400,1.19348828125,-0.3060389757156372,0.8146181106567383,1.3782317638397217
1772731946995516400,1.203516357421875,-0.40872034430503845,-0.28378748893737793,0.7040049433708191
1772731947005544400,1.21354443359375,-0.47204500436782837,-1.1682286262512207,0.12807050347328186
1772731947015572200,1.223572265625,-0.37181374430656433,-1.6183054447174072,-0.2672427296638489
1772731947025600500,1.2336005859375,-0.04778142645955086,-1.6315118074417114,-0.6176317930221558
1772731947035628300,1.243628173828125,0.4786621332168579,-1.3877146244049072,-0.9900162816047668
1772731947045656300,1.25365625,0.9595404863357544,-0.9921367764472961,-1.3238588571548462
1772731947055684400,1.263684326171875,1.1918680667877197,-0.461872398853302,-1.505517840385437
1772731947065712400,1.27371240234375,1.257515549659729,0.05519979074597359,-1.503310203552246
1772731947075740400,1.283740478515625,1.1735535860061646,0.40587419271469116,-1.266473412513733
1772731947085768400,1.2937685546875,0.9145351052284241,0.562828004360199,-0.6995818614959717
1772731947095795500,1.30379541015625,0.5905096530914307,0.4880014955997467,-0.04165242984890938
1772731947105823200,1.3138232421875,0.35050031542778015,0.3159503936767578,0.42365577816963196
1772731947115851500,1.3238515625,0.24069155752658844,0.17440447211265564,0.6537420153617859
1772731947125879300,1.33387939453125,0.16757972538471222,0.0799194723367691,0.6136822700500488
1772731947135907300,1.3439072265625,0.10801786184310913,0.04327117279171944,0.34369122982025146
1772731947145935400,1.353935302734375,0.050164081156253815,0.023457752540707588,-0.04682931303977966
1772731947155963400,1.36396337890625,0.02803853712975979,0.01104449201375246,-0.4374210238456726
1772731947165991400,1.373991455078125,0.06872441619634628,0.005748512223362923,-0.7528710961341858
1772731947176019500,1.38401953125,0.1116441860795021,0.0670028105378151,-0.9564644694328308
1772731947186047200,1.394047119140625,0.12214409559965134,0.17890891432762146,-1.0407997369766235
1772731947196075500,1.404075439453125,0.12401363253593445,0.31147336959838867,-1.0073951482772827
1772731947206103300,1.414103271484375,0.1290862262248993,0.43825531005859375,-0.8995541930198669
1772731947216131300,1.42413134765625,0.15598362684249878,0.5193237662315369,-0.7793311476707458
1772731947226158300,1.434158447265625,0.2269110530614853,0.5439094305038452,-0.693849503993988
1772731947236186400,1.444186279296875,0.3834143877029419,0.5199699997901917,-0.6629869341850281
1772731947246214400,1.45421435546875,0.5726121068000793,0.515259325504303,-0.7152448892593384
1772731947256242200,1.4642421875,0.7433814406394958,0.5283557176589966,-0.8434782028198242
1772731947266270500,1.4742705078125,0.8370493054389954,0.5256837010383606,-0.9688263535499573
1772731947276298200,1.48429833984375,0.8397537469863892,0.5208362340927124,-1.0288022756576538
1772731947286326500,1.494326416015625,0.7564600110054016,0.5291422605514526,-0.971757709980011
1772731947296354300,1.504354248046875,0.6112189292907715,0.5854502320289612,-0.7943413853645325
1772731947306382300,1.51438232421875,0.411289244890213,0.6054049134254456,-0.5490725040435791
1772731947316410400,1.524410400390625,0.20242765545845032,0.5500953197479248,-0.3330589532852173
1772731947326438400,1.5344384765625,0.02388790249824524,0.437682569026947,-0.15041151642799377
1772731947336466400,1.544466552734375,-0.11549582332372665,0.3176927864551544,-0.02241201512515545
1772731947346494500,1.554494384765625,-0.19436289370059967,0.23705816268920898,0.07420264184474945
1772731947356521500,1.564521484375,-0.2321408987045288,0.16486570239067078,0.1417963206768036
1772731947366549200,1.57454931640625,-0.2506283223628998,0.06562848389148712,0.17177444696426392
1772731947376577300,1.584577392578125,-0.27731582522392273,-0.0595635250210762,0.16005201637744904
1772731947386605300,1.594605224609375,-0.2951433062553406,-0.17566296458244324,0.08421611040830612
1772731947396633300,1.60463330078125,-0.29225990176200867,-0.2165563404560089,-0.021710854023694992
1772731947406661400,1.614661376953125,-0.27801844477653503,-0.2022009938955307,-0.10880947858095169
1772731947416689400,1.624689453125,-0.27627965807914734,-0.1643606722354889,-0.16679660975933075
1772731947426717200,1.63471728515625,-0.27832600474357605,-0.189759761095047,-0.18067173659801483
1772731947436745500,1.644745361328125,-0.2801491916179657,-0.19528180360794067,-0.12381190806627274
1772731947446773200,1.654773193359375,-0.255153089761734,-0.014255999587476254,0.06237773224711418
1772731947456801500,1.664801513671875,-0.23354525864124298,0.23684626817703247,0.3714386224746704
1772731947466829300,1.674829345703125,-0.19150948524475098,0.37036967277526855,0.5789945721626282
1772731947476856600,1.684856689453125,-0.152095764875412,0.2483992725610733,0.6324053406715393
1772731947486884400,1.69488427734375,-0.2656203508377075,-0.43890953063964844,0.8333407044410706
1772731947496912400,1.704912353515625,-0.5839805006980896,-1.6299870014190674,1.1885030269622803
1772731947506940400,1.7149404296875,-0.782436192035675,-2.3899030685424805,1.031021237373352
1772731947516968400,1.724968505859375,-0.3468855023384094,-1.9532908201217651,-0.47946223616600037
1772731947526996500,1.73499658203125,0.9950341582298279,-0.2970893979072571,-2.8964357376098633
1772731947537024300,1.745024169921875,3.013122081756592,2.2541956901550293,-4.901614665985107
1772731947547052300,1.75505224609375,4.527721881866455,4.265224456787109,-5.439737796783447
1772731947557080300,1.765080322265625,4.091872692108154,3.3204503059387207,-4.074505805969238
1772731947567108400,1.7751083984375,2.3597240447998047,0.03854051232337952,-1.3239866495132446
1772731947577136400,1.785136474609375,0.029413430020213127,-2.975987434387207,1.1797285079956055
1772731947587164400,1.795164306640625,-1.6228481531143188,-4.195140838623047,2.5762598514556885
1772731947597192200,1.805192138671875,-2.0982561111450195,-3.6447508335113525,2.9927730560302734
1772731947607219500,1.815219482421875,-1.591631531715393,-2.0302512645721436,2.718709707260132
1772731947617247200,1.825247314453125,-0.8399327397346497,-0.3341195285320282,2.433615207672119
1772731947627275500,1.835275634765625,-0.6081904172897339,0.41726362705230713,2.153942823410034
1772731947637303300,1.84530322265625,-0.9035298824310303,0.28750455379486084,1.896346926689148
1772731947647331600,1.85533154296875,-1.3760823011398315,-0.3647299110889435,1.7666038274765015
1772731947657359400,1.865359375,-1.7963759899139404,-0.877504289150238,1.7771494388580322
1772731947667387400,1.875387451171875,-1.9816668033599854,-1.0507073402404785,1.841017246246338
1772731947677416000,1.885416015625,-1.9038658142089844,-0.8995310664176941,1.815536618232727
1772731947687443700,1.895443603515625,-1.5791040658950806,-0.6171178221702576,1.6840906143188477
1772731947697471700,1.9054716796875,-1.1792829036712646,-0.4070122539997101,1.362258791923523
1772731947707499800,1.915499755859375,-0.8478907942771912,-0.20082683861255646,0.7960272431373596
1772731947717527600,1.925527587890625,-0.5991765260696411,0.12136799097061157,0.09689980745315552
1772731947727555800,1.935555908203125,-0.3643624782562256,0.41278398036956787,-0.46819767355918884
1772731947737582600,1.94558251953125,-0.17053760588169098,0.4711064100265503,-0.7911490797996521
1772731947747611000,1.95561083984375,-0.03721203655004501,0.36451005935668945,-0.9886709451675415
1772731947757638700,1.965638671875,0.02291867509484291,0.2857832908630371,-1.0205764770507812
1772731947767667000,1.9756669921875,-0.014203323051333427,0.3392185866832733,-0.9217015504837036
1772731947777694700,1.98569482421875,-0.07073583453893661,0.5007270574569702,-0.8423252701759338
1772731947787722800,1.99572265625,-0.06342236697673798,0.6704418659210205,-0.8582167625427246
1772731947797750800,2.005750732421875,-0.03954553231596947,0.8102961778640747,-0.9504806399345398
1772731947807778800,2.01577880859375,-0.09246180951595306,0.9235141277313232,-1.08209228515625
1772731947817806800,2.025806884765625,-0.22066931426525116,1.010208010673523,-1.2001630067825317
1772731947827835000,2.0358349609375,-0.4148665964603424,1.0942367315292358,-1.2722089290618896
1772731947837862700,2.045862548828125,-0.6319296956062317,1.1184355020523071,-1.3142781257629395
1772731947847891000,2.055890869140625,-0.7803401947021484,1.0256270170211792,-1.3783901929855347
1772731947857917700,2.065917724609375,-0.8517701625823975,0.849751353263855,-1.418246865272522
1772731947867945700,2.07594580078125,-0.879020094871521,0.6265633702278137,-1.3755320310592651
1772731947877973800,2.085973876953125,-0.8111691474914551,0.43900230526924133,-1.2797104120254517
1772731947888001800,2.096001708984375,-0.5369909405708313,0.2545100748538971,-1.1372956037521362
1772731947898029800,2.10602978515625,-0.18909204006195068,0.17114034295082092,-0.9867223501205444
1772731947908057600,2.1160576171875,0.10776795446872711,0.17088434100151062,-0.8681681156158447
1772731947918086000,2.1260859375,0.3060038089752197,0.22942568361759186,-0.8250758051872253
1772731947928113700,2.13611376953125,0.39190950989723206,0.27625954151153564,-0.8418450355529785
1772731947938141700,2.1461416015625,0.38460686802864075,0.1927228420972824,-0.8689762353897095
1772731947948169700,2.156169677734375,0.3151451647281647,-0.018273023888468742,-0.9053030610084534
1772731947958197800,2.16619775390625,0.21862103044986725,-0.2565433979034424,-0.9194760918617249
1772731947968225800,2.176225830078125,0.10806712508201599,-0.45869511365890503,-0.8600903749465942
1772731947978253800,2.18625390625,-0.02871815301477909,-0.5857593417167664,-0.707771360874176
1772731947988280800,2.19628076171875,-0.16314959526062012,-0.6045461297035217,-0.535508394241333
1772731947998308600,2.20630859375,-0.1986261010169983,-0.5082014799118042,-0.3834530711174011
1772731948008337000,2.2163369140625,-0.16605477035045624,-0.25247451663017273,-0.24645720422267914
1772731948018364700,2.22636474609375,-0.12268173694610596,0.09284988045692444,-0.13109944760799408
1772731948028392700,2.236392822265625,-0.11521385610103607,0.4202423095703125,-0.020705923438072205
1772731948038420700,2.246420654296875,-0.1278686672449112,0.6829931735992432,0.10718253254890442
1772731948048448800,2.25644873046875,-0.14206890761852264,0.8627101182937622,0.2716207206249237
1772731948058476800,2.266476806640625,-0.18931525945663452,0.9154367446899414,0.46337205171585083
1772731948068504800,2.2765048828125,-0.22268739342689514,0.7542567849159241,0.5804082155227661
1772731948078532600,2.28653271484375,-0.17015787959098816,0.4730599522590637,0.5551859736442566
1772731948088561000,2.296560791015625,-0.05316733568906784,0.23638708889484406,0.551511824131012
1772731948098588700,2.306588623046875,0.07723088562488556,0.22210587561130524,0.7219157814979553
1772731948108615700,2.31661572265625,0.14298982918262482,0.3718573749065399,1.0804083347320557
1772731948118643700,2.326643798828125,0.19018051028251648,0.6515734195709229,1.4429515600204468
1772731948128671700,2.336671630859375,0.3787389099597931,1.0610268115997314,1.6526519060134888
1772731948138699800,2.34669970703125,0.6553882956504822,1.2877963781356812,1.7297085523605347
1772731948148727600,2.3567275390625,1.0378036499023438,1.2076181173324585,1.510046362876892
1772731948158755800,2.366755859375,1.541219711303711,1.26247239112854,0.7864769697189331
1772731948168783600,2.37678369140625,2.1351993083953857,1.3560512065887451,-0.11366547644138336
1772731948178812000,2.38681201171875,2.7790415287017822,1.071110486984253,-0.7109192609786987
1772731948188839700,2.396839599609375,3.1671977043151855,0.4833201467990875,-0.9859720468521118
1772731948198867700,2.40686767578125,2.952364921569824,-0.14209260046482086,-0.849839985370636
1772731948208895700,2.416895751953125,2.1749520301818848,-0.7651558518409729,-0.06003839895129204
1772731948218923800,2.426923828125,1.2503457069396973,-1.4428584575653076,1.1940950155258179
1772731948228950800,2.43695068359375,0.6521308422088623,-1.9376366138458252,2.33498477935791
1772731948238978800,2.446978759765625,0.3606300354003906,-2.162580966949463,2.949756145477295
1772731948249006800,2.4570068359375,0.26228612661361694,-2.3107969760894775,2.9399073123931885
1772731948259034600,2.46703466796875,0.2793998718261719,-2.4423375129699707,2.3543412685394287
1772731948269062700,2.477062744140625,0.3105103373527527,-2.4034924507141113,1.4761037826538086
1772731948279090700,2.487090576171875,0.32092517614364624,-2.0354912281036377,0.7742753028869629
1772731948289118700,2.49711865234375,0.28419211506843567,-1.4542715549468994,0.4902836084365845
1772731948299146800,2.507146728515625,0.1778627187013626,-0.8772439360618591,0.5560362339019775
1772731948309174800,2.5171748046875,-0.015618828125298023,-0.436546266078949,0.7012786269187927
1772731948319202600,2.52720263671875,-0.24399234354496002,-0.30405160784721375,0.7367122173309326
1772731948329230800,2.53723095703125,-0.5024693012237549,-0.4619915187358856,0.5734224915504456
1772731948339258600,2.547258544921875,-0.68514084815979,-0.6697924137115479,0.1896415799856186
1772731948349286000,2.557285888671875,-0.7933093309402466,-0.7668867111206055,-0.21253252029418945
1772731948359313700,2.567313720703125,-0.8230502009391785,-0.6648370027542114,-0.3981282114982605
1772731948369342000,2.577342041015625,-0.8104434013366699,-0.3534395694732666,-0.3427310287952423
1772731948379369700,2.58736962890625,-0.8453204035758972,-0.13820956647396088,-0.11924892663955688
1772731948389397800,2.597397705078125,-0.8481447100639343,-0.06862400472164154,0.06857431679964066
1772731948399425800,2.60742578125,-0.7774249911308289,0.009566934779286385,0.1159420982003212
1772731948409453600,2.61745361328125,-0.6709141135215759,0.06520324945449829,0.07874850183725357
1772731948419481900,2.62748193359375,-0.6169166564941406,-0.015894535928964615,0.01888037472963333
1772731948429509600,2.637509521484375,-0.5616570711135864,-0.049694135785102844,-0.09216341376304626
1772731948439537700,2.64753759765625,-0.5127305388450623,-0.10757607221603394,-0.26822125911712646
1772731948449565700,2.657565673828125,-0.521285891532898,-0.2029167115688324,-0.5697842836380005
1772731948459593700,2.66759375,-0.5064965486526489,-0.22906894981861115,-0.8997254371643066
1772731948469621800,2.677621826171875,-0.5009004473686218,-0.18033376336097717,-1.0604679584503174
1772731948479648800,2.687648681640625,-0.4885210394859314,-0.0664207711815834,-1.0294698476791382
1772731948489676800,2.6976767578125,-0.44191595911979675,0.0692523866891861,-0.9385443329811096
1772731948499704800,2.707704833984375,-0.34793567657470703,0.1622110903263092,-0.905342698097229
1772731948509732600,2.717732666015625,-0.2465963214635849,0.24044406414031982,-0.9058781266212463
1772731948519761000,2.727760986328125,-0.17484517395496368,0.2751663625240326,-0.8498548269271851
1772731948529788700,2.73778857421875,-0.15244674682617188,0.27860310673713684,-0.715677797794342
1772731948539817000,2.74781689453125,-0.15353305637836456,0.32236284017562866,-0.5522169470787048
1772731948549844700,2.7578447265625,-0.14274848997592926,0.4488113820552826,-0.37660738825798035
1772731948559872500,2.76787255859375,-0.11763647198677063,0.5968887209892273,-0.24123036861419678
1772731948569900800,2.77790087890625,-0.06956974416971207,0.702244222164154,-0.21303589642047882
1772731948579928600,2.787928466796875,-0.013695825822651386,0.7214142084121704,-0.23511643707752228
1772731948589955800,2.797955810546875,0.027189096435904503,0.6408551931381226,-0.23375773429870605
1772731948599983600,2.807983642578125,0.017229672521352768,0.5734753608703613,-0.1770521104335785
1772731948610012000,2.818011962890625,-0.051612913608551025,0.5346163511276245,-0.14133794605731964
1772731948620039700,2.828039794921875,0.07796186208724976,0.4412219524383545,-0.06733694672584534
1772731948630067700,2.838067626953125,0.14464358985424042,0.35304024815559387,0.11082036048173904
1772731948640095700,2.848095703125,0.17794029414653778,0.33837342262268066,0.29228976368904114
1772731948650123800,2.858123779296875,0.3062898814678192,0.5228247046470642,0.4248839020729065
1772731948660151800,2.86815185546875,0.4080694913864136,0.6979512572288513,0.5183911919593811
1772731948670179800,2.878179931640625,0.3871411085128784,0.7659820914268494,0.5463750958442688
1772731948680207600,2.88820751953125,0.42607200145721436,0.7145529985427856,0.5321468710899353
1772731948690236000,2.89823583984375,0.4505061209201813,0.5910295844078064,0.49347442388534546
1772731948700263700,2.908263671875,0.30056270956993103,0.49489396810531616,0.5130997896194458
1772731948710292000,2.9182919921875,0.17580074071884155,0.4864763617515564,0.6821839809417725
1772731948720318700,2.928318603515625,0.09112739562988281,0.5912243127822876,0.8783736824989319
1772731948730346800,2.9383466796875,0.09083957225084305,0.6964280009269714,0.9192073941230774
1772731948740374800,2.948374755859375,0.04031594842672348,0.6917754411697388,0.8557130694389343
1772731948750402800,2.95840283203125,-0.0016255145892500877,0.680030882358551,0.8364471197128296
1772731948760430800,2.968430908203125,-0.0069875228218734264,0.7940980792045593,1.066162347793579
1772731948770458600,2.978458740234375,0.09365823119878769,1.2727473974227905,1.174023985862732
1772731948780487000,2.98848681640625,0.2757715582847595,1.4470539093017578,0.7762025594711304
1772731948790514700,2.9985146484375,0.5097237229347229,0.704410195350647,-0.5498040318489075
1772731948800542700,3.008542724609375,1.0589990615844727,0.01630370318889618,-2.894740581512451
1772731948810570800,3.01857080078125,1.4170527458190918,-0.5343123078346252,-4.2560625076293945
1772731948820598800,3.028598876953125,1.2737832069396973,-0.6297644972801208,-3.763923406600952
1772731948830626800,3.038626708984375,1.1810592412948608,-0.28717318177223206,-1.7463117837905884
1772731948840653600,3.048653564453125,1.0800580978393555,0.07946500927209854,0.5221459269523621
1772731948850681900,3.058681884765625,0.8101299405097961,0.26701438426971436,1.7831225395202637
1772731948860709600,3.068709716796875,0.4893020987510681,0.32655069231987,1.92436683177948
1772731948870737700,3.078737548828125,0.30685389041900635,0.31994733214378357,1.2936193943023682
1772731948880765700,3.088765625,0.3929451107978821,0.27535349130630493,0.4597764015197754
1772731948890793700,3.098793701171875,0.7321849465370178,0.20726153254508972,-0.09334512799978256
1772731948900821800,3.10882177734375,1.0067797899246216,0.18566808104515076,-0.31214696168899536
1772731948910849800,3.118849853515625,1.0514471530914307,0.23630252480506897,-0.35561326146125793
1772731948920877600,3.128877685546875,0.922008216381073,0.1834837943315506,-0.35714805126190186
1772731948930905900,3.13890576171875,0.6725322008132935,-0.01632232777774334,-0.5161932706832886
1772731948940933600,3.14893359375,0.47021931409835815,-0.2720808684825897,-0.8104647994041443
1772731948950962000,3.1589619140625,0.25760793685913086,-0.5617115497589111,-0.9985928535461426
1772731948960988700,3.16898876953125,0.01346715446561575,-0.7454957962036133,-1.0172576904296875
1772731948971016700,3.1790166015625,-0.12634290754795074,-0.7629364728927612,-0.9374709725379944
1772731948981044700,3.189044677734375,-0.17489899694919586,-0.597001850605011,-0.7476400136947632
1772731948991072800,3.19907275390625,-0.2645682990550995,-0.43836671113967896,-0.35031306743621826
1772731949001100800,3.209100830078125,-0.41172313690185547,-0.3019430935382843,0.06864134222269058
1772731949011128600,3.219128662109375,-0.5608490109443665,-0.17880403995513916,0.3423909544944763
1772731949021156900,3.229156982421875,-0.6751005053520203,-0.04496608301997185,0.41820234060287476
1772731949031184600,3.2391845703125,-0.722187340259552,0.02799982950091362,0.3115423023700714
1772731949041212700,3.249212646484375,-0.6828492879867554,-0.0010480682831257582,0.08093493431806564
1772731949051240700,3.25924072265625,-0.6164842247962952,-0.06581605970859528,-0.160855233669281
1772731949061268700,3.269268798828125,-0.5813957452774048,-0.12106306850910187,-0.28066524863243103
1772731949071296800,3.279296875,-0.5861440300941467,-0.14308851957321167,-0.29270583391189575
1772731949081323800,3.28932373046875,-0.605991780757904,-0.15883660316467285,-0.3351307809352875
1772731949091351800,3.299351806640625,-0.6000675559043884,-0.1609523594379425,-0.41074031591415405
1772731949101379600,3.309379638671875,-0.54212486743927,-0.1630200445652008,-0.4489857256412506
1772731949111407900,3.319407958984375,-0.45615673065185547,-0.1758028119802475,-0.4227098822593689
1772731949121435600,3.329435546875,-0.3714844584465027,-0.1780928671360016,-0.34098970890045166
1772731949131463700,3.339463623046875,-0.3432759642601013,-0.06696805357933044,-0.23913291096687317
1772731949141491700,3.34949169921875,-0.3264005780220032,0.2279708981513977,-0.2196955680847168
1772731949151519700,3.359519775390625,-0.31457871198654175,0.5058110356330872,-0.24367815256118774
1772731949161547800,3.3695478515625,-0.3057953417301178,0.599290668964386,-0.23440343141555786
1772731949171575800,3.379575927734375,-0.3272774815559387,0.5875763893127441,-0.19435137510299683
1772731949181603600,3.389603515625,-0.33069512248039246,0.5339552760124207,-0.1599867343902588
1772731949191632000,3.3996318359375,-0.32842233777046204,0.46908533573150635,-0.15587754547595978
1772731949201658600,3.40965869140625,-0.33485013246536255,0.3662673234939575,-0.1836327463388443
1772731949211687000,3.41968701171875,-0.3305954337120056,0.2513231635093689,-0.24756142497062683
1772731949221714700,3.429714599609375,-0.27547866106033325,0.13707569241523743,-0.320428729057312
1772731949231743000,3.439742919921875,-0.18290624022483826,0.02331097610294819,-0.3858320713043213
1772731949241770800,3.449770751953125,-0.10888795554637909,-0.04805028811097145,-0.3953568637371063
1772731949251798500,3.459798583984375,-0.1348203867673874,-0.015728922560811043,-0.3057354688644409
1772731949261826800,3.469826904296875,-0.20116105675697327,0.1425539255142212,-0.20800410211086273
1772731949271854600,3.4798544921875,-0.23213891685009003,0.30265864729881287,-0.06903479993343353
1772731949281883000,3.4898828125,-0.25200316309928894,0.3110577166080475,0.1603480577468872
1772731949291910700,3.49991064453125,-0.260502427816391,0.27823781967163086,0.43533390760421753
1772731949301938700,3.509938720703125,-0.23845785856246948,0.2510474622249603,0.6951596140861511
1772731949311966700,3.519966796875,-0.2256101816892624,0.24507112801074982,0.9348632097244263
1772731949321993700,3.52999365234375,-0.26059985160827637,0.12718604505062103,1.1256117820739746
1772731949332021800,3.540021728515625,-0.3995860517024994,-0.11654398590326309,1.1822161674499512
1772731949342049800,3.5500498046875,-0.4975810647010803,-0.2852776050567627,0.9857174158096313
1772731949352077800,3.560077880859375,-0.5372229218482971,-0.25721409916877747,0.7231948971748352
1772731949362105900,3.57010595703125,-0.6115858554840088,0.010871936567127705,0.6673465371131897
1772731949372133600,3.580133544921875,-0.5416499972343445,0.20303547382354736,0.8537207841873169
1772731949382162000,3.590161865234375,-0.06937942653894424,0.2730773985385895,0.7607764601707458
1772731949392189700,3.600189697265625,0.8118237257003784,0.23585498332977295,0.22408097982406616
1772731949402217700,3.6102177734375,1.744572401046753,-0.17884419858455658,-0.9350225925445557
1772731949412245800,3.620245849609375,2.274923086166382,-0.7230076789855957,-2.133477210998535
1772731949422273500,3.6302734375,1.9345905780792236,-1.2949010133743286,-2.3331987857818604
1772731949432301800,3.6403017578125,1.3025168180465698,-1.3024964332580566,-1.6000343561172485
1772731949442329600,3.65032958984375,0.7531890869140625,-1.1580926179885864,-0.35039690136909485
1772731949452356900,3.66035693359375,0.2711438834667206,-1.2654035091400146,1.117852807044983
1772731949462384600,3.670384521484375,-0.19179098308086395,-1.4461133480072021,2.305853843688965
1772731949472413000,3.680412841796875,-0.6157892942428589,-1.3092308044433594,2.8689146041870117
1772731949482440700,3.690440673828125,-0.6837318539619446,-0.7304239869117737,2.72045636177063
1772731949492468700,3.70046875,-0.46371257305145264,-0.14097583293914795,2.24191951751709
1772731949502496800,3.710496826171875,-0.26134350895881653,0.13948751986026764,1.7057502269744873
1772731949512524800,3.72052490234375,-0.21082453429698944,-0.1550430804491043,1.2680046558380127
1772731949522552800,3.730552734375,-0.32751786708831787,-0.3706289231777191,0.8459579944610596
1772731949532580900,3.740580810546875,-0.37092968821525574,-0.24152174592018127,0.49830198287963867
1772731949542608600,3.750608642578125,-0.19683964550495148,-0.0759144127368927,0.194643035531044
1772731949552637000,3.760636962890625,0.06692855060100555,0.034279029816389084,-0.14710409939289093
1772731949562663700,3.77066357421875,0.2300431728363037,0.11548013985157013,-0.5302373766899109
1772731949572691700,3.780691650390625,0.25328442454338074,0.260363906621933,-0.81673663854599
1772731949582719700,3.7907197265625,0.14148330688476562,0.3755189776420593,-0.8524900674819946
1772731949592747800,3.800747802734375,-0.006401190999895334,0.43328478932380676,-0.6860893964767456
1772731949602775800,3.81077587890625,-0.15421141684055328,0.3902057707309723,-0.3562537431716919
1772731949612803600,3.820803466796875,-0.2785206139087677,0.3636325001716614,-0.10134180635213852
1772731949622831900,3.830831787109375,-0.37084999680519104,0.41200828552246094,-0.04206943139433861
1772731949632859600,3.840859619140625,-0.3904494643211365,0.41878965497016907,-0.20623661577701569
1772731949642888000,3.850887939453125,-0.3172628581523895,0.26143306493759155,-0.5030373930931091
1772731949652915700,3.860915771484375,-0.16690504550933838,-0.010549589060246944,-0.7408321499824524
1772731949662943700,3.87094384765625,-0.027048613876104355,-0.18074661493301392,-0.7886031270027161
1772731949672971800,3.8809716796875,0.03730437904596329,-0.15587118268013,-0.6786894798278809
1772731949682998800,3.890998779296875,0.016756759956479073,0.00758139044046402,-0.5232977867126465
1772731949693026800,3.90102685546875,-0.052372973412275314,0.18081724643707275,-0.4336824119091034
1772731949703054800,3.911054931640625,-0.114369235932827,0.30703458189964294,-0.372552752494812
1772731949713083000,3.921082763671875,-0.128329336643219,0.3356233239173889,-0.32689017057418823
1772731949723111000,3.93111083984375,-0.08520263433456421,0.2693907618522644,-0.3226189911365509
1772731949733138700,3.941138671875,-0.010839683935046196,0.23017042875289917,-0.33362001180648804
1772731949743167000,3.9511669921875,0.035750988870859146,0.17976954579353333,-0.3332567512989044
1772731949753194800,3.96119482421875,0.044644545763731,0.08391063660383224,-0.33814144134521484
1772731949763223000,3.97122314453125,0.05730095133185387,-0.013803670182824135,-0.350722998380661
1772731949773250800,3.981250732421875,0.07771701365709305,-0.08375625312328339,-0.34041765332221985
1772731949783278800,3.99127880859375,0.08762503415346146,-0.06156572699546814,-0.276071697473526
1772731949793307000,4.001306884765625,0.07946597784757614,0.02916007861495018,-0.13879431784152985
1772731949803333600,4.011333740234375,0.04113456606864929,0.16430696845054626,0.035470422357320786
1772731949813362000,4.02136181640625,0.0018321359530091286,0.33156171441078186,0.1377454400062561
1772731949823389700,4.0313896484375,-0.011538797058165073,0.43826526403427124,0.17390663921833038
1772731949833418000,4.04141796875,-0.012405218556523323,0.4238230288028717,0.14466124773025513
1772731949843445800,4.05144580078125,-0.031083032488822937,0.30033838748931885,0.05928243696689606
1772731949853473800,4.061473876953125,-0.059012677520513535,0.1509728580713272,-0.07100502401590347
1772731949863501800,4.071501708984375,-0.07459988445043564,0.06977522373199463,-0.14907506108283997
1772731949873529900,4.08152978515625,-0.08431040495634079,0.08742206543684006,-0.11213584244251251
1772731949883558000,4.091557861328125,-0.10514111816883087,0.1769261211156845,-0.0036426589358597994
1772731949893586000,4.1015859375,-0.12014506012201309,0.32626447081565857,0.15150831639766693
1772731949903613700,4.11161376953125,-0.10953529179096222,0.4769466519355774,0.29245078563690186
1772731949913642000,4.12164208984375,-0.0766448974609375,0.5774784088134766,0.40007349848747253
1772731949923668700,4.131668701171875,-0.05226525664329529,0.6239974498748779,0.4890374541282654
1772731949933697000,4.141697021484375,-0.06015639752149582,0.5995606780052185,0.5514249205589294
1772731949943724800,4.151724853515625,-0.08986742794513702,0.6018478274345398,0.5765952467918396
1772731949953752800,4.1617529296875,-0.17459088563919067,0.6655417680740356,0.6432579755783081
1772731949963780900,4.17178076171875,-0.3662301003932953,0.7730293273925781,0.8269603848457336
1772731949973808600,4.18180859375,-0.6890009045600891,0.882811963558197,0.9933716654777527
1772731949983837000,4.1918369140625,-0.924746572971344,0.9500464200973511,0.9445838928222656
1772731949993864700,4.20186474609375,-0.6464824676513672,1.3313955068588257,0.43143829703330994
1772731950003893000,4.21189306640625,0.37731999158859253,1.4917614459991455,-1.003788709640503
1772731950013920800,4.221920654296875,1.9332383871078491,1.2029249668121338,-3.4603307247161865
1772731950023948800,4.23194873046875,3.375253915786743,1.5815306901931763,-5.817654609680176
1772731950033976800,4.241976806640625,3.1220080852508545,1.548147201538086,-5.742773532867432
1772731950044003800,4.25200390625,1.1411690711975098,0.448420912027359,-3.1543631553649902
1772731950054032000,4.262031982421875,-0.8152405619621277,-0.992372989654541,0.993502140045166
1772731950064060000,4.272059814453125,-1.286247968673706,-2.5841848850250244,4.418612480163574
1772731950074088000,4.282087890625,-1.3972783088684082,-2.786539077758789,5.176278591156006
1772731950084116000,4.292115966796875,-1.086301326751709,-2.121586799621582,3.8964102268218994
1772731950094143700,4.302143798828125,-0.9300011396408081,-1.3424304723739624,2.231541872024536
1772731950104171800,4.312171875,-0.5505824089050293,-0.7964231371879578,1.0588544607162476
1772731950114199800,4.32219970703125,-0.08742114901542664,-0.47004181146621704,0.5994601249694824
1772731950124227800,4.332227783203125,0.012717176228761673,-0.5908238887786865,0.40004879236221313
1772731950134255900,4.342255859375,-0.1998102068901062,-0.8958755135536194,-0.23972484469413757
1772731950144283600,4.35228369140625,-0.3554919362068176,-1.3662714958190918,-1.2250843048095703
1772731950154311000,4.362310791015625,-0.18955549597740173,-1.7709556818008423,-2.0680558681488037
1772731950164339000,4.3723388671875,0.09465332329273224,-1.8989932537078857,-2.390928030014038
1772731950174367000,4.382366943359375,0.3032357692718506,-1.6612597703933716,-2.198906183242798
1772731950184394800,4.392394775390625,0.29768574237823486,-1.0734881162643433,-1.740895390510559
1772731950194423000,4.402423095703125,-0.04282447695732117,-0.22764520347118378,-0.7303966879844666
1772731950204450800,4.412450927734375,-0.4988279640674591,0.3521103262901306,0.6378838419914246
1772731950214478800,4.422478759765625,-0.7828072905540466,0.7627376914024353,1.648226261138916
1772731950224507000,4.4325068359375,-0.9731996059417725,0.9422334432601929,2.054561138153076
1772731950234535000,4.442534912109375,-0.9762623906135559,0.7953201532363892,1.7382886409759521
1772731950244563000,4.45256298828125,-0.7308920621871948,0.5017686486244202,0.8720435500144958
1772731950254591000,4.462591064453125,-0.28392720222473145,0.2997225821018219,-0.11770547926425934
1772731950264618800,4.47261865234375,0.09957677125930786,0.12217147648334503,-0.7782610654830933
1772731950274645800,4.482645751953125,0.3477066457271576,0.07154236733913422,-0.9773676991462708
1772731950284674000,4.492674072265625,0.44784098863601685,0.12679684162139893,-0.8225693106651306
1772731950294701800,4.502701904296875,0.37928053736686707,0.20220236480236053,-0.5654786825180054
1772731950304729900,4.512729736328125,0.27973583340644836,0.30395907163619995,-0.4131716787815094
1772731950314758000,4.5227578125,0.2140951007604599,0.3550053834915161,-0.33113545179367065
1772731950324786000,4.532785888671875,0.17366671562194824,0.3257540166378021,-0.27030086517333984
1772731950334814000,4.54281396484375,0.15961532294750214,0.27821457386016846,-0.21675586700439453
1772731950344842000,4.552842041015625,0.1733527034521103,0.2410815954208374,-0.150464728474617
1772731950354869800,4.562869873046875,0.2022240310907364,0.21512696146965027,-0.09372980147600174
1772731950364898000,4.57289794921875,0.24445083737373352,0.17870956659317017,-0.08380126953125
1772731950374925800,4.58292578125,0.3006012439727783,0.16082513332366943,-0.08493132144212723
1772731950384953900,4.592953857421875,0.34210023283958435,0.14309833943843842,-0.03196690231561661
1772731950394980900,4.60298095703125,0.34500017762184143,0.10026873648166656,0.08353730291128159
1772731950405009000,4.6130087890625,0.2884937524795532,0.09734910726547241,0.25917091965675354
1772731950415037000,4.623036865234375,0.19544364511966705,0.17978176474571228,0.39013057947158813
1772731950425064700,4.633064697265625,0.11648119240999222,0.35153278708457947,0.46605756878852844
1772731950435093000,4.643093017578125,0.08040957152843475,0.5420032739639282,0.5106715559959412
1772731950445120800,4.653120849609375,0.06832973659038544,0.6995841264724731,0.5588942170143127
1772731950455149000,4.663149169921875,0.060995060950517654,0.80861896276474,0.6238135695457458
1772731950465176800,4.6731767578125,0.053048454225063324,0.8150790333747864,0.6715142726898193
1772731950475204900,4.683204833984375,0.03437260538339615,0.6463750004768372,0.6131685972213745
1772731950485233000,4.69323291015625,-0.014912920072674751,0.3811592757701874,0.4593033790588379
1772731950495261000,4.703260986328125,-0.07760929316282272,0.1217196136713028,0.31259438395500183
1772731950505289000,4.7132890625,-0.12449823319911957,-0.06186326593160629,0.25579553842544556
1772731950515315700,4.723315673828125,-0.15340769290924072,-0.1513630598783493,0.319194495677948
1772731950525344000,4.733343994140625,-0.1611977070569992,-0.15289197862148285,0.45360901951789856
1772731950535371800,4.743371826171875,-0.15492327511310577,-0.07726047933101654,0.6266372799873352
1772731950545399800,4.75339990234375,-0.15968553721904755,-0.019449109211564064,0.8165430426597595
1772731950555427800,4.763427734375,-0.2205038219690323,0.047552987933158875,0.996224582195282
1772731950565456000,4.773455810546875,-0.3835923671722412,0.1810239553451538,1.1537518501281738
1772731950575484000,4.78348388671875,-0.593013346195221,0.36749008297920227,1.2411127090454102
1772731950585512000,4.793511962890625,-0.6715328693389893,0.4807963967323303,1.0991923809051514
1772731950595539700,4.803539794921875,-0.670482337474823,0.1697002351284027,0.9259617924690247
1772731950605568000,4.813568115234375,-0.4457078278064728,-0.2997511327266693,0.7867514491081238
1772731950615595800,4.823595703125,0.16502602398395538,-0.18265663087368011,0.35765978693962097
1772731950625623000,4.833623046875,0.7981281280517578,0.12575632333755493,-0.5029929280281067
1772731950635650800,4.84365087890625,1.4794929027557373,0.5434017181396484,-1.6845030784606934
1772731950645678800,4.853678955078125,2.0266032218933105,1.1008726358413696,-2.7416746616363525
1772731950655707000,4.863706787109375,1.773232340812683,0.8779447078704834,-2.8649630546569824
1772731950665734700,4.873734619140625,1.1183223724365234,-0.18794205784797668,-1.8327558040618896
1772731950675763000,4.883762939453125,0.23810389637947083,-1.5452502965927124,-0.2678317129611969
1772731950685790500,4.89379052734375,-0.5723397135734558,-2.546617031097412,0.9574027061462402
1772731950695818500,4.903818603515625,-1.135435700416565,-2.794252634048462,1.554174542427063
1772731950705846500,4.913846435546875,-1.2656173706054688,-2.272212266921997,1.5674887895584106
1772731950715874600,4.92387451171875,-0.8588853478431702,-1.3101279735565186,1.1294249296188354
1772731950725902600,4.933902587890625,-0.19741977751255035,-0.44533592462539673,0.5380865335464478
1772731950735930400,4.943930419921875,0.25840285420417786,-0.13791368901729584,-0.04023135080933571
1772731950745957600,4.95395751953125,0.3104466199874878,-0.3835998773574829,-0.6516241431236267
1772731950755985400,4.9639853515625,0.15926949679851532,-0.9160870313644409,-1.3122000694274902
1772731950766013700,4.974013671875,0.1948823481798172,-1.433868408203125,-1.9457062482833862
1772731950776041500,4.98404150390625,0.307766854763031,-1.7938854694366455,-2.1877565383911133
1772731950786069500,4.994069580078125,0.2761993408203125,-1.6965898275375366,-1.9289394617080688
1772731950796097500,5.00409765625,0.08112971484661102,-1.1347508430480957,-1.291612148284912
1772731950806125600,5.01412548828125,-0.23241648077964783,-0.4009840786457062,-0.4656526744365692
1772731950816153600,5.024153564453125,-0.6518163681030273,0.17967373132705688,0.36682429909706116
1772731950826181600,5.034181640625,-0.9884750843048096,0.46304020285606384,0.9926676750183105
1772731950836209400,5.04420947265625,-1.1739012002944946,0.4759954810142517,1.2600007057189941
1772731950846237400,5.054237548828125,-1.2390363216400146,0.3388994038105011,1.1414215564727783
1772731950856265500,5.064265380859375,-1.1335222721099854,0.21758639812469482,0.7025433778762817
1772731950866292500,5.07429248046875,-0.8480257987976074,0.14080186188220978,0.061979103833436966
1772731950876320500,5.084320556640625,-0.49686962366104126,0.0887298658490181,-0.5202621817588806
1772731950886348500,5.0943486328125,-0.23332348465919495,0.06256058067083359,-0.8650100231170654
1772731950896376600,5.10437646484375,-0.11288019269704819,0.08264996856451035,-0.9472648501396179
1772731950906404600,5.114404541015625,-0.09121964126825333,0.13228116929531097,-0.8465187549591064
1772731950916432600,5.1244326171875,-0.13173477351665497,0.21847029030323029,-0.646345317363739
1772731950926460400,5.13446044921875,-0.19099383056163788,0.32215169072151184,-0.4357545077800751
1772731950936488700,5.14448876953125,-0.22694820165634155,0.39826449751853943,-0.2666016221046448
1772731950946516500,5.1545166015625,-0.25429755449295044,0.3766883611679077,-0.1604328155517578
1772731950956544500,5.16454443359375,-0.2577238380908966,0.28322508931159973,-0.13446155190467834
1772731950966572500,5.174572509765625,-0.2229520082473755,0.16861647367477417,-0.15175771713256836
1772731950976599600,5.184599609375,-0.17614464461803436,0.05943068116903305,-0.1606198251247406
1772731950986627600,5.194627685546875,-0.13815838098526,-0.033387403935194016,-0.15141887962818146
1772731950996655400,5.2046552734375,-0.13222156465053558,-0.07658650726079941,-0.1089244857430458
1772731951006683600,5.21468359375,-0.14725671708583832,-0.036720044910907745,-0.029674936085939407
1772731951016711400,5.22471142578125,-0.136793851852417,0.07640442997217178,-0.003880196949467063
1772731951026739700,5.23473974609375,-0.10420102626085281,0.21910618245601654,0.014271109364926815
1772731951036767500,5.244767578125,-0.0553436316549778,0.31344807147979736,0.0844743475317955
1772731951046795500,5.25479541015625,-0.026395069435238838,0.37958234548568726,0.183783620595932
1772731951056823600,5.264823486328125,-0.021743623539805412,0.454253613948822,0.29405584931373596
1772731951066851600,5.2748515625,-0.03967681899666786,0.5295883417129517,0.41031479835510254
1772731951076879600,5.284879638671875,-0.058807872235774994,0.5438559651374817,0.475109726190567
1772731951086907600,5.29490771484375,-0.07434022426605225,0.5167545676231384,0.4703906178474426
1772731951096934700,5.3049345703125,-0.08866527676582336,0.4944731593132019,0.46277064085006714
1772731951106962400,5.31496240234375,-0.12054996937513351,0.4799189865589142,0.5048238635063171
1772731951116990500,5.324990478515625,-0.16680721938610077,0.4626536965370178,0.5326826572418213
1772731951127018500,5.3350185546875,-0.19641338288784027,0.4621315598487854,0.5317835807800293
1772731951137046500,5.345046630859375,-0.2162826806306839,0.4720644950866699,0.5295639038085938
1772731951147074600,5.355074462890625,-0.21636523306369781,0.5412302017211914,0.5659477114677429
1772731951157101600,5.3651015625,-0.2226250022649765,0.6452417373657227,0.623457670211792
1772731951167129600,5.375129638671875,-0.3257655203342438,0.657480001449585,0.7133076190948486
1772731951177157600,5.38515771484375,-0.5744457244873047,0.5511952042579651,0.8354871273040771
1772731951187185400,5.395185302734375,-0.8825162053108215,0.45658349990844727,0.87076735496521
1772731951197213700,5.405213623046875,-1.0119529962539673,0.569437563419342,0.8628063797950745
1772731951207241500,5.415241455078125,-0.8844578266143799,0.71363765001297,0.8580417037010193
1772731951217269500,5.42526953125,-0.17555175721645355,0.7799072265625,0.5184054970741272
1772731951227297500,5.435297607421875,1.1111419200897217,1.3253551721572876,-0.7277107238769531
1772731951237325300,5.4453251953125,2.2563107013702393,1.5836602449417114,-2.5016305446624756
1772731951247353600,5.455353515625,2.249781847000122,0.5173039436340332,-3.547274589538574
1772731951257381400,5.46538134765625,1.315132975578308,-0.8743516802787781,-3.767360210418701
1772731951267408600,5.47540869140625,0.5184731483459473,-1.4824994802474976,-2.9216408729553223
1772731951277436400,5.4854365234375,-0.1606428325176239,-1.772261381149292,-0.9731138348579407
1772731951287464700,5.495464599609375,-0.8015671372413635,-1.6817620992660522,1.3015283346176147
1772731951297492500,5.505492431640625,-1.2390780448913574,-1.0276693105697632,2.5852766036987305
1772731951307520500,5.5155205078125,-1.1332662105560303,-0.21067431569099426,2.6400322914123535
1772731951317548500,5.525548583984375,-0.7016674876213074,0.11991908401250839,2.1862833499908447
1772731951327576600,5.53557666015625,-0.3340945541858673,-0.2922506332397461,1.671821117401123
1772731951337604600,5.5456044921875,-0.33257102966308594,-0.9174975156784058,1.1146671772003174
1772731951347632600,5.555632568359375,-0.5161813497543335,-1.0353580713272095,0.5943467020988464
1772731951357660400,5.565660400390625,-0.5808220505714417,-0.70896315574646,0.3698421120643616
1772731951367688400,5.5756884765625,-0.4608386754989624,-0.31582361459732056,0.46245354413986206
1772731951377716500,5.585716552734375,-0.3327109217643738,0.028319600969552994,0.5831577181816101
1772731951387743500,5.595743408203125,-0.25268372893333435,0.13398078083992004,0.583098292350769
1772731951397771500,5.605771484375,-0.3159835636615753,-0.1490907371044159,0.3157142698764801
1772731951407799600,5.615799560546875,-0.3867541253566742,-0.5385127663612366,-0.1420104056596756
1772731951417827600,5.62582763671875,-0.5260989665985107,-0.660338282585144,-0.2535848915576935
1772731951427855600,5.635855712890625,-0.7985814809799194,-0.45200008153915405,-0.09881509095430374
1772731951437883600,5.645883544921875,-0.9957892298698425,-0.07005501538515091,0.027771668508648872
1772731951447911400,5.655911376953125,-0.9679059386253357,0.27059152722358704,-0.02741328999400139
1772731951457939700,5.665939697265625,-0.58009934425354,0.4336806535720825,-0.35929957032203674
1772731951467967500,5.675967529296875,-0.04960538074374199,0.44728967547416687,-0.8678099513053894
1772731951477995500,5.68599560546875,0.2757759094238281,0.3449377417564392,-1.3230568170547485
1772731951488023600,5.6960234375,0.43938082456588745,0.2854861319065094,-1.6344325542449951
1772731951498051600,5.706051513671875,0.4434194266796112,0.24282854795455933,-1.7613999843597412
1772731951508079600,5.71607958984375,0.39464205503463745,0.23884178698062897,-1.7443283796310425
1772731951518107600,5.726107666015625,0.3151482939720154,0.21407972276210785,-1.5561949014663696
1772731951528135400,5.736135498046875,0.19502480328083038,0.1419975310564041,-1.2490328550338745
1772731951538163500,5.74616357421875,0.07430393993854523,0.04793919622898102,-0.9554912447929382
1772731951548191500,5.75619140625,0.06649448722600937,-0.08696775138378143,-0.7362962961196899
1772731951558218500,5.766218505859375,0.21415704488754272,-0.1992160677909851,-0.5881738066673279
1772731951568246500,5.77624658203125,0.3620181381702423,-0.22118209302425385,-0.4482363760471344
1772731951578274600,5.786274658203125,0.38449034094810486,-0.19567397236824036,-0.3450169563293457
1772731951588302600,5.796302490234375,0.3344663083553314,-0.08380550146102905,-0.2801247835159302
1772731951598330600,5.80633056640625,0.28425332903862,0.016037514433264732,-0.20241649448871613
1772731951608358700,5.816358642578125,0.23221009969711304,0.04499033838510513,-0.07801144570112228
1772731951618386400,5.826386474609375,0.19778114557266235,0.00914519838988781,0.05260765179991722
1772731951628414700,5.836414794921875,0.19394619762897491,-0.03822445124387741,0.1026844009757042
1772731951638442500,5.8464423828125,0.19054996967315674,-0.06532712280750275,0.09973377734422684
1772731951648470500,5.856470458984375,0.16640761494636536,-0.11240488290786743,0.08924571424722672
1772731951658498600,5.86649853515625,0.14346063137054443,-0.15696054697036743,0.068661168217659
1772731951668526600,5.876526611328125,0.1734640747308731,-0.17402662336826324,0.03349892050027847
1772731951678553600,5.8865537109375,0.22139090299606323,-0.1525159776210785,0.015401109121739864
1772731951688581600,5.89658154296875,0.23699569702148438,-0.10857009142637253,0.057976532727479935
1772731951698609700,5.906609619140625,0.20832645893096924,-0.024641526862978935,0.14790087938308716
1772731951708637700,5.9166376953125,0.1788380891084671,0.09434264898300171,0.24243751168251038
1772731951718665500,5.92666552734375,0.1643257737159729,0.18161047995090485,0.33594366908073425
1772731951728693800,5.93669384765625,0.15881089866161346,0.26572856307029724,0.43402495980262756
1772731951738721500,5.946721435546875,0.14835987985134125,0.3306986689567566,0.5464606881141663
1772731951748749800,5.956749755859375,0.09459146112203598,0.4080909192562103,0.7038950324058533
1772731951758777600,5.966777587890625,0.031345222145318985,0.4674856960773468,0.7915776371955872
1772731951768805600,5.9768056640625,-0.018366942182183266,0.49254685640335083,0.7602159976959229
1772731951778833700,5.986833740234375,-0.07605983316898346,0.500035285949707,0.680931031703949
1772731951788860700,5.996860595703125,-0.15900984406471252,0.5028654336929321,0.6390799880027771
1772731951798888700,6.006888671875,-0.28981465101242065,0.5197106599807739,0.6559447050094604
1772731951808916500,6.01691650390625,-0.3865550458431244,0.6232306957244873,0.6957669258117676
1772731951818944800,6.02694482421875,-0.43639546632766724,0.8741013407707214,0.6555464267730713
1772731951828972500,6.03697265625,-0.27189016342163086,1.3499975204467773,0.36313802003860474
1772731951839000600,6.04700048828125,0.3053642809391022,1.4822980165481567,-0.722923755645752
1772731951849028600,6.057028564453125,1.465851902961731,0.9587951302528381,-2.733675003051758
1772731951859056600,6.067056640625,2.438077688217163,0.3514610528945923,-4.545502662658691
1772731951869084700,6.077084716796875,2.2374370098114014,-0.334419310092926,-5.387008190155029
1772731951879112700,6.08711279296875,1.367872714996338,-1.0661678314208984,-4.422496795654297
1772731951889140500,6.097140380859375,0.39036989212036133,-1.9660917520523071,-1.8453067541122437
1772731951899168800,6.107168701171875,-0.29917389154434204,-2.3731980323791504,0.57451993227005
1772731951909195800,6.11719580078125,-0.608508825302124,-1.8824528455734253,1.7074990272521973
1772731951919223600,6.1272236328125,-0.6360494494438171,-0.9251500964164734,1.7526127099990845
1772731951929251600,6.13725146484375,-0.41919249296188354,-0.16028304398059845,1.3232022523880005
1772731951939279600,6.147279541015625,-0.055479057133197784,0.00036663771606981754,1.0333260297775269
1772731951949307600,6.1573076171875,0.10460489243268967,-0.21783919632434845,0.9876453280448914
1772731951959335700,6.167335693359375,-0.09958349168300629,-0.4619153141975403,1.0548452138900757
1772731951969363700,6.17736376953125,-0.5338127017021179,-0.5064281821250916,1.120255708694458
1772731951979391500,6.1873916015625,-0.9098044037818909,-0.37434452772140503,1.168008804321289
1772731951989419800,6.197419677734375,-1.0239026546478271,-0.254160612821579,1.2150602340698242
1772731951999447600,6.207447509765625,-0.8726755380630493,-0.24799570441246033,1.131380319595337
1772731952009475600,6.2174755859375,-0.5785669684410095,-0.32099083065986633,0.7754530906677246
1772731952019503600,6.227503662109375,-0.3414636552333832,-0.4242776036262512,0.26581284403800964
1772731952029531000,6.23753076171875,-0.26299336552619934,-0.5049756169319153,-0.1739722639322281
1772731952039558700,6.24755859375,-0.32601091265678406,-0.43505775928497314,-0.34554407000541687
1772731952049586700,6.257586669921875,-0.4533294439315796,-0.28826114535331726,-0.1851266771554947
1772731952059614700,6.26761474609375,-0.5496578812599182,-0.11011485010385513,0.10228272527456284
1772731952069642500,6.277642578125,-0.5722009539604187,0.1027739867568016,0.30643558502197266
1772731952079670800,6.2876708984375,-0.5898829102516174,0.3017609119415283,0.3386293351650238
1772731952089698600,6.297698486328125,-0.6329848766326904,0.4141916036605835,0.2022288739681244
1772731952099726600,6.3077265625,-0.6572170257568359,0.33767440915107727,-0.08285684138536453
1772731952109754600,6.317754638671875,-0.6138567328453064,0.13513170182704926,-0.4477967321872711
1772731952119782700,6.32778271484375,-0.49802565574645996,-0.02914908528327942,-0.7459629774093628
1772731952129810700,6.337810791015625,-0.3365533947944641,-0.07367900013923645,-0.8766788840293884
1772731952139837700,6.347837646484375,-0.18914911150932312,-0.0029888744466006756,-0.8275830149650574
1772731952149865700,6.35786572265625,-0.07130289822816849,0.08812106400728226,-0.6777951121330261
1772731952159893800,6.367893798828125,0.007829349488019943,0.11755410581827164,-0.5197823643684387
1772731952169921500,6.377921630859375,0.07831230014562607,0.10558213293552399,-0.3975867033004761
1772731952179949800,6.38794970703125,0.17962737381458282,0.05821390450000763,-0.3431667685508728
1772731952189977600,6.3979775390625,0.27911558747291565,0.007766444701701403,-0.3244442343711853
1772731952200006000,6.408005859375,0.36167529225349426,-0.03914334625005722,-0.283114492893219
1772731952210033700,6.41803369140625,0.4199942648410797,-0.11019861698150635,-0.21703693270683289
1772731952220061700,6.428061767578125,0.42731010913848877,-0.2199704498052597,-0.16056232154369354
1772731952230089700,6.43808984375,0.39655378460884094,-0.32284173369407654,-0.11593279987573624
1772731952240117500,6.448117431640625,0.32728156447410583,-0.30655378103256226,-0.03982692211866379
1772731952250145800,6.458145751953125,0.258714497089386,-0.10771898180246353,0.043112967163324356
1772731952260172500,6.468172607421875,0.2280137687921524,0.1563323438167572,0.07095905393362045
1772731952270200800,6.478200927734375,0.2199569046497345,0.3320269286632538,0.07624835520982742
1772731952280228600,6.488228515625,0.2312442809343338,0.4154081642627716,0.1008814200758934
1772731952290256600,6.498256591796875,0.23067224025726318,0.45305299758911133,0.1580437868833542
1772731952300284700,6.50828466796875,0.21082139015197754,0.44601377844810486,0.22308586537837982
1772731952310312700,6.518312744140625,0.2026372253894806,0.41578343510627747,0.2462276667356491
1772731952320340700,6.5283408203125,0.20928612351417542,0.34889379143714905,0.279867559671402
1772731952330368800,6.53836865234375,0.1653418391942978,0.38377612829208374,0.40053218603134155
1772731952340396500,6.548396484375,0.1260509192943573,0.48823145031929016,0.4993237257003784
1772731952350424800,6.5584248046875,0.08795519918203354,0.6051599383354187,0.6136433482170105
1772731952360452600,6.56845263671875,0.02641827054321766,0.7753754258155823,0.7313370108604431
1772731952370479600,6.578479736328125,-0.05679405853152275,0.8726918697357178,0.831088125705719
1772731952380507600,6.588507568359375,-0.24728773534297943,0.812555193901062,0.8943953514099121
1772731952390535700,6.59853564453125,-0.5259217619895935,0.5320076942443848,0.844487726688385
1772731952400563700,6.608563720703125,-0.7850551605224609,0.2396659553050995,0.6147345304489136
1772731952410591500,6.618591552734375,-0.8272984623908997,0.22043126821517944,0.18064379692077637
1772731952420619800,6.628619873046875,-0.5374417304992676,0.43938085436820984,-0.36657392978668213
1772731952430647600,6.6386474609375,0.10765523463487625,0.8479446768760681,-1.129226565361023
1772731952440675800,6.64867578125,1.0117865800857544,1.2892581224441528,-2.2366840839385986
1772731952450703600,6.65870361328125,1.7089275121688843,1.269350290298462,-2.9894840717315674
1772731952460731600,6.668731689453125,1.5819365978240967,0.5945027470588684,-3.2061607837677
1772731952470759700,6.678759765625,1.0695202350616455,-0.2528887391090393,-2.781268358230591
1772731952480787700,6.68878759765625,0.43970927596092224,-1.1604441404342651,-1.7720582485198975
1772731952490814700,6.698814697265625,-0.28364866971969604,-1.8642574548721313,-0.506258487701416
1772731952500842500,6.708842529296875,-0.7914003729820251,-1.9511929750442505,0.7063871622085571
1772731952510870800,6.718870849609375,-0.9488019943237305,-1.5148085355758667,1.6531950235366821
1772731952520898600,6.728898681640625,-0.7527954578399658,-0.7829890847206116,2.0630788803100586
1772731952530926600,6.738926513671875,-0.40163499116897583,-0.16055266559123993,1.8843965530395508
1772731952540954600,6.74895458984375,-0.20669247210025787,0.047048285603523254,1.4180877208709717
1772731952550982700,6.758982666015625,-0.3276157081127167,-0.29800233244895935,0.9840958118438721
1772731952561010700,6.7690107421875,-0.5679927468299866,-0.9512728452682495,0.6107415556907654
1772731952571038700,6.779038818359375,-0.6741135716438293,-1.4292670488357544,0.3054426312446594
1772731952581066500,6.78906640625,-0.6314624547958374,-1.5606900453567505,0.09181948751211166
1772731952591094800,6.7990947265625,-0.4434792399406433,-1.3050020933151245,-0.12776827812194824
1772731952601122600,6.80912255859375,-0.09802260994911194,-0.9631606936454773,-0.4176311194896698
1772731952611149600,6.819149658203125,0.24963176250457764,-0.7715755701065063,-0.8385533690452576
1772731952621177600,6.829177490234375,0.439534991979599,-0.7332172393798828,-1.1640297174453735
1772731952631205600,6.83920556640625,0.4360752999782562,-0.798346221446991,-1.1511591672897339
1772731952641233700,6.849233642578125,0.23818083107471466,-0.8237473368644714,-0.7909089922904968
1772731952651261700,6.85926171875,-0.021486962214112282,-0.7355045676231384,-0.27596601843833923
1772731952661289700,6.869289794921875,-0.23370026051998138,-0.5141298770904541,0.280225932598114
1772731952671317500,6.8793173828125,-0.3734794557094574,-0.23202255368232727,0.7369476556777954
1772731952681345000,6.889344970703125,-0.5037130117416382,-0.004210660234093666,0.9118890166282654
1772731952691372800,6.899372802734375,-0.6254892349243164,0.0663364827632904,0.7279101610183716
1772731952701401000,6.909401123046875,-0.6365501880645752,-0.050771117210388184,0.30566972494125366
1772731952711428900,6.919428955078125,-0.5298098921775818,-0.2350994050502777,-0.17017246782779694
1772731952721455900,6.929455810546875,-0.3649979531764984,-0.3229864835739136,-0.5337496995925903
1772731952731484000,6.93948388671875,-0.20429430902004242,-0.25319036841392517,-0.6629108786582947
1772731952741512000,6.949511962890625,-0.10192285478115082,-0.06169639527797699,-0.574169397354126
1772731952751540000,6.9595400390625,-0.06926584243774414,0.14098215103149414,-0.4193027913570404
1772731952761567700,6.969567626953125,-0.05626934766769409,0.3290433883666992,-0.28309276700019836
1772731952771596000,6.979595947265625,-0.05495001748204231,0.48940509557724,-0.15110251307487488
1772731952781623800,6.989623779296875,-0.07649519294500351,0.6184837818145752,-0.003011916996911168
1772731952791651800,6.99965185546875,-0.1169520691037178,0.7121689915657043,0.12776367366313934
1772731952801680000,7.009679931640625,-0.16570550203323364,0.7259999513626099,0.22028110921382904
1772731952811708000,7.0197080078125,-0.1864003837108612,0.6658580303192139,0.23026902973651886
1772731952821736000,7.02973583984375,-0.14288835227489471,0.5506768822669983,0.1736590415239334
1772731952831763000,7.039762939453125,-0.06681409478187561,0.4542405903339386,0.12030500918626785
1772731952841791000,7.049791015625,-0.022410649806261063,0.4166210889816284,0.11279219388961792
1772731952851818800,7.05981884765625,-0.016408683732151985,0.4030173718929291,0.13724453747272491
1772731952861847000,7.069846923828125,-0.06831299513578415,0.3684035837650299,0.18101447820663452
1772731952871874800,7.079874755859375,-0.16395775973796844,0.33712634444236755,0.273210734128952
1772731952881902800,7.08990283203125,-0.23584476113319397,0.34955716133117676,0.38948357105255127
1772731952891931000,7.099930908203125,-0.2838325500488281,0.4341045320034027,0.5110944509506226
1772731952901959000,7.109958984375,-0.3261171877384186,0.5634821653366089,0.6674132347106934
1772731952911987000,7.119987060546875,-0.37336859107017517,0.6331968307495117,0.803433895111084
1772731952922015000,7.130014892578125,-0.4415239989757538,0.5252236127853394,0.7985944747924805
1772731952932042800,7.140042724609375,-0.5127859115600586,0.34477341175079346,0.6807871460914612
1772731952942071000,7.150071044921875,-0.5490754842758179,0.17276744544506073,0.6024121046066284
1772731952952097800,7.160097900390625,-0.5511860251426697,0.1441752165555954,0.6475548148155212
1772731952962126000,7.1701259765625,-0.48979732394218445,0.2410910576581955,0.744879424571991
1772731952972153900,7.18015380859375,-0.4169636070728302,0.48778578639030457,0.8740925192832947
1772731952982182100,7.19018212890625,-0.3891562819480896,0.8270443677902222,1.0029062032699585
1772731952992210000,7.2002099609375,-0.44221630692481995,1.0888245105743408,1.014527678489685
1772731953002237700,7.21023779296875,-0.5851193070411682,1.0040488243103027,0.9454308748245239
1772731953012266000,7.220265869140625,-0.7821876406669617,0.5771551728248596,0.8019765019416809
1772731953022293800,7.230293701171875,-0.7542358040809631,0.21910563111305237,0.25646355748176575
1772731953032322000,7.240322021484375,-0.1760193109512329,0.3007435202598572,-0.8688428997993469
1772731953042349800,7.250349853515625,0.877700686454773,0.7090330719947815,-1.964081883430481
1772731953052377900,7.2603779296875,2.011690616607666,1.1407263278961182,-2.393035650253296
1772731953062404900,7.27040478515625,2.624392032623291,1.460071325302124,-2.4150314331054688
1772731953072433000,7.280432861328125,2.1709165573120117,0.9864531755447388,-2.3578743934631348
1772731953082461000,7.2904609375,1.1767741441726685,-0.3311728835105896,-1.8868488073349
1772731953092489000,7.300489013671875,0.17610451579093933,-1.9883641004562378,-0.8441874980926514
1772731953102517000,7.31051708984375,-0.47528737783432007,-2.8234012126922607,0.39650169014930725
1772731953112545000,7.320544921875,-0.6872129440307617,-2.4730758666992188,1.3168206214904785
1772731953122572800,7.33057275390625,-0.485930472612381,-1.3431808948516846,1.675500512123108
1772731953132601000,7.34060107421875,0.017487401142716408,-0.1072150394320488,1.4767919778823853
1772731953142628900,7.35062890625,0.4119129478931427,0.4930858314037323,1.1062812805175781
1772731953152657000,7.360656982421875,0.5242969989776611,0.43507951498031616,0.8794740438461304
1772731953162685000,7.370684814453125,0.43970954418182373,0.05086224898695946,0.8266491293907166
1772731953172712700,7.380712646484375,0.276172012090683,-0.419803261756897,0.8014180660247803
1772731953182740000,7.390739990234375,0.10631846636533737,-0.8166293501853943,0.688535749912262
1772731953192767700,7.400767822265625,0.010435345582664013,-0.9922125935554504,0.41873517632484436
1772731953202796000,7.410796142578125,0.031057599931955338,-0.9246165156364441,0.021348850801587105
1772731953212823800,7.42082373046875,0.13061322271823883,-0.6756831407546997,-0.29224687814712524
1772731953222852000,7.43085205078125,0.2421220988035202,-0.4100894331932068,-0.4188518524169922
1772731953232879900,7.4408798828125,0.28233662247657776,-0.24725815653800964,-0.35549473762512207
1772731953242908000,7.450907958984375,0.258280873298645,-0.27479562163352966,-0.24116821587085724
1772731953252936000,7.46093603515625,0.18483567237854004,-0.3676568567752838,-0.09044874459505081
1772731953262964000,7.4709638671875,0.05230027064681053,-0.40362071990966797,0.16185274720191956
1772731953272992000,7.480991943359375,-0.13693463802337646,-0.3374755382537842,0.4995191991329193
1772731953283020000,7.49102001953125,-0.2803290784358978,-0.21503189206123352,0.7165015339851379
1772731953293047000,7.501047119140625,-0.3233124911785126,-0.09322582185268402,0.7135289311408997
1772731953303074800,7.51107470703125,-0.3262718617916107,-0.00933680310845375,0.5251750349998474
1772731953313102800,7.521102783203125,-0.28712230920791626,0.13887077569961548,0.22215153276920319
1772731953323131000,7.531130859375,-0.20460522174835205,0.27294379472732544,-0.16966399550437927
1772731953333159000,7.541158935546875,-0.09580124169588089,0.32994237542152405,-0.543968915939331
1772731953343187000,7.55118701171875,0.023853518068790436,0.3213254511356354,-0.7976104617118835
1772731953353215000,7.561215087890625,0.11123902350664139,0.33870044350624084,-0.8664092421531677
1772731953363242800,7.57124267578125,0.13396993279457092,0.4166819453239441,-0.761840283870697
1772731953373271000,7.58127099609375,0.11105050146579742,0.5489481091499329,-0.6071159243583679
1772731953383298800,7.591298828125,0.09908225387334824,0.6567427515983582,-0.5264692902565002
1772731953393327000,7.6013271484375,0.1338689923286438,0.6856513619422913,-0.5500089526176453
1772731953403353900,7.611353759765625,0.1771663874387741,0.6432548761367798,-0.604806661605835
1772731953413382000,7.6213818359375,0.23746435344219208,0.5672352313995361,-0.6360481977462769
1772731953423410000,7.631409912109375,0.30391454696655273,0.4894550144672394,-0.642851710319519
1772731953433438000,7.64143798828125,0.3509257435798645,0.40043434500694275,-0.6394771933555603
1772731953443466000,7.651466064453125,0.3692474365234375,0.32532578706741333,-0.6004775166511536
1772731953453493800,7.66149365234375,0.32720890641212463,0.23643827438354492,-0.5097811222076416
1772731953463522000,7.67152197265625,0.24582627415657043,0.1992528736591339,-0.36371803283691406
1772731953473549800,7.6815498046875,0.15341724455356598,0.25103962421417236,-0.17162741720676422
1772731953483577900,7.691577880859375,0.07723648101091385,0.3679465651512146,-0.013158188201487064
1772731953493606000,7.70160595703125,0.023543424904346466,0.46753549575805664,0.11320720613002777
1772731953503634000,7.711634033203125,-0.021668028086423874,0.5539486408233643,0.26063743233680725
1772731953513662000,7.721661865234375,-0.04100177809596062,0.5810079574584961,0.4129931628704071
1772731953523688700,7.731688720703125,-0.049696192145347595,0.4985431432723999,0.45451319217681885
1772731953533717000,7.741717041015625,-0.07089149206876755,0.36837610602378845,0.370070219039917
1772731953543744800,7.751744873046875,-0.09315183013677597,0.18344366550445557,0.32908740639686584
1772731953553772800,7.761772705078125,-0.14032518863677979,-0.016346951946616173,0.41421958804130554
1772731953563800800,7.77180078125,-0.20942668616771698,-0.1848960816860199,0.5895734429359436
1772731953573828900,7.781828857421875,-0.3035808503627777,-0.27122408151626587,0.795840859413147
1772731953583857000,7.79185693359375,-0.4001612365245819,-0.16478538513183594,0.936433732509613
1772731953593885000,7.801885009765625,-0.5005933046340942,0.19663672149181366,0.8989332318305969
1772731953603912700,7.81191259765625,-0.5554757118225098,0.6873342990875244,0.9162360429763794
1772731953613941000,7.82194091796875,-0.5098221898078918,0.8901683688163757,1.241758942604065
1772731953623968800,7.83196875,-0.1840532422065735,0.7760972380638123,1.4287683963775635
1772731953633996000,7.84199609375,0.2807229459285736,0.5568628907203674,0.9230348467826843
1772731953644023800,7.85202392578125,0.807414710521698,0.22070620954036713,-0.4956209063529968
1772731953654052000,7.862052001953125,1.2982959747314453,-0.13432644307613373,-2.1897006034851074
1772731953664080000,7.872079833984375,1.6204988956451416,-0.27328047156333923,-3.6693031787872314
1772731953674108000,7.88210791015625,1.9654709100723267,-0.03661626577377319,-4.449383735656738
1772731953684136400,7.892136474609375,1.9976595640182495,-0.07180085778236389,-3.706941604614258
1772731953694164200,7.902164306640625,1.2695989608764648,-1.0251049995422363,-1.5324468612670898
1772731953704192500,7.912192626953125,0.01994929276406765,-1.877026915550232,1.0638020038604736
1772731953714220300,7.92222021484375,-0.7249794602394104,-1.6690808534622192,2.744507074356079
1772731953724248000,7.932248046875,-0.7154033780097961,-0.8587369918823242,3.117616891860962
1772731953734276400,7.9422763671875,-0.27132418751716614,-0.25034958124160767,2.595860242843628
1772731953744304000,7.95230419921875,0.17034165561199188,-0.3348042368888855,1.663809895515442
1772731953754331400,7.962331298828125,0.3030802607536316,-0.9782276749610901,0.9006913900375366
1772731953764359200,7.972359130859375,0.0717967078089714,-1.5620052814483643,0.5457109808921814
1772731953774387500,7.982387451171875,-0.17175975441932678,-1.8289155960083008,0.3421439826488495
1772731953784415200,7.992415283203125,-0.12070729583501816,-1.6294066905975342,0.10960002988576889
1772731953794443300,8.002443359375,0.16219258308410645,-1.0557087659835815,-0.07197242975234985
1772731953804471300,8.01247119140625,0.4322337210178375,-0.30933108925819397,-0.09807442873716354
1772731953814499300,8.022499267578125,0.575847327709198,0.38864055275917053,-0.12218935042619705
1772731953824527400,8.03252734375,0.623976469039917,0.9349388480186462,-0.22273021936416626
1772731953834555400,8.042555419921875,0.47097334265708923,0.9742247462272644,-0.5414685010910034
1772731953844583200,8.052583251953125,0.16096727550029755,0.6586828827857971,-0.951619029045105
1772731953854611500,8.062611572265626,-0.11377454549074173,0.4647219479084015,-1.18361234664917
1772731953864638200,8.07263818359375,-0.3409181237220764,0.4454781115055084,-1.1313939094543457
1772731953874666200,8.082666259765626,-0.5375358462333679,0.4748927354812622,-0.8735025525093079
1772731953884694300,8.0926943359375,-0.7015165686607361,0.43512293696403503,-0.5879160165786743
1772731953894722300,8.102722412109374,-0.8074920177459717,0.3225543200969696,-0.42292520403862
1772731953904750300,8.112750244140624,-0.7976785898208618,0.259860098361969,-0.40219104290008545
1772731953914778000,8.122778076171874,-0.5955260396003723,0.2518535852432251,-0.39502713084220886
1772731953924806400,8.132806396484375,-0.3968678414821625,0.26099035143852234,-0.32040613889694214
1772731953934834200,8.142834228515625,-0.30453604459762573,0.2588403820991516,-0.25579625368118286
1772731953944862500,8.152862548828125,-0.3234531283378601,0.281873881816864,-0.26284000277519226
1772731953954890200,8.16289013671875,-0.38441234827041626,0.27447617053985596,-0.3345634341239929
1772731953964918300,8.172918212890625,-0.420377641916275,0.2771862745285034,-0.38502728939056396
1772731953974946300,8.1829462890625,-0.4324297606945038,0.2877265512943268,-0.35837066173553467
1772731953984973300,8.192973388671875,-0.4400765001773834,0.28219595551490784,-0.30672743916511536
1772731953995001300,8.20300146484375,-0.4317340850830078,0.2221548855304718,-0.30576902627944946
1772731954005029000,8.213029052734376,-0.3995760977268219,0.17613480985164642,-0.33131223917007446
1772731954015057400,8.223057373046874,-0.3370991349220276,0.141293466091156,-0.3797825574874878
1772731954025085200,8.233085205078124,-0.23594194650650024,0.09089937806129456,-0.4787519574165344
1772731954035113200,8.24311328125,-0.16927289962768555,0.06788141280412674,-0.5182223916053772
1772731954045141200,8.253141357421875,-0.14520330727100372,0.13976596295833588,-0.4527652859687805
1772731954055169300,8.263169189453125,-0.13894088566303253,0.2915743887424469,-0.3526749014854431
1772731954065197300,8.273197265625,-0.13606387376785278,0.4541236162185669,-0.24105916917324066
1772731954075225300,8.283225341796875,-0.12921129167079926,0.578964114189148,-0.11295473575592041
1772731954085252400,8.29325244140625,-0.12925973534584045,0.6461183428764343,0.02260279282927513
1772731954095280000,8.303280029296875,-0.16349439322948456,0.6697339415550232,0.12623944878578186
1772731954105308400,8.313308349609375,-0.22571375966072083,0.6021019816398621,0.1268516331911087
1772731954115336200,8.323336181640625,-0.29869982600212097,0.47435250878334045,0.033693987876176834
1772731954125364200,8.3333642578125,-0.3597027659416199,0.32871848344802856,-0.08325578272342682
1772731954135392300,8.343392333984376,-0.3890726566314697,0.18377088010311127,-0.166590616106987
1772731954145420300,8.353420166015624,-0.39004138112068176,0.08956852555274963,-0.21304477751255035
1772731954155448300,8.3634482421875,-0.3866399824619293,0.036871492862701416,-0.18402297794818878
1772731954165476400,8.373476318359375,-0.42274466156959534,0.10916395485401154,0.012537160888314247
1772731954175504100,8.383504150390625,-0.5167470574378967,0.3215095102787018,0.375282883644104
1772731954185532400,8.393532470703125,-0.628104567527771,0.5107266306877136,0.7451654076576233
1772731954195560200,8.403560302734375,-0.7689799666404724,0.5116185545921326,1.0615750551223755
1772731954205587500,8.41358740234375,-0.9270228743553162,0.37182313203811646,1.255987286567688
1772731954215615200,8.423615234375,-1.0538356304168701,0.2748878002166748,1.2249494791030884
1772731954225643500,8.4336435546875,-1.0120092630386353,0.34988072514533997,0.9194539785385132
1772731954235671300,8.44367138671875,-0.6458379030227661,0.6694959998130798,0.4632081389427185
1772731954245699300,8.45369921875,-0.10556033253669739,0.958158552646637,-0.1459358185529709
1772731954255727400,8.463727294921876,0.5063778758049011,1.0192279815673828,-0.8523533940315247
1772731954265755100,8.473755126953124,1.0895940065383911,1.0553250312805176,-1.6748608350753784
1772731954275783400,8.483783447265624,1.5525273084640503,0.8894873261451721,-2.6141982078552246
1772731954285811200,8.493811279296875,1.951919674873352,0.35681837797164917,-3.338512659072876
1772731954295839200,8.503839111328125,2.187150716781616,-0.6092643141746521,-3.359703302383423
1772731954305867300,8.5138671875,1.907896876335144,-1.7028578519821167,-2.55136775970459
1772731954315895300,8.523895263671875,0.9746273756027222,-2.445509195327759,-1.0547385215759277
1772731954325922300,8.53392236328125,-0.17048253118991852,-2.404721736907959,0.7450917363166809
1772731954335950300,8.543950439453125,-0.9130828976631165,-1.6761850118637085,2.1302881240844727
1772731954345978400,8.553978271484375,-1.139272689819336,-0.8853407502174377,2.8513782024383545
1772731954356006400,8.56400634765625,-0.9653611779212952,-0.3747885227203369,2.7370269298553467
1772731954366034200,8.5740341796875,-0.6245032548904419,-0.22602514922618866,1.9185800552368164
1772731954376062500,8.5840625,-0.32690510153770447,-0.44471171498298645,0.8773974776268005
1772731954386090200,8.59409033203125,-0.2562762498855591,-0.6772634387016296,0.14677874743938446
1772731954396118500,8.604118408203124,-0.36126765608787537,-0.7279915809631348,-0.06792529672384262
1772731954406146300,8.614146240234374,-0.45845890045166016,-0.50165194272995,0.10288883000612259
1772731954416174000,8.624174072265625,-0.43089038133621216,-0.0365668386220932,0.4707030653953552
1772731954426202400,8.634202392578125,-0.3131988048553467,0.45581454038619995,0.7961092591285706
1772731954436229000,8.64422900390625,-0.15432341396808624,0.6812226176261902,0.8362441658973694
1772731954446257400,8.65425732421875,0.005938841495662928,0.5650185942649841,0.48286041617393494
1772731954456285200,8.66428515625,0.14794018864631653,0.21781429648399353,-0.10732029378414154
1772731954466313500,8.6743134765625,0.270887553691864,-0.09185813367366791,-0.6908789873123169
1772731954476341200,8.68434130859375,0.3333192467689514,-0.2498144656419754,-1.0867799520492554
1772731954486369300,8.694369384765626,0.3021841049194336,-0.2195221185684204,-1.1105272769927979
1772731954496397300,8.704397216796876,0.09166201949119568,-0.11622689664363861,-0.6816082000732422
1772731954506425300,8.71442529296875,-0.2559751272201538,-0.13864131271839142,-0.1318996548652649
1772731954516453400,8.724453369140624,-0.5784237384796143,-0.2526315152645111,0.30447396636009216
1772731954526481400,8.7344814453125,-0.8549021482467651,-0.37477660179138184,0.5788769721984863
1772731954536509200,8.74450927734375,-1.0951049327850342,-0.5026336312294006,0.6802515387535095
1772731954546536200,8.7545361328125,-1.2278096675872803,-0.5312555432319641,0.6564079523086548
1772731954556564200,8.764564208984375,-1.2000088691711426,-0.4509735107421875,0.5656465888023376
1772731954566592300,8.77459228515625,-0.9519116878509521,-0.2719285786151886,0.3787344694137573
1772731954576620300,8.784620361328125,-0.5625439882278442,-0.12404406815767288,0.14444313943386078
1772731954586648300,8.7946484375,-0.2792620062828064,-0.059564318507909775,-0.056323423981666565
1772731954596676400,8.80467626953125,-0.20333342254161835,-0.04429934546351433,-0.1878228634595871
1772731954606704000,8.8147041015625,-0.2589392066001892,-0.047148555517196655,-0.2444048672914505
1772731954616732400,8.824732421875,-0.35672304034233093,-0.10249863564968109,-0.253534197807312
1772731954626760200,8.83476025390625,-0.4183802604675293,-0.12749610841274261,-0.19942517578601837
1772731954636788500,8.84478857421875,-0.4222783148288727,-0.08547515422105789,-0.04741620272397995
1772731954646816300,8.854816162109374,-0.3737937808036804,0.01459784246981144,0.16611646115779877
1772731954656843300,8.86484326171875,-0.26405927538871765,0.17170943319797516,0.3755927085876465
1772731954666871300,8.874871337890625,-0.07567793875932693,0.2945612967014313,0.5111542344093323
1772731954676899000,8.884899169921875,0.09162344038486481,0.33225834369659424,0.6054485440254211
1772731954686927400,8.89492724609375,0.17241458594799042,0.2620004117488861,0.6916594505310059
1772731954696955100,8.904955078125,0.15483292937278748,0.18685823678970337,0.8070608377456665
1772731954706983400,8.9149833984375,0.09415530413389206,0.14926031231880188,0.9435442686080933
1772731954717011200,8.92501123046875,0.03532688319683075,0.16923855245113373,1.061734914779663
1772731954727039200,8.935039306640626,0.018748899921774864,0.23676390945911407,1.151240587234497
1772731954737067300,8.9450673828125,0.021360129117965698,0.28480520844459534,1.2300416231155396
1772731954747095300,8.95509521484375,0.03734596073627472,0.28841903805732727,1.270035743713379
1772731954757123300,8.965123291015624,0.04680338129401207,0.2885338366031647,1.2274065017700195
1772731954767151400,8.9751513671875,0.05530644953250885,0.29807522892951965,1.0921545028686523
1772731954777178400,8.985178466796874,0.057740312069654465,0.28331199288368225,0.9492714405059814
1772731954787206100,8.9952060546875,0.09865279495716095,0.299443781375885,0.799481213092804
1772731954797234200,9.005234130859375,0.17279812693595886,0.34804990887641907,0.6863924860954285
1772731954807262200,9.01526220703125,0.20710046589374542,0.42370837926864624,0.6859319806098938
1772731954817290200,9.025290283203125,0.20789995789527893,0.5457333326339722,0.8140420317649841
1772731954827318300,9.035318359375,0.18396000564098358,0.7518671751022339,0.9104649424552917
1772731954837346300,9.04534619140625,0.14928831160068512,0.9056735634803772,0.8080613017082214
1772731954847374000,9.0553740234375,0.12420032918453217,0.9002231359481812,0.4355279207229614
1772731954857402400,9.06540234375,0.1613761931657791,0.848608672618866,-0.11823166161775589
1772731954867430100,9.07543017578125,0.29235875606536865,0.9373016953468323,-0.5998116731643677
1772731954877458400,9.08545849609375,0.4071226418018341,1.1444679498672485,-0.7484786510467529
1772731954887485200,9.095485107421876,0.4959113597869873,1.131830096244812,-0.7130886912345886
1772731954897513500,9.105513427734374,0.46426501870155334,0.6105085015296936,-0.7059156894683838
1772731954907541200,9.115541259765624,0.24052780866622925,-0.11224661767482758,-1.06327223777771
1772731954917569300,9.1255693359375,0.12509389221668243,-0.6818877458572388,-1.6095722913742065
1772731954927597300,9.135597412109375,0.11976679414510727,-1.0896722078323364,-1.6671414375305176
1772731954937625000,9.145625,0.09519753605127335,-1.174410343170166,-0.9883925318717957
1772731954947653400,9.1556533203125,-0.06834778189659119,-0.8847779035568237,0.05114214867353439
1772731954957681200,9.16568115234375,-0.2881150245666504,-0.35135042667388916,0.8814781904220581
1772731954967709200,9.175709228515625,-0.35506346821784973,0.29599928855895996,1.2018225193023682
1772731954977737200,9.1857373046875,-0.2544545829296112,0.5840821862220764,1.0569331645965576
1772731954987765200,9.19576513671875,-0.11277226358652115,0.35816293954849243,0.6476215720176697
1772731954997792300,9.205792236328126,-0.0921040028333664,0.03143700957298279,0.22613613307476044
1772731955007820300,9.2158203125,-0.19575244188308716,-0.15112562477588654,-0.0394129604101181
1772731955017848300,9.225848388671874,-0.23624473810195923,-0.25360754132270813,-0.2511310875415802
1772731955027876400,9.23587646484375,-0.10507642477750778,-0.38963866233825684,-0.4995875954627991
1772731955037904400,9.245904296875,0.04804228991270065,-0.5838265419006348,-0.7364963293075562
1772731955047932400,9.255932373046875,0.1756032407283783,-0.6556195616722107,-0.9520513415336609
1772731955057960200,9.265960205078125,0.3713279962539673,-0.616668701171875,-1.0475530624389648
1772731955067988500,9.275988525390625,0.45614105463027954,-0.4857909083366394,-0.9574177265167236
1772731955078016300,9.286016357421875,0.36226382851600647,-0.379834920167923,-0.6532048583030701
1772731955088044300,9.296044189453125,0.20037971436977386,-0.3215133249759674,-0.17045725882053375
1772731955098072300,9.306072265625,0.1053520068526268,-0.1947266310453415,0.26476582884788513
1772731955108099300,9.316099365234376,0.13145175576210022,0.019731707870960236,0.45456618070602417
1772731955118127400,9.32612744140625,0.24136067926883698,0.24131229519844055,0.37718111276626587
1772731955128155100,9.336155029296876,0.34574052691459656,0.30699923634529114,0.10166307538747787
1772731955138183400,9.346183349609374,0.4170437157154083,0.1757589429616928,-0.23351651430130005
1772731955148211200,9.356211181640624,0.4586557149887085,-0.028506502509117126,-0.4655301868915558
1772731955158239500,9.366239501953125,0.40596267580986023,-0.10070932656526566,-0.5142556428909302
1772731955168266200,9.376266357421875,0.316464900970459,-0.06719924509525299,-0.3978130519390106
1772731955178294300,9.386294189453125,0.255084365606308,0.0450306199491024,-0.23042961955070496
1772731955188322300,9.396322265625,0.22109638154506683,0.15061607956886292,-0.0678839460015297
1772731955198350000,9.40635009765625,0.22683389484882355,0.24571914970874786,-0.00045803497778251767
1772731955208378400,9.41637841796875,0.32808852195739746,0.32876673340797424,-0.008353951387107372
1772731955218406100,9.42640625,0.45511946082115173,0.3467649221420288,0.0016829707892611623
1772731955228434400,9.436434326171875,0.5626214742660522,0.30786028504371643,0.0808994472026825
1772731955238462200,9.446462158203126,0.5927641987800598,0.2939271628856659,0.20916685461997986
1772731955248490200,9.456490234375,0.5765169858932495,0.28710052371025085,0.30092373490333557
1772731955258518300,9.466518310546874,0.5077909231185913,0.25616738200187683,0.367316871881485
1772731955268546300,9.47654638671875,0.43721312284469604,0.16257640719413757,0.3729468584060669
1772731955278573300,9.4865732421875,0.41565483808517456,0.07972786575555801,0.3271729648113251
1772731955288601300,9.496601318359374,0.4262600541114807,0.04492366686463356,0.31979626417160034
1772731955298629400,9.50662939453125,0.4065888822078705,0.07392362505197525,0.3621136248111725
1772731955308657200,9.5166572265625,0.34243905544281006,0.14060339331626892,0.40044623613357544
1772731955318685200,9.526685302734375,0.3139458894729614,0.11684772372245789,0.38651975989341736
1772731955328713200,9.536713134765625,0.3170076310634613,-0.0549326054751873,0.3286118507385254
1772731955338741200,9.5467412109375,0.31237560510635376,-0.24060019850730896,0.2478802502155304
1772731955348769300,9.556769287109375,0.311286598443985,-0.2725355327129364,0.2747001647949219
1772731955358797300,9.56679736328125,0.23441284894943237,-0.25018253922462463,0.42916032671928406
1772731955368825000,9.5768251953125,0.06292784959077835,-0.2591971158981323,0.6044328808784485
1772731955378853400,9.586853271484374,-0.18243689835071564,-0.32659026980400085,0.5898595452308655
1772731955388880100,9.596880126953126,-0.39502695202827454,-0.6067891716957092,0.5195249319076538
1772731955398908400,9.606908447265624,-0.46683165431022644,-0.8989211916923523,0.35658717155456543
1772731955408936200,9.616936279296874,-0.2360159009695053,-1.0479036569595337,-0.10824345797300339
1772731955418964500,9.626964599609375,0.2937707304954529,-1.1064343452453613,-0.5395557284355164
1772731955428992300,9.6369921875,0.7638450264930725,-1.1536341905593872,-0.561998188495636
1772731955439020300,9.647020263671875,0.6881763935089111,-1.2385759353637695,-0.39128848910331726
1772731955449048300,9.65704833984375,0.26164472103118896,-1.1408849954605103,-0.3700138330459595
1772731955459076400,9.667076416015625,-0.20764978229999542,-0.9515523910522461,-0.5375732779502869
1772731955469104400,9.6771044921875,-0.3922494649887085,-0.6917543411254883,-0.5866276025772095
1772731955479132200,9.687132080078126,-0.32297059893608093,-0.5561544895172119,-0.23695260286331177
1772731955489160200,9.69716015625,-0.38587287068367004,-0.4977159798145294,0.35643723607063293
1772731955499187200,9.707187255859376,-0.6402135491371155,-0.25664594769477844,0.8481462597846985
1772731955509215200,9.71721533203125,-0.8478937745094299,0.1346331238746643,1.132180094718933
1772731955519243300,9.7272431640625,-0.7537298202514648,0.4173041880130768,1.2507879734039307
1772731955529271300,9.737271240234374,-0.46977612376213074,0.33896544575691223,1.1643348932266235
1772731955539299300,9.74729931640625,-0.2511070668697357,0.027202408760786057,0.7634339928627014
1772731955549327400,9.757327392578125,-0.13054071366786957,-0.17591875791549683,0.11954451352357864
1772731955559355100,9.767355224609375,0.008750167675316334,-0.12723584473133087,-0.5171918272972107
1772731955569383400,9.777383544921875,0.18991543352603912,0.016680844128131866,-1.0077098608016968
1772731955579411200,9.7874111328125,0.3175252079963684,0.1020585224032402,-1.526872992515564
1772731955589439500,9.797439453125,0.3970373272895813,0.18092137575149536,-1.9870749711990356
1772731955599467300,9.80746728515625,0.41434305906295776,0.22267946600914001,-2.195436954498291
1772731955609494300,9.817494384765626,0.28259381651878357,0.1806153655052185,-1.9532663822174072
1772731955619522300,9.827522216796876,-0.03514494746923447,0.11661777645349503,-1.2620993852615356
1772731955629550300,9.83755029296875,-0.42279547452926636,0.08766228705644608,-0.3785390257835388
1772731955639578400,9.847578369140624,-0.6812184453010559,0.1048910990357399,0.3272228538990021
1772731955649606100,9.857606201171874,-0.7755409479141235,0.12325731664896011,0.6302831172943115
1772731955659634400,9.867634521484375,-0.7712033987045288,0.05366016551852226,0.5154334306716919
1772731955669662200,9.877662109375,-0.6266214847564697,-0.06980078667402267,0.12644146382808685
1772731955679690200,9.887690185546875,-0.3905385136604309,-0.22117799520492554,-0.2579346001148224
1772731955689719000,9.897718994140625,-0.18991433084011078,-0.35692355036735535,-0.4907798171043396
1772731955699746800,9.907746826171875,-0.07696233689785004,-0.38010966777801514,-0.5634626150131226
1772731955709774800,9.91777490234375,-0.048855073750019073,-0.28578129410743713,-0.46595582365989685
1772731955719801900,9.9278017578125,-0.09123348444700241,-0.14513778686523438,-0.24336206912994385
1772731955729830000,9.937829833984376,-0.16159045696258545,-0.04931539297103882,0.04062385484576225
1772731955739858000,9.94785791015625,-0.20938466489315033,-0.01154566090553999,0.3065112233161926
1772731955749885700,9.9578857421875,-0.23713479936122894,0.007610723376274109,0.5121580958366394
1772731955759914000,9.9679140625,-0.26956450939178467,0.07560808956623077,0.7009766101837158
1772731955769941800,9.977941650390624,-0.3113282024860382,0.09504464268684387,0.7952365279197693
1772731955779970000,9.987969970703125,-0.3373025357723236,0.06939573585987091,0.8085009455680847
1772731955789997800,9.997997802734375,-0.2954930365085602,0.06387127190828323,0.8120003342628479
1772731955800025900,10.00802587890625,-0.21393530070781708,0.07019522041082382,0.8020033836364746
1772731955810054000,10.018053955078125,-0.14594639837741852,0.09023364633321762,0.8467207551002502
1772731955820082000,10.02808203125,-0.11790335178375244,0.0641956478357315,0.8661383986473083
1772731955830109000,10.03810888671875,-0.12752987444400787,0.01811896823346615,0.8401792645454407
1772731955840136700,10.04813671875,-0.14313100278377533,-0.0021546471398323774,0.8029909133911133
1772731955850165000,10.0581650390625,-0.13236171007156372,0.005300072953104973,0.8142366409301758
1772731955860192800,10.06819287109375,-0.13831008970737457,0.01231780368834734,0.9146686792373657
1772731955870220800,10.078220703125,-0.13964593410491943,0.0928371474146843,1.013257622718811
1772731955880248800,10.088248779296874,-0.11233733594417572,0.2342119812965393,1.038438320159912
1772731955890276900,10.09827685546875,-0.10784432291984558,0.3153499662876129,0.9666000604629517
1772731955900305000,10.108304931640625,-0.14755716919898987,0.39153286814689636,0.8040415644645691
1772731955910333000,10.1183330078125,-0.2104320079088211,0.543655276298523,0.7094090580940247
1772731955920360700,10.128360595703125,-0.307556688785553,0.7773789763450623,0.6946892142295837
1772731955930389000,10.138388916015625,-0.38944196701049805,1.100821852684021,0.5954830050468445
1772731955940416800,10.148416748046875,-0.25733599066734314,1.5031393766403198,0.2259037345647812
1772731955950444000,10.158444091796875,0.1538318544626236,1.6763287782669067,-0.3562374711036682
1772731955960471800,10.168471923828125,0.8264032602310181,1.4774730205535889,-1.184313178062439
1772731955970499800,10.178499755859375,1.557153344154358,0.7064381241798401,-1.8087410926818848
1772731955980527900,10.18852783203125,1.8881367444992065,-0.36921241879463196,-1.9146058559417725
1772731955990555600,10.1985556640625,1.6836479902267456,-1.0325016975402832,-1.881304383277893
1772731956000584000,10.208583984375,1.170314908027649,-0.9995485544204712,-1.8675270080566406
1772731956010611700,10.21861181640625,0.7339885234832764,-0.8511947989463806,-1.6056797504425049
1772731956020640000,10.228639892578125,0.5372435450553894,-1.0265676975250244,-0.9968383312225342
1772731956030667800,10.238667724609375,0.5385964512825012,-1.1966896057128906,-0.32359305024147034
1772731956040695800,10.24869580078125,0.4965376555919647,-1.061193823814392,0.1975572407245636
1772731956050723800,10.258723876953125,0.3976619243621826,-0.6774616241455078,0.37940213084220886
1772731956060750800,10.268750732421875,0.38487663865089417,-0.3558214008808136,0.32017427682876587
1772731956070779000,10.27877880859375,0.4712432324886322,-0.33356642723083496,0.20879898965358734
1772731956080807000,10.288806884765625,0.5269293189048767,-0.526748776435852,0.08804326504468918
1772731956090835000,10.2988349609375,0.4109047055244446,-0.5963869690895081,0.1019420325756073
1772731956100863000,10.308863037109376,0.14355479180812836,-0.48506325483322144,0.15754060447216034
1772731956110890800,10.318890869140626,-0.10281051695346832,-0.3089931607246399,0.12839922308921814
1772731956120918800,10.328918701171874,-0.2727276086807251,-0.17586515843868256,0.0733734518289566
1772731956130946800,10.33894677734375,-0.35791945457458496,-0.13271689414978027,-0.035231586545705795
1772731956140974800,10.348974853515625,-0.3217115104198456,-0.21937358379364014,-0.22873589396476746
1772731956151003000,10.3590029296875,-0.22940877079963684,-0.3704642951488495,-0.44266894459724426
1772731956161030700,10.36903076171875,-0.1640690714120865,-0.5362219214439392,-0.649002730846405
1772731956171058000,10.379057861328125,-0.12258315086364746,-0.6201549172401428,-0.7844937443733215
1772731956181086000,10.3890859375,-0.14511166512966156,-0.5677728056907654,-0.7715899348258972
1772731956191114000,10.399114013671875,-0.29976728558540344,-0.4128058850765228,-0.45658111572265625
1772731956201141800,10.409141845703125,-0.4778081178665161,-0.17304599285125732,-0.06732470542192459
1772731956211170000,10.419170166015626,-0.555140495300293,0.07653746753931046,0.2019437998533249
1772731956221197800,10.42919775390625,-0.6078714728355408,0.20783697068691254,0.2939974069595337
1772731956231225900,10.439225830078126,-0.6929392218589783,0.17061157524585724,0.19809244573116302
1772731956241254000,10.44925390625,-0.7429033517837524,0.11123926937580109,0.007094104308634996
1772731956251282000,10.459281982421874,-0.6774681806564331,0.04152410849928856,-0.18377065658569336
1772731956261310000,10.46931005859375,-0.5665192604064941,-0.06653323024511337,-0.33766067028045654
1772731956271338000,10.479337890625,-0.46143144369125366,-0.11391805112361908,-0.40803444385528564
1772731956281365000,10.489364990234375,-0.3670485317707062,-0.06167696788907051,-0.3415030539035797
1772731956291392800,10.499392822265625,-0.31490063667297363,0.020894872024655342,-0.19075161218643188
1772731956301420800,10.5094208984375,-0.3272971212863922,0.10950997471809387,0.010932731442153454
1772731956311448800,10.51944873046875,-0.3374711871147156,0.17016054689884186,0.17302896082401276
1772731956321476900,10.529476806640625,-0.3059861361980438,0.18182547390460968,0.2987934648990631
1772731956331505000,10.5395048828125,-0.24507537484169006,0.1816454529762268,0.42905959486961365
1772731956341533000,10.549532958984376,-0.1687123328447342,0.20711824297904968,0.5615856051445007
1772731956351560700,10.559560791015626,-0.09014242887496948,0.2784683406352997,0.6689413189888
1772731956361589000,10.569589111328124,0.014122001826763153,0.35169410705566406,0.6869309544563293
1772731956371616800,10.57961669921875,0.11773601174354553,0.32800528407096863,0.6103368401527405
1772731956381645000,10.58964501953125,0.2000400424003601,0.2262950986623764,0.48791199922561646
1772731956391671800,10.599671875,0.2300775647163391,0.1701873540878296,0.41139671206474304
1772731956401699800,10.609699951171875,0.23440273106098175,0.1885857731103897,0.44058340787887573
1772731956411728000,10.619727783203125,0.1957693248987198,0.3125593662261963,0.6157374382019043
1772731956421756000,10.629755859375,0.10020960867404938,0.471680223941803,0.8042246699333191
1772731956431784000,10.639783935546875,0.0065417103469371796,0.4718290865421295,0.8519264459609985
1772731956441811700,10.649811767578125,-0.06009970232844353,0.19297239184379578,0.7206355929374695
1772731956451840000,10.659840087890625,-0.05824827030301094,-0.2226937860250473,0.40345948934555054
1772731956461867800,10.66986767578125,-0.03199746459722519,-0.6171625256538391,0.1364372968673706
1772731956471895800,10.679895751953126,0.011605937033891678,-0.7016576528549194,0.07253260165452957
1772731956481923800,10.689923828125,0.020029887557029724,-0.24888484179973602,0.015243412926793098
1772731956491951900,10.699951904296874,0.07218869775533676,0.574490487575531,-0.2274765521287918
1772731956501979000,10.709978759765624,0.3550679087638855,1.285541296005249,-0.8594554662704468
1772731956512006700,10.720006591796874,0.8888905644416809,1.4863392114639282,-1.8843461275100708
1772731956522035000,10.730034912109375,1.2480008602142334,1.1662266254425049,-2.7811851501464844
1772731956532062700,10.740062744140625,1.0624998807907104,0.4776868224143982,-2.92344069480896
1772731956542091000,10.750091064453125,0.3216257691383362,-0.16636954247951508,-2.050712823867798
1772731956552118800,10.760118896484375,-0.4132634103298187,-0.5160133242607117,-0.4766254723072052
1772731956562146800,10.770146728515625,-0.8473113179206848,-0.6359097957611084,0.9110878705978394
1772731956572174800,10.7801748046875,-0.8844453692436218,-0.4436790645122528,1.465271234512329
1772731956582203000,10.790202880859376,-0.6383693218231201,0.15491712093353271,1.204991340637207
1772731956592231000,10.80023095703125,-0.35630831122398376,0.6644578576087952,0.4896162450313568
1772731956602259000,10.810259033203126,-0.14583297073841095,0.7920539379119873,-0.1606060415506363
1772731956612286700,10.82028662109375,-0.042221635580062866,0.5907397270202637,-0.42846783995628357
1772731956622314000,10.83031396484375,-0.042848240584135056,0.29216158390045166,-0.3653280735015869
1772731956632341800,10.840341796875,-0.13413900136947632,0.10397037118673325,-0.1819813996553421
1772731956642370000,10.8503701171875,-0.2776976227760315,0.0832357257604599,-0.008777515962719917
1772731956652397800,10.860397705078125,-0.4167817533016205,0.1861911416053772,0.09466738253831863
1772731956662425900,10.87042578125,-0.460611492395401,0.30075329542160034,0.11188356578350067
1772731956672454000,10.880453857421875,-0.42859840393066406,0.34274229407310486,0.06869987398386002
1772731956682481700,10.890481689453125,-0.38811585307121277,0.21487027406692505,-0.019970962777733803
1772731956692509000,10.900509033203125,-0.3883451521396637,-0.06512729078531265,-0.1683548390865326
1772731956702537000,10.910536865234375,-0.4167197048664093,-0.344132661819458,-0.2989869713783264
1772731956712565000,10.92056494140625,-0.4278426468372345,-0.5329726338386536,-0.3445286452770233
1772731956722592000,10.930592041015625,-0.38563859462738037,-0.5887309908866882,-0.32944998145103455
1772731956732620000,10.9406201171875,-0.3115382492542267,-0.5465526580810547,-0.2861107885837555
1772731956742648000,10.95064794921875,-0.23933562636375427,-0.4794866442680359,-0.2299993634223938
1772731956752676000,10.960676025390624,-0.21575094759464264,-0.45675230026245117,-0.1904333084821701
1772731956762704100,10.9707041015625,-0.22822707891464233,-0.4740068018436432,-0.22087931632995605
1772731956772732000,10.98073193359375,-0.23482906818389893,-0.44846975803375244,-0.29565155506134033
1772731956782760200,10.99076025390625,-0.22128283977508545,-0.39816123247146606,-0.3462139070034027
1772731956792788000,11.0007880859375,-0.20186012983322144,-0.3300860524177551,-0.36484432220458984
1772731956802816300,11.010816162109375,-0.17787547409534454,-0.2342347949743271,-0.3216469883918762
1772731956812844000,11.020843994140625,-0.15322205424308777,-0.12738211452960968,-0.198377788066864
1772731956822871800,11.030871826171875,-0.10236077010631561,-0.012457404285669327,-0.061476364731788635
1772731956832900000,11.040900146484375,-0.06363068521022797,0.05847402662038803,0.03068125993013382
1772731956842927000,11.050927001953125,-0.02961156517267227,0.08145252615213394,0.07576601952314377
1772731956852955100,11.060955078125,0.02774999476969242,0.11675459146499634,0.08840484917163849
1772731956862983000,11.07098291015625,0.10953762382268906,0.16330525279045105,0.1224880963563919
1772731956873011200,11.08101123046875,0.18934057652950287,0.21173962950706482,0.23377840220928192
1772731956883039000,11.0910390625,0.22936390340328217,0.25304657220840454,0.4184950590133667
1772731956893067000,11.10106689453125,0.24146664142608643,0.2553107738494873,0.6193490624427795
1772731956903095000,11.111094970703125,0.23193088173866272,0.2199477255344391,0.7844997048377991
1772731956913123000,11.121123046875,0.2285742461681366,0.22411371767520905,0.8794251084327698
1772731956923151000,11.131151123046875,0.23274339735507965,0.2334912270307541,0.9587764143943787
1772731956933179100,11.14117919921875,0.21747443079948425,0.19552865624427795,1.0352336168289185
1772731956943207000,11.15120703125,0.17639698088169098,0.05423915758728981,0.9801874756813049
1772731956953234000,11.16123388671875,0.1490844041109085,-0.08700239658355713,0.8273292183876038
1772731956963262200,11.17126220703125,0.19189737737178802,-0.10304687172174454,0.672340452671051
1772731956973290000,11.1812900390625,0.2968544363975525,0.008863418363034725,0.6122246384620667
1772731956983318000,11.191318115234376,0.2802247703075409,0.2902953326702118,0.836188018321991
1772731956993346000,11.201345947265626,0.15966135263442993,0.5833093523979187,1.2482962608337402
1772731957003374000,11.2113740234375,0.17253424227237701,0.8118096590042114,1.584175705909729
1772731957013402000,11.221402099609374,0.31979691982269287,0.9560645818710327,1.5732753276824951
1772731957023430100,11.23143017578125,0.427129328250885,1.059016466140747,0.9488791227340698
1772731957033458000,11.2414580078125,0.6636127233505249,1.1682857275009155,-0.15128789842128754
1772731957043486200,11.251486328125,0.8371505737304688,0.7913068532943726,-1.0202714204788208
1772731957053514000,11.261513916015625,0.9254572987556458,0.21854588389396667,-1.5873075723648071
1772731957063541000,11.271541015625,0.8184213042259216,-0.20556043088436127,-1.8498215675354004
1772731957073569000,11.281569091796875,0.5734065175056458,-0.3195141553878784,-1.6926662921905518
1772731957083597000,11.29159716796875,0.39656302332878113,-0.5255011320114136,-1.217512845993042
1772731957093625000,11.301625,0.20992283523082733,-0.8409706354141235,-0.7756860852241516
1772731957103652900,11.31165283203125,0.05123165249824524,-0.9824065566062927,-0.25630518794059753
1772731957113681200,11.32168115234375,-0.18269029259681702,-0.8487765789031982,0.3520497679710388
1772731957123709000,11.331708984375,-0.35200244188308716,-0.4394097328186035,0.7691978216171265
1772731957133737000,11.341737060546874,-0.30186283588409424,-0.13967226445674896,0.8441668748855591
1772731957143765000,11.351764892578124,-0.0812123492360115,-0.14750589430332184,0.678877592086792
1772731957153793000,11.36179296875,0.04542708769440651,-0.36002135276794434,0.39174726605415344
1772731957163821000,11.371821044921875,-0.011765886098146439,-0.5060842633247375,0.04048837348818779
1772731957173848000,11.38184814453125,-0.13019666075706482,-0.5149291753768921,-0.28857898712158203
1772731957183876000,11.3918759765625,-0.16041162610054016,-0.4273209273815155,-0.61965411901474
1772731957193903900,11.40190380859375,-0.019277136772871017,-0.28955188393592834,-0.9693231582641602
1772731957203932200,11.41193212890625,0.1787043660879135,-0.19880683720111847,-1.340120553970337
1772731957213960000,11.4219599609375,0.28964391350746155,-0.20064467191696167,-1.6173090934753418
1772731957223988000,11.431988037109376,0.11838534474372864,-0.11136632412672043,-1.451966404914856
1772731957234016000,11.44201611328125,-0.17845511436462402,0.06838586181402206,-0.9378424286842346
1772731957244044000,11.4520439453125,-0.41838714480400085,0.2130817323923111,-0.4621095657348633
1772731957254072000,11.462072021484374,-0.6155303120613098,0.3573528826236725,-0.18263264000415802
1772731957264100000,11.47210009765625,-0.7407929301261902,0.41247472167015076,-0.09028910100460052
1772731957274128000,11.4821279296875,-0.6747119426727295,0.3702348470687866,-0.10958769917488098
1772731957284155100,11.492155029296875,-0.41983264684677124,0.3007584810256958,-0.13513416051864624
1772731957294183000,11.502182861328125,-0.16711995005607605,0.18219907581806183,-0.08491679280996323
1772731957304211200,11.512211181640625,-0.048171333968639374,0.0337340384721756,0.04948188364505768
1772731957314239000,11.522239013671875,-0.03486165404319763,-0.06982750445604324,0.2671063542366028
1772731957324267300,11.532267333984375,-0.05339119955897331,-0.12934531271457672,0.47291842103004456
1772731957334295000,11.542294921875,-0.058886099606752396,-0.1550123244524002,0.6409478783607483
1772731957344322800,11.55232275390625,-0.051243092864751816,-0.15694178640842438,0.792483389377594
1772731957354351000,11.56235107421875,-0.032642513513565063,-0.12759828567504883,0.946412980556488
1772731957364379000,11.57237890625,0.01385225635021925,-0.05562997981905937,1.077513575553894
1772731957374407200,11.5824072265625,0.06365896761417389,-0.004249079618602991,1.19485342502594
1772731957384435000,11.59243505859375,0.08769898116588593,-0.06284105777740479,1.2493053674697876
1772731957394462200,11.602462158203124,0.10099135339260101,-0.19199717044830322,1.2477591037750244
1772731957404490000,11.612489990234375,0.09806763380765915,-0.259395956993103,1.2657604217529297
1772731957414518000,11.62251806640625,0.11527831107378006,-0.19761410355567932,1.3308045864105225
1772731957424546000,11.632546142578125,0.13749758899211884,-0.03913230076432228,1.4426608085632324
1772731957434574000,11.642573974609375,0.09714404493570328,0.10483179241418839,1.5816956758499146
1772731957444602000,11.65260205078125,0.04181404784321785,0.17066238820552826,1.6204692125320435
1772731957454630100,11.662630126953125,0.01452490035444498,0.1052146628499031,1.5310698747634888
1772731957464658000,11.672657958984376,0.030313987284898758,0.04269895330071449,1.3529607057571411
1772731957474686200,11.682686279296876,0.16878852248191833,0.10290530323982239,1.1926138401031494
1772731957484714000,11.6927138671875,0.31532469391822815,0.3336721956729889,1.046090006828308
1772731957494742300,11.7027421875,0.35893741250038147,0.6885200142860413,0.7795581221580505
1772731957504769000,11.71276904296875,0.317251592874527,1.0550785064697266,0.1596374660730362
1772731957514797000,11.722797119140624,0.3057318329811096,1.2139707803726196,-0.8131029009819031
1772731957524825000,11.7328251953125,0.4876960515975952,0.9655335545539856,-1.775097370147705
1772731957534852900,11.742852783203125,0.7352637648582458,0.6409602761268616,-2.2906525135040283
1772731957544881200,11.752881103515625,0.9442430138587952,0.6056380867958069,-2.2382545471191406
1772731957554909000,11.762908935546875,0.9307416081428528,0.6659983992576599,-1.7750190496444702
1772731957564937200,11.772937255859375,0.6376104354858398,0.4911721646785736,-1.1501370668411255
1772731957574965000,11.782965087890625,0.34750163555145264,0.2227015346288681,-0.6960644721984863
1772731957584993000,11.792992919921875,0.28678497672080994,0.047180287539958954,-0.44402438402175903
1772731957595021000,11.80302099609375,0.3352518379688263,-0.04389875382184982,-0.2182234823703766
1772731957605049000,11.813049072265626,0.3124121129512787,0.07455241680145264,-0.11017829924821854
1772731957615076000,11.823076171875,0.13241279125213623,0.20518766343593597,-0.1227492168545723
1772731957625104000,11.833103759765624,-0.07492858171463013,0.14721137285232544,-0.18405237793922424
1772731957635132200,11.843132080078124,-0.11916635185480118,0.027001872658729553,-0.1990680694580078
1772731957645160000,11.853159912109374,-0.11535410583019257,0.03044557012617588,-0.03596004843711853
1772731957655188000,11.86318798828125,-0.2206038236618042,0.34786853194236755,0.35949674248695374
1772731957665216000,11.873216064453125,-0.37569624185562134,0.828313410282135,0.8239400386810303
1772731957675244000,11.883244140625,-0.47429126501083374,0.9269846081733704,0.9112829566001892
1772731957685272000,11.89327197265625,-0.4235505163669586,0.591147243976593,0.4829520583152771
1772731957695299800,11.9032998046875,-0.22791123390197754,0.296236515045166,-0.12162305414676666
1772731957705327900,11.913327880859375,0.04825696349143982,0.36670270562171936,-0.5446728467941284
1772731957715356000,11.92335595703125,0.3019275963306427,0.7223260402679443,-0.6635534167289734
1772731957725383000,11.9333828125,0.4432598352432251,1.1217626333236694,-0.47701963782310486
1772731957735411000,11.943410888671876,0.4330684542655945,1.3610678911209106,-0.12742704153060913
1772731957745438700,11.953438720703126,0.38411790132522583,1.3148102760314941,0.15349704027175903
1772731957755467000,11.963467041015624,0.41335543990135193,1.4084690809249878,0.17338207364082336
1772731957765494800,11.973494873046874,0.22111888229846954,0.7950820922851562,0.1477089375257492
1772731957775523000,11.983523193359375,-0.002862013876438141,0.14446811378002167,-0.5389119982719421
1772731957785550800,11.99355078125,0.09983144700527191,-0.4738832414150238,-0.38939186930656433
1772731957795579000,12.003578857421875,0.2241257131099701,-0.6772968173027039,-0.3913615345954895
1772731957805607000,12.01360693359375,0.35661059617996216,-0.6182975769042969,-0.19919943809509277
1772731957815635000,12.023635009765625,0.4908410906791687,-0.41578683257102966,0.32440653443336487
1772731957825663000,12.0336630859375,0.4668945074081421,-0.08950889110565186,0.553954541683197
1772731957835690000,12.04368994140625,0.37126094102859497,0.17939715087413788,0.5678003430366516
1772731957845718000,12.053718017578126,0.2137306034564972,0.2743460237979889,0.5528573393821716
1772731957855745800,12.063745849609376,0.0972553938627243,0.2646883428096771,0.48155999183654785
1772731957865773800,12.07377392578125,0.08495382219552994,0.21225617825984955,0.3631906509399414
1772731957875801900,12.0838017578125,0.09591246396303177,0.27668899297714233,0.3335363566875458
1772731957885830000,12.093829833984374,0.15664303302764893,0.31436607241630554,0.35754066705703735
1772731957895858000,12.10385791015625,0.2349916249513626,0.22083507478237152,0.4143109917640686
1772731957905886000,12.113885986328125,0.2153269201517105,0.04124843329191208,0.4864397346973419
1772731957915913700,12.123913818359375,0.12578824162483215,-0.07741456478834152,0.47718870639801025
1772731957925942000,12.13394189453125,0.06594395637512207,-0.13658128678798676,0.4670134484767914
1772731957935969800,12.1439697265625,0.0332171656191349,-0.2313821017742157,0.48484012484550476
1772731957945997000,12.1539970703125,0.01849697157740593,-0.45771849155426025,0.41891923546791077
1772731957956024800,12.16402490234375,-0.020817676559090614,-0.4706833064556122,0.4788646101951599
1772731957966053000,12.17405322265625,-0.06819847226142883,-0.15838328003883362,0.7426381707191467
1772731957976081000,12.184080810546876,-0.07266299426555634,0.04532616212964058,0.8774601817131042
1772731957986109000,12.19410888671875,-0.09642394632101059,-0.12153977155685425,0.6942314505577087
1772731957996137000,12.204136962890624,-0.15686172246932983,-0.320119708776474,0.419956237077713
1772731958006165000,12.2141650390625,-0.2053278684616089,-0.42848989367485046,0.2608545124530792
1772731958016193000,12.224193115234375,-0.18572913110256195,-0.41271358728408813,0.21470887959003448
1772731958026220800,12.234220703125,-0.0537843219935894,-0.3370416760444641,0.23341263830661774
1772731958036248800,12.244248779296875,0.08245287835597992,-0.3644093871116638,0.21439287066459656
1772731958046276900,12.25427685546875,0.14700648188591003,-0.5415866374969482,0.04237625375390053
1772731958056303900,12.264303955078125,0.1024552658200264,-0.6876636743545532,-0.12736964225769043
1772731958066332000,12.274331787109375,0.03333703801035881,-0.6869314908981323,-0.19594672322273254
1772731958076360000,12.28435986328125,0.022653236985206604,-0.6751997470855713,-0.13056451082229614
1772731958086388000,12.294387939453125,0.022069431841373444,-0.6182504892349243,-0.020887818187475204
1772731958096416000,12.304416015625,0.006869705393910408,-0.4581124186515808,0.025684744119644165
1772731958106443800,12.31444384765625,-0.044139210134744644,-0.35196301341056824,-0.05991661921143532
1772731958116472000,12.32447216796875,-0.03787412494421005,-0.36638107895851135,-0.2769967317581177
1772731958126499800,12.334499755859374,0.11660097539424896,-0.41569018363952637,-0.4860663414001465
1772731958136528100,12.344528076171875,0.22228053212165833,-0.3790200352668762,-0.553564727306366
1772731958146556000,12.354555908203125,0.1987663060426712,-0.3351498246192932,-0.5034921765327454
1772731958156584000,12.364583984375,0.14168411493301392,-0.2847990393638611,-0.4878154695034027
1772731958166611000,12.37461083984375,0.1139039546251297,-0.28092890977859497,-0.5530301332473755
1772731958176638700,12.384638671875,0.12468310445547104,-0.29610735177993774,-0.6658840179443359
1772731958186667000,12.3946669921875,0.12161307036876678,-0.2971005141735077,-0.7083106637001038
1772731958196694800,12.40469482421875,0.06021229177713394,-0.3209344744682312,-0.7558048963546753
1772731958206723000,12.41472314453125,0.02330048754811287,-0.3305225968360901,-0.8046327829360962
1772731958216750800,12.424750732421876,0.07569072395563126,-0.3692055642604828,-0.8368556499481201
1772731958226779000,12.43477880859375,0.13556766510009766,-0.3638162314891815,-0.8050453662872314
1772731958236807000,12.444806884765624,0.12634913623332977,-0.25602585077285767,-0.6042630076408386
1772731958246835000,12.4548349609375,0.09762189537286758,-0.08787478506565094,-0.3415341377258301
1772731958256863000,12.464863037109374,0.0723855122923851,0.028949303552508354,-0.09938167780637741
1772731958266891000,12.47489111328125,0.06748759001493454,0.14176781475543976,0.07868001610040665
1772731958276918000,12.48491796875,0.08420930802822113,0.1910112500190735,0.1779554784297943
1772731958286945800,12.49494580078125,0.08480898290872574,0.19799897074699402,0.234138622879982
1772731958296973800,12.504973876953125,0.07079996168613434,0.15913067758083344,0.2575717866420746
1772731958307001900,12.515001953125,0.048531368374824524,0.05887822434306145,0.20928390324115753
