time,seconds_elapsed,z,y,x
1772732197667873000,0.079873046875,0.3252782483041286,-0.0550818357527256,-0.11163206355758011
1772732197677901300,0.0899013671875,0.5492477472096682,0.19486235462576149,0.11143325304985045
1772732197687929000,0.09992919921875,0.6081348204642534,0.42479602263271804,0.13876476595923304
1772732197697957400,0.109957275390625,0.4900730891853571,0.5000315886199475,0.31443332142382857
1772732197707984100,0.119984130859375,0.26367840895950795,0.3729942314639687,0.41705139985531564
1772732197718012400,0.130012451171875,-0.14577566763460637,0.3012421236783266,0.5044529121935367
1772732197728040200,0.140040283203125,-0.3964923036903143,0.28859263159409165,0.28928404792435464
1772732197738068200,0.150068115234375,-0.27910101901888845,0.10523439840972423,-0.11203275331296025
1772732197748095200,0.16009521484375,-0.02348667404949665,0.37604762768521904,0.2758499082684517
1772732197758123300,0.170123291015625,0.4284311642646789,0.5169656261555851,0.5159800491843373
1772732197768151300,0.1801513671875,0.7473977452039718,0.38761180875077844,0.5031379571374506
1772732197778179000,0.190178955078125,0.8967354892343282,0.3877997325383126,0.5068929988220334
1772732197788206000,0.2002060546875,0.6804799257069826,0.5406979455292225,0.70626603580527
1772732197798234000,0.210234130859375,0.3732581430971622,0.5538201696917414,0.7506674875896424
1772732197808262100,0.22026220703125,0.10704290913641452,0.3994258729241788,0.9232518863685428
1772732197818290200,0.230290283203125,-0.2526519880324602,0.2111994491815567,0.832071440013498
1772732197828317200,0.240317138671875,-0.790424986025691,0.07365984110310674,0.3615597411926836
1772732197838345200,0.25034521484375,-0.9947013579457997,0.13197539808005093,0.20584778595529496
1772732197848373200,0.260373291015625,-0.74454761646986,0.21369813412949443,0.39968883470930155
1772732197858401300,0.2704013671875,-0.6722521955877542,0.14400778117924928,0.588974485181272
1772732197868429000,0.280428955078125,-0.6977683296382426,0.21808087925836442,0.38759098515845836
1772732197878456000,0.2904560546875,-0.5283177719056606,0.68011167691648,-0.079943962873891
1772732197888484400,0.300484375,-0.16184358986020086,0.713427232671529,0.1190735386699438
1772732197898512100,0.31051220703125,0.2280833639651537,0.47886458968967194,0.3258539293002337
1772732197908540200,0.3205400390625,0.48824704280197617,0.42315147029608485,0.3403106169369072
1772732197918567200,0.330567138671875,0.19315818105638027,-0.12108034844771026,-0.32570926013253626
1772732197928595500,0.340595458984375,0.7945739223986864,-0.3862862592354417,-0.8439124652590602
1772732197938623700,0.350623779296875,0.9965624756425618,-0.9554651799701154,-1.7892627131238579
1772732197948651500,0.360651611328125,-0.14884849920868873,-1.3973752728804945,-2.364178570075333
1772732197958678500,0.370678466796875,-0.13678513644933699,-1.4905603370562195,-2.0739241427488624
1772732197968706600,0.38070654296875,0.18972177686691283,-1.2282030936978756,-1.0843528411678969
1772732197978734600,0.390734619140625,0.2239128002822399,-0.5707713044926523,-0.3587085164800286
1772732197988762600,0.4007626953125,0.08706278190314769,0.5663021962545812,0.5582445620052516
1772732197998789600,0.41078955078125,0.047133507096767426,1.3061312597699462,1.3198343525603413
1772732198008817700,0.420817626953125,-0.1005558852046728,0.8704561157263815,1.6273659317716955
1772732198018845400,0.430845458984375,-0.45213644950091836,-0.12858736307695506,1.6585181720130144
1772732198028873700,0.440873779296875,-0.8004366769522429,0.1673378033623099,0.7117110764034092
1772732198038900700,0.450900634765625,-0.8506839321553706,0.6556076425179839,0.14676924524921922
1772732198048928500,0.460928466796875,-0.07979191411733627,1.2438652116015552,0.2320969104554504
1772732198058956500,0.47095654296875,1.322781804189086,1.854394233725965,0.4292559611836448
1772732198068984600,0.480984619140625,1.9498609790980814,2.2364280962139365,0.6146910371746868
1772732198079011600,0.491011474609375,1.9098340891361236,2.3426456604421135,0.6323515623539686
1772732198089039600,0.50103955078125,1.4299007011711597,2.1789377380147577,0.3549699144735932
1772732198099067600,0.511067626953125,0.7598737804174422,1.6184358986020086,-0.14913301523849368
1772732198109095700,0.521095703125,0.03321019568443298,0.8952636631160974,-0.5907221690988168
1772732198119123700,0.531123779296875,0.22092472438216207,0.32720629375725985,-0.7231987581666559
1772732198129150700,0.541150634765625,1.803472148001194,0.3004652940869331,-1.0292689595885574
1772732198139178500,0.551178466796875,4.013604942485689,0.44828971094489095,-1.2181674373738467
1772732198149206500,0.56120654296875,4.234956367847323,0.4013850441679358,-1.4874853135250508
1772732198159234600,0.571234619140625,3.0198277136474845,0.27264263665974137,-1.3390624923825263
1772732198169261600,0.581261474609375,3.1398312266439197,-0.10699439381957053,0.066714990401268
1772732198179289600,0.59128955078125,0.9222726660728454,-2.183899159814417,-0.09748042328208684
1772732198189317600,0.601317626953125,-0.2797106753498316,-1.6507517757952213,-1.4131781144291162
1772732198199345700,0.611345703125,-2.5553742188870907,-1.073846206331253,0.34459808499775824
1772732198209372400,0.621372314453125,-1.7214613887906074,-2.0010627585470675,-2.1936694432005286
1772732198219400700,0.631400634765625,-0.33022681062221526,-1.4983800708964465,-2.5498463953763246
1772732198229428500,0.641428466796875,-0.4218482787430286,-0.18836100990772245,-1.6084299067638814
1772732198239456800,0.651456787109375,-1.1342506984114646,1.5009025751113891,0.2601417957985774
1772732198249483500,0.6614833984375,-0.8769020769953727,0.6874360284551978,-0.11107092254348098
1772732198259511800,0.67151171875,-0.7288976273953914,-0.5249620317369699,-0.24061686498690396
1772732198269539600,0.68153955078125,-0.7951333098471164,-1.1412867345280944,-0.33415976615697146
1772732198279567400,0.6915673828125,-0.31501170583367344,-1.075318763101846,-0.8803510484054684
1772732198289594600,0.7015947265625,-0.04933247844576835,0.06932473450824618,0.15930691098943353
1772732198299622700,0.71162255859375,-0.262055776193738,0.16555428094640373,0.49559850154332813
1772732198309650700,0.721650634765625,-0.2181657810628414,-0.1575260189220309,1.1139440426375715
1772732198319678500,0.731678466796875,-0.39917409012019633,-0.7900299953587353,1.5603934594780207
1772732198329706800,0.741706787109375,-0.5214642527490854,-1.6538307448491454,1.018118912281841
1772732198339733500,0.7517333984375,0.009498480707406998,-1.9831069767482579,0.788355267079547
1772732198349761500,0.761761474609375,0.6412877330034971,-1.8590302229635416,1.3678770834565162
1772732198359789600,0.77178955078125,1.4772148255318402,-1.621172483959049,1.444593389520794
1772732198369817600,0.781817626953125,1.9755659137189387,-1.1171782753184436,1.025781555864215
1772732198379844600,0.7918447265625,1.7521634010463951,-0.6829873784832656,1.1931684590652585
1772732198389872600,0.80187255859375,2.032453337588906,-0.6011126667425036,0.77622490349859
1772732198399900700,0.811900634765625,2.2824486736327407,-0.363396382035315,0.6696960813641548
1772732198409928400,0.821928466796875,2.4242963541686535,-0.4396491622410714,0.8812086150828748
1772732198419955500,0.83195556640625,2.4134254160642623,-0.6021960780650377,0.9586700404260307
1772732198429983500,0.8419833984375,3.016671295443177,-0.7413667944766581,0.71918828041628
1772732198440011500,0.852011474609375,4.0228205145984886,-0.5871937392443418,-0.255380134354718
1772732198450039600,0.86203955078125,4.69194551807642,-0.4262057433001697,-1.1833770598258821
1772732198460066600,0.872066650390625,5.523920658108592,0.10474281550049781,-1.6073156619116662
1772732198470094600,0.882094482421875,6.230643863096833,0.7058594277657568,-1.7978697979494929
1772732198480122600,0.89212255859375,6.521375114154815,1.5231003783941268,-1.0264539021678267
1772732198490150700,0.902150634765625,6.725137106812,1.9107406825870275,-0.6219743991158903
1772732198500178700,0.9121787109375,7.323755910912156,1.1354087824054062,-1.61300627476871
1772732198510205400,0.922205322265625,7.674691747564077,0.868082956854254,-1.9538829280905425
1772732198520233700,0.932233642578125,8.169839071273802,1.06065676215142,-2.2340582983426747
1772732198530261500,0.942261474609375,8.548512809678911,1.560440075098723,-1.9177083296425639
1772732198540289500,0.95228955078125,8.973061579552292,2.254469948861003,-1.7794816160827873
1772732198550316500,0.962316650390625,9.270885419219733,2.208358039896935,-1.1732906231626867
1772732198560344600,0.972344482421875,8.949144697391986,2.03902920884788,-0.5914335687711835
1772732198570372600,0.98237255859375,7.820811114069819,1.945383833684027,0.6285042392760515
1772732198580400600,0.992400634765625,6.379143987259268,2.2954352887168525,2.0874916264608503
1772732198590427600,1.002427734375,3.618156010368466,1.92106801533401,2.7071386055424806
1772732198600455400,1.012455322265625,0.43638650718331334,1.4081255072146652,2.5632705250948664
1772732198610483700,1.022483642578125,-2.4096277773469685,1.3858895638786255,2.625225753748417
1772732198620511500,1.032511474609375,-5.004921918690204,1.720974335926026,2.3516508046746254
1772732198630538800,1.042538818359375,-6.938941185534,2.2663849891908465,1.5247770794346929
1772732198640566500,1.05256640625,-7.465574365353584,2.8938454185023903,0.6347986632451414
1772732198650594600,1.062594482421875,-7.399297766369581,3.209649736018479,0.21848726810216904
1772732198660622600,1.07262255859375,-7.252359484696388,3.254738877806067,0.12623305503576993
1772732198670649600,1.082649658203125,-6.63578533718884,2.7986174503222108,0.27653847505450246
1772732198680677600,1.092677734375,-5.743519102323055,1.9206644029691815,0.9313269101440906
1772732198690705700,1.10270556640625,-5.135713367682695,1.2806997352629899,1.5370853568658231
1772732198700733700,1.112733642578125,-4.991785373741388,0.9302251594472676,1.8708204678699374
1772732198710760700,1.1227607421875,-5.26453790051639,0.8838950046226381,1.7492416683807968
1772732198720788500,1.13278857421875,-5.582289260447025,0.8813080568693578,1.3928195092722773
1772732198730816500,1.14281640625,-5.933361875221133,0.9419545410118997,0.9533587092101573
1772732198740844500,1.152844482421875,-6.479346236720681,0.8054777398593723,0.8003823164165019
1772732198750871600,1.16287158203125,-6.935935573977232,0.4591784769669175,0.737719816276431
1772732198760899600,1.172899658203125,-7.0816615572512145,0.18939707495719194,0.6603577596545219
1772732198770927600,1.182927734375,-7.357872115525603,0.014340513911098241,0.571531182949245
1772732198780955600,1.19295556640625,-7.639913864171504,-0.25752880028858777,0.5715189079895615
1772732198790983700,1.202983642578125,-7.675201450651883,-0.5065015152864157,0.7276552261188626
1772732198801010700,1.2130107421875,-7.677599159443378,-0.7684229975759983,0.8274298978179693
1772732198811038500,1.22303857421875,-7.813491146445274,-0.984674469450116,0.6595730390176177
1772732198821066500,1.23306640625,-8.110908743399381,-1.0404651841245591,0.4721881806656718
1772732198831094500,1.243094482421875,-8.405277474176883,-1.1017464590393007,0.34966391701996324
1772732198841121800,1.253121826171875,-8.415974809280037,-1.2519964956089853,0.28795214173346756
1772732198851149600,1.263149658203125,-8.265787170422076,-1.5772662683457135,0.060760465911030764
1772732198861177600,1.273177490234375,-8.504065180665254,-1.4736438351772725,0.013410685715079307
1772732198871205600,1.28320556640625,-8.263727315282821,-1.8577530426345765,-0.10719313126206398
1772732198881232400,1.293232421875,-8.365538753506542,-2.1577092181555924,-0.22201456544548273
1772732198891260700,1.3032607421875,-8.678647840589285,-2.4448997278667983,-0.007513152109086513
1772732198901288400,1.313288330078125,-9.387737190186977,-2.263968137307465,0.45598435710072516
1772732198911316700,1.323316650390625,-9.80668740940094,-2.440483811120689,1.0734349951818585
1772732198921343000,1.333343017578125,-9.737972185093163,-2.660843595096469,1.5097385002568364
1772732198931371000,1.34337109375,-9.892897373867035,-2.592447519740462,1.8820336435407399
1772732198941399000,1.35339892578125,-10.369500156104564,-2.316536090543121,1.9585481434226035
1772732198951427000,1.363427001953125,-10.688083290684222,-1.9659033284910021,1.861516340690851
1772732198961454000,1.3734541015625,-10.658849012893437,-1.6225111852169036,1.9649878210812806
1772732198971482000,1.383482177734375,-10.706174243170022,-1.2832254543483257,2.3458406570911405
1772732198981510100,1.39351025390625,-10.863257486760615,-0.9599281507283448,2.9034549583688376
1772732198991538000,1.403537841796875,-11.175387499678134,-0.7239110711544752,3.1869621033921836
1772732199001565000,1.41356494140625,-11.21663136421442,-0.6300592136330903,2.8921608264163137
1772732199011593200,1.42359326171875,-11.358790594917535,0.21871974341748282,2.87222132345438
1772732199021621000,1.43362109375,-11.619575036001205,0.842473080105707,2.7475442656889557
1772732199031649000,1.44364892578125,-13.915840053540467,1.896131873128563,2.538396780601144
1772732199041677000,1.453677001953125,-15.15614055839777,3.2574057589277623,2.4441854421176017
1772732199051704000,1.4637041015625,-15.702944419586657,4.304268389004469,2.4980551256015895
1772732199061732000,1.473732177734375,-16.27524980177879,4.717851528227329,2.972981499059498
1772732199071760100,1.483760009765625,-15.742022045999764,4.898440150567889,3.7267540399923917
1772732199081788200,1.4937880859375,-14.790879843795299,5.712600816968083,4.47808298716545
1772732199091815000,1.50381494140625,-13.752860153126715,6.508876867109537,5.077658653599023
1772732199101843200,1.51384326171875,-12.227661341148615,7.643720270717144,5.467244831162691
1772732199111871000,1.52387109375,-10.683715743124484,8.217725442564486,4.811188275833428
1772732199121899000,1.53389892578125,-8.945293282660842,8.765679642832279,4.322442928120494
1772732199131926000,1.543926025390625,-6.563990851566195,9.951274744033812,3.733295716720819
1772732199141954300,1.553954345703125,-4.725173249417543,10.441770442545414,2.898598165987432
1772732199151982000,1.563982177734375,-2.8660674769997594,10.676668747222424,2.6930393530413506
1772732199162010000,1.574010009765625,-1.349878485429287,10.987510473895073,2.6133736956521867
1772732199172037000,1.584037109375,0.15717442900538445,11.026153216022252,2.6433812959030267
1772732199182065000,1.59406494140625,1.33232295499444,10.85985673840642,2.6578420751929284
1772732199192093200,1.60409326171875,2.417446926665306,10.574698903566599,2.945937424789369
1772732199202121000,1.614120849609375,3.486175059330463,10.438578953027724,2.9410554979667065
1772732199212148200,1.624148193359375,4.755149285486341,10.377310537594557,2.4420276795618236
1772732199222176000,1.634176025390625,6.0302720973998305,9.97170378407836,2.0246596149727702
1772732199232204300,1.644204345703125,6.9691773338437075,9.37939547829926,1.811835633329302
1772732199242232000,1.654232177734375,7.796199235382676,8.990840397349,1.8796178145706652
1772732199252259000,1.664259033203125,8.483895083817838,8.934845538404584,1.8367535092256961
1772732199262287000,1.674287109375,8.650618846935034,9.158771782690286,1.4902487868890166
1772732199272315100,1.684315185546875,8.268546698263288,9.547328032684325,0.850758239500597
1772732199282343200,1.69434326171875,7.777009381744265,9.823688813084363,0.3214542695691809
1772732199292370200,1.7043701171875,7.311870827329158,10.238279668045044,-0.10440905350148677
1772732199302398200,1.714398193359375,6.90087478199005,10.58249058035612,-0.4595499406278133
1772732199312426000,1.724426025390625,6.720340520185232,10.64291845331192,-0.590828661680594
1772732199322454000,1.7344541015625,6.622772126358747,10.683353339552879,-0.48355895805098115
1772732199332482000,1.74448193359375,6.548866347670555,10.634265191256999,-0.33293716555945574
1772732199342509000,1.754509033203125,6.546917551690339,10.540837550497054,-0.1998053639858961
1772732199352537000,1.764537109375,6.6784250399976965,10.431284119844436,0.032134894603118296
1772732199362565000,1.774565185546875,6.862687966936826,10.288108990097045,0.3039771746654063
1772732199372593200,1.78459326171875,7.108845916774869,10.111005871784686,0.6491021330814808
1772732199382620200,1.7946201171875,7.186336568212509,9.968557887268066,1.0507841143693775
1772732199392648000,1.80464794921875,6.934380161228775,9.86914357331395,1.1940672345358878
1772732199402676200,1.81467626953125,6.825307207569479,9.723491824319957,1.0357574448250233
1772732199412704000,1.8247041015625,6.994094917479157,9.608383097627758,0.9585725714009254
1772732199422731300,1.834731201171875,7.173693944260478,9.53491512583494,1.0532514543309808
1772732199432759000,1.844759033203125,7.234827335137129,9.323476022678614,1.1776171811249105
1772732199442787000,1.854787109375,7.420492530089616,9.13591639228165,1.3729881428599358
1772732199452815000,1.864815185546875,7.572178883072733,8.989773060378432,1.5636147596120833
1772732199462842000,1.874842041015625,7.984140558573603,8.774118969875573,1.7682184637904166
1772732199472870100,1.8848701171875,8.699009660616516,8.633913795849681,2.041167389920354
1772732199482898000,1.89489794921875,9.518079726368189,8.593783445513248,2.19258997740075
1772732199492926200,1.90492626953125,10.056620786124467,8.621316180083156,2.0348684359066187
1772732199502953000,1.914952880859375,10.568921489208936,8.673185483530164,1.8238406900301574
1772732199512981200,1.924981201171875,10.983640938985348,8.645790111604333,1.6907216748729348
1772732199523009000,1.935009033203125,11.603315975117683,8.775978918528557,1.6805629766911268
1772732199533037300,1.945037353515625,11.990166590237617,8.870430057117343,1.8058100894294677
1772732199543064000,1.95506396484375,12.01623392843008,9.059524057474732,1.9609879377901553
1772732199553092000,1.965092041015625,11.82221708471775,9.29851050824821,2.085161576078087
1772732199563120000,1.9751201171875,11.752116543531416,9.673477793350814,2.071501737907529
1772732199573148000,1.98514794921875,11.655572232055663,10.117573559737204,2.1654398124076426
1772732199583175200,1.995175048828125,11.463561467468738,10.6506785659194,2.334002627520263
1772732199593203000,2.005202880859375,11.452482439571618,11.303571981042623,2.5753432402044534
1772732199603231200,2.015231201171875,11.652048734104632,12.225429636573791,2.6185247948050496
1772732199613259000,2.025259033203125,11.974854454815388,13.413779004919528,2.2433073343336583
1772732199623286000,2.0352861328125,11.508111387813091,14.50258429545164,1.7672753377214072
1772732199633314000,2.04531396484375,10.483258637231588,15.281845497906207,1.253632864639163
1772732199643342000,2.055342041015625,9.514993450790643,16.17758320827484,1.055327456887439
1772732199653370000,2.0653701171875,8.120567383104563,17.07465362855196,1.0723044567819684
1772732199663398100,2.075398193359375,6.410959513714909,17.66914044741392,1.1929174799788742
1772732199673425200,2.085425048828125,4.819322774711251,18.370405386996268,1.766279166290909
1772732199683453200,2.095453125,2.897701217147708,18.91880616198778,2.962444322954118
1772732199693481200,2.105481201171875,0.8102244959950446,19.0016539565444,4.177410187807679
1772732199703509000,2.115509033203125,-1.2235504455864428,18.777780903750656,5.208437243109941
1772732199713536000,2.125535888671875,-3.418356491601467,18.069470137310027,6.8107543660819525
1772732199723564000,2.13556396484375,-5.984500526306033,17.261755578309298,9.02996478551328
1772732199733592000,2.145592041015625,-8.645587867030502,16.38840505631566,11.18785535158515
1772732199743620000,2.1556201171875,-8.993861790996789,14.097055867868661,11.201910764944552
1772732199753647000,2.165647216796875,-9.507254380971192,13.613318411445617,11.919640517115592
1772732199763675000,2.1756748046875,-10.904840373992919,12.637433397650717,9.834574948757886
1772732199773703200,2.185703125,-11.181036319220066,11.924723519468307,7.075071072944998
1772732199783731000,2.19573095703125,-10.132570053339004,11.679093392896652,5.588786805772781
1772732199793758200,2.20575830078125,-9.04270502462089,10.98704870160222,5.128088279631734
1772732199803786000,2.215785888671875,-9.019733898878098,10.420353560507296,6.153599786382913
1772732199813814300,2.225814208984375,-10.040317301577328,9.757422150972484,8.86239638826549
1772732199823842000,2.235842041015625,-10.72040852022767,8.812402815562486,12.396131071150302
1772732199833869000,2.245869140625,-12.345193495595455,6.833743027481436,16.934583479082583
1772732199843897000,2.25589697265625,-14.595371300220489,4.4974616413742305,19.12651017026901
1772732199853924900,2.2659248046875,-15.68706880506277,2.90870075006783,18.30003362765312
1772732199863953200,2.275953125,-15.946307770270108,2.0700030237823723,15.782435889452694
1772732199873980200,2.285980224609375,-15.816112533605098,1.5479674008861184,13.555829514551162
1772732199884008200,2.29600830078125,-15.495664774197339,0.6051055357709527,12.672403004223108
1772732199894036000,2.306035888671875,-14.391098435431719,-0.7858823741599917,12.779451174056529
1772732199904064300,2.316064208984375,-13.329998313426971,-2.3990070146113633,13.625338519585132
1772732199914091000,2.326091064453125,-13.791642011463642,-4.0106650896415115,15.142027861893176
1772732199924119800,2.336119873046875,-15.707765556132793,-5.521068775808811,15.45060515076518
1772732199934147800,2.34614794921875,-17.401631666511296,-6.513703264352679,14.091205972796677
1772732199944175600,2.356175537109375,-18.69715078524351,-6.8563926661849015,12.042507018327711
1772732199954203600,2.36620361328125,-20.13486186790466,-6.697361795657873,10.519168155002593
1772732199964230700,2.376230712890625,-21.31843686145544,-6.379951211988925,9.23895941812694
1772732199974258700,2.3862587890625,-21.84326503767967,-5.879406997671723,7.8314160947144025
1772732199984286700,2.39628662109375,-21.75606372408867,-5.440163932013511,6.315984643512964
1772732199994314800,2.406314697265625,-21.53075157840252,-5.31825078600347,5.223948700496554
1772732200004341500,2.416341552734375,-21.683094349467755,-5.308176551234721,5.256451040172577
1772732200014369800,2.426369873046875,-22.080859157311917,-5.761309610557555,5.560260383990407
1772732200024397600,2.4363974609375,-22.486776876473424,-5.925687687331438,6.353847048917412
1772732200034425900,2.44642578125,-23.107431571292874,-5.759021791881323,7.536366980457306
1772732200044452600,2.45645263671875,-24.059147773993015,-5.6246466391831635,8.797733069697022
1772732200054481000,2.46648095703125,-25.164275253772733,-5.220604066243768,9.715961428815126
1772732200064508700,2.4765087890625,-25.311069743061065,-4.322983610868453,10.632633206140994
1772732200074536700,2.48653662109375,-25.12933253520727,-3.258266175149381,11.849537637841701
1772732200084563700,2.496563720703125,-25.384085879433155,-2.20868902541697,12.937904536956548
1772732200094591700,2.506591796875,-25.891359694266317,-0.8826067183777689,13.99183140633106
1772732200104619800,2.516619873046875,-26.300335631954667,0.7240706456303596,14.807226582962274
1772732200114647600,2.5266474609375,-26.445327455735207,2.480322192773223,15.851520531594753
1772732200124674800,2.5366748046875,-26.576531577181814,4.318306558968127,16.71945954993367
1772732200134702600,2.54670263671875,-26.697623469936847,6.620104368454218,16.987260591781137
1772732200144731000,2.55673095703125,-27.953969100666043,9.452730179101229,17.371785978823898
1772732200154758700,2.566758544921875,-29.302306786394116,12.679278150689601,17.151033103877307
1772732200164785700,2.57678564453125,-29.978582246148584,15.831486628347635,17.976432957172392
1772732200174813700,2.586813720703125,-29.941778409886357,19.32649615151882,18.71817136144042
1772732200184841700,2.596841796875,-28.325474847137926,22.89181079853773,18.470379672920703
1772732200194869800,2.606869873046875,-25.856540894341467,26.149222694945333,18.398253178864717
1772732200204896800,2.616896728515625,-22.593777115511894,28.95647324131727,19.143792144459486
1772732200214924800,2.6269248046875,-20.38287684378624,30.882332582581043,19.862051473462582
1772732200224952600,2.63695263671875,-19.158801497542857,32.74315334222317,19.557620782876015
1772732200234980900,2.64698095703125,-16.265117699342966,34.56451419813633,17.741289153301715
1772732200245008000,2.6570078125,-11.870998943543434,35.95554536268711,15.63233183722496
1772732200255035600,2.66703564453125,-8.50295458907485,36.58728259253502,14.707134223616123
1772732200265063700,2.677063720703125,-6.15433394587636,36.51183718318939,15.094811352688073
1772732200275091700,2.687091796875,-3.3947909070968625,35.42651096694469,15.390510455286503
1772732200285119700,2.69711962890625,0.15505217615440486,33.99881157521009,14.700225174880027
1772732200295146800,2.707146728515625,3.116534522208571,32.22278857514858,13.255430855959654
1772732200305174800,2.7171748046875,5.5494496516406535,29.872860941004753,12.025006432950496
1772732200315202800,2.727202880859375,7.200524083518982,27.54164268350601,11.350731207102536
1772732200325230600,2.737230712890625,9.344960709255933,25.443164675867557,10.926408062678576
1772732200335257900,2.7472578125,11.816028166949748,24.0140063174963,10.260859748643636
1772732200345285600,2.75728564453125,13.289129711943865,22.980319103074073,7.970248226821422
1772732200355313700,2.767313720703125,14.579092365592718,21.98166345454454,4.809568273416161
1772732200365341700,2.777341796875,15.607541094839572,20.805366927564144,2.481280516411364
1772732200375369000,2.787368896484375,15.573436580663918,19.40744308089018,1.764297783215344
1772732200385396700,2.797396728515625,14.508586166214942,18.347433676731587,2.1046867991507052
1772732200395424500,2.807424560546875,13.296979840922354,17.832418453991412,2.8773768065214154
1772732200405452800,2.817452880859375,12.1801677685678,17.367540011817216,3.046596770368516
1772732200415479600,2.8274794921875,11.144164678418635,17.312485064071417,2.4143255797743794
1772732200425507800,2.8375078125,10.263450349658727,17.254015339446067,1.766908550235629
1772732200435535600,2.84753564453125,9.346388111710548,16.976337046706675,1.3961591750890017
1772732200445564000,2.85756396484375,8.886814790207147,16.841572017908096,1.768980680334568
1772732200455590700,2.867590576171875,8.741056073707341,16.87636626791358,3.309624021942913
1772732200465618700,2.87761865234375,9.020802404892445,17.001074013078213,5.27677252818942
1772732200475646700,2.887646728515625,9.923858329319954,17.25585775244236,7.061606611216068
1772732200485674500,2.897674560546875,10.677731408017873,17.579031721943615,8.254073351752757
1772732200495701800,2.90770166015625,11.107907954645157,17.73594896131754,9.255249458670615
1772732200505729800,2.917729736328125,11.550616650587319,17.59349396253824,10.017566540586948
1772732200515757800,2.9277578125,11.866185990303753,17.40043105854988,10.683397763216496
1772732200525785600,2.93778564453125,12.071472416049241,17.11158255249858,11.605917097526788
1772732200535812600,2.9478125,12.17300620637536,16.667368128168583,12.156032859742641
1772732200545840600,2.957840576171875,12.139730544239281,16.237725834548474,11.999707156521081
1772732200555868700,2.96786865234375,11.899417228776215,16.000586472946406,11.462450875878334
1772732200565896700,2.977896728515625,11.331245585387945,15.934033979630469,10.801323885416984
1772732200575923700,2.987923828125,10.692448500156402,15.963161874437331,10.25702879217863
1772732200585951700,2.99795166015625,9.944570277959107,16.08190983441472,9.802940624088048
1772732200595979800,3.007979736328125,9.334603565892577,16.30567650422454,9.375731110572815
1772732200606007800,3.0180078125,8.574676009461283,16.763711364114283,8.707744755735993
1772732200616034800,3.028034912109375,7.245515317890048,17.740840240490435,7.616489733964205
1772732200626062600,3.0380625,6.183171333304047,18.8827762327075,6.9467077278822655
1772732200636091000,3.0480908203125,6.010928514504433,19.778457828974723,8.40746533960998
1772732200646118700,3.05811865234375,5.289926024273037,20.78356659916639,9.205250625270605
1772732200656146700,3.068146728515625,3.984973306763172,22.411471752381324,6.997170087140798
1772732200666173700,3.078173583984375,3.2251199846118688,24.343835653233526,3.5797263264700767
1772732200676201700,3.08820166015625,3.324944340671599,26.71186476125717,0.37205753513574596
1772732200686229800,3.098229736328125,4.404673759822547,29.18025393965244,-1.6858000005617737
1772732200696257800,3.1082578125,7.37703157402575,31.148219899761674,-1.6089898787342012
1772732200706284800,3.118284912109375,10.561153193295002,32.47417974946499,2.89022781252712
1772732200716312600,3.1283125,8.409589492157101,34.44860584549904,12.330304554021358
1772732200726340900,3.1383408203125,-1.023474447965622,34.703836159586906,21.63919675555229
1772732200736368600,3.14836865234375,-13.47302614365816,32.46996651568413,24.452764814507958
1772732200746396000,3.15839599609375,-22.4404967713356,32.62890503175259,21.465460483324527
1772732200756423700,3.168423583984375,-22.523410032343865,32.14191412649154,11.711171954202651
1772732200766451700,3.17845166015625,-17.703015829008816,32.41086200028658,6.341453431290388
1772732200776479700,3.188479736328125,-14.065754720675944,31.325451612889765,7.745617049136757
1772732200786506800,3.1985068359375,-14.636749604791403,30.121465114951132,13.550896149802208
1772732200796534800,3.20853466796875,-21.247351985406873,27.239255481445788,20.617440801942347
1772732200806562600,3.2185625,-30.713333275747296,22.664880696260926,26.95591434063911
1772732200816590800,3.2285908203125,-39.09421280624866,16.50138963046074,29.88759323071241
1772732200826617600,3.23861767578125,-41.18863890814781,10.69718897268176,27.676756087350842
1772732200836645600,3.248645751953125,-38.008479762768744,6.618391134795546,23.343171587491035
1772732200846673700,3.258673583984375,-33.59640566356182,2.9221523523151873,22.299921594953535
1772732200856701700,3.26870166015625,-31.554509374845026,-1.1677934870511293,25.641006630825995
1772732200866728700,3.278728759765625,-31.54709997537136,-5.860816863492131,28.414357245683668
1772732200876756700,3.2887568359375,-30.9341820122838,-9.342965151524544,28.10099739871025
1772732200886784800,3.29878466796875,-30.1031719178915,-11.109370428413152,25.95485981427431
1772732200896812800,3.308812744140625,-29.197721791803836,-12.123370945590734,23.16019986940622
1772732200906839600,3.318839599609375,-27.768327286589145,-13.300363053619861,19.998598124980926
1772732200916867800,3.328867919921875,-26.57279063708782,-14.969231500864028,17.688096492296456
1772732200926895000,3.33889501953125,-25.561457877814767,-16.075015983247756,15.373193409782647
1772732200936923100,3.348923095703125,-24.309311452341078,-16.148219166624546,12.843727539134024
1772732200946950100,3.3589501953125,-22.992584710407257,-15.803693781536817,10.97097201154828
1772732200956978200,3.368978271484375,-21.672830145084856,-15.717684892600774,9.845226106631756
1772732200967006200,3.379006103515625,-20.487978555727004,-15.346659623122214,8.761541812375187
1772732200977034000,3.389033935546875,-20.016115076971055,-14.733092840737104,7.831907677623629
1772732200987061000,3.39906103515625,-20.248937159895895,-14.056917918747663,7.256688453811407
1772732200997089000,3.409089111328125,-21.32695919060707,-13.33488842355609,7.4588932801544665
1772732201007117000,3.419116943359375,-23.159056544589994,-12.656326314169167,8.664990486636757
1772732201017145000,3.42914501953125,-24.55832245352268,-11.461142715889215,10.050856231248378
1772732201027172000,3.439172119140625,-26.359536008942126,-9.47005365434587,10.481810191988945
1772732201037200000,3.449199951171875,-29.99528788175583,-6.894288389337063,10.656219833433628
1772732201047228200,3.459228271484375,-34.68475035084486,-3.7272716341257093,10.71140337599516
1772732201057256000,3.469255859375,-38.40984288736582,-0.13437734465524553,10.236485185843705
1772732201067283200,3.479283203125,-39.385823762750626,3.1328768774613738,11.032017139619589
1772732201077311000,3.48931103515625,-37.96005329325199,5.617101046109199,13.110842352283
1772732201087339300,3.49933935546875,-35.219697770023345,8.125903483435511,14.640084886693954
1772732201097367000,3.509366943359375,-33.81152842366695,11.253293746179342,15.48529301778674
1772732201107395000,3.51939501953125,-34.45884666900635,14.906460864174365,15.9913825912714
1772732201117422000,3.529422119140625,-34.187004242813586,18.605884706431628,16.33896151871085
1772732201127450000,3.5394501953125,-31.129454409015178,22.089884175288677,16.25142001338005
1772732201137478100,3.54947802734375,-27.270050432682037,25.42614573652744,16.940937232023476
1772732201147506000,3.559505859375,-25.25887193831205,28.155666562008857,18.281547538369892
1772732201157533200,3.569533203125,-23.756363097047803,30.793230403804777,18.6486763849318
1772732201167561000,3.57956103515625,-20.776980206513404,33.332865786290164,17.313704376733302
1772732201177589200,3.58958935546875,-16.7931081389904,34.860782625055315,16.204464200937746
1772732201187617000,3.599616943359375,-13.828565090191363,35.22734799251556,15.417302600622175
1772732201197644000,3.60964404296875,-10.562202994608878,35.04351118203402,15.04297127533555
1772732201207672000,3.619672119140625,-6.630120735555887,34.566819552469255,14.24859082968235
1772732201217700000,3.6297001953125,-3.2520217278018593,33.54397638814449,12.629994772082567
1772732201227728100,3.63972802734375,0.2756134691640735,31.91213623356819,11.305029778635502
1772732201237755100,3.649755126953125,3.1696365823209285,29.87023293058872,10.344453393131493
1772732201247783200,3.659783203125,5.023175952783227,27.891972370958328,9.318384837019442
1772732201257811000,3.66981103515625,5.876811135959625,26.338811200821397,7.524934901338815
1772732201267839200,3.679839111328125,5.688035115510225,24.919617771625518,5.510930828154087
1772732201277866200,3.6898662109375,6.547814208269119,23.273646215844153,4.2664109520360824
1772732201287894000,3.69989404296875,8.290251749593018,21.574861938285828,3.681340780816972
1772732201297922000,3.709922119140625,10.046446598112583,20.481897189986704,3.5527068021193147
1772732201307950000,3.7199501953125,11.975393383997678,19.53995068615079,3.945098977014422
1772732201317977000,3.72997705078125,13.536789298516512,18.17535744667053,3.615314357201755
1772732201328005000,3.740005126953125,13.821491206282376,16.795680035305022,3.216409731672704
1772732201338033200,3.750033203125,12.695575790017843,15.719503924721478,2.9687656349301337
1772732201348061200,3.760061279296875,11.11217262635231,15.08167013156414,2.7850550811767576
1772732201358088000,3.770087890625,9.70092168059349,14.934471153128147,2.7272309609785674
1772732201368116200,3.7801162109375,8.74272079204917,14.969668723237513,2.6254373506724833
1772732201378144000,3.79014404296875,7.808713264518976,15.058490331506729,2.293383032362163
1772732201388172000,3.800172119140625,7.446874341058731,15.469056168735026,2.362270982888341
1772732201398200000,3.810199951171875,7.927146751719713,15.732079328656196,3.1203400519713758
1772732201408227300,3.820227294921875,8.958570697385072,15.53337461938858,3.9585581780463457
1772732201418255000,3.830255126953125,9.762697461026907,15.537133095139264,4.702103631736338
1772732201428283000,3.840282958984375,10.479161138784885,15.672537590885161,5.249937128233909
1772732201438310100,3.85031005859375,11.030081203120947,15.874178938126564,5.579621502542495
1772732201448338000,3.860337890625,11.531178959667683,16.179625527757405,5.746115548557043
1772732201458366200,3.8703662109375,11.792353861373662,16.31938354253769,5.662454099529981
1772732201468394000,3.88039404296875,12.264710676604508,16.409451351475713,5.6082934702754015
1772732201478422300,3.89042236328125,12.50361646335721,16.307110920941827,5.788060839360952
1772732201488449000,3.900448974609375,12.65581778012514,16.003774455332756,6.217186415630579
1772732201498477000,3.91047705078125,12.711611563539504,15.624531977128981,6.483209926411509
1772732201508505000,3.920505126953125,12.724970226806402,15.300501098537444,6.572266512480378
1772732201518532900,3.930532958984375,12.988710010564326,14.95788710002899,6.4119304045736785
1772732201528560000,3.94056005859375,13.177781799089908,14.794770421493052,6.272078866291046
1772732201538588200,3.950588134765625,13.311248020249604,14.835425087964534,6.175189686900377
1772732201548616200,3.9606162109375,13.071292432183027,14.98441153433919,6.2093970769286155
1772732201558644000,3.97064404296875,12.610105830264091,15.18004750368595,6.144948862415552
1772732201568671000,3.9806708984375,12.26625615248084,15.454007068163156,6.1528124353975056
1772732201578699000,3.990698974609375,11.605714852952957,15.833967339247463,6.179990365180373
1772732201588727000,4.00072705078125,10.827976914542912,16.413795518159866,6.123062024778127
1772732201598755000,4.010755126953125,9.64090355748236,16.961271579521892,6.143301679730415
1772732201608782000,4.020781982421875,8.477723117184638,17.629874604952334,5.926827505016327
1772732201618810000,4.03081005859375,7.564637381651997,18.49065790631771,5.547492087832093
1772732201628838100,4.040838134765625,7.397898420965671,19.274767133325337,5.169689287042617
1772732201638866200,4.0508662109375,8.64719237961769,20.17828716813326,4.978478148400783
1772732201648893200,4.06089306640625,10.019410122627018,21.560108605790138,4.640084690196812
1772732201658921000,4.0709208984375,10.212876346719264,23.01389637850523,3.8952211396455763
1772732201668949200,4.08094921875,9.945973130494355,24.511649549674985,3.38883725938946
1772732201678977000,4.09097705078125,9.162502785912155,26.971581865370272,3.820582370507717
1772732201689004300,4.10100439453125,6.497936370900273,29.47656679023504,4.634541961377859
1772732201699032000,4.111031982421875,2.0861644695103165,31.28032886109352,5.464129329490661
1772732201709060000,4.12106005859375,-2.665532045173645,33.22468013685941,7.0865616042524575
1772732201719088000,4.131088134765625,-7.04526454822421,34.17892615029812,8.577942902302741
1772732201729115100,4.141115234375,-10.42461706317067,33.16659502763748,9.786474057933688
1772732201739143200,4.15114306640625,-11.9668114336133,31.808631435430048,9.288739055818318
1772732201749171000,4.1611708984375,-10.417973387372493,31.11857294951677,7.063257301032543
1772732201759199200,4.17119921875,-6.782426681742072,31.013174300456047,5.448405106136202
1772732201769226000,4.18122607421875,-3.537005667379498,31.87666276912689,7.427140297541022
1772732201779254300,4.191254150390625,-6.779684689557552,32.79083629989624,14.581065711492299
1772732201789282000,4.201281982421875,-17.485425217485428,31.173328622055053,19.39802409515977
1772732201799310000,4.21131005859375,-28.783192896163463,29.093302801430223,21.35397813043594
1772732201809337000,4.221337158203125,-37.7377245472908,26.1714415410161,20.557380008733272
1772732201819365000,4.231365234375,-41.01044390294552,21.68200012449026,20.02040780572891
1772732201829393200,4.24139306640625,-37.2749094673872,16.558579252147673,22.042367221832276
1772732201839421000,4.2514208984375,-32.17170370007753,11.392974604070186,26.14152571070194
1772732201849449200,4.26144921875,-30.41938890786171,6.850853736758232,28.818584527540207
1772732201859476000,4.27147607421875,-33.24552184935808,2.994626636895537,28.77079167975187
1772732201869504000,4.28150390625,-38.6316619302392,-0.4478238469988107,26.725769367969036
1772732201879532000,4.291531982421875,-42.33651364276409,-3.5919618309259413,23.989952072691917
1772732201889560000,4.30156005859375,-40.727563365387915,-6.2811494769752025,20.40853501665592
1772732201899587000,4.311587158203125,-35.75423602387905,-8.446991878834366,17.690316506433486
1772732201909615000,4.321614990234375,-31.191698976004123,-10.454465088945627,16.394342629671097
1772732201919643100,4.33164306640625,-28.71577414140701,-12.361059757769107,15.297377413558959
1772732201929671400,4.34167138671875,-27.488278173065183,-13.886025930035114,14.259112223696707
1772732201939698700,4.35169873046875,-27.051044109141824,-15.07131707985401,14.172096788066625
1772732201949726500,4.3617265625,-28.01861722166538,-16.254874537748098,15.725178463226555
1772732201959754800,4.371754638671875,-28.528568146753308,-17.23737867742181,17.363470570421217
1772732201969782500,4.381782470703125,-29.037775559997556,-17.365357407081127,18.39928895165324
1772732201979809500,4.3918095703125,-31.02141372101307,-16.18196712244749,18.565057021480797
1772732201989837600,4.401837646484375,-33.86979590371847,-13.44201375027895,15.980408777314423
1772732201999865600,4.411865478515625,-36.918828084540365,-10.278583621382714,11.531714381718634
1772732202009893600,4.4218935546875,-41.10605765557289,-6.881214972752332,9.035555737388133
1772732202019920600,4.431920654296875,-44.74569309182167,-3.4632492340341208,10.505412016850709
1772732202029948400,4.441948486328125,-46.62949959025383,0.14994243192523718,14.583953249627351
1772732202039976700,4.451976806640625,-45.28162484586239,4.4720594890922305,15.079205787277221
1772732202050004500,4.46200439453125,-42.85181411218643,9.494982928419113,13.992903419476747
1772732202060031700,4.47203173828125,-42.81733199687004,14.844897849708795,16.586348718082903
1772732202070059500,4.4820595703125,-40.89313269777298,19.588580569285153,20.866482198262215
1772732202080087600,4.492087646484375,-35.474488523650166,23.74543955197334,24.252306539571283
1772732202090115600,4.502115478515625,-29.55577418246269,27.402000404059887,27.208462868297097
1772732202100142600,4.512142578125,-25.573999379479883,30.92023531999588,27.398741110002995
1772732202110170600,4.522170654296875,-23.618144712924956,34.37090184357166,26.376215925586223
1772732202120198400,4.532198486328125,-21.667408120036125,37.5466700605154,24.60502341442108
1772732202130226700,4.542226806640625,-19.17699883301258,40.46637560420036,21.808621594321725
1772732202140253400,4.55225341796875,-17.04005577790141,42.26630087337494,19.318145671802757
1772732202150281700,4.56228173828125,-15.313488005882501,42.986623564648625,16.697034952157736
1772732202160309500,4.5723095703125,-13.481852424192427,42.63861326005458,13.443798880130052
1772732202170337800,4.582337890625,-10.445013369989395,41.492468710231776,10.294968938994407
1772732202180364500,4.592364501953125,-7.036340068012476,39.598117436909675,8.06152482702732
1772732202190392600,4.602392578125,-4.002701271155476,36.540067252373696,7.125969485533237
1772732202200420600,4.612420654296875,-1.242090310883522,33.35593335814476,6.698408674362302
1772732202210448400,4.622448486328125,0.8279894313968718,30.00285627118349,6.523543690365552
1772732202220475600,4.6324755859375,2.5498443495497107,26.867251722323893,6.2198646949291225
1772732202230503700,4.642503662109375,4.0219074914067985,24.57528060258627,5.183769834843278
1772732202240531700,4.65253173828125,4.724734858000279,22.91109300663471,3.582193301105499
1772732202250559500,4.6625595703125,4.859905837251246,21.93606840906143,1.6101555615127086
1772732202260587800,4.672587890625,5.022450561118125,20.988399435925484,0.0916939488351345
1772732202270614500,4.682614501953125,5.249144516551494,19.840262835502624,-0.6538765809416771
1772732202280642600,4.692642578125,5.807988359624147,18.20655805609822,-0.8437748834192752
1772732202290670600,4.702670654296875,6.626500206971168,16.66058065998554,-0.7528717927008867
1772732202300697600,4.712697509765625,7.026106258767843,15.270152722024918,0.47281215778291225
1772732202310725600,4.7227255859375,6.932716027408838,13.945123431169986,2.6234213346749544
1772732202320753700,4.732753662109375,6.513169595867395,12.932094389373063,4.269126348474622
1772732202330781700,4.74278173828125,6.244212369722128,12.380946361500024,4.93102081617713
1772732202340809500,4.7528095703125,6.056425944831967,12.080379360604285,4.837340077438951
1772732202350836500,4.76283642578125,5.795464978137612,12.265453019404411,4.849102411425114
1772732202360864500,4.772864501953125,5.444374827706813,12.709227883273362,5.43757508456409
1772732202370892500,4.782892578125,4.8502106649279595,13.18986503559351,6.0164300345301625
1772732202380920600,4.792920654296875,4.254364248150587,13.899476947760581,6.606695436304808
1772732202390947600,4.802947509765625,4.312466308507323,14.649254866099357,6.944837842357158
1772732202400975600,4.8129755859375,4.739264318612218,15.246861862808466,7.3581667145580045
1772732202411003600,4.823003662109375,4.5404462120980025,15.803935773599147,7.472480491480231
1772732202421031400,4.833031494140625,4.1285982261046765,16.128791997098922,7.569700510260462
1772732202431058700,4.84305859375,3.907907602739334,16.211591860860587,7.175811667066812
1772732202441086500,4.85308642578125,4.114112604634464,16.11232484642267,6.401386798727512
1772732202451114800,4.86311474609375,4.963673377978801,15.872046602272986,5.868258411669731
1772732202461142500,4.873142578125,6.235103180593252,15.492289744806289,5.737040261697769
1772732202471169800,4.883169677734375,7.736344778400659,15.0994629778862,5.803496308901906
1772732202481197600,4.893197509765625,8.454695292818545,14.758525388157366,5.789573582011461
1772732202491225600,4.9032255859375,9.114941993314027,14.46597452045679,5.621864899510145
1772732202501253600,4.913253662109375,9.55108533939123,14.156339246964453,5.309965188217163
1772732202511280600,4.92328076171875,10.1509275478065,13.932277978122233,4.958631292158365
1772732202521308700,4.93330859375,10.7743283264637,14.065612097334862,4.842485331372917
1772732202531336400,4.94333642578125,11.216802044606208,14.218883089160919,5.029724351513385
1772732202541364700,4.95336474609375,11.999033787304162,15.052618224602936,5.380310059553384
1772732202551391500,4.9633916015625,13.037256891590356,16.60641886168718,5.623375304073095
1772732202561419500,4.97341943359375,14.060422711998223,17.95210047994852,5.288328525948524
1772732202571447600,4.983447509765625,14.60428292095065,19.0963932644248,4.649774894084036
1772732202581475600,4.9934755859375,14.493178169202803,20.496711312758922,4.504243264338374
1772732202591502600,5.003502685546875,13.643720563971996,21.82564053366184,4.664685170707107
1772732202601530600,5.013530517578125,12.214440625047683,22.987174375796318,5.130542687046527
1772732202611558700,5.02355859375,10.306869804668425,24.319924031770228,5.875010808539391
1772732202621586700,5.033586669921875,8.46503840765655,25.502671342325208,6.2525102424681185
1772732202631613400,5.043613525390625,6.484678829920291,26.54358792347908,6.457223252239823
1772732202641641700,5.053641845703125,4.845083238911628,27.939695076119897,6.637917673042416
1772732202651669500,5.06366943359375,3.3385335978239774,28.746552726030348,6.339029419013857
1772732202661697500,5.073697509765625,1.99708567160964,29.33152820470333,6.260182092270255
1772732202671724500,5.083724609375,1.0656564701348543,29.997537121987342,6.367822967299818
1772732202681752600,5.093752685546875,0.5851467435866594,31.05809363863468,7.006160618326067
1772732202691780600,5.103780517578125,0.1519394509613514,32.124364441275596,8.481687344640493
1772732202701808600,5.11380859375,-0.6413572911083698,32.82888166065216,10.149834491872786
1772732202711835600,5.123835693359375,-1.0720528931736946,33.2229522901535,11.61212471999526
1772732202721863400,5.133863525390625,-3.1052772151350974,33.34789267503023,13.447469677597283
1772732202731891700,5.1438916015625,-6.005167466759682,33.09092516188621,13.140235620027779
1772732202741919500,5.15391943359375,-7.310844406890869,34.12700423988104,11.38701481888294
1772732202751946800,5.16394677734375,-9.219754366919398,35.527535054183005,11.419006870949268
1772732202761974500,5.173974609375,-17.081424730122087,37.46567169321775,18.919708663785457
1772732202772002800,5.1840029296875,-31.12443453502655,35.9837871223092,23.88645662690401
1772732202782030600,5.194030517578125,-42.63380147585868,31.656700167775153,22.269374480998515
1772732202792058600,5.20405859375,-45.93192649092674,27.45348041592836,19.250099140536783
1772732202802085600,5.214085693359375,-44.55799609878063,21.634062315273283,19.62907507675886
1772732202812113400,5.224113525390625,-41.25182338633537,15.060448479837179,22.266430828762054
1772732202822141700,5.2341416015625,-38.340022916686536,8.519652041375636,26.311294248342513
1772732202832169500,5.24416943359375,-38.45960440487861,2.7094907216265796,30.527380496025085
1772732202842196700,5.25419677734375,-39.28025443329811,-1.3669272353857755,31.23916916770935
1772732202852224500,5.264224609375,-38.43158008739948,-3.5771927163392303,26.872601266658304
1772732202862252500,5.27425244140625,-36.8043974032402,-4.75968108369708,21.375423069524764
1772732202872280600,5.284280517578125,-36.359305027031894,-6.354030004268885,17.236323030889032
1772732202882307600,5.2943076171875,-36.21259470889568,-7.967114020448923,14.358132569897174
1772732202892335600,5.304335693359375,-34.51560374449491,-9.15190131239891,11.234468634200095
1772732202902363600,5.31436376953125,-31.3041960588932,-9.486777994653583,7.493204130557179
1772732202912391700,5.3243916015625,-28.755262102186677,-9.511547109729051,4.1801574406892055
1772732202922418700,5.334418701171875,-27.57756038458347,-9.927084890151024,2.90850464297384
1772732202932446700,5.34444677734375,-26.79646378339529,-10.734473285937309,3.2083705098628994
1772732202942473700,5.3544736328125,-26.12681212569475,-11.37237839076519,3.768048465672135
1772732202952501800,5.364501708984375,-26.47982126148939,-11.197568936347961,4.136154925094544
1772732202962529500,5.374529541015625,-28.134820173335072,-10.442655408686399,4.314630793064833
1772732202972557800,5.384557861328125,-29.88115881375074,-9.359600644505024,4.12894543210715
1772732202982584800,5.394584716796875,-31.30433166797161,-7.586157724064588,4.110088755945861
1772732202992612900,5.40461279296875,-32.7200787561059,-5.5933408158153295,4.39997800322175
1772732203002640600,5.414640625,-33.1809275043726,-3.5219168193191286,4.7274143063426015
1772732203012669000,5.4246689453125,-33.036038556444645,-1.217856325598061,5.338906036019325
1772732203022695700,5.43469580078125,-32.82629573581219,0.9725506086751818,6.976221407136321
1772732203032723700,5.4447236328125,-31.80915282895565,2.9948616146951914,9.481852228689194
1772732203042751700,5.454751708984375,-30.403335598683356,5.369136339110136,11.161984412747621
1772732203052779800,5.46477978515625,-29.746094509744644,7.785545739421248,13.198456338328123
1772732203062806800,5.474806884765625,-29.871292084252833,10.145076483690739,14.8269822537899
1772732203072834800,5.484834716796875,-28.818229138231274,13.408411924928426,12.638292644828557
1772732203082862800,5.49486279296875,-26.429517307662962,15.479112283325195,10.26547747157216
1772732203092890600,5.504890625,-23.236826012969015,16.069498096609113,11.805398051863907
1772732203102917600,5.514917724609375,-21.36261970205307,15.937492011129855,14.98720437992811
1772732203112946000,5.52494580078125,-20.680356400060653,18.037082948446272,14.37917769601345
1772732203122973700,5.5349736328125,-19.64846951305866,21.471555877590177,9.150775523239373
1772732203133001700,5.545001708984375,-19.641752187502384,24.12978607531786,5.985744973409176
1772732203143028700,5.55502880859375,-19.62689364106655,26.382563833308218,8.619148188394307
1772732203153056800,5.565056884765625,-16.365231101477146,27.731696468806266,11.518263363993167
1772732203163084800,5.575084716796875,-10.447820244103669,28.932505505752562,11.650372325325012
1772732203173112800,5.58511279296875,-5.367918195492029,29.197925205421445,10.405770908403396
1772732203183139800,5.595139892578125,-2.869728922116756,28.665615149009227,9.811206932651997
1772732203193167600,5.605167724609375,-2.1530054243788124,28.304944100284576,10.11237832918167
1772732203203196000,5.61519580078125,-1.6539160850450396,27.73507734341621,9.7415237400949
1772732203213223700,5.6252236328125,-0.612470657711476,26.971217123711106,8.297987312281132
1772732203223251000,5.6352509765625,0.6151490831404924,26.039823578071594,6.870278568196296
1772732203233278700,5.64527880859375,0.9850304432809353,25.055745905470847,6.257247792384028
1772732203243306800,5.655306640625,1.2373591907083987,23.7103822671175,7.1693100300878285
1772732203253334800,5.665334716796875,2.496168581202626,22.455797216320036,8.546078276008368
1772732203263361800,5.67536181640625,4.611104387167096,21.483501166927812,9.13375307676792
1772732203273389800,5.685389892578125,7.105923891848326,20.340662672913073,8.463313483560086
1772732203283417600,5.69541748046875,9.232195915341377,19.057008179497718,7.623004814946651
1772732203293446700,5.70544677734375,11.010235515922307,17.843495143800972,7.3527546263813965
1772732203303473700,5.7154736328125,11.487950058794022,16.839752985787392,7.586386272123455
1772732203313502000,5.725501953125,10.793491292095183,16.076528725898264,7.817043870490789
1772732203323529700,5.73552978515625,9.61804232185483,15.768113934111595,8.047080122089385
1772732203333557800,5.745557861328125,8.800354650372267,15.812942086875438,8.012900789111852
1772732203343584800,5.755584716796875,9.027644818133115,15.775816763573884,8.433504620751737
1772732203353612500,5.765612548828125,10.017534976404905,15.806322960996626,9.571925882846116
1772732203363640800,5.775640869140625,11.366661766684055,15.827767900085448,11.062517491823435
1772732203373668600,5.785668701171875,12.952422891652583,15.681930857652425,12.41083179667592
1772732203383696000,5.79569580078125,13.60042502760291,15.69434259545803,12.532247514557838
1772732203393723600,5.8057236328125,13.394702548527716,15.955228743350505,11.52959841247797
1772732203403752000,5.815751953125,12.653079879593848,16.21134051644802,10.465353562706708
1772732203413779700,5.82577978515625,11.7969084559381,16.362503722339866,9.867112944269179
1772732203423806700,5.835806640625,10.516074865162372,16.253163057655094,9.662758246415853
1772732203433834800,5.845834716796875,9.454766653364896,15.998946304523944,9.425320778650045
1772732203443862800,5.85586279296875,8.957281242096423,15.803025088495016,9.105636404830216
1772732203453890800,5.865890869140625,9.096253659456968,15.506783549582957,8.709289647090435
1772732203463917800,5.875917724609375,9.812358440774679,15.284763431179522,8.287745904251933
1772732203473945900,5.88594580078125,10.920163030809164,15.070934802538156,7.645929763460159
1772732203483973600,5.8959736328125,12.06986848798394,15.031700524258612,7.161731703788042
1772732203494002000,5.906001953125,13.113224863505362,15.339126305007934,6.832479875677824
1772732203504028700,5.916028564453125,13.707505930662155,15.961455070519447,6.535207240152358
1772732203514056700,5.926056640625,13.777798195028303,17.16492017493248,6.243668764364719
1772732203524084700,5.936084716796875,14.270648347711562,18.924286639225482,5.8267608646333215
1772732203534112800,5.94611279296875,14.613606045091151,21.126720695900914,5.0078988886743785
1772732203544140800,5.956140869140625,14.305672899341582,24.12123802720308,3.6023604753434655
1772732203554167800,5.966167724609375,14.071138167279958,27.49359966034889,1.828979806484282
1772732203564195800,5.97619580078125,14.957480272793768,29.709851814496517,-0.009893909765779972
1772732203574224000,5.986223876953125,16.964571790111062,31.56121033378839,-1.1984158581994473
1772732203584251600,5.996251708984375,18.746229581189155,32.83546571521759,-1.570391852531582
1772732203594279000,6.00627880859375,18.58026628105044,33.428231701636314,-0.14988149551823735
1772732203604306700,6.016306640625,16.91944786927104,34.208119511556625,3.352618821799755
1772732203614334700,6.026334716796875,13.66859197037816,34.94949668129682,6.484293045473098
1772732203624362800,6.03636279296875,9.717997903078794,35.56378242560625,8.409904549455643
1772732203634389800,6.0463896484375,6.399996805673838,36.53181847946644,10.404124894762038
1772732203644417800,6.056417724609375,3.192895877355337,37.52825294481516,12.280892580598593
1772732203654445600,6.066445556640625,0.525982022434473,38.32479495241642,14.919291119652986
1772732203664473900,6.076473876953125,-2.232316569241881,38.49320973736047,18.528999035149813
1772732203674500600,6.08650048828125,-5.462898910912871,37.444977280235285,27.43030295395851
1772732203684529000,6.09652880859375,-14.74186417621374,36.62087155840397,38.344647653877736
1772732203694556700,6.106556640625,-23.74708790370226,32.54466841318607,31.51140205452442
1772732203704585000,6.1165849609375,-25.911231100428104,32.50529034252167,20.356337211906908
1772732203714611700,6.12661181640625,-25.126971066772935,30.190852539432047,13.390132756394147
1772732203724639700,6.1366396484375,-24.250938758349417,27.944436717689037,17.43297723736763
1772732203734667800,6.146667724609375,-26.55642168608904,25.887036570370196,25.120183598589897
1772732203744695600,6.156695556640625,-32.06014886647463,22.751946400773523,31.848135762822626
1772732203754722800,6.166722900390625,-37.38414959430694,19.16623661597967,31.85439716130495
1772732203764750600,6.17675048828125,-41.118145568251606,16.31773752889633,28.79887912559509
1772732203774779000,6.18677880859375,-43.15056091191769,13.590654159694909,23.600964445543287
1772732203784806700,6.196806640625,-44.45873025338649,11.82361643012166,19.317047939693925
1772732203794833700,6.206833740234375,-47.32076920552254,8.570887138572335,16.821335870087147
1772732203804861700,6.21686181640625,-47.75530277831554,4.4822710865050555,15.024884999024867
1772732203814889700,6.2268896484375,-44.209845508933064,0.5741863736331463,12.315869201433658
1772732203824917800,6.236917724609375,-39.690429809904096,-2.6720380660668015,8.869602958643435
1772732203834944800,6.24694482421875,-36.311806778275965,-5.399859978675842,6.606556904616951
1772732203844972800,6.256972900390625,-33.47481342006922,-8.164801661628484,5.700262144398689
1772732203855000800,6.267000732421875,-30.455629265022274,-10.53433532899618,3.633801907789707
1772732203865028900,6.27702880859375,-28.32938412953615,-11.98234802544117,1.4860229858875273
1772732203875055900,6.287055908203125,-26.822128970527647,-12.730756993514298,-0.19194646717905997
1772732203885083600,6.297083740234375,-25.061609829068182,-12.932961819857358,-0.8824526968598365
1772732203895111700,6.307111572265625,-23.27312949849367,-13.072114269959926,-0.7648325718685984
1772732203905139700,6.3171396484375,-21.494721649122237,-12.986020040827988,-0.06697188777178525
1772732203915167000,6.3271669921875,-21.683215930020808,-12.450419126176833,0.0751785751029849
1772732203925194500,6.337194580078125,-23.8242611597538,-11.136575246202945,-0.5012248900577425
1772732203935222300,6.34722216796875,-25.6461808185935,-9.33634953277707,-0.12774170603305102
1772732203945250600,6.35725048828125,-27.379804938864705,-7.60463796812892,1.6509388227999209
1772732203955277600,6.367277587890625,-29.430419956088063,-5.769725556725263,3.3551278820112347
1772732203965305600,6.3773056640625,-32.38910375746488,-3.634258419385552,5.812023314228654
1772732203975333400,6.38733349609375,-36.518299657201766,-1.217358312948048,8.069495367515087
1772732203985361700,6.397361572265625,-39.655517486476896,1.6803490416795015,8.676538885611295
1772732203995389400,6.407389404296875,-40.591121927809716,4.572321944308281,10.532925462198257
1772732204005416400,6.41741650390625,-40.473305695724484,7.121259408146143,14.28788472919464
1772732204015444500,6.427444580078125,-40.12912985472679,10.328933167916535,17.044908478629587
1772732204025472500,6.437472412109375,-39.058666861093045,13.842212507271766,18.501667960631845
1772732204035500500,6.44750048828125,-37.64604111984968,16.98331740711331,19.3862506552577
1772732204045527600,6.457527587890625,-37.17949211411476,20.485121412730216,19.99458362864256
1772732204055555600,6.4675556640625,-36.8292840072155,24.371032287716865,20.29050368051529
1772732204065583400,6.477583251953125,-34.9987321291089,27.70656670372486,21.183213567495343
1772732204075611400,6.487611328125,-32.043716787111755,30.70918784650564,23.192238683223724
1772732204085638400,6.497638427734375,-29.25115878295898,33.441671028923984,24.10876433007717
1772732204095666400,6.50766650390625,-24.835208134579656,36.16138591518402,23.849383910572527
1772732204105694500,6.517694580078125,-20.86950768356323,38.32540986944437,22.962259714770315
1772732204115722500,6.527722412109375,-17.585595902764798,39.758603766942024,22.760763328957555
1772732204125749200,6.537749267578125,-13.34389590587616,40.38297602097988,22.055091094326972
1772732204135777500,6.547777587890625,-8.838516330984234,40.35669124064445,21.25357129831314
1772732204145805300,6.557805419921875,-4.605298038975894,39.46611836569309,20.631677417087555
1772732204155833600,6.56783349609375,-0.5132644335500895,37.79277715694904,20.483898592936992
1772732204165860400,6.5778603515625,3.649074880245328,35.57082708342075,20.39781254711151
1772732204175888600,6.587888671875,7.6220204800844185,32.724172747421264,19.54438253111839
1772732204185916400,6.59791650390625,11.466033995062112,29.557354729652403,17.071879487663505
1772732204195944400,6.6079443359375,13.712860151171684,26.902143002963065,13.640871604281664
1772732204205971500,6.617971435546875,14.90354293090105,24.324403807532786,10.56729184218049
1772732204215999500,6.62799951171875,15.217321295547485,22.271724258995054,7.8987892567634574
1772732204226027500,6.638027587890625,15.370662430000305,20.608958220279217,5.894215275225043
1772732204236055300,6.64805517578125,15.582917525714635,19.095677809631823,5.238976173758506
1772732204246082600,6.65808251953125,16.124626694113015,17.740896354591847,4.955438633596897
1772732204256110300,6.6681103515625,17.012170576632023,16.68471439976692,4.988762811049819
1772732204266138600,6.678138671875,17.021935599321125,15.873277605372666,4.712027936640381
1772732204276166400,6.68816650390625,15.773925250738857,15.451943705892562,3.9790374869734046
1772732204286193400,6.698193359375,13.502415904271603,15.142456900960205,3.5692590007305145
1772732204296221400,6.708221435546875,11.010124456763267,15.27848215895295,3.6832887000143524
1772732204306249500,6.71824951171875,8.488654261043667,15.674492232084273,3.540618597179651
1772732204316277500,6.728277587890625,6.251324832075834,16.076568473386764,3.8288960253447293
1772732204326304500,6.738304443359375,4.8769016879767175,16.883502111142874,5.069224002730846
1772732204336332500,6.74833251953125,4.683538924258947,17.711081062042712,6.67177902611196
1772732204346360300,6.7583603515625,5.480080931860209,18.059292442166804,7.897085959976911
1772732204356388600,6.768388671875,6.760354550665617,18.15443390110731,9.239637463518976
1772732204366415600,6.77841552734375,8.365270457959175,18.212441853439806,10.587755953538418
1772732204376443400,6.788443359375,9.416616078668833,18.35120968813896,10.951779819822312
1772732204386471400,6.798471435546875,9.405558093559742,18.637035046976802,10.857499946147202
1772732204396499500,6.80849951171875,9.03598945263028,18.911770856523514,10.640720651006697
1772732204406526500,6.8185263671875,8.47121388142109,18.926376889503,10.29005661703348
1772732204416554500,6.828554443359375,7.573194197595119,18.935245255613324,9.699157593530416
1772732204426582500,6.83858251953125,6.730916859257221,18.73780778980255,9.249052357596158
1772732204436610600,6.848610595703125,6.195213068753481,18.418598047757147,9.20272023001015
1772732204446638600,6.858638671875,6.0057917361378665,18.048083650410174,9.235575036385654
1772732204456665600,6.86866552734375,6.126183371669054,17.75424098933339,9.12359116371572
1772732204466693400,6.878693359375,6.568124005848169,17.411312518048284,8.891119209402799
1772732204476721400,6.888721435546875,6.744791655352711,17.144936540567873,8.642713772898912
1772732204486748400,6.89874853515625,7.036569785115122,17.122780822861195,8.430005672720075
1772732204496776700,6.908776611328125,7.528522696697712,17.2005736721158,8.090222513723372
1772732204506804500,6.918804443359375,8.391376374596357,17.501113785004616,7.668526795193553
1772732204516832300,6.928832275390625,9.73930431047976,18.240215995550155,7.536901233464479
1772732204526860500,6.938860595703125,11.004556301242113,19.34012954007387,7.269076810741424
1772732204536887300,6.94888720703125,11.494487351608276,20.678256797432898,6.835588363087177
1772732204546915600,6.95891552734375,11.719893020796775,22.356339647746086,6.2843140784859655
1772732204556943400,6.968943359375,11.57529165763855,24.2273965547204,5.615462046730518
1772732204566971600,6.9789716796875,10.865229663616418,25.878458127117156,5.2119017043501135
1772732204576998400,6.988998291015625,9.987304673314094,27.623298053407666,5.550899265927076
1772732204587026400,6.9990263671875,9.021626580756902,29.729636711418628,6.621885406652092
1772732204597054500,7.009054443359375,7.77243023726046,31.701661591529845,7.345124862155318
1772732204607082200,7.019082275390625,5.739277226969599,33.47723100260496,8.421425475901366
1772732204617109500,7.029109619140625,3.4721313364088533,35.538727479326724,11.255970856434105
1772732204627137500,7.039137451171875,0.5512737000793219,37.59766608825922,14.543860893213749
1772732204637165600,7.04916552734375,-3.267710003060102,38.78627264623642,18.224480666279792
1772732204647193300,7.059193359375,-8.399954817849396,39.57509195063114,21.25099940199852
1772732204657220400,7.069220458984375,-16.52559351286888,38.0946523178339,21.19482684839964
1772732204667248400,7.079248291015625,-23.392963500142095,35.08924651277065,20.773943030774593
1772732204677276400,7.0892763671875,-25.310099436724183,32.47353677538633,19.31896283340454
1772732204687304400,7.099304443359375,-25.328932732009886,29.535736772084235,16.871446931689977
1772732204697331500,7.10933154296875,-26.10238612496853,25.611495289659498,16.724342645800114
1772732204707359500,7.119359375,-29.701984149861335,20.861298658144474,19.844403588569165
1772732204717387500,7.129387451171875,-33.49497708717585,16.098979042637346,23.85348023997545
1772732204727415600,7.13941552734375,-32.745337116003036,11.611438491296768,26.52510534132719
1772732204737442600,7.149442626953125,-28.66148374829292,7.219051673856377,27.226875307822226
1772732204747470300,7.15947021484375,-26.7519840056777,3.385642555001378,27.693225576114653
1772732204757498600,7.16949853515625,-27.173931653141974,0.746062112686038,26.047833866047856
1772732204767526400,7.1795263671875,-28.950901578664777,-0.5390194909229874,24.354305609321592
1772732204777553700,7.1895537109375,-30.662311529040334,-1.8162813606917858,21.91834804345369
1772732204787581400,7.19958154296875,-30.67608520284891,-3.12468743352592,19.53380969917774
1772732204797609500,7.209609375,-29.229779310321806,-4.56065751773864,17.038230900561807
1772732204807637500,7.219637451171875,-26.965236295735835,-6.285559110110998,14.835361959600448
1772732204817664500,7.22966455078125,-24.9994751521945,-8.124588893705607,14.380235680633783
1772732204827692500,7.239692626953125,-25.3480769929409,-10.21099886240959,15.00441854957938
1772732204837720300,7.24972021484375,-26.32982125415802,-11.900188797670602,13.628141886568068
1772732204847748600,7.25974853515625,-27.28887671370506,-12.605597997450827,10.591923594611883
1772732204857775400,7.269775390625,-29.22044098861217,-12.610264820218086,8.76942409005761
1772732204867803600,7.2798037109375,-29.679823755979537,-12.379302685946225,7.109953001233935
1772732204877831400,7.28983154296875,-28.33626512122154,-11.906230415922403,5.398113427269458
1772732204887859500,7.299859375,-27.734338507747648,-11.68499004971981,4.641673128432036
1772732204897886500,7.309886474609375,-29.073534271121023,-11.400396863025426,5.622957370921969
1772732204907914500,7.31991455078125,-31.01764472386837,-11.056056186854839,7.303091893067956
1772732204917942500,7.329942626953125,-31.52346892441511,-9.615184009814262,6.982201650589704
1772732204927970800,7.339970703125,-32.15859404313564,-7.37186381599903,6.493429707130789
1772732204937997800,7.349997802734375,-32.5612898776412,-5.439105947393179,7.735908725070953
1772732204948025900,7.36002587890625,-31.75560594768524,-3.603247487311065,9.513271449303627
1772732204958054000,7.370053955078125,-31.339865922689437,-1.825732495126128,10.186621961522102
1772732204968082000,7.38008203125,-32.93593801379203,0.39420711536258457,11.134583195602893
1772732204978109000,7.39010888671875,-36.46582829620838,3.289579889562726,12.57834524886608
1772732204988136700,7.40013671875,-38.725183094501496,6.771446438044309,13.657642706340551
1772732204998165000,7.4101650390625,-39.32206879119873,10.31708374016881,15.077929191470146
1772732205008192800,7.42019287109375,-39.10749781975746,14.01231422238946,16.915692900651692
1772732205018220000,7.430219970703125,-37.23193074188232,17.59886805679202,17.983312779814003
1772732205028247800,7.440247802734375,-36.229340091991425,20.8806065852046,19.001645773237943
1772732205038275800,7.45027587890625,-38.326293666541574,25.138762042331695,19.321566293901203
1772732205048303900,7.460303955078125,-38.858355885672566,29.910756664156914,18.956601347374914
1772732205058331600,7.47033154296875,-35.78817102670669,33.94674937953949,18.58633244922161
1772732205068359000,7.48035888671875,-30.665633951461313,37.69041568362713,19.056454052746293
1772732205078386700,7.49038671875,-26.313562193274496,40.17439522986412,19.069753094780445
1772732205088415000,7.5004150390625,-22.504401380491256,42.11448417201042,19.59009448097944
1772732205098442800,7.51044287109375,-18.548866934180257,42.80587069165706,20.156119759988783
1772732205108469800,7.5204697265625,-13.396278419542313,42.53694853682518,19.26127519906759
1772732205118497800,7.530497802734375,-7.90831637904346,41.097640540361404,19.43369746608734
1772732205128525800,7.54052587890625,-3.655452598583698,38.421743753039834,20.24521726258993
1772732205138553900,7.550553955078125,-0.6420021648831665,36.26112639235258,20.170321303820607
1772732205148580900,7.560580810546875,1.5870447350382804,34.27302716027498,19.640234768676756
1772732205158609000,7.57060888671875,3.9043046098113057,32.77880450131893,18.86624712271094
1772732205168636700,7.58063671875,6.936100409150123,31.805318365359305,17.478209879279134
1772732205178665000,7.5906650390625,9.464634551906585,30.758023481345173,14.842998153567313
1772732205188692000,7.60069189453125,11.627792244726418,29.8158817471981,11.72790330877304
1772732205198719700,7.6107197265625,13.099433654040098,28.17761185183525,9.051367054504155
1772732205208747800,7.620747802734375,13.816806847858428,26.745271356296538,7.000201417660713
1772732205218775800,7.63077587890625,13.524494465088843,25.946346837472912,4.596127182787656
1772732205228802800,7.640802734375,12.775228587925433,25.04153033311367,1.6522294471323489
1772732205238830800,7.650830810546875,12.015164253371953,24.021399350357054,-0.09403905065655707
1772732205248859000,7.66085888671875,12.166834824264049,23.13745261554718,-1.224361469708383
1772732205258887000,7.670886962890625,12.52922202925682,22.54948672288656,-1.8881281610235572
1772732205268913700,7.68091357421875,12.577108400547504,22.017873416566847,-2.125390564483404
1772732205278942000,7.69094189453125,12.842808670723437,21.76763959559202,-1.8231155906260013
1772732205288969700,7.7009697265625,13.218988254225254,21.503842528688907,-0.9316548269242048
1772732205298997800,7.710997802734375,13.951844263857602,21.432121692824364,0.31470570862442254
1772732205309024800,7.721024658203125,14.767131888461112,21.63414181025028,2.0224699959740042
1772732205319053000,7.731052978515625,15.708794314658642,21.748289582955834,4.072508966875076
1772732205329080800,7.741080810546875,16.307992379951475,21.69801836235523,5.962396246525645
1772732205339108900,7.75110888671875,16.23680345900655,21.520017418420313,7.792077771538495
1772732205349137000,7.761136962890625,15.72159183691144,21.1742727206707,9.814498959934712
1772732205359163600,7.77116357421875,15.201684165954589,20.64936271138191,11.52127949694395
1772732205369192000,7.78119189453125,14.521598792523145,20.086274070346356,12.503508911329508
1772732205379219700,7.7912197265625,13.82331140744686,19.81753194825649,12.754265294873713
1772732205389248000,7.801248046875,13.073527643889188,19.695930352413654,12.519945666867494
1772732205399274800,7.811274658203125,12.795415635907649,19.502671049070358,12.219312030476331
1772732205409303000,7.821302978515625,12.848977714747189,19.281803607833385,12.004626492744684
1772732205419330800,7.831330810546875,12.400069579643011,19.31693103531599,11.90666179307699
1772732205429358800,7.84135888671875,11.344413694518805,19.576713605880737,11.594515413546562
1772732205439385900,7.8513857421875,10.11116836887002,19.98105545402765,10.918777713930606
1772732205449414000,7.861413818359375,8.524148183751105,20.460377432096003,9.9818464079082
1772732205459442000,7.87144189453125,6.846515415292978,21.065813514995575,9.09807736775279
1772732205469469700,7.8814697265625,5.247310286861658,21.409276239287852,8.194132970052957
1772732205479497000,7.8914970703125,4.55389722982347,21.860473362112042,7.597588634139299
1772732205489524700,7.901524658203125,4.3778775228336455,21.976594480717182,6.833421540442108
1772732205499552800,7.911552734375,4.353475487504899,22.269797674846647,6.45083325894177
1772732205509580800,7.921580810546875,4.54298654423058,22.9201390673995,5.819884549123048
1772732205519607800,7.93160791015625,4.891743575538695,23.292556668019294,5.305432220962643
1772732205529635800,7.9416357421875,5.94429594168961,24.043045364975928,5.388396919897199
1772732205539664000,7.951663818359375,6.407928183194994,25.467427010464668,5.974132861548662
1772732205549692000,7.96169189453125,6.446721731969713,28.14437126101255,6.649563687172532
1772732205559719000,7.971718994140625,3.758828217384219,31.523342667686936,7.2907719251990315
1772732205569746700,7.98174658203125,-3.0682489224672316,34.7566979812026,6.616850919616222
1772732205579775000,7.99177490234375,-11.224749204218387,36.5995481998682,4.82648609046936
1772732205589802800,8.001802734375,-17.77384000829458,36.49380585193634,4.58838957427293
1772732205599830000,8.011830078125,-22.372378928399083,35.63478079241514,7.503962255936861
1772732205609857800,8.02185791015625,-24.36255438222885,33.06451646291017,10.314449884533882
1772732205619885800,8.0318857421875,-21.778841373085974,29.26011599639654,11.987957097494602
1772732205629913900,8.041913818359374,-16.10583548440337,25.640365994834898,14.348780219662189
1772732205639940900,8.05194091796875,-12.084315531009436,23.046426190710065,17.50311635699868
1772732205649969000,8.061968994140624,-11.38216796337366,21.124988173019887,19.240512981545923
1772732205659996700,8.07199658203125,-13.48770582639575,20.228553712558746,19.52424224488735
1772732205670025000,8.08202490234375,-16.747891863691805,19.737363602042198,18.309521586966515
1772732205680052700,8.092052734375,-19.003882153987885,18.777177677160502,17.613742969840764
1772732205690080000,8.102080078125,-20.148584103786945,16.499848830759525,18.271490254735944
1772732205700107800,8.112107666015625,-21.10979761815071,13.466537950682639,19.54244191844463
1772732205710136000,8.122135986328125,-21.89139924625158,10.432073224395513,21.176306856846807
1772732205720162800,8.132162841796875,-21.744263396179676,6.923064401966333,22.953066354489327
1772732205730190800,8.14219091796875,-20.15055043542385,4.012177540031075,23.387857116913793
1772732205740219000,8.152218994140625,-18.038160806810854,1.6684993216708301,23.270508502340316
1772732205750246700,8.16224658203125,-16.02828696529865,-0.6059671210363506,24.38792263224125
1772732205760275000,8.17227490234375,-15.178811824411152,-2.7730630300879477,25.043255841732023
1772732205770301700,8.1823017578125,-15.986064611119032,-4.597675289012491,24.981726729536057
1772732205780330000,8.192330078125,-18.100863638961314,-5.897455280059575,23.916646013462543
1772732205790357800,8.202357666015626,-21.250396175408362,-6.726258219796419,21.795458161365985
1772732205800386000,8.212385986328124,-25.010454811370373,-7.352806648829579,19.583577061909438
1772732205810412800,8.222412841796874,-29.051577290856837,-7.930568542861938,18.411997626578806
1772732205820440800,8.23244091796875,-32.73996652888059,-8.757554204043746,18.525528144168852
1772732205830468900,8.24246875,-34.60241927363872,-9.404422367528081,17.454431528806687
1772732205840497000,8.252496826171875,-33.96547278470993,-8.510127841705083,14.307323589158058
1772732205850524000,8.26252392578125,-34.81078496069908,-7.364438049912453,11.193790586853027
1772732205860552000,8.272552001953125,-36.39746963025331,-6.8611845766365525,9.018955900242924
1772732205870580000,8.282580078125,-36.198175722920894,-6.240836171287298,8.176646997722983
1772732205880607700,8.292607666015625,-35.82628886817694,-5.7473769467949865,8.187129228770733
1772732205890634800,8.302634765625,-35.69016307241917,-5.080089095616341,9.04708776974976
1772732205900662800,8.312662841796875,-35.033144101798534,-4.152663284564018,10.854069971698522
1772732205910690800,8.32269091796875,-33.84702059280872,-2.67337457536757,12.326350847959517
1772732205920718800,8.33271875,-33.28672830449342,-0.8799488973453641,13.656159189784526
1772732205930745600,8.34274560546875,-33.06832053136825,1.0370619515523314,15.103008687669037
1772732205940773400,8.3527734375,-32.602681041693685,3.514602404652536,17.352923457443712
1772732205950801700,8.3628017578125,-31.991727072155474,6.130772453024983,20.224934353017805
1772732205960829400,8.372829345703124,-31.829267396223543,9.18729937351644,22.225881376230717
1772732205970856700,8.382856689453124,-32.547256676113605,13.136342704242468,23.54221298136711
1772732205980884500,8.392884521484374,-33.229788858175276,17.41620613530874,24.28980011166334
1772732205990912800,8.402912841796875,-33.30535818616151,21.638392453432083,24.439900656759736
1772732206000940500,8.4129404296875,-31.35408617122173,25.81815417280197,24.602423461055754
1772732206010967600,8.422967529296875,-27.94797190607786,29.28036617274284,25.226784024655817
1772732206020995600,8.43299560546875,-24.77471713325977,32.409024263465405,25.60711137548685
1772732206031023600,8.443023681640625,-22.135203326439857,35.332957069456576,24.009388594567774
1772732206041051600,8.4530517578125,-20.29373024134636,37.70122232432365,22.464251740932465
1772732206051078700,8.46307861328125,-19.527835885465144,39.659847624635695,21.756045019388196
1772732206061106700,8.473106689453125,-18.56152767831087,41.35485822887421,19.572130954265592
1772732206071134500,8.483134521484375,-15.353830537664889,42.42644584262371,16.723272970741988
1772732206081162800,8.493162841796876,-10.973767195224761,42.36133945646286,14.97418824648857
1772732206091189500,8.503189453125,-6.6956146597296,40.9919402780056,13.330121063023805
1772732206101217500,8.513217529296876,-3.224466489139199,38.59726632416248,12.011370706307888
1772732206111245600,8.52324560546875,-0.15704055522633714,35.362276687443256,11.046291164165735
1772732206121273600,8.533273681640624,2.4788860224902627,31.965346430230138,10.050124409842491
1772732206131300600,8.543300537109374,4.006822734999656,28.76975356887579,8.919252247953414
1772732206141328600,8.55332861328125,4.61975121948123,26.02567581025362,7.823931291916966
1772732206151356700,8.563356689453125,5.1844122244000435,23.71224572290182,6.6031567407846445
1772732206161384700,8.573384765625,6.300816300475597,21.70255191413164,5.292734651952982
1772732206171412700,8.583412841796875,8.042963918942213,20.864370905196665,4.425595551820099
1772732206181439700,8.593439697265625,9.397818439218401,20.287798513209818,3.0828201763942835
1772732206191467500,8.603467529296875,10.690952124118803,19.752254881703852,0.8883297721996903
1772732206201495600,8.61349560546875,11.589907042968273,18.797244313633442,-1.4893357636973261
1772732206211523600,8.623523681640625,11.342844837766885,17.12353251801133,-2.073968712542951
1772732206221550600,8.633550537109375,10.93823995476961,15.856105521297454,-0.5328855182126164
1772732206231578600,8.64357861328125,10.287754769831896,14.969530776071547,1.2041115856230258
1772732206241606400,8.6536064453125,9.63189782872796,14.419617258429527,2.5247116618588565
1772732206251634700,8.663634765625,8.865034335553645,14.30136848014593,3.3817642522633076
1772732206261661400,8.673661376953126,7.919899849331379,14.656210676586626,3.6861177859604357
1772732206271689700,8.683689697265624,6.716462801969051,15.053344200789928,3.8917569706663486
1772732206281717500,8.693717529296874,5.796952001824975,15.663434246975182,4.22831356883198
1772732206291745500,8.70374560546875,5.664879280850291,16.258067196309565,4.445818547898531
1772732206301772500,8.7137724609375,5.498107586938143,16.756188567394016,4.761879470524192
1772732206311800600,8.723800537109375,5.250107808625698,17.197192797505856,5.274831330993771
1772732206321828600,8.73382861328125,5.186541053122282,17.664504019784925,5.636577899995446
1772732206331856400,8.7438564453125,5.235284333503246,18.058799105691907,6.046595455691218
1772732206341883600,8.753883544921875,5.755497124886513,18.453926550769804,6.433803798207641
1772732206351911400,8.763911376953125,6.090768359416723,18.75612436773777,6.461544038048387
1772732206361939700,8.773939697265625,6.548094778776169,18.649007224321362,6.56750616621077
1772732206371967500,8.783967529296875,6.8565224300444125,18.491520660626886,6.976674411600828
1772732206381994500,8.793994384765625,7.042288162761926,18.153676360738277,7.2142416432261465
1772732206392022500,8.8040224609375,7.354205409711599,17.81110444780588,7.373098326230049
1772732206402050600,8.814050537109376,8.52225783995986,17.43244999862313,7.237049687361717
1772732206412078600,8.82407861328125,9.479214865922927,17.280093199032542,7.124441545313596
1772732206422105600,8.834105712890626,9.845932209074496,17.160038248109817,6.819053992393613
1772732206432133600,8.844133544921876,10.076634815627337,17.010447406101225,6.4228486889511345
1772732206442161700,8.85416162109375,9.953922628194093,17.030835529613494,6.259413445985317
1772732206452189700,8.864189697265624,10.14246250180006,17.24322740345001,6.041213762652873
1772732206462216700,8.874216796875,10.584389107453822,17.363043869441746,5.944995614391565
1772732206472244500,8.884244384765625,11.051153217244147,17.85677898826599,5.740142319366336
1772732206482272500,8.8942724609375,11.449818188798426,18.635628687310216,5.473545392611623
1772732206492300500,8.904300537109375,11.123557943719625,19.80860045378208,4.883820673584938
1772732206502327800,8.914327880859375,9.799389069086313,21.757730780518052,3.96164562266767
1772732206512355600,8.92435546875,7.623000723293424,24.166328045773504,2.9288354833409187
1772732206522383600,8.934383544921875,6.849413474822044,26.285809093952178,0.5654749881828204
1772732206532411600,8.94441162109375,7.354790516123175,28.459290612387655,-1.5425982750684022
1772732206542438400,8.9544384765625,7.006570368170737,30.858198842799663,-1.8710932934619484
1772732206552466700,8.964466796875,5.179788071730733,33.49883726973533,-0.4403368522442877
1772732206562494500,8.974494384765626,2.0330986497551202,35.74632861175537,1.2567508505292235
1772732206572522800,8.984522705078126,-2.050805571359396,37.415643633723256,2.341642474748939
1772732206582550500,8.994550537109374,-6.415623413872718,37.9289543906331,2.4059128484770653
1772732206592577800,9.004577880859374,-9.269801715636254,36.678542826128,1.5119786803990602
1772732206602605600,9.01460546875,-8.15292768396139,34.5534924533844,1.371838972824812
1772732206612633600,9.024633544921874,-5.188249026083946,33.47244259928465,3.0659663644880055
1772732206622661600,9.03466162109375,-4.136652060961723,32.85831350684166,6.563154400742054
1772732206632688600,9.044688720703125,-4.752219077253342,31.90168965835571,11.561318077343701
1772732206642716700,9.054716552734375,-6.569125876367091,30.732486889028547,18.589212973093986
1772732206652744400,9.064744384765625,-11.022238088405132,28.906746795117854,22.98589777998924
1772732206662772700,9.074772705078125,-16.197178720104695,27.319140919065475,22.02204690285921
1772732206672799500,9.084799560546875,-19.768375995421408,26.422121936714646,21.25168679974079
1772732206682827500,9.09482763671875,-23.29302896170616,23.96616904604435,25.867871266651154
1772732206692855600,9.10485546875,-26.483971366906164,21.165586725389957,28.99817537101507
1772732206702883600,9.114883544921875,-27.657824592387673,18.43453562160134,30.303062037551403
1772732206712910600,9.12491064453125,-28.939192436170575,15.052095662033556,32.588860606133935
1772732206722938600,9.134938720703126,-32.05450238502026,10.716451307034491,33.583041155076025
1772732206732966700,9.144966552734376,-35.19813592655659,6.482216823720932,32.82634249756336
1772732206742994400,9.154994384765626,-37.84205469033718,1.935911364200711,32.042587490820885
1772732206753021400,9.165021484375,-40.51011187007427,-2.7530390637129543,32.696379900610445
1772732206763049700,9.1750498046875,-41.66587531211376,-6.689985129410028,32.85665112658739
1772732206773077500,9.185077392578124,-39.71540058503151,-9.20427096658349,29.330328765785694
1772732206783105500,9.19510546875,-36.319305025076865,-10.204984132164716,22.009977694880963
1772732206793132500,9.205132568359375,-34.12672600746155,-10.400538268446923,15.709708506894112
1772732206803160600,9.21516064453125,-33.34511035083532,-10.716694468140602,12.535745293545721
1772732206813188600,9.225188720703125,-32.004946619212625,-11.409696606290339,10.640486842250823
1772732206823216600,9.235216552734375,-29.226538720965383,-12.37343525521755,8.669880012243986
1772732206833243600,9.24524365234375,-26.17204009143114,-13.134141394805907,7.15123427517116
1772732206843271400,9.255271484375,-23.313683627200124,-13.572477867013216,6.658793287810683
1772732206853299700,9.2652998046875,-21.313091993296144,-13.39602122991085,7.143639582258462
1772732206863327500,9.275327392578125,-20.302722526097295,-13.167061667633057,7.621299180072546
1772732206873355500,9.28535546875,-20.310038402068614,-12.4381336450994,7.924270904022455
1772732206883382500,9.295382568359376,-20.94487359793186,-11.307619210606813,8.28650145714879
1772732206893410600,9.30541064453125,-21.485715335845946,-10.097052165234087,9.336056102788447
1772732206903438600,9.3154384765625,-22.400608997583387,-8.710264629602431,10.981252582544087
1772732206913466600,9.325466552734374,-24.675479344916344,-6.722082979938388,12.049890698838233
1772732206923492600,9.33549267578125,-29.047272871661185,-3.789641581059992,12.616639615947008
1772732206933520600,9.345520751953124,-34.592070898103714,-0.19052841707468032,13.316257372844218
1772732206943548700,9.355548583984374,-37.60808226833343,3.6847640332639213,14.07697169573903
1772732206953576400,9.365576416015625,-37.260649471366406,7.178193009245395,14.763575657284258
1772732206963603700,9.375603759765625,-34.977743117094036,9.987699810111522,16.283631845676897
1772732206973631700,9.3856318359375,-33.28428500299454,13.107218316566943,17.435934918129444
1772732206983659800,9.39565966796875,-33.10901026915312,16.814311086016893,17.51134174903035
1772732206993687600,9.4056875,-33.291051428389544,21.038376057493686,17.267231379371882
1772732207003714600,9.415714599609375,-33.11224852042198,24.9134919822216,16.769037527573108
1772732207013742600,9.42574267578125,-31.043796233212944,28.416267463219164,17.053564078772066
1772732207023770600,9.4357705078125,-27.869854062652585,31.77335670843124,15.80116981601715
1772732207033798700,9.445798583984375,-22.7284953825593,34.95869939392805,13.937385530394314
1772732207043825700,9.45582568359375,-17.67232492266893,36.75443247210979,12.726937727487087
1772732207053853700,9.465853759765626,-14.259437217867374,37.677953676939005,12.105770991492271
1772732207063881700,9.4758818359375,-12.700294050711392,38.15323076353073,11.3621024959445
1772732207073909500,9.485909423828126,-11.00081185401678,38.40996680600643,9.498028287464379
1772732207083937500,9.4959375,-8.152939374399185,38.18728500882387,7.492126856714487
1772732207093964500,9.505964599609374,-4.558046750718355,37.132159869575496,6.407981374686956
1772732207103992600,9.51599267578125,-1.3003016768336295,35.37718199563026,6.368494582951069
1772732207114020600,9.5260205078125,1.3588906439244746,33.096660490667816,6.554654867944121
1772732207124048600,9.536048583984375,3.851050866268575,30.74738518295288,6.902911256253719
1772732207134075600,9.54607568359375,5.261618213677406,28.27220386019945,7.257137366622686
1772732207144103400,9.556103515625,5.928185933887958,26.11558696732521,7.489260361367464
1772732207154131700,9.566131591796875,6.15118220384717,24.386197123622892,7.690861961120366
1772732207164159500,9.576159423828125,6.4868140883833165,22.963424082374573,7.839540948981046
1772732207174186800,9.586186767578125,7.4560828989088535,21.96488066204786,7.9114546770691865
1772732207184214500,9.596214599609375,8.85435979680419,20.722961031556128,7.793624416458607
1772732207194242800,9.606242919921876,10.509770212060213,19.031871400153637,8.187175990521908
1772732207204270600,9.6162705078125,11.809225501197576,17.380524581074713,9.179366826951503
1772732207214297600,9.626297607421876,12.041273677140474,16.049016449594497,9.590171733632683
1772732207224325600,9.63632568359375,11.66468142118454,15.215861159867048,9.000568010637163
1772732207234353700,9.646353759765624,11.004329506748913,15.012633420217036,7.644644984346628
1772732207244381700,9.656381591796874,9.918755453222989,15.20874986655712,6.152574534988403
1772732207254408700,9.66640869140625,8.79721459878087,15.587721126604078,5.317656327241659
1772732207264436700,9.676436767578124,7.803453736555576,15.942562154000997,4.822641397739947
1772732207274464500,9.686464599609375,7.537288186955451,16.168122136968375,4.669669681121409
1772732207284492800,9.696492919921875,7.718107695442438,16.460586495429276,4.771712297752499
1772732207294521600,9.706521484375,8.323373097950219,16.60118154555559,5.171086878880858
1772732207304549600,9.716549560546875,9.171934631124138,16.675794595730302,5.698662892508507
1772732207314576600,9.72657666015625,10.205751024883986,16.56402699615955,6.138523797804117
1772732207324604700,9.736604736328125,11.382324615240096,16.423566386067865,6.7015861353546375
1772732207334632700,9.7466328125,12.453732196247577,16.263137339180705,7.176285129797458
1772732207344660500,9.756660400390626,13.093880696088075,15.96646559215784,7.798681699848174
1772732207354687700,9.766687744140626,12.958006244742869,15.591349838495253,8.355750349941848
1772732207364715500,9.776715576171876,12.30737960550785,15.069074853885173,8.784434612184763
1772732207374743800,9.786743896484374,11.68650279237032,14.430566522467135,9.140109167796373
1772732207384771600,9.796771484375,11.233736812794207,13.788981267821788,9.228557266578077
1772732207394798600,9.806798583984374,11.7577454893291,13.091176697826384,9.52150619368553
1772732207404826600,9.81682666015625,13.081816164284945,12.411915500259399,10.011931749570369
1772732207414854400,9.8268544921875,13.979838186198473,12.003872459506988,10.198847821366787
1772732207424882700,9.836882568359375,14.204185870766638,11.941188332057,10.01780268743038
1772732207434909700,9.84690966796875,14.134236136227845,12.093181559032201,9.863578924924134
1772732207444937700,9.856937744140625,13.956416394078731,12.388847928404807,9.970094010794162
1772732207454965500,9.866965576171875,13.967221865731476,12.740483437758684,10.395699596244096
1772732207464993800,9.876993896484375,14.748991836136579,13.292336399030685,11.035995395600795
1772732207475020500,9.8870205078125,14.400640170758962,14.351306523269415,11.528790603226422
1772732207485048600,9.897048583984375,12.442849567705393,15.640540862643718,11.525125650978088
1772732207495076600,9.90707666015625,9.719108494669198,17.135303619825837,11.45477493442297
1772732207505104600,9.917104736328126,7.108448441889881,18.35253655282855,11.727571300339697
1772732207515131600,9.927131591796876,5.734933644807338,18.78616996191144,12.270164265835284
1772732207525159700,9.93715966796875,6.080263916537166,19.572367101109027,12.216533213412761
1772732207535187700,9.947187744140624,7.415954886659979,21.48483153874874,11.058713423365354
1772732207545215500,9.957215576171874,8.452009414735436,23.446271896481512,9.684821609663963
1772732207555243800,9.967243896484375,8.974565554374456,25.377480782079694,8.769657314291596
1772732207565270800,9.977270751953125,9.082489337998629,27.752044844830035,9.682501057761908
1772732207575298600,9.987298583984375,7.340640410217643,31.054114213609694,11.944455809420347
1772732207585326600,9.99732666015625,2.4009067107528446,33.702325706148144,13.209432490372658
1772732207595354600,10.007354736328125,-4.000115930837392,36.07884674818516,12.64032093578577
1772732207605381600,10.017381591796875,-9.422269574385881,36.52091831526756,9.57643196209371
1772732207615409700,10.02740966796875,-10.878930856710673,35.44949202955961,5.756864906108379
1772732207625437700,10.037437744140625,-7.876060123082995,33.756185891151425,2.5253613579392433
1772732207635465700,10.0474658203125,-2.1209213101148605,31.890083391714093,1.3391086696118115
1772732207645492500,10.057492431640625,3.3811955124646422,30.128046831429003,1.7710918272696434
1772732207655520800,10.067520751953126,6.1453884228765965,29.34905918521881,4.1855306581601495
1772732207665548500,10.077548583984376,4.646069317564368,29.768243213188647,9.002651831173896
1772732207675576600,10.08757666015625,-1.5787819336056708,31.597375872147083,15.381175640708207
1772732207685603600,10.097603515625,-12.47506256904602,33.60478303128481,16.988233236205577
1772732207695631600,10.107631591796874,-23.861137476730345,34.35326564911604,12.392045263141393
1772732207705659600,10.11765966796875,-30.229445012676713,32.712384109950065,5.576904060277342
1772732207715687700,10.127687744140625,-30.983840653944014,29.762748707425594,1.3740782761842012
1772732207725714700,10.137714599609374,-30.490677197527884,25.56747845327854,3.7407024858459827
1772732207735742500,10.147742431640625,-33.17333573406935,21.013162121260166,13.03282738471031
1772732207745770800,10.157770751953125,-39.905056895446776,15.300779330956935,21.76269921658039
1772732207755798500,10.167798583984375,-46.51886128697395,9.882813202226162,23.47474045059681
1772732207765826800,10.177826904296875,-50.440703891563416,6.841223738625645,19.354237560403345
1772732207775853600,10.187853515625,-51.8609564744234,5.05963082947731,13.410365397083758
1772732207785881600,10.197881591796875,-51.47178180027008,3.3800726459145545,8.354363279497623
1772732207795909600,10.20790966796875,-48.26712417345047,1.920889151635766,5.589761788284778
1772732207805937400,10.2179375,-43.303308172130585,0.17073709041178226,2.853080861915648
1772732207815964700,10.227964599609376,-39.08392522099018,-0.7619353891223669,-1.4378408465206622
1772732207825992700,10.23799267578125,-37.064822947883606,-1.0114771361798047,-5.95703442723155
1772732207836020700,10.248020751953124,-36.48600832992792,-1.7399375412017106,-9.124009681388735
1772732207846048500,10.258048583984374,-34.63169680604935,-2.935619736653566,-10.363273828935622
1772732207856075500,10.268075439453124,-31.168161448550222,-4.491108472955227,-9.871917714202404
1772732207866103600,10.278103515625,-27.390340361404416,-5.793446624052525,-8.006907101655006
1772732207876131600,10.288131591796875,-24.305944606256485,-6.598600392654538,-5.397902414867281
1772732207886159600,10.29815966796875,-21.983185549545286,-7.196164719265699,-2.702945830027759
1772732207896186600,10.3081865234375,-21.207740105986595,-7.114927867037057,-0.20131986020207404
1772732207906214700,10.318214599609375,-21.74684464484453,-5.96678892852664,0.9615475686237216
1772732207916242700,10.32824267578125,-22.979613000631332,-3.9267005660146475,1.4433295070648193
1772732207926270700,10.338270751953125,-24.535465309548375,-1.5769927121013403,1.8697521079860626
1772732207936298000,10.348298095703125,-25.648465130138394,0.7929875299900769,2.4305527842149135
1772732207946325800,10.35832568359375,-25.906321116554736,3.505363159403205,3.5688714627176523
1772732207956353800,10.368353759765625,-26.49187176476717,6.273959857732057,4.532817616915702
1772732207966381800,10.3783818359375,-26.763010426604747,8.668760068303346,5.225719217300415
1772732207976408800,10.388408935546876,-26.30909878412485,10.593671315062046,6.914516938373446
1772732207986436900,10.398436767578126,-26.480478264093396,12.16024960065484,9.134600048986076
1772732207996464600,10.408464599609376,-27.92001539313793,14.277025481528042,10.644412491261958
1772732208006493000,10.418492919921874,-29.110924967360496,17.19826013447642,10.42030913684368
1772732208016520700,10.428520751953124,-29.49816604310274,20.997639557957648,8.923323442915082
1772732208026548000,10.4385478515625,-28.789921912157535,24.249921690261363,7.56994834754169
1772732208036575700,10.44857568359375,-27.992161760938167,26.894955721807477,7.655061748942733
1772732208046604000,10.45860400390625,-26.802940285933015,29.151916318440435,8.435725803932547
1772732208056631800,10.4686318359375,-24.12472879192829,30.92875531105995,9.16114961773753
1772732208066658800,10.478658935546875,-21.340863797318935,32.543854758715625,9.574277414408325
1772732208076686800,10.488686767578125,-19.046231933939456,33.86006244521141,9.242949364545941
1772732208086714600,10.498714599609375,-17.48862839744091,34.998643281781675,8.796161874857544
1772732208096743000,10.508742919921875,-15.597016193693875,35.55043895990848,9.04807678078711
1772732208106770000,10.51877001953125,-13.103579083281755,35.684883670711514,9.990672688442467
1772732208116798000,10.5287978515625,-10.651408049237727,35.379620620954036,10.75838140026927
1772732208126825700,10.53882568359375,-8.29116477278471,34.82985440282822,11.004484989571571
1772732208136854000,10.54885400390625,-5.609719703686237,33.95842812689543,11.375825900870561
1772732208146880800,10.558880859375,-2.1287948199689386,32.296253624331946,12.5881207929492
1772732208156908800,10.56890869140625,2.4657401251912114,29.854114154958722,14.304028054744004
1772732208166936800,10.578936767578124,7.013263728329539,27.488741114401815,14.82661049786806
1772732208176964900,10.58896484375,10.070721792191266,26.130050376963613,13.763122019422054
1772732208186991900,10.598991943359374,10.944423027318715,25.61430567090511,11.185773284614086
1772732208197020000,10.60902001953125,10.861531978142262,25.17752519596815,8.026000509181618
1772732208207048000,10.6190478515625,10.64189086382985,24.101254392838477,5.93513940628767
1772732208217075700,10.62907568359375,10.199149434661864,22.63725619175434,5.569637868666648
1772732208227104000,10.63910400390625,10.38015599015355,21.325635833048818,5.877899515718221
1772732208237131000,10.649131103515625,11.559421888333558,19.80624833769798,6.167774442207813
1772732208247158800,10.65915869140625,13.08396603579521,18.638941757380962,6.321406668561696
1772732208257186800,10.669186767578125,14.283006309503316,17.67425618299246,6.821905290171504
1772732208267214800,10.67921484375,15.878430750352143,16.62119089888334,7.099380753815174
1772732208277241900,10.689241943359375,17.304577651947735,15.476554415535926,6.380787662813067
1772732208287270000,10.699269775390626,18.332443028348685,14.554742352712154,5.906117894464731
1772732208297298000,10.7092978515625,19.30426678405404,13.667164567923544,5.978803191447257
1772732208307326000,10.719325927734374,20.15006411321163,12.78802727922201,7.100621109265089
1772732208317352700,10.729352783203124,20.760096876251698,11.890319730085134,8.853267325392364
1772732208327381000,10.739381103515624,21.260181071841714,11.279193911111355,10.628697035735845
1772732208337408800,10.74940869140625,21.41904710719585,11.173658483928442,11.761297044330835
1772732208347436800,10.759436767578125,21.194576673030852,11.490977882182598,12.23641631001234
1772732208357463800,10.7694638671875,20.554010824561118,12.163404849815368,12.610525516980886
1772732208367491800,10.779491943359375,19.333543147420883,12.935733622658251,13.054344804513454
1772732208377519900,10.789519775390625,17.82134293322563,13.79606684216857,13.51776895622611
1772732208387547600,10.799547607421875,16.014106464254855,14.54775614708662,13.53889708445072
1772732208397575000,10.809574951171875,14.182776002991199,15.206804577708244,13.057629817533492
1772732208407602700,10.819602783203125,12.555364186251163,15.925745459234713,12.676496995538473
1772732208417631000,10.829630859375,11.396069062954187,16.386622264552116,12.522196076142787
1772732208427658800,10.83965869140625,10.812150399857758,16.791923897641897,12.947252211016416
1772732208437685800,10.849685791015625,10.324433518409728,17.18856291632652,13.133266950058937
1772732208447713800,10.8597138671875,9.897664734399319,17.473388742733,12.803457488065957
1772732208457741800,10.869741943359376,9.48168973160386,17.93122837231159,12.141025844746828
1772732208467769900,10.879769775390624,8.929048250302673,18.439844249403475,11.161488738185167
1772732208477796900,10.889796875,8.261313239878415,18.68529200514555,10.338141725766658
1772732208487825000,10.899824951171874,7.530236514878273,18.832265358132123,10.291980863094329
1772732208497853000,10.90985302734375,6.653786273303628,19.05361210731864,10.054701216238737
1772732208507881000,10.919880859375,6.3423044951617715,19.124221182549,9.143656046622992
1772732208517908000,10.929907958984375,7.408752407935261,19.493876332718134,8.807904919621349
1772732208527935700,10.939935791015625,9.289701763370633,20.328874035441874,8.29765355028212
1772732208537963800,10.9499638671875,11.011399883526563,21.106302177250384,8.09513074403107
1772732208547991800,10.95999169921875,12.20551146866083,23.04156998285055,9.294961291334033
1772732208558019800,10.970019775390625,11.459444095277785,24.824892492270468,10.14520507850647
1772732208568046800,10.980046875,8.725905266326665,26.97080328221321,12.033582538115978
1772732208578075000,10.990074951171875,3.8435558343380687,29.88862198923826,14.827959574389457
1772732208588103000,11.00010302734375,-2.4514994183927774,32.16891436161995,17.988640112316606
1772732208598131000,11.010130859375,-9.840217923080921,33.97858010356426,18.54929597324729
1772732208608158000,11.020157958984376,-16.816846741974352,34.526730703186985,13.23327981442809
1772732208618185700,11.030185791015626,-18.75851155513525,34.6240652882576,5.838162548613548
1772732208628213800,11.0402138671875,-16.174211686015127,34.829307290339464,1.362298260410875
1772732208638241800,11.05024169921875,-15.274666400057077,34.607696337258815,1.2399915850386023
1772732208648269000,11.06026904296875,-19.97820064911842,33.62169208050966,4.623742627204955
1772732208658296800,11.070296875,-28.049753533685205,30.61446022906303,7.153418048951029
1772732208668324900,11.080324951171875,-33.74283541119098,27.1115584913373,4.584534652410447
1772732208678353000,11.090352783203125,-34.88549153437614,24.2794704408288,-0.023547464326024056
1772732208688379600,11.100379638671875,-32.316810090148444,21.011368808102606,-1.70877434117496
1772732208698408000,11.110407958984375,-29.175287841677665,16.15566597549915,1.7336086304411291
1772732208708435700,11.120435791015625,-27.535502865576742,10.638656119692325,7.47951287433505
1772732208718464000,11.130464111328125,-26.7514626121521,6.640332917490601,11.553325325024128
1772732208728491800,11.14049169921875,-26.24113759305477,3.826201963955164,11.83928044772148
1772732208738519000,11.15051904296875,-26.14964121261835,2.0223896242141723,9.284376768955587
1772732208748546800,11.160546875,-27.700927236533165,0.2495586981922388,7.333023505473136
1772732208758574800,11.170574951171876,-30.028900228500365,-1.5648866792440415,5.819405241173506
1772732208768603000,11.180602783203126,-29.358116936421393,-2.5235119306802747,3.3549262219592926
1772732208778630000,11.1906298828125,-27.345720298433303,-2.8514970998555422,1.347910984748602
1772732208788658000,11.200657958984374,-25.937974145925043,-3.519811371472478,0.15745090785920618
1772732208798685700,11.210685791015624,-24.974179382896423,-4.3163107089757915,-0.4380722683131695
1772732208808714000,11.2207138671875,-24.224794263267516,-5.065889305350185,-1.1226090681955219
1772732208818740700,11.23074072265625,-23.330246639466285,-5.826456328728795,-2.070000101172924
1772732208828768800,11.240768798828125,-22.219154698324203,-6.334070919823646,-3.4729531741857524
1772732208838796800,11.250796875,-21.399145305895804,-6.202046714165807,-4.559418039071559
1772732208848824800,11.260824951171875,-21.47518458948135,-5.587600810858607,-5.15565842360258
1772732208858851800,11.270851806640625,-22.404752088737485,-4.760867663133144,-5.535545044928789
1772732208868880000,11.2808798828125,-23.787300671625136,-3.723050217038393,-5.242310286617279
1772732208878908000,11.290907958984375,-25.24572253388166,-2.5895798553496596,-4.764370118296146
1772732208888935700,11.300935791015625,-26.26090846145153,-1.1002712719202041,-4.246845250822603
1772732208898962700,11.310962646484375,-26.72234874587059,0.22789397887289523,-2.845522117099166
1772732208908991000,11.320990966796876,-27.681981713044642,1.8194798644721506,-0.6339566594630479
1772732208919018800,11.331018798828126,-30.361914039492607,4.073672749957442,0.27101094380468127
1772732208929046300,11.34104638671875,-34.06087377136946,7.2276686955541365,-0.39838169763348996
1772732208939074600,11.351074462890624,-37.88078744883537,10.939257022857666,-0.7893377022456377
1772732208949101600,11.3611015625,-40.68071744306087,14.362806406927108,-0.2987577595166862
1772732208959129600,11.371129638671874,-39.658893684911725,17.203029833096267,0.6247194600403309
1772732208969157400,11.381157470703124,-36.936157989525796,19.68327662254572,2.2216266867928205
1772732208979185700,11.391185546875,-34.69819201622009,22.14465153826475,3.872990603137016
1772732208989212400,11.40121240234375,-34.44781089572906,24.86345457037687,4.3788671183928844
1772732208999240400,11.411240478515625,-34.34911554369926,28.086643879187104,4.977994164276123
1772732209009268500,11.4212685546875,-32.17391319282055,31.182257778441905,5.729921369603276
1772732209019296500,11.431296630859375,-29.08626281979084,34.414401962602135,5.972299800902605
1772732209029323500,11.441323486328125,-26.556269710397718,37.35156366800069,6.864602860647439
1772732209039351600,11.4513515625,-23.773842639636992,39.66504753136635,7.594616924852132
1772732209049379300,11.46137939453125,-19.308488201141355,41.60588466153145,8.062287628093362
1772732209059407400,11.471407470703125,-13.988469236421585,42.54752136876583,9.37215617469549
1772732209069434400,11.481434326171875,-9.47630219334662,41.975494218993184,10.887398240804671
1772732209079462700,11.491462646484376,-5.128742944148183,40.600979304957384,10.729068796545267
1772732209089490400,11.501490478515626,-1.4707552741289138,39.211872386467455,10.083954198729991
1772732209099518500,11.5115185546875,1.2206880418926476,37.196494686841966,9.828065712994336
1772732209109545500,11.52154541015625,3.911691212931275,35.0959708525896,9.934392582815885
1772732209119573200,11.5315732421875,6.161015031075477,32.759868330180645,10.26428621596098
1772732209129601500,11.5416015625,8.806472256469727,30.775839708542822,11.133444546961783
1772732209139629300,11.55162939453125,12.252108384662867,29.250391890239715,11.576680481648445
1772732209149657600,11.56165771484375,16.14071858173609,27.824810805833337,10.239335314577817
1772732209159684400,11.571684326171875,19.03531657217145,25.86837629356384,8.087973273491858
1772732209169712600,11.581712646484375,20.155296753168106,23.63771918196678,6.543499267679453
1772732209179740400,11.591740478515625,19.48894062988162,22.519224855613707,5.2851007960736744
1772732209189768400,11.6017685546875,17.19703380755186,21.946075423812864,3.497415415269136
1772732209199795500,11.61179541015625,14.46640239048004,21.701663440859317,1.8914640274479984
1772732209209823500,11.621823486328125,12.925941711962222,22.03040322779417,1.2565882073134182
1772732209219851500,11.6318515625,12.41472821959257,22.114567365646362,1.4266378999829292
1772732209229879300,11.64187939453125,11.820290500569342,21.90429146105051,1.7397966714262962
1772732209239906600,11.651906494140626,10.865579207706451,22.00820542451143,2.178125544849038
1772732209249934300,11.661934326171876,10.100470449244975,21.989601261806488,2.943857695905864
1772732209259962600,11.671962646484374,10.19197852011919,21.664443425011633,4.474286517491937
1772732209269990400,11.681990478515624,11.193910998362302,20.995147156620025,6.045916825777292
1772732209280017400,11.692017333984374,12.221579975408314,20.107894366002082,7.192796119615435
1772732209290045400,11.70204541015625,13.202908057039975,19.235825115990636,8.529422324761748
1772732209300073500,11.712073486328125,13.49768244600892,18.401258790421483,9.937318699395655
1772732209310101500,11.7221015625,13.436412861531972,17.705037105703354,11.550064861923456
1772732209320128500,11.73212841796875,13.747736234241723,16.250164460361002,12.546016512191295
1772732209330156500,11.742156494140625,14.271184938806295,14.956073913127183,12.487341035860776
1772732209340184600,11.7521845703125,14.366968202781676,14.244363567376135,12.011797407287359
1772732209350212600,11.762212646484375,14.063756824856995,13.441920226776599,11.050320858073233
1772732209360240400,11.772240478515625,13.466995046800374,12.66385612515211,9.962642525744437
1772732209370267400,11.782267333984375,12.813201467967033,12.017178515803813,9.039110214999317
1772732209380295400,11.79229541015625,12.71553721255064,11.296035155797004,8.440129591849447
1772732209390323500,11.802323486328126,13.338388540631533,10.694092175710201,8.24800718358159
1772732209400351500,11.8123515625,13.933353498399256,10.525585036307573,8.007868055641651
1772732209410378500,11.82237841796875,14.287854334056377,10.643154600155352,7.725144169950485
1772732209420406500,11.832406494140624,14.381092589724062,10.992986274957657,7.801194559451937
1772732209430434600,11.8424345703125,13.923401428705453,11.517088474994898,7.880490214484929
1772732209440462300,11.85246240234375,13.116221122711897,12.205666951483487,7.905786568304896
1772732209450489600,11.862489501953124,11.91209317047596,12.848258752822876,7.88959005126357
1772732209460517400,11.872517333984375,10.663675994658469,13.497224180847406,7.5481363287061445
1772732209470545400,11.88254541015625,9.40608124065101,14.25858615399599,6.77032590958178
1772732209480573400,11.892573486328125,8.32335497777164,15.158160666048525,5.567701347646117
1772732209490600400,11.902600341796875,8.525675539448857,15.878947467702627,4.489586377954483
1772732209500628500,11.91262841796875,10.629576156657933,16.95415327194929,3.5639179319635033
1772732209510656300,11.92265625,12.71809040416479,18.276222543954848,3.154929719315469
1772732209520684500,11.9326845703125,15.506982287025451,21.13437559456825,4.571807565045357
1772732209530711300,11.942711181640625,17.153363008129595,23.421857586193084,5.664803293004631
1772732209540739600,11.952739501953126,15.042662647777794,24.959405007612705,8.3990534850955
1772732209550767400,11.962767333984376,10.721646537590026,28.903517896199226,13.299746967548131
1772732209560795600,11.972795654296876,1.9373919581472872,34.23618825269937,17.13140602786541
1772732209570822400,11.982822509765626,-11.587026519095897,36.60657181489467,14.317915125799178
1772732209580850400,11.992850341796874,-20.862715539205073,36.20686873246431,8.071647577112913
1772732209590878500,12.00287841796875,-20.778691686606408,35.898727496922014,2.199493034787476
1772732209600906500,12.012906494140625,-16.984467746192216,34.84620464912653,-3.0097908882796762
1772732209610934500,12.0229345703125,-11.718231809586285,32.84336845116615,-5.816466265112162
1772732209620961500,12.03296142578125,-9.352087784656883,31.14296621701717,0.8524791450090706
1772732209630989600,12.042989501953125,-15.944613825833796,29.434029963278768,12.755378224551677
1772732209641017300,12.053017333984375,-29.910525193488596,25.899540662634372,19.497294616729018
1772732209651045600,12.063045654296875,-43.09462918133735,21.932727281939982,19.51756934299469
1772732209661072400,12.073072265625,-48.147610489797586,17.813907814788816,12.970076621764898
1772732209671100400,12.083100341796875,-46.44526296679973,13.908382723271846,8.704557942393421
1772732209681128400,12.09312841796875,-43.68986886439323,8.638080852401256,11.272778198850155
1772732209691156500,12.103156494140626,-39.79193086700439,2.630922211824357,16.709495789802073
1772732209701183500,12.11318359375,-35.42060963394642,-2.547555069568753,19.444857158005238
1772732209711211500,12.12321142578125,-31.440464477992055,-5.647894828301668,19.057697915327548
1772732209721239600,12.133239501953126,-29.164427424967286,-6.728265467965603,16.10389837886095
1772732209731267300,12.143267333984374,-28.78991022171974,-7.025926810547709,11.192661290562151
1772732209741294300,12.15329443359375,-28.780983403420446,-6.685154640513658,6.285596519511937
1772732209751322600,12.163322509765624,-27.80382880808115,-6.188026956641673,3.0845439314469694
1772732209761350400,12.173350341796874,-25.57344525272846,-6.172918234837055,1.340633394961059
1772732209771378400,12.18337841796875,-22.875745798921585,-6.700766635665297,0.5360980505183339
1772732209781405400,12.193405517578125,-20.487828918123245,-7.307212772390246,0.44240240647196766
1772732209791433500,12.20343359375,-18.450594775998592,-7.683037551105022,0.776935389855504
1772732209801461500,12.21346142578125,-16.948990774619578,-8.095059432360529,1.3117483689993619
1772732209811489500,12.223489501953125,-16.277744541203976,-8.364889934208989,2.122589535588026
1772732209821517600,12.233517578125,-16.55834076721668,-8.120961350858211,3.010285686059296
1772732209831544300,12.24354443359375,-17.88615004417896,-7.570402521049976,3.649044192846119
1772732209841572600,12.253572509765625,-19.26871966985464,-6.748033998274803,4.247861442127824
1772732209851600400,12.263600341796876,-20.091644657468795,-5.649920781171321,5.051851427647471
1772732209861628400,12.27362841796875,-20.920300297689437,-4.4211613687649365,5.787606081330776
1772732209871655400,12.283655517578126,-21.311915935254095,-3.057330053567886,6.869858296957612
1772732209881683500,12.293683349609376,-22.292456081378457,-1.6228016925960778,8.378933072608708
1772732209891711500,12.30371142578125,-23.599706554436683,0.19531185195893047,8.855711211413144
1772732209901739300,12.3137392578125,-24.116045134735106,2.5109511397928,8.165615900620818
1772732209911766500,12.3237666015625,-24.202056361758707,4.7693271561816335,7.359831432899832
1772732209921794300,12.333794189453124,-24.249044907426832,6.934913829714059,6.997504433661699
1772732209931822600,12.343822509765625,-23.60403903068304,9.13595613977015,6.9207859356403345
1772732209941850600,12.3538505859375,-22.57518931941986,11.078983473455905,7.273536712759733
1772732209951877600,12.363877685546875,-21.673865917873382,12.863422419685124,7.420880652624368
1772732209961905400,12.373905517578125,-20.418976915693282,14.501971716511248,7.614025974199175
1772732209971933700,12.38393359375,-19.062222114753723,16.00507326297164,7.330774265241622
1772732209981961500,12.39396142578125,-17.407520140027998,17.683019335162637,6.671038436877727
1772732209991988700,12.40398876953125,-16.35078405845165,19.2508520047307,6.193916014680266
1772732210002016500,12.4140166015625,-15.855142229223251,20.50749457257986,5.188911873906851
1772732210012044500,12.42404443359375,-14.26813373454213,21.58193932932615,4.951100896653533
1772732210022072600,12.434072509765626,-12.614534168100356,22.3109924395442,5.259671755784749
1772732210032100600,12.4441005859375,-11.203246981984377,22.83683066959381,5.05229975593686
1772732210042127600,12.454127685546876,-9.747783969533442,23.335243132579325,4.6201098236605525
1772732210052155400,12.4641552734375,-8.272355442896485,23.472587071955203,4.476335851237177
1772732210062183700,12.47418359375,-7.794283757150173,23.52218258525133,5.736733387705684
1772732210072211500,12.48421142578125,-8.698713308018446,23.684205038809775,6.652839932364225
1772732210082238700,12.49423876953125,-9.263350347539783,24.53366498212814,7.427299872016906
1772732210092266500,12.5042666015625,-9.111433692932128,25.58493227690458,7.4302832717418665
1772732210102294800,12.514294677734375,-8.645211434933543,26.371733811736107,5.60333672465086
1772732210112322600,12.524322509765625,-7.532823608762025,26.84105345122814,4.010165615686774
1772732210122349600,12.534349609375,-7.047796697050333,27.65738269383907,3.7468253526404496
1772732210132377600,12.544377685546875,-8.275321306964754,28.053057251405715,4.720635605987906
1772732210142405600,12.554405517578125,-9.08310367050469,28.147361675000187,6.883180135345459
1772732210152433700,12.56443359375,-8.090746245336533,28.37776149921417,8.95765884323716
1772732210162460700,12.574460693359375,-5.613606189730763,28.418144947528837,11.036627848285436
1772732210172488700,12.58448876953125,-1.641538103378564,28.016279134106636,12.5773749425292
1772732210182516500,12.5945166015625,3.1483938878059385,27.27690804349184,13.934040896141529
1772732210192544800,12.604544677734374,8.13107241050601,25.597595359122753,14.911057544314861
1772732210202572500,12.614572509765624,12.869928148317337,23.06357606295347,15.653065997695922
1772732210212599600,12.624599609375,16.070581800192592,20.26459299418926,15.365117655354737
1772732210222627600,12.634627685546874,16.941125448071954,18.119619777357578,13.803501960605383
1772732210232655600,12.644655517578125,15.478193414914607,17.307298016822337,12.530615529441834
1772732210242683600,12.65468359375,13.970005358970164,16.729671147346494,11.387538550496101
1772732210252710700,12.664710693359375,13.81762517850399,16.27860729551315,9.872336231875419
1772732210262738700,12.67473876953125,14.225380634486674,15.664756435489654,8.011705441847443
1772732210272766500,12.684766357421875,15.665013625121116,14.77448400478959,6.568354891994595
1772732210282794500,12.69479443359375,18.613442574465275,13.754784399187564,6.055770695793628
1772732210292821800,12.70482177734375,22.0480955363512,12.681931880068777,6.666005703407525
1772732210302849500,12.714849609375,24.59586512545347,11.633098534440993,6.799581814682483
1772732210312877600,12.724877685546875,26.163936279952523,10.964784262824057,6.68214785991311
1772732210322905600,12.734905517578126,25.96123344095945,10.82337789631486,6.6246700689345595
1772732210332932400,12.744932373046876,24.29932548037767,11.008536895310877,6.709908558019995
1772732210342960600,12.754960693359376,22.348074508225917,11.425202802979946,7.049889285415411
1772732210352988400,12.764988525390624,20.215294418013094,11.958756721973419,7.856334262871742
1772732210363016700,12.7750166015625,18.648724315726756,12.508761425030231,8.667492240324616
1772732210373043500,12.78504345703125,17.581534644675255,13.187237025177478,9.669327687934041
1772732210383071700,12.79507177734375,16.1190959479928,14.038656285870074,10.488511150932311
1772732210393099500,12.805099609375,15.129362441587448,14.893912348246573,10.908338152980804
1772732210403127600,12.81512744140625,14.957406623035668,15.904878027772902,11.466098292469978
1772732210413154600,12.825154541015625,14.892790066218375,17.100647316986322,12.428953144299983
1772732210423182600,12.8351826171875,14.25388425991535,18.618344375032187,14.008848007583618
1772732210433210600,12.845210693359375,13.199562253743409,20.09333275668621,15.940879900002479
1772732210443238400,12.85523828125,12.159656895458697,21.32887642240524,16.744069090533255
1772732210453266700,12.8652666015625,10.604800611841679,22.685715394496917,16.566864265412093
1772732210463293400,12.87529345703125,8.7367680211246,23.74868481750488,15.440727899873256
1772732210473321700,12.88532177734375,6.779600518405437,24.39247021254301,14.10338156375885
1772732210483349500,12.895349609375,5.494602793687582,24.59984455047846,12.750012313604355
1772732210493377800,12.905377685546876,5.892217963927984,24.647721569418906,11.746806746685504
1772732210503404500,12.915404541015626,7.240722822916507,24.74691493409872,11.446731913220882
1772732210513432600,12.9254326171875,8.711900121849775,25.123742167854306,11.768555637156963
1772732210523460600,12.935460693359374,9.80312416396141,26.147651500105855,13.043583756524324
