time,seconds_elapsed,z,y,x
1772732197667873000,0.079873046875,-0.5657333731651306,0.010173551738262177,-0.7070995569229126
1772732197677901300,0.0899013671875,-0.5075947046279907,0.04853052645921707,-0.7970497012138367
1772732197687929000,0.09992919921875,-0.46259433031082153,0.07213928550481796,-0.8400177359580994
1772732197697957400,0.109957275390625,-0.4165791869163513,0.06751124560832977,-0.8406326174736023
1772732197707984100,0.119984130859375,-0.3625089228153229,0.08778589218854904,-0.7969540953636169
1772732197718012400,0.130012451171875,-0.2916027903556824,0.09888621419668198,-0.7135215401649475
1772732197728040200,0.140040283203125,-0.2733546793460846,0.03562634810805321,-0.6174481511116028
1772732197738068200,0.150068115234375,-0.26336249709129333,-0.006598073057830334,-0.5751819610595703
1772732197748095200,0.16009521484375,-0.21330781280994415,0.03589393198490143,-0.5771788954734802
1772732197758123300,0.170123291015625,-0.12305382639169693,0.08676483482122421,-0.6281081438064575
1772732197768151300,0.1801513671875,-0.0354805625975132,0.052514903247356415,-0.6998909711837769
1772732197778179000,0.190178955078125,0.04025308042764664,0.012912901118397713,-0.7620177268981934
1772732197788206000,0.2002060546875,0.1057848259806633,0.006752476561814547,-0.7866716980934143
1772732197798234000,0.210234130859375,0.16418156027793884,-0.03180929645895958,-0.7804074287414551
1772732197808262100,0.22026220703125,0.21446534991264343,-0.06133709475398064,-0.7161056399345398
1772732197818290200,0.230290283203125,0.209883913397789,-0.017865251749753952,-0.5720464587211609
1772732197828317200,0.240317138671875,0.17765705287456512,0.06606394797563553,-0.3866671025753021
1772732197838345200,0.25034521484375,0.15573205053806305,0.11408712714910507,-0.2335025668144226
1772732197848373200,0.260373291015625,0.15493863821029663,0.16566479206085205,-0.14907465875148773
1772732197858401300,0.2704013671875,0.17768682539463043,0.17737524211406708,-0.05704085901379585
1772732197868429000,0.280428955078125,0.19066068530082703,0.17888951301574707,0.011565099470317364
1772732197878456000,0.2904560546875,0.21913540363311768,0.14662812650203705,0.05183697119355202
1772732197888484400,0.300484375,0.28088703751564026,0.1346680372953415,0.0932350680232048
1772732197898512100,0.31051220703125,0.37199485301971436,-0.03306477144360542,0.10203468799591064
1772732197908540200,0.3205400390625,0.4076986014842987,-0.1348699927330017,0.17134560644626617
1772732197918567200,0.330567138671875,0.31820255517959595,-0.27791261672973633,0.21384114027023315
1772732197928595500,0.340595458984375,0.06975960731506348,-0.5628880858421326,0.17727436125278473
1772732197938623700,0.350623779296875,-0.2549346089363098,-0.5667874813079834,0.20313844084739685
1772732197948651500,0.360651611328125,-0.600607693195343,-0.506486177444458,0.21955618262290955
1772732197958678500,0.370678466796875,-0.8573236465454102,-0.5260888934135437,0.2219005674123764
1772732197968706600,0.38070654296875,-0.9791156649589539,-0.582128643989563,0.23436622321605682
1772732197978734600,0.390734619140625,-0.8943336606025696,-0.6384392976760864,0.21192537248134613
1772732197988762600,0.4007626953125,-0.6649343967437744,-0.7012181878089905,0.2044607400894165
1772732197998789600,0.41078955078125,-0.42908379435539246,-0.8380298614501953,0.35568806529045105
1772732198008817700,0.420817626953125,-0.12298481911420822,-1.0450501441955566,0.7304334044456482
1772732198018845400,0.430845458984375,0.07173273712396622,-1.1643483638763428,1.1614996194839478
1772732198028873700,0.440873779296875,0.04575474560260773,-1.0508687496185303,1.5665433406829834
1772732198038900700,0.450900634765625,-0.07882393896579742,-0.7700559496879578,1.8650200366973877
1772732198048928500,0.460928466796875,-0.11334128677845001,-0.5595704317092896,1.6830477714538574
1772732198058956500,0.47095654296875,-0.038396209478378296,-0.5262311100959778,1.2918318510055542
1772732198068984600,0.480984619140625,0.044671010226011276,-0.5873135924339294,0.9343953728675842
1772732198079011600,0.491011474609375,0.09025793522596359,-0.6977460980415344,0.7533717751502991
1772732198089039600,0.50103955078125,0.10061025619506836,-0.7885357141494751,0.7437834143638611
1772732198099067600,0.511067626953125,0.13054311275482178,-0.9347224831581116,0.8738577961921692
1772732198109095700,0.521095703125,0.2452569156885147,-0.7817585468292236,0.9813377261161804
1772732198119123700,0.531123779296875,0.34986186027526855,-0.1064562201499939,0.8058522343635559
1772732198129150700,0.541150634765625,0.47254541516304016,0.9478928446769714,0.3620196282863617
1772732198139178500,0.551178466796875,0.592893123626709,1.9980244636535645,-0.09625472128391266
1772732198149206500,0.56120654296875,0.7140572667121887,1.6688423156738281,-0.2640114724636078
1772732198159234600,0.571234619140625,0.8669061660766602,1.3129515647888184,-0.48958149552345276
1772732198169261600,0.581261474609375,1.1956491470336914,0.7764860391616821,-0.47820720076560974
1772732198179289600,0.59128955078125,1.2348692417144775,0.10172837972640991,-0.4599168598651886
1772732198189317600,0.601317626953125,1.0786782503128052,-1.2737609148025513,-0.5604556202888489
1772732198199345700,0.611345703125,0.7743767499923706,-0.4072369635105133,-0.6159327030181885
1772732198209372400,0.621372314453125,0.22386808693408966,-0.5910912156105042,-0.6662481427192688
1772732198219400700,0.631400634765625,-0.42408883571624756,-0.9940104484558105,-0.8119850754737854
1772732198229428500,0.641428466796875,-0.6715984344482422,-1.193346619606018,-0.9165002107620239
1772732198239456800,0.651456787109375,-0.7562313079833984,-1.5207455158233643,-0.9095003604888916
1772732198249483500,0.6614833984375,-0.8229392766952515,-1.6294008493423462,-0.9279696345329285
1772732198259511800,0.67151171875,-0.7716395854949951,-1.5213209390640259,-1.001815915107727
1772732198269539600,0.68153955078125,-0.5999731421470642,-1.301137924194336,-1.0854209661483765
1772732198279567400,0.6915673828125,-0.38092952966690063,-0.8734534978866577,-1.1095187664031982
1772732198289594600,0.7015947265625,-0.310837060213089,-0.5873221755027771,-0.9925776124000549
1772732198299622700,0.71162255859375,-0.2983066141605377,-0.050820909440517426,-0.7817040085792542
1772732198309650700,0.721650634765625,-0.18839231133460999,0.3968290686607361,-0.5677908062934875
1772732198319678500,0.731678466796875,0.0032421087380498648,0.726185142993927,-0.3949074447154999
1772732198329706800,0.741706787109375,0.12142781168222427,1.0124062299728394,-0.28945866227149963
1772732198339733500,0.7517333984375,0.20175407826900482,1.1920697689056396,-0.25625064969062805
1772732198349761500,0.761761474609375,0.29595306515693665,1.1635643243789673,-0.3301398754119873
1772732198359789600,0.77178955078125,0.22150199115276337,0.9260938167572021,-0.5656631588935852
1772732198369817600,0.781817626953125,0.03584864363074303,0.6870362162590027,-0.8420676589012146
1772732198379844600,0.7918447265625,-0.22061829268932343,0.7906864285469055,-0.9291253089904785
1772732198389872600,0.80187255859375,-0.5178335905075073,0.8310344219207764,-0.8750566840171814
1772732198399900700,0.811900634765625,-0.714583158493042,0.9120946526527405,-0.7108022570610046
1772732198409928400,0.821928466796875,-0.7541990876197815,1.105544090270996,-0.4457384943962097
1772732198419955500,0.83195556640625,-0.6330084800720215,1.2642560005187988,-0.15561024844646454
1772732198429983500,0.8419833984375,-0.310301274061203,1.2758835554122925,0.12365522980690002
1772732198440011500,0.852011474609375,0.08114399015903473,1.259568452835083,0.41466444730758667
1772732198450039600,0.86203955078125,0.35167399048805237,1.3258894681930542,0.6797636151313782
1772732198460066600,0.872066650390625,0.3849019706249237,1.699329137802124,0.814721941947937
1772732198470094600,0.882094482421875,0.2526164650917053,2.1617841720581055,0.8415004014968872
1772732198480122600,0.89212255859375,0.21780414879322052,2.412074327468872,0.8900588750839233
1772732198490150700,0.902150634765625,0.058512747287750244,2.3363962173461914,0.8381069898605347
1772732198500178700,0.9121787109375,-0.03219212219119072,2.2409873008728027,0.7336311936378479
1772732198510205400,0.922205322265625,-0.14703777432441711,2.1280338764190674,0.572148859500885
1772732198520233700,0.932233642578125,-0.29140347242355347,2.0690035820007324,0.32678520679473877
1772732198530261500,0.942261474609375,-0.5161333084106445,1.924067735671997,-0.06247514486312866
1772732198540289500,0.95228955078125,-0.6712920069694519,1.6646865606307983,-0.6440171599388123
1772732198550316500,0.962316650390625,-0.7818421721458435,1.3532387018203735,-1.3337323665618896
1772732198560344600,0.972344482421875,-0.789800763130188,1.0116301774978638,-2.0398917198181152
1772732198570372600,0.98237255859375,-0.7364417314529419,0.6498487591743469,-2.762399673461914
1772732198580400600,0.992400634765625,-0.5394596457481384,0.3711143136024475,-3.254814624786377
1772732198590427600,1.002427734375,-0.26792222261428833,0.45710524916648865,-3.46574068069458
1772732198600455400,1.012455322265625,0.012952055782079697,0.7544405460357666,-3.3645763397216797
1772732198610483700,1.022483642578125,0.26938149333000183,1.1328052282333374,-2.9789576530456543
1772732198620511500,1.032511474609375,0.4344239830970764,1.4731870889663696,-2.405066967010498
1772732198630538800,1.042538818359375,0.40258294343948364,1.7233225107192993,-1.950824499130249
1772732198640566500,1.05256640625,0.21653904020786285,1.704811692237854,-1.59441339969635
1772732198650594600,1.062594482421875,-0.021067051216959953,1.5534826517105103,-1.3013980388641357
1772732198660622600,1.07262255859375,-0.24108515679836273,1.3918572664260864,-1.0794059038162231
1772732198670649600,1.082649658203125,-0.35049372911453247,1.2512725591659546,-1.0059870481491089
1772732198680677600,1.092677734375,-0.31423744559288025,1.1337836980819702,-1.1057250499725342
1772732198690705700,1.10270556640625,-0.17411410808563232,0.9707781076431274,-1.2981623411178589
1772732198700733700,1.112733642578125,-0.06480971723794937,0.811880886554718,-1.4601272344589233
1772732198710760700,1.1227607421875,0.0004151813918724656,0.5806714296340942,-1.6077730655670166
1772732198720788500,1.13278857421875,0.015106509439647198,0.3078921139240265,-1.7094967365264893
1772732198730816500,1.14281640625,-0.010889937169849873,0.08871529996395111,-1.7073230743408203
1772732198740844500,1.152844482421875,-0.03531724959611893,0.013081519864499569,-1.585422158241272
1772732198750871600,1.16287158203125,-0.0251686479896307,0.042848531156778336,-1.450192928314209
1772732198760899600,1.172899658203125,-0.014844371937215328,0.10435769706964493,-1.2805732488632202
1772732198770927600,1.182927734375,-0.0027391286566853523,0.1543230265378952,-1.064587950706482
1772732198780955600,1.19295556640625,0.04823590815067291,0.18945997953414917,-0.8695740103721619
1772732198790983700,1.202983642578125,0.14442706108093262,0.19256915152072906,-0.7017733454704285
1772732198801010700,1.2130107421875,0.22733312845230103,0.17278213798999786,-0.5559239983558655
1772732198811038500,1.22303857421875,0.27421265840530396,0.14121456444263458,-0.41877633333206177
1772732198821066500,1.23306640625,0.2923887073993683,0.055349987000226974,-0.26601821184158325
1772732198831094500,1.243094482421875,0.3024347126483917,-0.08938145637512207,-0.12069860845804214
1772732198841121800,1.253121826171875,0.27193644642829895,-0.29382914304733276,-0.033455584198236465
1772732198851149600,1.263149658203125,0.25764504075050354,-0.4699039161205292,0.11686382442712784
1772732198861177600,1.273177490234375,0.2406894862651825,-0.6293103694915771,0.2549756169319153
1772732198871205600,1.28320556640625,0.18696759641170502,-0.742094874382019,0.3555074632167816
1772732198881232400,1.293232421875,0.11413174122571945,-0.8311278820037842,0.4902258813381195
1772732198891260700,1.3032607421875,0.08259320259094238,-0.8194026350975037,0.6964023113250732
1772732198901288400,1.313288330078125,0.13296902179718018,-0.7934277057647705,0.9651517271995544
1772732198911316700,1.323316650390625,0.2118578553199768,-0.7972773909568787,1.1752182245254517
1772732198921343000,1.333343017578125,0.3139514625072479,-0.8550727963447571,1.3193963766098022
1772732198931371000,1.34337109375,0.399873286485672,-0.9248390197753906,1.4935905933380127
1772732198941399000,1.35339892578125,0.4344418942928314,-1.0157439708709717,1.6991114616394043
1772732198951427000,1.363427001953125,0.41470542550086975,-1.1766947507858276,1.8688828945159912
1772732198961454000,1.3734541015625,0.38069072365760803,-1.365731954574585,2.000349760055542
1772732198971482000,1.383482177734375,0.36814236640930176,-1.5493686199188232,2.1040122509002686
1772732198981510100,1.39351025390625,0.3798168897628784,-1.6974170207977295,2.220432996749878
1772732198991538000,1.403537841796875,0.28090447187423706,-1.7521164417266846,2.2887680530548096
1772732199001565000,1.41356494140625,0.21019139885902405,-1.8227094411849976,2.342500686645508
1772732199011593200,1.42359326171875,0.05015343055129051,-1.625799536705017,2.4243223667144775
1772732199021621000,1.43362109375,-0.1330704540014267,-1.5965585708618164,2.63832950592041
1772732199031649000,1.44364892578125,-0.3038938343524933,-1.562548041343689,2.996326446533203
1772732199041677000,1.453677001953125,-0.43162304162979126,-1.6378004550933838,3.4733633995056152
1772732199051704000,1.4637041015625,-0.46293944120407104,-1.8373806476593018,3.95641827583313
1772732199061732000,1.473732177734375,-0.4743412435054779,-2.1099023818969727,4.343141555786133
1772732199071760100,1.483760009765625,-0.45025184750556946,-2.4326634407043457,4.6132283210754395
1772732199081788200,1.4937880859375,-0.43664655089378357,-2.6913485527038574,4.812280178070068
1772732199091815000,1.50381494140625,-0.43135958909988403,-2.765730381011963,4.9528489112854
1772732199101843200,1.51384326171875,-0.3834112584590912,-2.9016075134277344,5.1949238777160645
1772732199111871000,1.52387109375,-0.26824328303337097,-2.7816290855407715,5.57018518447876
1772732199121899000,1.53389892578125,-0.28578951954841614,-2.358490228652954,5.7842254638671875
1772732199131926000,1.543926025390625,-0.3600091338157654,-2.015305757522583,5.99832820892334
1772732199141954300,1.553954345703125,-0.41881120204925537,-1.648635983467102,6.094522476196289
1772732199151982000,1.563982177734375,-0.450370728969574,-1.3368009328842163,6.117605209350586
1772732199162010000,1.574010009765625,-0.4565575122833252,-1.1014004945755005,6.046234607696533
1772732199172037000,1.584037109375,-0.4180634617805481,-0.9295781254768372,5.8810248374938965
1772732199182065000,1.59406494140625,-0.31139692664146423,-0.8351719975471497,5.668992519378662
1772732199192093200,1.60409326171875,-0.1666271984577179,-0.819973886013031,5.3820271492004395
1772732199202121000,1.614120849609375,-0.0740639716386795,-0.8483458757400513,5.061671257019043
1772732199212148200,1.624148193359375,0.014058226719498634,-0.7578330636024475,4.684680461883545
1772732199222176000,1.634176025390625,0.17005261778831482,-0.552710235118866,4.272890567779541
1772732199232204300,1.644204345703125,0.3772854208946228,-0.344979465007782,3.8117358684539795
1772732199242232000,1.654232177734375,0.5829320549964905,-0.2736898362636566,3.280132532119751
1772732199252259000,1.664259033203125,0.7653659582138062,-0.32628947496414185,2.7137937545776367
1772732199262287000,1.674287109375,0.8641108870506287,-0.3411605656147003,2.2454545497894287
1772732199272315100,1.684315185546875,0.9068180322647095,-0.3021387457847595,1.898937702178955
1772732199282343200,1.69434326171875,0.8990005850791931,-0.2147497832775116,1.668594479560852
1772732199292370200,1.7043701171875,0.8458718061447144,-0.09646996855735779,1.5402069091796875
1772732199302398200,1.714398193359375,0.7610647678375244,0.03903965651988983,1.4652786254882812
1772732199312426000,1.724426025390625,0.6680565476417542,0.15283085405826569,1.4129409790039062
1772732199322454000,1.7344541015625,0.5810121893882751,0.20167934894561768,1.3533844947814941
1772732199332482000,1.74448193359375,0.4876301884651184,0.19892553985118866,1.2779687643051147
1772732199342509000,1.754509033203125,0.3953665494918823,0.14632464945316315,1.170418381690979
1772732199352537000,1.764537109375,0.31560587882995605,0.0702163577079773,1.0325125455856323
1772732199362565000,1.774565185546875,0.2753514051437378,0.0330016165971756,0.8753606677055359
1772732199372593200,1.78459326171875,0.2610152065753937,0.048859305679798126,0.7183178663253784
1772732199382620200,1.7946201171875,0.25998884439468384,0.08744505047798157,0.599175214767456
1772732199392648000,1.80464794921875,0.22957348823547363,0.12587258219718933,0.5025957822799683
1772732199402676200,1.81467626953125,0.17159514129161835,0.12042508274316788,0.3821631073951721
1772732199412704000,1.8247041015625,0.10452627390623093,0.08278070390224457,0.2374206781387329
1772732199422731300,1.834731201171875,0.04538119584321976,0.02533392421901226,0.09626275300979614
1772732199432759000,1.844759033203125,0.0025613917969167233,-0.043519459664821625,-0.03605709597468376
1772732199442787000,1.854787109375,-0.03248554468154907,-0.08080212026834488,-0.15130245685577393
1772732199452815000,1.864815185546875,-0.0286050196737051,-0.09709291905164719,-0.2742782533168793
1772732199462842000,1.874842041015625,0.012418048456311226,-0.11663785576820374,-0.44082143902778625
1772732199472870100,1.8848701171875,0.0897405669093132,-0.1403234601020813,-0.6690155267715454
1772732199482898000,1.89489794921875,0.1574128270149231,-0.12863697111606598,-0.9244246482849121
1772732199492926200,1.90492626953125,0.22029517590999603,-0.07459154725074768,-1.1863058805465698
1772732199502953000,1.914952880859375,0.26885154843330383,0.03624282777309418,-1.4506595134735107
1772732199512981200,1.924981201171875,0.30777934193611145,0.15137945115566254,-1.7526631355285645
1772732199523009000,1.935009033203125,0.3482271730899811,0.2668357491493225,-2.0779802799224854
1772732199533037300,1.945037353515625,0.41403311491012573,0.39743104577064514,-2.381592035293579
1772732199543064000,1.95506396484375,0.494178831577301,0.5770626068115234,-2.614888906478882
1772732199553092000,1.965092041015625,0.5649182200431824,0.7738515734672546,-2.7955243587493896
1772732199563120000,1.9751201171875,0.6292668581008911,1.0048896074295044,-2.9424262046813965
1772732199573148000,1.98514794921875,0.7081728577613831,1.3033792972564697,-3.020038366317749
1772732199583175200,1.995175048828125,0.7888088226318359,1.6491752862930298,-3.0721828937530518
1772732199593203000,2.005202880859375,0.8466130495071411,2.023712635040283,-3.163074016571045
1772732199603231200,2.015231201171875,0.8232555389404297,2.4260191917419434,-3.3597395420074463
1772732199613259000,2.025259033203125,0.6891084313392639,2.870931625366211,-3.6156809329986572
1772732199623286000,2.0352861328125,0.4337496757507324,3.314645528793335,-3.8393332958221436
1772732199633314000,2.04531396484375,0.060643039643764496,3.649777412414551,-4.122549057006836
1772732199643342000,2.055342041015625,-0.39171963930130005,3.853361129760742,-4.4463629722595215
1772732199653370000,2.0653701171875,-0.9099631309509277,3.9267940521240234,-4.747104167938232
1772732199663398100,2.075398193359375,-1.4935554265975952,3.8069355487823486,-5.083000183105469
1772732199673425200,2.085425048828125,-2.054748296737671,3.479158878326416,-5.460626602172852
1772732199683453200,2.095453125,-2.521667003631592,2.9347710609436035,-5.7089691162109375
1772732199693481200,2.105481201171875,-2.872737407684326,2.5567786693573,-5.804041862487793
1772732199703509000,2.115509033203125,-3.047213315963745,2.502410888671875,-5.758650302886963
1772732199713536000,2.125535888671875,-3.0426125526428223,2.694003105163574,-5.540307521820068
1772732199723564000,2.13556396484375,-2.620314121246338,2.8807084560394287,-4.876081943511963
1772732199733592000,2.145592041015625,-2.2567451000213623,3.2342841625213623,-4.253024578094482
1772732199743620000,2.1556201171875,-1.8431730270385742,3.7904908657073975,-3.944183349609375
1772732199753647000,2.165647216796875,-1.615039587020874,4.29198694229126,-3.636014938354492
1772732199763675000,2.1756748046875,-1.8359549045562744,4.4053168296813965,-3.4134509563446045
1772732199773703200,2.185703125,-2.418302297592163,4.011066913604736,-3.4757399559020996
1772732199783731000,2.19573095703125,-3.161534070968628,3.3001773357391357,-3.8394522666931152
1772732199793758200,2.20575830078125,-3.844374179840088,2.569664239883423,-4.249722480773926
1772732199803786000,2.215785888671875,-4.251195907592773,1.955013394355774,-4.415775775909424
1772732199813814300,2.225814208984375,-4.353506088256836,1.7452282905578613,-4.307860851287842
1772732199823842000,2.235842041015625,-3.94336199760437,2.1812171936035156,-3.9932539463043213
1772732199833869000,2.245869140625,-3.1346774101257324,3.0103704929351807,-3.382948160171509
1772732199843897000,2.25589697265625,-2.333303689956665,3.8327982425689697,-2.7374494075775146
1772732199853924900,2.2659248046875,-1.8784099817276,4.279817581176758,-2.266810178756714
1772732199863953200,2.275953125,-1.8326492309570312,4.225821495056152,-2.0205607414245605
1772732199873980200,2.285980224609375,-1.9962023496627808,3.6372640132904053,-1.9380919933319092
1772732199884008200,2.29600830078125,-2.1318910121917725,2.6830432415008545,-2.0941426753997803
1772732199894036000,2.306035888671875,-2.0970568656921387,1.6593681573867798,-2.4844563007354736
1772732199904064300,2.316064208984375,-1.741119623184204,0.7579248547554016,-2.938585042953491
1772732199914091000,2.326091064453125,-1.12211012840271,0.1019686833024025,-3.149672508239746
1772732199924119800,2.336119873046875,-0.44249650835990906,-0.28545254468917847,-3.11865496635437
1772732199934147800,2.34614794921875,0.09752696752548218,-0.5171079635620117,-2.9518046379089355
1772732199944175600,2.356175537109375,0.49385780096054077,-0.6831674575805664,-2.6672163009643555
1772732199954203600,2.36620361328125,0.7872289419174194,-0.9030555486679077,-2.24432635307312
1772732199964230700,2.376230712890625,0.9680938124656677,-1.235468864440918,-1.7679674625396729
1772732199974258700,2.3862587890625,1.0211032629013062,-1.6467909812927246,-1.3057831525802612
1772732199984286700,2.39628662109375,0.9714606404304504,-1.9799920320510864,-0.8720382452011108
1772732199994314800,2.406314697265625,0.894500195980072,-2.203038215637207,-0.4172588586807251
1772732200004341500,2.416341552734375,0.8567834496498108,-2.351107120513916,0.10409167408943176
1772732200014369800,2.426369873046875,0.8095722198486328,-2.4024627208709717,0.6299625635147095
1772732200024397600,2.4363974609375,0.8488703966140747,-2.4075918197631836,1.19913649559021
1772732200034425900,2.44642578125,0.9490998387336731,-2.388719081878662,1.7995100021362305
1772732200044452600,2.45645263671875,1.0999056100845337,-2.3270654678344727,2.4771974086761475
1772732200054481000,2.46648095703125,1.2166597843170166,-2.4434947967529297,3.0832104682922363
1772732200064508700,2.4765087890625,1.3313205242156982,-2.7878642082214355,3.4939517974853516
1772732200074536700,2.48653662109375,1.442518949508667,-3.213222026824951,3.847783088684082
1772732200084563700,2.496563720703125,1.5659178495407104,-3.5553483963012695,4.249352931976318
1772732200094591700,2.506591796875,1.7349995374679565,-3.7059566974639893,4.739841938018799
1772732200104619800,2.516619873046875,1.948517084121704,-3.714179277420044,5.219006061553955
1772732200114647600,2.5266474609375,2.2307488918304443,-3.7503695487976074,5.55325984954834
1772732200124674800,2.5366748046875,2.475701093673706,-3.945038318634033,5.7289862632751465
1772732200134702600,2.54670263671875,2.656202554702759,-4.199980735778809,5.946713924407959
1772732200144731000,2.55673095703125,2.671428918838501,-4.4107136726379395,6.378387928009033
1772732200154758700,2.566758544921875,2.6265056133270264,-4.614803314208984,6.902746200561523
1772732200164785700,2.57678564453125,2.653301954269409,-4.700368881225586,7.580261707305908
1772732200174813700,2.586813720703125,2.6213009357452393,-4.696822643280029,8.270235061645508
1772732200184841700,2.596841796875,2.541808843612671,-4.736442565917969,9.008505821228027
1772732200194869800,2.606869873046875,2.511242389678955,-4.6206512451171875,9.570611000061035
1772732200204896800,2.616896728515625,2.631087064743042,-4.365640640258789,9.883602142333984
1772732200214924800,2.6269248046875,2.832691192626953,-4.1765007972717285,10.206653594970703
1772732200224952600,2.63695263671875,2.9078733921051025,-4.001185417175293,10.521730422973633
1772732200234980900,2.64698095703125,2.768111228942871,-3.83917498588562,10.53346061706543
1772732200245008000,2.6570078125,2.4989266395568848,-3.8028199672698975,10.253827095031738
1772732200255035600,2.66703564453125,2.2749154567718506,-4.002016067504883,9.876391410827637
1772732200265063700,2.677063720703125,2.2195706367492676,-4.107906818389893,9.523591041564941
1772732200275091700,2.687091796875,2.294257879257202,-3.96010684967041,9.061727523803711
1772732200285119700,2.69711962890625,2.405367851257324,-3.654069662094116,8.477867126464844
1772732200295146800,2.707146728515625,2.5578393936157227,-3.2636165618896484,7.769270420074463
1772732200305174800,2.7171748046875,2.7564728260040283,-2.9803214073181152,6.987732410430908
1772732200315202800,2.727202880859375,2.9268901348114014,-2.8510994911193848,6.173451900482178
1772732200325230600,2.737230712890625,3.0993945598602295,-2.771181344985962,5.238753318786621
1772732200335257900,2.7472578125,3.127596378326416,-2.7593789100646973,4.335546016693115
1772732200345285600,2.75728564453125,2.9076008796691895,-2.7766146659851074,3.532604694366455
1772732200355313700,2.767313720703125,2.4430630207061768,-2.514061689376831,2.7995293140411377
1772732200365341700,2.777341796875,1.9469784498214722,-1.9054750204086304,2.1533608436584473
1772732200375369000,2.787368896484375,1.5702470541000366,-1.1789186000823975,1.6134310960769653
1772732200385396700,2.797396728515625,1.3095589876174927,-0.5973614454269409,1.1293429136276245
1772732200395424500,2.807424560546875,1.1132205724716187,-0.1646934151649475,0.6860945820808411
1772732200405452800,2.817452880859375,0.8479180335998535,0.1316186785697937,0.3096540868282318
1772732200415479600,2.8274794921875,0.4781552255153656,0.3646724820137024,-0.00009111507097259164
1772732200425507800,2.8375078125,0.02149501070380211,0.6730369329452515,-0.18779364228248596
1772732200435535600,2.84753564453125,-0.48852482438087463,1.0587750673294067,-0.2855822443962097
1772732200445564000,2.85756396484375,-0.9687492847442627,1.4145344495773315,-0.3407559394836426
1772732200455590700,2.867590576171875,-1.3751006126403809,1.7294540405273438,-0.3976702392101288
1772732200465618700,2.87761865234375,-1.675169587135315,1.998502254486084,-0.5714758634567261
1772732200475646700,2.887646728515625,-1.9387460947036743,2.21848464012146,-0.850935161113739
1772732200485674500,2.897674560546875,-2.163770914077759,2.3795547485351562,-1.1829195022583008
1772732200495701800,2.90770166015625,-2.329296350479126,2.498783588409424,-1.5642032623291016
1772732200505729800,2.917729736328125,-2.4442663192749023,2.578538417816162,-1.990297794342041
1772732200515757800,2.9277578125,-2.4590938091278076,2.5866036415100098,-2.4360642433166504
1772732200525785600,2.93778564453125,-2.360463857650757,2.5674026012420654,-2.8911941051483154
1772732200535812600,2.9478125,-2.2011468410491943,2.613226890563965,-3.3217856884002686
1772732200545840600,2.957840576171875,-2.061784029006958,2.7252695560455322,-3.713339328765869
1772732200555868700,2.96786865234375,-1.9523307085037231,2.8561816215515137,-4.031397342681885
1772732200565896700,2.977896728515625,-1.876001238822937,2.984267234802246,-4.270444869995117
1772732200575923700,2.987923828125,-1.8097580671310425,3.129683017730713,-4.40694522857666
1772732200585951700,2.99795166015625,-1.7727625370025635,3.3111155033111572,-4.454195022583008
1772732200595979800,3.007979736328125,-1.777529239654541,3.4946839809417725,-4.449568271636963
1772732200606007800,3.0180078125,-1.8685680627822876,3.5948116779327393,-4.350464820861816
1772732200616034800,3.028034912109375,-2.080867290496826,3.560922861099243,-4.125758171081543
1772732200626062600,3.0380625,-2.197610378265381,3.346158504486084,-3.886709451675415
1772732200636091000,3.0480908203125,-2.0117225646972656,3.035059690475464,-3.6060969829559326
1772732200646118700,3.05811865234375,-1.8928673267364502,2.8621790409088135,-3.1721224784851074
1772732200656146700,3.068146728515625,-2.153980255126953,2.8068084716796875,-2.613339900970459
1772732200666173700,3.078173583984375,-2.8749172687530518,2.98944354057312,-2.1068837642669678
1772732200676201700,3.08820166015625,-4.032116889953613,3.49641752243042,-1.8158483505249023
1772732200686229800,3.098229736328125,-5.429117679595947,4.190335273742676,-2.140042781829834
1772732200696257800,3.1082578125,-6.565984725952148,4.648775100708008,-3.619161605834961
1772732200706284800,3.118284912109375,-6.814834117889404,4.498908042907715,-5.834645748138428
1772732200716312600,3.1283125,-6.048777103424072,3.993332862854004,-7.59259557723999
1772732200726340900,3.1383408203125,-4.643659591674805,3.6365768909454346,-8.122794151306152
1772732200736368600,3.14836865234375,-3.210688829421997,3.3008625507354736,-7.368405342102051
1772732200746396000,3.15839599609375,-3.073671817779541,2.7341370582580566,-6.458068370819092
1772732200756423700,3.168423583984375,-3.9465317726135254,2.133023500442505,-6.194861888885498
1772732200766451700,3.17845166015625,-4.890804767608643,1.923829197883606,-6.6567840576171875
1772732200776479700,3.188479736328125,-5.480687141418457,2.073452949523926,-7.467926025390625
1772732200786506800,3.1985068359375,-5.5285444259643555,2.607771158218384,-7.906459808349609
1772732200796534800,3.20853466796875,-5.135559558868408,3.0632708072662354,-7.573877811431885
1772732200806562600,3.2185625,-4.580582141876221,3.031893730163574,-6.579085826873779
1772732200816590800,3.2285908203125,-4.19528341293335,2.370236873626709,-5.473900318145752
1772732200826617600,3.23861767578125,-4.232977390289307,1.4914178848266602,-4.686661720275879
1772732200836645600,3.248645751953125,-4.480892181396484,0.897304356098175,-4.211555480957031
1772732200846673700,3.258673583984375,-4.388633728027344,0.8600522875785828,-3.950218439102173
1772732200856701700,3.26870166015625,-3.746951103210449,0.8898289203643799,-3.677893877029419
1772732200866728700,3.278728759765625,-2.853297710418701,0.5036359429359436,-3.538478136062622
1772732200876756700,3.2887568359375,-2.0387017726898193,-0.32058268785476685,-3.5230188369750977
1772732200886784800,3.29878466796875,-1.3815406560897827,-1.2064701318740845,-3.4210073947906494
1772732200896812800,3.308812744140625,-0.8912176489830017,-1.8003584146499634,-3.179687976837158
1772732200906839600,3.318839599609375,-0.4369660019874573,-2.007840633392334,-2.8174617290496826
1772732200916867800,3.328867919921875,0.03342292085289955,-2.0263850688934326,-2.3631081581115723
1772732200926895000,3.33889501953125,0.3876954913139343,-2.0914759635925293,-1.9123625755310059
1772732200936923100,3.348923095703125,0.6155977845191956,-2.2368721961975098,-1.4638653993606567
1772732200946950100,3.3589501953125,0.8063203692436218,-2.38360595703125,-1.0231857299804688
1772732200956978200,3.368978271484375,0.9510005116462708,-2.5095877647399902,-0.5838087201118469
1772732200967006200,3.379006103515625,1.039696216583252,-2.514218330383301,-0.10545229911804199
1772732200977034000,3.389033935546875,1.0895166397094727,-2.475799798965454,0.3931887149810791
1772732200987061000,3.39906103515625,1.1405404806137085,-2.395902633666992,0.9023478031158447
1772732200997089000,3.409089111328125,1.2921258211135864,-2.3146777153015137,1.4585210084915161
1772732201007117000,3.419116943359375,1.581091046333313,-2.33162260055542,1.9589295387268066
1772732201017145000,3.42914501953125,1.8736295700073242,-2.386807441711426,2.306079387664795
1772732201027172000,3.439172119140625,2.102513551712036,-2.4909420013427734,2.691798448562622
1772732201037200000,3.449199951171875,2.2056384086608887,-2.73228120803833,3.3022220134735107
1772732201047228200,3.459228271484375,2.0829148292541504,-3.1692214012145996,4.2043609619140625
1772732201057256000,3.469255859375,1.8182607889175415,-3.7199490070343018,5.203160762786865
1772732201067283200,3.479283203125,1.6675658226013184,-4.181484699249268,6.06815242767334
1772732201077311000,3.48931103515625,1.6670279502868652,-4.417641639709473,6.6593918800354
1772732201087339300,3.49933935546875,1.7159532308578491,-4.4647626876831055,7.079452037811279
1772732201097367000,3.509366943359375,1.7606024742126465,-4.322100639343262,7.714026927947998
1772732201107395000,3.51939501953125,1.7729365825653076,-4.0666985511779785,8.551274299621582
1772732201117422000,3.529422119140625,1.7372629642486572,-3.975132942199707,9.245356559753418
1772732201127450000,3.5394501953125,1.6323916912078857,-4.0399346351623535,9.603850364685059
1772732201137478100,3.54947802734375,1.6307040452957153,-3.984128952026367,9.897940635681152
1772732201147506000,3.559505859375,1.7809364795684814,-3.693934679031372,10.309609413146973
1772732201157533200,3.569533203125,1.8877328634262085,-3.4811058044433594,10.675368309020996
1772732201167561000,3.57956103515625,1.9262789487838745,-3.2934012413024902,10.701756477355957
1772732201177589200,3.58958935546875,2.0060887336730957,-3.2224059104919434,10.47335147857666
1772732201187617000,3.599616943359375,2.1599457263946533,-3.2814836502075195,10.158195495605469
1772732201197644000,3.60964404296875,2.3900513648986816,-3.2550601959228516,9.66250991821289
1772732201207672000,3.619672119140625,2.605703830718994,-3.1482174396514893,9.043478965759277
1772732201217700000,3.6297001953125,2.804570436477661,-2.988492250442505,8.274396896362305
1772732201227728100,3.63972802734375,3.0195744037628174,-2.791104555130005,7.355442523956299
1772732201237755100,3.649755126953125,3.1880266666412354,-2.5782108306884766,6.4238996505737305
1772732201247783200,3.659783203125,3.2053914070129395,-2.5071396827697754,5.531113624572754
1772732201257811000,3.66981103515625,2.9466655254364014,-2.623364210128784,4.813879013061523
1772732201267839200,3.679839111328125,2.5243990421295166,-2.6748764514923096,4.277767181396484
1772732201277866200,3.6898662109375,2.1154494285583496,-2.514578342437744,3.8121345043182373
1772732201287894000,3.69989404296875,1.732065200805664,-2.3924074172973633,3.340035915374756
1772732201297922000,3.709922119140625,1.4458057880401611,-2.268160104751587,2.827418565750122
1772732201307950000,3.7199501953125,1.2254410982131958,-1.8975722789764404,2.2596964836120605
1772732201317977000,3.72997705078125,1.022881031036377,-1.3090311288833618,1.6211639642715454
1772732201328005000,3.740005126953125,0.8257003426551819,-0.7877357006072998,0.996019184589386
1772732201338033200,3.750033203125,0.6053519248962402,-0.5482205152511597,0.4361349046230316
1772732201348061200,3.760061279296875,0.344305157661438,-0.5363167524337769,0.004207198042422533
1772732201358088000,3.770087890625,0.06402190029621124,-0.5477057695388794,-0.27980467677116394
1772732201368116200,3.7801162109375,-0.2280469685792923,-0.43103986978530884,-0.37452399730682373
1772732201378144000,3.79014404296875,-0.5262824296951294,-0.16662625968456268,-0.29047849774360657
1772732201388172000,3.800172119140625,-0.761667013168335,0.23554781079292297,-0.13441406190395355
1772732201398200000,3.810199951171875,-0.8943582773208618,0.7654227018356323,-0.045632582157850266
1772732201408227300,3.820227294921875,-0.9649299383163452,1.2056318521499634,-0.06140941381454468
1772732201418255000,3.830255126953125,-1.0320122241973877,1.4511699676513672,-0.21727757155895233
1772732201428283000,3.840282958984375,-1.104563593864441,1.5408353805541992,-0.45886996388435364
1772732201438310100,3.85031005859375,-1.20032799243927,1.5556508302688599,-0.7729212045669556
1772732201448338000,3.860337890625,-1.323635458946228,1.5575672388076782,-1.0777151584625244
1772732201458366200,3.8703662109375,-1.475897192955017,1.6142768859863281,-1.3994747400283813
1772732201468394000,3.88039404296875,-1.6172209978103638,1.7272976636886597,-1.675377368927002
1772732201478422300,3.89042236328125,-1.7113341093063354,1.913638949394226,-1.9148378372192383
1772732201488449000,3.900448974609375,-1.7552845478057861,2.1124303340911865,-2.1379125118255615
1772732201498477000,3.91047705078125,-1.7661399841308594,2.2627837657928467,-2.3714869022369385
1772732201508505000,3.920505126953125,-1.7743390798568726,2.3208436965942383,-2.66339111328125
1772732201518532900,3.930532958984375,-1.7906588315963745,2.330902099609375,-3.0281009674072266
1772732201528560000,3.94056005859375,-1.812656044960022,2.32096004486084,-3.4260740280151367
1772732201538588200,3.950588134765625,-1.8217464685440063,2.3594987392425537,-3.809427261352539
1772732201548616200,3.9606162109375,-1.8260626792907715,2.443074941635132,-4.128785133361816
1772732201558644000,3.97064404296875,-1.8265979290008545,2.499864339828491,-4.425905227661133
1772732201568671000,3.9806708984375,-1.8180066347122192,2.610224962234497,-4.651060104370117
1772732201578699000,3.990698974609375,-1.806430697441101,2.8147318363189697,-4.774182319641113
1772732201588727000,4.00072705078125,-1.7844675779342651,3.016594648361206,-4.784456729888916
1772732201598755000,4.010755126953125,-1.787093162536621,3.11873197555542,-4.673915386199951
1772732201608782000,4.020781982421875,-1.8240355253219604,3.1092164516448975,-4.45608377456665
1772732201618810000,4.03081005859375,-1.8695932626724243,3.077038288116455,-4.1739115715026855
1772732201628838100,4.040838134765625,-1.8936471939086914,2.9383389949798584,-4.048285961151123
1772732201638866200,4.0508662109375,-1.9388154745101929,2.6230366230010986,-4.261124134063721
1772732201648893200,4.06089306640625,-2.0595638751983643,2.2672219276428223,-4.643749713897705
1772732201658921000,4.0709208984375,-2.2532503604888916,2.024306058883667,-5.154416084289551
1772732201668949200,4.08094921875,-2.55141019821167,1.9336028099060059,-5.828493118286133
1772732201678977000,4.09097705078125,-2.8956620693206787,1.8990353345870972,-6.53502082824707
1772732201689004300,4.10100439453125,-3.199819326400757,1.8884907960891724,-7.013153076171875
1772732201699032000,4.111031982421875,-3.4160220623016357,1.8864285945892334,-7.216037750244141
1772732201709060000,4.12106005859375,-3.446052074432373,1.7849246263504028,-7.062991619110107
1772732201719088000,4.131088134765625,-3.2203638553619385,1.8564199209213257,-6.597806453704834
1772732201729115100,4.141115234375,-2.906036853790283,1.9622368812561035,-5.902861595153809
1772732201739143200,4.15114306640625,-2.8560373783111572,2.0870769023895264,-5.30644416809082
1772732201749171000,4.1611708984375,-3.1936933994293213,2.337287425994873,-5.223535060882568
1772732201759199200,4.17119921875,-3.7343242168426514,2.74369478225708,-5.925673007965088
1772732201769226000,4.18122607421875,-3.8558878898620605,3.7018847465515137,-7.035094738006592
1772732201779254300,4.191254150390625,-3.5483181476593018,4.804408073425293,-7.2967634201049805
1772732201789282000,4.201281982421875,-3.3165900707244873,5.806090354919434,-6.5222649574279785
1772732201799310000,4.21131005859375,-3.5511951446533203,6.290684700012207,-4.9502272605896
1772732201809337000,4.221337158203125,-4.220512866973877,5.999807834625244,-3.1243443489074707
1772732201819365000,4.231365234375,-4.844792366027832,4.9643754959106445,-2.08756422996521
1772732201829393200,4.24139306640625,-4.972557544708252,3.462339401245117,-2.2747433185577393
1772732201839421000,4.2514208984375,-4.580777168273926,1.8871595859527588,-3.2108359336853027
1772732201849449200,4.26144921875,-3.854543685913086,0.559662401676178,-4.136292457580566
1772732201859476000,4.27147607421875,-3.04799747467041,-0.41145825386047363,-4.32890510559082
1772732201869504000,4.28150390625,-2.332714080810547,-1.0016472339630127,-3.594057083129883
1772732201879532000,4.291531982421875,-1.8059184551239014,-1.379744529724121,-2.527064323425293
1772732201889560000,4.30156005859375,-1.5061436891555786,-1.790010929107666,-1.8181357383728027
1772732201899587000,4.311587158203125,-1.2192413806915283,-2.3564212322235107,-1.5833741426467896
1772732201909615000,4.321614990234375,-0.8949570655822754,-2.902174472808838,-1.4948160648345947
1772732201919643100,4.33164306640625,-0.5658803582191467,-3.2966365814208984,-1.2603470087051392
1772732201929671400,4.34167138671875,-0.24229298532009125,-3.3536171913146973,-0.8189294338226318
1772732201939698700,4.35169873046875,0.25943243503570557,-3.0766282081604004,-0.09396102279424667
1772732201949726500,4.3617265625,0.9992660284042358,-2.675978183746338,0.7141496539115906
1772732201959754800,4.371754638671875,1.8494539260864258,-2.3610033988952637,1.2587945461273193
1772732201969782500,4.381782470703125,2.6512603759765625,-2.512159585952759,1.5211734771728516
1772732201979809500,4.3918095703125,3.062129020690918,-3.2711198329925537,1.665346384048462
1772732201989837600,4.401837646484375,2.8344273567199707,-4.409292697906494,1.7647504806518555
1772732201999865600,4.411865478515625,2.137788772583008,-5.624838352203369,2.131218194961548
1772732202009893600,4.4218935546875,1.3800504207611084,-6.492269992828369,3.109645128250122
1772732202019920600,4.431920654296875,1.0628358125686646,-6.459426403045654,4.748357772827148
1772732202029948400,4.441948486328125,0.996146023273468,-5.640256881713867,6.719067573547363
1772732202039976700,4.451976806640625,0.7818962335586548,-4.589498043060303,8.432050704956055
1772732202050004500,4.46200439453125,0.5576972365379333,-3.739795446395874,10.030214309692383
1772732202060031700,4.47203173828125,0.6339471340179443,-3.4810433387756348,11.453152656555176
1772732202070059500,4.4820595703125,0.9090868234634399,-3.643786668777466,12.313860893249512
1772732202080087600,4.492087646484375,1.38127601146698,-3.925177574157715,12.619790077209473
1772732202090115600,4.502115478515625,1.9153532981872559,-3.911384344100952,12.63517951965332
1772732202100142600,4.512142578125,2.3956315517425537,-3.716897487640381,12.684459686279297
1772732202110170600,4.522170654296875,2.899895191192627,-3.329554319381714,12.73250961303711
1772732202120198400,4.532198486328125,3.2897415161132812,-3.046281337738037,12.576016426086426
1772732202130226700,4.542226806640625,3.5332696437835693,-3.0667901039123535,12.14682674407959
1772732202140253400,4.55225341796875,3.6346335411071777,-3.2470319271087646,11.647521018981934
1772732202150281700,4.56228173828125,3.592045545578003,-3.321737766265869,11.21640682220459
1772732202160309500,4.5723095703125,3.4581992626190186,-3.2428178787231445,10.770739555358887
1772732202170337800,4.582337890625,3.24596905708313,-3.1477091312408447,10.09900951385498
1772732202180364500,4.592364501953125,3.097536325454712,-2.996795415878296,9.268935203552246
1772732202190392600,4.602392578125,3.015320301055908,-2.8649327754974365,8.272814750671387
1772732202200420600,4.612420654296875,2.9836385250091553,-2.715265989303589,7.234605312347412
1772732202210448400,4.622448486328125,3.0017223358154297,-2.485724449157715,6.25391960144043
1772732202220475600,4.6324755859375,2.9720585346221924,-2.19732928276062,5.351870059967041
1772732202230503700,4.642503662109375,2.7911229133605957,-1.9782283306121826,4.549040794372559
1772732202240531700,4.65253173828125,2.348482847213745,-1.9637646675109863,3.8976194858551025
1772732202250559500,4.6625595703125,1.7362085580825806,-2.0538456439971924,3.394291639328003
1772732202260587800,4.672587890625,1.036924958229065,-2.0251474380493164,3.0139670372009277
1772732202270614500,4.682614501953125,0.38982051610946655,-1.7130521535873413,2.769804000854492
1772732202280642600,4.692642578125,-0.19722145795822144,-1.0739942789077759,2.5331010818481445
1772732202290670600,4.702670654296875,-0.6719141602516174,-0.4321189224720001,2.2087368965148926
1772732202300697600,4.712697509765625,-0.8959407210350037,-0.0344281867146492,1.7671542167663574
1772732202310725600,4.7227255859375,-0.9468241333961487,0.03915495425462723,1.252504825592041
1772732202320753700,4.732753662109375,-0.9425713419914246,-0.09940239042043686,0.6774550676345825
1772732202330781700,4.74278173828125,-0.9547467827796936,-0.2252146601676941,0.08518747985363007
1772732202340809500,4.7528095703125,-1.0183855295181274,-0.2737692892551422,-0.4702838063240051
1772732202350836500,4.76283642578125,-1.0818779468536377,-0.26296085119247437,-0.9667462706565857
1772732202360864500,4.772864501953125,-1.1074895858764648,-0.10714428126811981,-1.3432857990264893
1772732202370892500,4.782892578125,-1.106222152709961,0.21946951746940613,-1.5468724966049194
1772732202380920600,4.792920654296875,-1.1121731996536255,0.6063043475151062,-1.654555082321167
1772732202390947600,4.802947509765625,-1.1037850379943848,1.0015541315078735,-1.8122527599334717
1772732202400975600,4.8129755859375,-1.1248588562011719,1.16110360622406,-1.9796812534332275
1772732202411003600,4.823003662109375,-1.1809391975402832,1.075486183166504,-2.085447311401367
1772732202421031400,4.833031494140625,-1.2578561305999756,0.9757083654403687,-2.0922911167144775
1772732202431058700,4.84305859375,-1.3824104070663452,1.00791335105896,-1.9846054315567017
1772732202441086500,4.85308642578125,-1.535675048828125,1.186270833015442,-1.8160580396652222
1772732202451114800,4.86311474609375,-1.6800117492675781,1.4048359394073486,-1.6927378177642822
1772732202461142500,4.873142578125,-1.7919880151748657,1.5653945207595825,-1.7177780866622925
1772732202471169800,4.883169677734375,-1.8861368894577026,1.6814007759094238,-1.831450343132019
1772732202481197600,4.893197509765625,-1.9586044549942017,1.7435098886489868,-1.9813299179077148
1772732202491225600,4.9032255859375,-2.017437696456909,1.7925176620483398,-2.142132043838501
1772732202501253600,4.913253662109375,-2.0790956020355225,1.8210155963897705,-2.3067941665649414
1772732202511280600,4.92328076171875,-2.142956495285034,1.8369868993759155,-2.5041916370391846
1772732202521308700,4.93330859375,-2.1624786853790283,1.8561116456985474,-2.7082226276397705
1772732202531336400,4.94333642578125,-2.1239490509033203,1.7954381704330444,-2.9793713092803955
1772732202541364700,4.95336474609375,-2.0431578159332275,1.6760563850402832,-3.3279736042022705
1772732202551391500,4.9633916015625,-1.9628771543502808,1.6874350309371948,-3.7465174198150635
1772732202561419500,4.97341943359375,-1.9257657527923584,1.8317320346832275,-4.220416069030762
1772732202571447600,4.983447509765625,-1.951436996459961,2.0444865226745605,-4.7170939445495605
1772732202581475600,4.9934755859375,-2.0196688175201416,2.269446611404419,-5.161816596984863
1772732202591502600,5.003502685546875,-2.1142494678497314,2.5156431198120117,-5.4898881912231445
1772732202601530600,5.013530517578125,-2.213566780090332,2.763554334640503,-5.683454513549805
1772732202611558700,5.02355859375,-2.3367578983306885,2.9703001976013184,-5.765477657318115
1772732202621586700,5.033586669921875,-2.5279316902160645,3.182976722717285,-5.7783331871032715
1772732202631613400,5.043613525390625,-2.7788150310516357,3.262646436691284,-5.781986713409424
1772732202641641700,5.053641845703125,-3.127798318862915,3.1306207180023193,-5.807381629943848
1772732202651669500,5.06366943359375,-3.4861268997192383,2.7829830646514893,-5.846471786499023
1772732202661697500,5.073697509765625,-3.835688352584839,2.3033623695373535,-5.916477680206299
1772732202671724500,5.083724609375,-4.163826942443848,1.839547038078308,-6.146962642669678
1772732202681752600,5.093752685546875,-4.346176624298096,1.420064091682434,-6.576452255249023
1772732202691780600,5.103780517578125,-4.280856609344482,0.9133470058441162,-7.074344635009766
1772732202701808600,5.11380859375,-3.9642484188079834,0.5504254698753357,-7.722877502441406
1772732202711835600,5.123835693359375,-3.254539728164673,0.537178635597229,-8.353281021118164
1772732202721863400,5.133863525390625,-2.441967010498047,0.8424165844917297,-8.572583198547363
1772732202731891700,5.1438916015625,-1.9768847227096558,1.5188075304031372,-8.590313911437988
1772732202741919500,5.15391943359375,-2.06697678565979,2.89204740524292,-8.681943893432617
1772732202751946800,5.16394677734375,-2.0876758098602295,4.873931407928467,-8.933938026428223
1772732202761974500,5.173974609375,-1.865848183631897,6.213213920593262,-8.614694595336914
1772732202772002800,5.1840029296875,-2.042264223098755,6.0196685791015625,-7.54612398147583
1772732202782030600,5.194030517578125,-2.890434980392456,4.5470805168151855,-6.341407299041748
1772732202792058600,5.20405859375,-3.811271905899048,3.3293871879577637,-5.228061676025391
1772732202802085600,5.214085693359375,-4.194321632385254,3.1161742210388184,-4.1476006507873535
1772732202812113400,5.224113525390625,-4.085129261016846,3.7575905323028564,-3.4486541748046875
1772732202822141700,5.2341416015625,-3.409517288208008,3.806774616241455,-3.155856132507324
1772732202832169500,5.24416943359375,-2.373896598815918,2.5647964477539062,-3.246617078781128
1772732202842196700,5.25419677734375,-1.4486733675003052,0.5406015515327454,-3.6801512241363525
1772732202852224500,5.264224609375,-0.8686560988426208,-1.397845983505249,-4.15463399887085
1772732202862252500,5.27425244140625,-0.4561464488506317,-2.668687582015991,-4.256344795227051
1772732202872280600,5.284280517578125,-0.05399101972579956,-3.249877691268921,-3.7990922927856445
1772732202882307600,5.2943076171875,0.3544767200946808,-3.3881614208221436,-3.026688575744629
1772732202892335600,5.304335693359375,0.5698673129081726,-3.3496956825256348,-2.304501533508301
1772732202902363600,5.31436376953125,0.500855028629303,-3.2699599266052246,-1.6944698095321655
1772732202912391700,5.3243916015625,0.2795490026473999,-3.2304744720458984,-1.09245765209198
1772732202922418700,5.334418701171875,0.1113719493150711,-3.2375121116638184,-0.4744851291179657
1772732202932446700,5.34444677734375,0.05377044156193733,-3.179062843322754,0.09416446089744568
1772732202942473700,5.3544736328125,0.08407911658287048,-2.995730400085449,0.6619189381599426
1772732202952501800,5.364501708984375,0.18862655758857727,-2.697465181350708,1.32024085521698
1772732202962529500,5.374529541015625,0.2863565981388092,-2.4924800395965576,2.025961399078369
1772732202972557800,5.384557861328125,0.33558887243270874,-2.591207981109619,2.6272480487823486
1772732202982584800,5.394584716796875,0.3065509498119354,-3.0586154460906982,3.223198652267456
1772732202992612900,5.40461279296875,0.19770996272563934,-3.595982313156128,3.84476637840271
1772732203002640600,5.414640625,0.05809720605611801,-3.8799540996551514,4.494667053222656
1772732203012669000,5.4246689453125,-0.005132164806127548,-3.966977834701538,5.234467029571533
1772732203022695700,5.43469580078125,0.17453494668006897,-4.015687942504883,5.925346851348877
1772732203032723700,5.4447236328125,0.471465140581131,-4.1343092918396,6.409473896026611
1772732203042751700,5.454751708984375,0.8397385478019714,-4.3247246742248535,6.755494594573975
1772732203052779800,5.46477978515625,1.362239122390747,-4.300343990325928,7.210710525512695
1772732203062806800,5.474806884765625,1.6307631731033325,-4.052696704864502,7.641127109527588
1772732203072834800,5.484834716796875,1.479565143585205,-4.1675896644592285,7.7854814529418945
1772732203082862800,5.49486279296875,1.2817058563232422,-4.739137172698975,7.534817218780518
1772732203092890600,5.504890625,1.3779959678649902,-5.306026935577393,7.126111030578613
1772732203102917600,5.514917724609375,1.5943949222564697,-5.804226875305176,7.046550750732422
1772732203112946000,5.52494580078125,1.2716726064682007,-5.731512069702148,7.446920871734619
1772732203122973700,5.5349736328125,0.5506688952445984,-4.876520156860352,8.301414489746094
1772732203133001700,5.545001708984375,0.09162034839391708,-3.879490852355957,9.362176895141602
1772732203143028700,5.55502880859375,0.10617916285991669,-3.3221888542175293,10.19040298461914
1772732203153056800,5.565056884765625,0.33165886998176575,-3.1807286739349365,10.245213508605957
1772732203163084800,5.575084716796875,0.491586834192276,-3.296464681625366,9.471858024597168
1772732203173112800,5.58511279296875,0.5650078058242798,-3.6527090072631836,8.177116394042969
1772732203183139800,5.595139892578125,0.6143893599510193,-4.083531379699707,6.857937335968018
1772732203193167600,5.605167724609375,0.7151117324829102,-4.232725143432617,5.821165561676025
1772732203203196000,5.61519580078125,0.7010357975959778,-4.059723854064941,5.087539196014404
1772732203213223700,5.6252236328125,0.5241073966026306,-3.7761638164520264,4.48195219039917
1772732203223251000,5.6352509765625,0.16523237526416779,-3.5226314067840576,4.03978157043457
1772732203233278700,5.64527880859375,-0.17306923866271973,-3.1552071571350098,3.886765956878662
1772732203243306800,5.655306640625,-0.3337811827659607,-2.7285711765289307,3.8482794761657715
1772732203253334800,5.665334716796875,-0.40525585412979126,-2.485879421234131,3.762535810470581
1772732203263361800,5.67536181640625,-0.529412567615509,-2.2497940063476562,3.5628440380096436
1772732203273389800,5.685389892578125,-0.6946457624435425,-1.9196398258209229,3.2322957515716553
1772732203283417600,5.69541748046875,-0.8478372097015381,-1.5554767847061157,2.7497124671936035
1772732203293446700,5.70544677734375,-0.9364389777183533,-1.187036156654358,2.210392951965332
1772732203303473700,5.7154736328125,-0.9507479667663574,-0.7474738359451294,1.80631685256958
1772732203313502000,5.725501953125,-0.9245150089263916,-0.27033498883247375,1.6211388111114502
1772732203323529700,5.73552978515625,-0.9598855376243591,0.10599265992641449,1.6458477973937988
1772732203333557800,5.745557861328125,-1.0395656824111938,0.47621092200279236,1.7789230346679688
1772732203343584800,5.755584716796875,-1.0781912803649902,0.8813343644142151,1.8754562139511108
1772732203353612500,5.765612548828125,-1.0624388456344604,1.3203978538513184,1.8644722700119019
1772732203363640800,5.775640869140625,-0.9078745245933533,1.7749996185302734,1.6259853839874268
1772732203373668600,5.785668701171875,-0.7311146259307861,2.0369763374328613,1.1435860395431519
1772732203383696000,5.79569580078125,-0.6787949204444885,2.0129857063293457,0.5265812277793884
1772732203393723600,5.8057236328125,-0.7713400721549988,1.8705463409423828,-0.07044752687215805
1772732203403752000,5.815751953125,-0.9205871224403381,1.78238844871521,-0.5517264604568481
1772732203413779700,5.82577978515625,-1.0498169660568237,1.7719597816467285,-0.8230381608009338
1772732203423806700,5.835806640625,-1.1625624895095825,1.7912206649780273,-0.9054372310638428
1772732203433834800,5.845834716796875,-1.2538644075393677,1.863187313079834,-0.847949743270874
1772732203443862800,5.85586279296875,-1.3074982166290283,1.9876353740692139,-0.7564603686332703
1772732203453890800,5.865890869140625,-1.3531583547592163,2.045393943786621,-0.7467547655105591
1772732203463917800,5.875917724609375,-1.3980334997177124,2.050772190093994,-0.8972173929214478
1772732203473945900,5.88594580078125,-1.45395827293396,2.0549910068511963,-1.1961777210235596
1772732203483973600,5.8959736328125,-1.489129900932312,1.9859628677368164,-1.6775192022323608
1772732203494002000,5.906001953125,-1.4754880666732788,1.7974809408187866,-2.2979485988616943
1772732203504028700,5.916028564453125,-1.4122896194458008,1.516076922416687,-2.9401285648345947
1772732203514056700,5.926056640625,-1.3194953203201294,1.2717992067337036,-3.5744500160217285
1772732203524084700,5.936084716796875,-1.1736843585968018,1.1491024494171143,-4.18568754196167
1772732203534112800,5.94611279296875,-1.026254653930664,1.0808262825012207,-4.657599449157715
1772732203544140800,5.956140869140625,-0.9397299289703369,1.1409955024719238,-4.925079345703125
1772732203554167800,5.966167724609375,-1.0144108533859253,1.4787930250167847,-5.085981845855713
1772732203564195800,5.97619580078125,-1.2677030563354492,2.0302302837371826,-5.404475688934326
1772732203574224000,5.986223876953125,-1.7181439399719238,2.6206135749816895,-6.075438499450684
1772732203584251600,5.996251708984375,-2.254667282104492,3.2155814170837402,-6.924625873565674
1772732203594279000,6.00627880859375,-2.7078192234039307,3.5829782485961914,-7.8164262771606445
1772732203604306700,6.016306640625,-3.027635097503662,3.7783076763153076,-8.575715065002441
1772732203614334700,6.026334716796875,-3.341586112976074,3.7895145416259766,-8.98754596710205
1772732203624362800,6.03636279296875,-3.6195640563964844,3.6547610759735107,-9.089883804321289
1772732203634389800,6.0463896484375,-3.8796541690826416,3.589139461517334,-8.988893508911133
1772732203644417800,6.056417724609375,-4.027807235717773,3.4834487438201904,-8.87601375579834
1772732203654445600,6.066445556640625,-4.011562347412109,3.238157033920288,-8.854110717773438
1772732203664473900,6.076473876953125,-3.4732208251953125,2.916245222091675,-9.141927719116211
1772732203674500600,6.08650048828125,-1.3926483392715454,2.818246841430664,-9.090399742126465
1772732203684529000,6.09652880859375,0.23996028304100037,2.902172565460205,-8.103554725646973
1772732203694556700,6.106556640625,0.1889421045780182,3.270911931991577,-6.903287887573242
1772732203704585000,6.1165849609375,-1.2423077821731567,4.075313568115234,-5.892740726470947
1772732203714611700,6.12661181640625,-2.775614023208618,5.201469898223877,-5.56965970993042
1772732203724639700,6.1366396484375,-3.616503953933716,5.40776252746582,-5.913417339324951
1772732203734667800,6.146667724609375,-3.5456435680389404,4.241049289703369,-6.573012351989746
1772732203744695600,6.156695556640625,-2.8455312252044678,2.355224132537842,-6.983415126800537
1772732203754722800,6.166722900390625,-1.9680513143539429,1.373223066329956,-6.756815433502197
1772732203764750600,6.17675048828125,-1.2467902898788452,1.7474391460418701,-5.6993608474731445
1772732203774779000,6.18677880859375,-0.9813998937606812,2.977653741836548,-4.591513633728027
1772732203784806700,6.196806640625,-1.0179144144058228,3.425788640975952,-3.6292030811309814
1772732203794833700,6.206833740234375,-1.0913212299346924,2.481520891189575,-2.9548168182373047
1772732203804861700,6.21686181640625,-1.0493817329406738,0.8542526960372925,-2.7004494667053223
1772732203814889700,6.2268896484375,-0.9910678863525391,-0.4782112240791321,-2.587001085281372
1772732203824917800,6.236917724609375,-0.910336971282959,-1.136063575744629,-2.347054958343506
1772732203834944800,6.24694482421875,-0.6193285584449768,-1.4065182209014893,-1.9073251485824585
1772732203844972800,6.256972900390625,-0.3136799931526184,-1.461817741394043,-1.462848424911499
1772732203855000800,6.267000732421875,-0.13126999139785767,-1.4459540843963623,-1.045318841934204
1772732203865028900,6.27702880859375,-0.08333974331617355,-1.523293375968933,-0.5543839931488037
1772732203875055900,6.287055908203125,-0.12755008041858673,-1.615141749382019,-0.038235120475292206
1772732203885083600,6.297083740234375,-0.13448266685009003,-1.6541080474853516,0.48438459634780884
1772732203895111700,6.307111572265625,-0.054449085146188736,-1.724748969078064,0.8456102013587952
1772732203905139700,6.3171396484375,0.07076011598110199,-1.7267907857894897,1.103724479675293
1772732203915167000,6.3271669921875,0.08862726390361786,-1.7974908351898193,1.4806363582611084
1772732203925194500,6.337194580078125,0.002022764179855585,-1.9577105045318604,2.0047802925109863
1772732203935222300,6.34722216796875,-0.013963925652205944,-2.0080721378326416,2.585536241531372
1772732203945250600,6.35725048828125,0.0619356743991375,-2.0244760513305664,3.1664021015167236
1772732203955277600,6.367277587890625,0.2261914610862732,-2.1444551944732666,3.7150888442993164
1772732203965305600,6.3773056640625,0.5233137607574463,-2.40861439704895,4.33947229385376
1772732203975333400,6.38733349609375,0.7269454598426819,-2.9523472785949707,5.057535171508789
1772732203985361700,6.397361572265625,0.8466413617134094,-3.523831605911255,5.753529071807861
1772732203995389400,6.407389404296875,1.1648433208465576,-3.9897561073303223,6.294699192047119
1772732204005416400,6.41741650390625,1.583269476890564,-4.539647102355957,6.6983561515808105
1772732204015444500,6.427444580078125,1.8730496168136597,-5.150467395782471,7.0667219161987305
1772732204025472500,6.437472412109375,2.032339334487915,-5.462920188903809,7.408944129943848
1772732204035500500,6.44750048828125,2.1412761211395264,-5.54561710357666,7.7895026206970215
1772732204045527600,6.457527587890625,2.0498619079589844,-5.68164587020874,8.255849838256836
1772732204055555600,6.4675556640625,1.8167649507522583,-5.850053310394287,8.797597885131836
1772732204065583400,6.477583251953125,1.6101572513580322,-5.944195747375488,9.119481086730957
1772732204075611400,6.487611328125,1.4629874229431152,-6.203066825866699,9.453234672546387
1772732204085638400,6.497638427734375,1.2367655038833618,-6.351612567901611,9.71979808807373
1772732204095666400,6.50766650390625,0.9403335452079773,-6.235033988952637,9.881121635437012
1772732204105694500,6.517694580078125,0.650867760181427,-6.057064533233643,10.109394073486328
1772732204115722500,6.527722412109375,0.4205208420753479,-5.731513500213623,10.359829902648926
1772732204125749200,6.537749267578125,0.2667157053947449,-5.193606853485107,10.519669532775879
1772732204135777500,6.547777587890625,0.21172088384628296,-4.6425042152404785,10.489779472351074
1772732204145805300,6.557805419921875,0.3046327531337738,-4.191219806671143,10.1923828125
1772732204155833600,6.56783349609375,0.5925329923629761,-4.054662704467773,9.554023742675781
1772732204165860400,6.5778603515625,0.9436416029930115,-4.1506476402282715,8.625288963317871
1772732204175888600,6.587888671875,1.2543432712554932,-4.1204681396484375,7.56015157699585
1772732204185916400,6.59791650390625,1.4082006216049194,-3.9008450508117676,6.5531206130981445
1772732204195944400,6.6079443359375,1.4300235509872437,-3.4864001274108887,5.730642795562744
1772732204205971500,6.617971435546875,1.3244035243988037,-2.921917676925659,5.117337226867676
1772732204215999500,6.62799951171875,1.109334111213684,-2.3119008541107178,4.669615268707275
1772732204226027500,6.638027587890625,0.8870509266853333,-1.6733487844467163,4.327717304229736
1772732204236055300,6.64805517578125,0.7093813419342041,-0.9467536807060242,3.9978103637695312
1772732204246082600,6.65808251953125,0.6113883852958679,-0.2816036343574524,3.480785846710205
1772732204256110300,6.6681103515625,0.54054856300354,0.2369425743818283,2.73510479927063
1772732204266138600,6.678138671875,0.38836973905563354,0.6244117617607117,1.870350956916809
1772732204276166400,6.68816650390625,0.1404464840888977,0.8763446807861328,1.0470528602600098
1772732204286193400,6.698193359375,-0.15134160220623016,1.0353524684906006,0.37726444005966187
1772732204296221400,6.708221435546875,-0.5307102203369141,1.1314984560012817,-0.08750246465206146
1772732204306249500,6.71824951171875,-0.9760887026786804,1.1926941871643066,-0.3026452660560608
1772732204316277500,6.728277587890625,-1.4154410362243652,1.2001224756240845,-0.29439932107925415
1772732204326304500,6.738304443359375,-1.7761276960372925,1.186806082725525,-0.17233870923519135
1772732204336332500,6.74833251953125,-2.02553129196167,1.1921416521072388,-0.1394611895084381
1772732204346360300,6.7583603515625,-2.1290340423583984,1.3823883533477783,-0.22844752669334412
1772732204356388600,6.768388671875,-2.0654897689819336,1.830862283706665,-0.44545015692710876
1772732204366415600,6.77841552734375,-1.9125385284423828,2.280717134475708,-0.8496426343917847
1772732204376443400,6.788443359375,-1.7964370250701904,2.4734761714935303,-1.3775594234466553
1772732204386471400,6.798471435546875,-1.762910008430481,2.3981194496154785,-1.9538418054580688
1772732204396499500,6.80849951171875,-1.7626808881759644,2.2000925540924072,-2.5096969604492188
1772732204406526500,6.8185263671875,-1.8091367483139038,2.0296993255615234,-2.960282564163208
1772732204416554500,6.828554443359375,-1.890175461769104,1.9506455659866333,-3.26285719871521
1772732204426582500,6.83858251953125,-1.9414862394332886,1.975412368774414,-3.4157257080078125
1772732204436610600,6.848610595703125,-1.9434300661087036,2.0587475299835205,-3.4743616580963135
1772732204446638600,6.858638671875,-1.926365613937378,2.1436893939971924,-3.475510835647583
1772732204456665600,6.86866552734375,-1.8886581659317017,2.2395784854888916,-3.4887020587921143
1772732204466693400,6.878693359375,-1.836069107055664,2.362856149673462,-3.5035974979400635
1772732204476721400,6.888721435546875,-1.7549242973327637,2.4859158992767334,-3.5086934566497803
1772732204486748400,6.89874853515625,-1.6740480661392212,2.6300253868103027,-3.5346574783325195
1772732204496776700,6.908776611328125,-1.6078051328659058,2.7481601238250732,-3.6286213397979736
1772732204506804500,6.918804443359375,-1.5311959981918335,2.7870988845825195,-3.862351894378662
1772732204516832300,6.928832275390625,-1.441657543182373,2.80479097366333,-4.2359619140625
1772732204526860500,6.938860595703125,-1.3687714338302612,2.8802876472473145,-4.625051021575928
1772732204536887300,6.94888720703125,-1.3663280010223389,3.06282901763916,-4.9840803146362305
1772732204546915600,6.95891552734375,-1.4777978658676147,3.374089479446411,-5.3018035888671875
1772732204556943400,6.968943359375,-1.7173163890838623,3.8058128356933594,-5.543859004974365
1772732204566971600,6.9789716796875,-2.079312562942505,4.3077778816223145,-5.736423969268799
1772732204576998400,6.988998291015625,-2.5056960582733154,4.6603593826293945,-5.995249271392822
1772732204587026400,6.9990263671875,-2.9779062271118164,4.795982360839844,-6.398252010345459
1772732204597054500,7.009054443359375,-3.5022661685943604,4.725161552429199,-6.864357948303223
1772732204607082200,7.019082275390625,-3.932196617126465,4.4733195304870605,-7.410882949829102
1772732204617109500,7.029109619140625,-4.196702003479004,3.9978325366973877,-8.081805229187012
1772732204627137500,7.039137451171875,-4.179367542266846,3.4852683544158936,-8.737977981567383
1772732204637165600,7.04916552734375,-3.7349061965942383,3.2262063026428223,-9.216574668884277
1772732204647193300,7.059193359375,-3.1567916870117188,3.2071635723114014,-9.014094352722168
1772732204657220400,7.069220458984375,-2.682842493057251,3.07130765914917,-7.911809921264648
1772732204667248400,7.079248291015625,-2.4923787117004395,3.1004767417907715,-6.724879264831543
1772732204677276400,7.0892763671875,-2.8719701766967773,3.419578790664673,-5.84579610824585
1772732204687304400,7.099304443359375,-3.6552844047546387,4.142971515655518,-5.241561412811279
1772732204697331500,7.10933154296875,-4.331782341003418,5.120847225189209,-4.600284099578857
1772732204707359500,7.119359375,-4.6913371086120605,5.250217914581299,-3.722553014755249
1772732204717387500,7.129387451171875,-4.7356390953063965,4.195029258728027,-3.168430805206299
1772732204727415600,7.13941552734375,-4.513566970825195,2.788208246231079,-3.4123988151550293
1772732204737442600,7.149442626953125,-3.9231226444244385,1.781140685081482,-3.9854354858398438
1772732204747470300,7.15947021484375,-3.220773458480835,1.3849351406097412,-4.34014892578125
1772732204757498600,7.16949853515625,-2.610168695449829,1.2658050060272217,-4.328159809112549
1772732204767526400,7.1795263671875,-2.1226954460144043,1.192871332168579,-3.9283385276794434
1772732204777553700,7.1895537109375,-1.7904075384140015,1.0754585266113281,-3.342268466949463
1772732204787581400,7.19958154296875,-1.5579978227615356,0.9134269952774048,-2.7842090129852295
1772732204797609500,7.209609375,-1.390702247619629,0.6839948892593384,-2.4040236473083496
1772732204807637500,7.219637451171875,-1.130155086517334,0.3640991151332855,-2.2926697731018066
1772732204817664500,7.22966455078125,-0.6581982374191284,-0.030858833342790604,-2.233701467514038
1772732204827692500,7.239692626953125,-0.10114645957946777,-0.4775271415710449,-2.0619864463806152
1772732204837720300,7.24972021484375,0.21045884490013123,-0.856404185295105,-1.8457800149917603
1772732204847748600,7.25974853515625,0.3115922510623932,-1.3317934274673462,-1.4267747402191162
1772732204857775400,7.269775390625,0.34941524267196655,-1.8951084613800049,-0.8089235424995422
1772732204867803600,7.2798037109375,0.2999635934829712,-2.2619519233703613,-0.18480730056762695
1772732204877831400,7.28983154296875,0.26234006881713867,-2.3280069828033447,0.42624539136886597
1772732204887859500,7.299859375,0.3283810615539551,-2.2704520225524902,1.1352174282073975
1772732204897886500,7.309886474609375,0.5982807278633118,-2.1654980182647705,2.071260690689087
1772732204907914500,7.31991455078125,0.8524815440177917,-2.013737201690674,2.9365129470825195
1772732204917942500,7.329942626953125,0.8831859230995178,-2.105470657348633,3.560469150543213
1772732204927970800,7.339970703125,0.8421975374221802,-2.6496968269348145,3.9699625968933105
1772732204937997800,7.349997802734375,0.8562294244766235,-3.5586977005004883,4.090197563171387
1772732204948025900,7.36002587890625,0.8251582980155945,-4.399509906768799,4.0903706550598145
1772732204958054000,7.370053955078125,0.7585113048553467,-4.836850643157959,4.211785316467285
1772732204968082000,7.38008203125,0.7147167325019836,-4.994594573974609,4.740312576293945
1772732204978109000,7.39010888671875,0.6566150784492493,-4.983686923980713,5.560997486114502
1772732204988136700,7.40013671875,0.6124140024185181,-4.90678596496582,6.4592766761779785
1772732204998165000,7.4101650390625,0.6498175263404846,-4.905492782592773,7.29935359954834
1772732205008192800,7.42019287109375,0.694326639175415,-5.113699913024902,7.850103855133057
1772732205018220000,7.430219970703125,0.7331193089485168,-5.40963888168335,7.9827752113342285
1772732205028247800,7.440247802734375,0.6861953139305115,-5.783809661865234,8.36822509765625
1772732205038275800,7.45027587890625,0.48526114225387573,-5.878177642822266,9.188788414001465
1772732205048303900,7.460303955078125,0.2528310716152191,-5.494038105010986,10.259771347045898
1772732205058331600,7.47033154296875,0.10429085046052933,-4.850627422332764,11.063545227050781
1772732205068359000,7.48035888671875,0.05954486131668091,-4.374015808105469,11.543920516967773
1772732205078386700,7.49038671875,0.06768853962421417,-4.176208019256592,11.69443416595459
1772732205088415000,7.5004150390625,0.2393631935119629,-4.148699760437012,11.6212739944458
1772732205098442800,7.51044287109375,0.4722971022129059,-3.982473611831665,11.415334701538086
1772732205108469800,7.5204697265625,0.8062004446983337,-3.707383632659912,10.894176483154297
1772732205118497800,7.530497802734375,1.3631150722503662,-3.3999502658843994,10.170527458190918
1772732205128525800,7.54052587890625,1.9406347274780273,-3.215949058532715,9.326048851013184
1772732205138553900,7.550553955078125,2.439143419265747,-3.079207420349121,8.498590469360352
1772732205148580900,7.560580810546875,2.842817783355713,-2.955273151397705,7.722914695739746
1772732205158609000,7.57060888671875,3.131606101989746,-2.982046127319336,6.907681465148926
1772732205168636700,7.58063671875,3.2179923057556152,-3.1198341846466064,6.046127796173096
1772732205178665000,7.5906650390625,3.0416605472564697,-3.2356762886047363,5.201879024505615
1772732205188692000,7.60069189453125,2.7453808784484863,-2.999110698699951,4.4423394203186035
1772732205198719700,7.6107197265625,2.4841034412384033,-2.482034206390381,3.744837760925293
1772732205208747800,7.620747802734375,2.1836793422698975,-2.0473389625549316,3.100943088531494
1772732205218775800,7.63077587890625,1.7128777503967285,-1.8498848676681519,2.5381126403808594
1772732205228802800,7.640802734375,1.1398873329162598,-1.6274524927139282,2.1194748878479004
1772732205238830800,7.650830810546875,0.5740060806274414,-1.2628709077835083,1.7991693019866943
1772732205248859000,7.66085888671875,0.006867022719234228,-0.6885650753974915,1.5420854091644287
1772732205258887000,7.670886962890625,-0.5570864081382751,-0.050973132252693176,1.3631095886230469
1772732205268913700,7.68091357421875,-1.1199078559875488,0.49480441212654114,1.1579025983810425
1772732205278942000,7.69094189453125,-1.6650046110153198,0.8748084902763367,0.8923625349998474
1772732205288969700,7.7009697265625,-2.167541980743408,1.0757112503051758,0.5597216486930847
1772732205298997800,7.710997802734375,-2.6100826263427734,1.1818877458572388,0.16725265979766846
1772732205309024800,7.721024658203125,-2.943516731262207,1.3545634746551514,-0.2667043209075928
1772732205319053000,7.731052978515625,-3.178680896759033,1.678780198097229,-0.7062957882881165
1772732205329080800,7.741080810546875,-3.329012870788574,2.1232433319091797,-1.0935704708099365
1772732205339108900,7.75110888671875,-3.3840091228485107,2.5636279582977295,-1.4182976484298706
1772732205349137000,7.761136962890625,-3.327688217163086,3.002091646194458,-1.6957703828811646
1772732205359163600,7.77116357421875,-3.1874289512634277,3.4413485527038574,-1.9590911865234375
1772732205369192000,7.78119189453125,-3.049368381500244,3.716520309448242,-2.2695729732513428
1772732205379219700,7.7912197265625,-2.974212884902954,3.7712926864624023,-2.639763832092285
1772732205389248000,7.801248046875,-2.9584479331970215,3.625706434249878,-3.1006317138671875
1772732205399274800,7.811274658203125,-2.94262433052063,3.373138189315796,-3.703709363937378
1772732205409303000,7.821302978515625,-2.8780558109283447,3.0932607650756836,-4.351206302642822
1772732205419330800,7.831330810546875,-2.7675437927246094,2.8899617195129395,-4.904157638549805
1772732205429358800,7.84135888671875,-2.637392044067383,2.7490925788879395,-5.316415786743164
1772732205439385900,7.8513857421875,-2.52116060256958,2.742870807647705,-5.528398513793945
1772732205449414000,7.861413818359375,-2.4373769760131836,2.857490062713623,-5.512557506561279
1772732205459442000,7.87144189453125,-2.40602445602417,3.035557270050049,-5.291876316070557
1772732205469469700,7.8814697265625,-2.4052743911743164,3.2189781665802,-4.975643634796143
1772732205479497000,7.8914970703125,-2.458467960357666,3.4269981384277344,-4.681107997894287
1772732205489524700,7.901524658203125,-2.5059428215026855,3.5756139755249023,-4.433089733123779
1772732205499552800,7.911552734375,-2.6314916610717773,3.7109155654907227,-4.315100193023682
1772732205509580800,7.921580810546875,-2.820913553237915,3.847403049468994,-4.325257778167725
1772732205519607800,7.93160791015625,-2.98140549659729,3.828192949295044,-4.63693904876709
1772732205529635800,7.9416357421875,-3.0997560024261475,3.5618231296539307,-5.289996147155762
1772732205539664000,7.951663818359375,-3.180746555328369,3.129932403564453,-6.37118673324585
1772732205549692000,7.96169189453125,-3.155524730682373,2.7883851528167725,-7.677236080169678
1772732205559719000,7.971718994140625,-3.14913010597229,2.786099672317505,-8.450936317443848
1772732205569746700,7.98174658203125,-3.4385571479797363,3.127958297729492,-8.177062034606934
1772732205579775000,7.99177490234375,-3.984940767288208,3.910229444503784,-7.034982204437256
1772732205589802800,8.001802734375,-4.4973554611206055,5.070181369781494,-5.443260669708252
1772732205599830000,8.011830078125,-4.852746486663818,6.055897235870361,-3.5761146545410156
1772732205609857800,8.02185791015625,-5.102243423461914,6.731643199920654,-2.060755968093872
1772732205619885800,8.0318857421875,-5.294857978820801,6.444638729095459,-1.7616620063781738
1772732205629913900,8.041913818359374,-5.4247870445251465,4.901834964752197,-2.743666648864746
1772732205639940900,8.05194091796875,-5.4716715812683105,2.4861185550689697,-4.436140060424805
1772732205649969000,8.061968994140624,-5.383922576904297,0.05610988289117813,-5.990957736968994
1772732205659996700,8.07199658203125,-5.29862117767334,-1.639453411102295,-6.848503112792969
1772732205670025000,8.08202490234375,-5.330325126647949,-2.1667590141296387,-6.944400310516357
1772732205680052700,8.092052734375,-5.337484836578369,-1.664696216583252,-6.540098190307617
1772732205690080000,8.102080078125,-5.201094627380371,-0.6342685222625732,-5.776463031768799
1772732205700107800,8.112107666015625,-4.92397403717041,0.5275977849960327,-4.723586082458496
1772732205710136000,8.122135986328125,-4.525577545166016,1.3973156213760376,-3.5913357734680176
1772732205720162800,8.132162841796875,-4.096653461456299,1.831235647201538,-2.69921612739563
1772732205730190800,8.14219091796875,-3.785184383392334,1.8152331113815308,-2.2141988277435303
1772732205740219000,8.152218994140625,-3.4114832878112793,1.2562347650527954,-2.2967286109924316
1772732205750246700,8.16224658203125,-2.890739917755127,0.32238805294036865,-2.8413631916046143
1772732205760275000,8.17227490234375,-2.216015100479126,-0.7837106585502625,-3.566624164581299
1772732205770301700,8.1823017578125,-1.4469605684280396,-1.8157551288604736,-4.199405193328857
1772732205780330000,8.192330078125,-0.682494580745697,-2.540692090988159,-4.5783514976501465
1772732205790357800,8.202357666015626,-0.029092172160744667,-2.9914162158966064,-4.555421829223633
1772732205800386000,8.212385986328124,0.5679666996002197,-3.152170419692993,-4.073675155639648
1772732205810412800,8.222412841796874,1.207930326461792,-3.14795184135437,-3.192065477371216
1772732205820440800,8.23244091796875,1.885522723197937,-3.2069671154022217,-2.1924924850463867
1772732205830468900,8.24246875,2.250279426574707,-3.4284262657165527,-1.533761739730835
1772732205840497000,8.252496826171875,2.2699618339538574,-3.6547634601593018,-1.0230358839035034
1772732205850524000,8.26252392578125,2.072336196899414,-3.8911514282226562,-0.21111206710338593
1772732205860552000,8.272552001953125,1.7855011224746704,-4.011359691619873,0.7005904912948608
1772732205870580000,8.282580078125,1.4925392866134644,-3.8831613063812256,1.6310489177703857
1772732205880607700,8.292607666015625,1.2709659337997437,-3.7015676498413086,2.6260745525360107
1772732205890634800,8.302634765625,1.1786773204803467,-3.674576759338379,3.5788066387176514
1772732205900662800,8.312662841796875,1.1783215999603271,-3.782646656036377,4.359995365142822
1772732205910690800,8.32269091796875,1.181387186050415,-3.922253370285034,5.0637311935424805
1772732205920718800,8.33271875,1.2113940715789795,-3.996295690536499,5.795198440551758
1772732205930745600,8.34274560546875,1.3059518337249756,-4.156104564666748,6.428067684173584
1772732205940773400,8.3527734375,1.525803565979004,-4.457816123962402,6.947228908538818
1772732205950801700,8.3628017578125,1.849561333656311,-4.669405460357666,7.396901607513428
1772732205960829400,8.372829345703124,2.1390881538391113,-4.759012699127197,7.91692590713501
1772732205970856700,8.382856689453124,2.3744778633117676,-4.869932651519775,8.497724533081055
1772732205980884500,8.392884521484374,2.5046162605285645,-5.078227519989014,9.187490463256836
1772732205990912800,8.402912841796875,2.554640293121338,-5.35826301574707,9.908849716186523
1772732206000940500,8.4129404296875,2.57317852973938,-5.5400309562683105,10.425227165222168
1772732206010967600,8.422967529296875,2.686171054840088,-5.546789646148682,10.661527633666992
1772732206020995600,8.43299560546875,2.7010586261749268,-5.525350093841553,10.760558128356934
1772732206031023600,8.443023681640625,2.60414719581604,-5.34481954574585,10.813848495483398
1772732206041051600,8.4530517578125,2.5740177631378174,-4.943863391876221,11.045716285705566
1772732206051078700,8.46307861328125,2.5689339637756348,-4.3769025802612305,11.545572280883789
1772732206061106700,8.473106689453125,2.4182097911834717,-3.857875347137451,11.969260215759277
1772732206071134500,8.483134521484375,2.2686753273010254,-3.5623631477355957,11.974130630493164
1772732206081162800,8.493162841796876,2.1442909240722656,-3.4210546016693115,11.571623802185059
1772732206091189500,8.503189453125,2.122188091278076,-3.2543067932128906,10.898307800292969
1772732206101217500,8.513217529296876,2.2293739318847656,-3.040569543838501,10.054823875427246
1772732206111245600,8.52324560546875,2.4065093994140625,-2.8042757511138916,9.01926040649414
1772732206121273600,8.533273681640624,2.589193105697632,-2.591646909713745,7.874405384063721
1772732206131300600,8.543300537109374,2.7198686599731445,-2.5269289016723633,6.717537879943848
1772732206141328600,8.55332861328125,2.7173054218292236,-2.570899248123169,5.609015941619873
1772732206151356700,8.563356689453125,2.593411922454834,-2.709977149963379,4.629790306091309
1772732206161384700,8.573384765625,2.3592443466186523,-2.903327703475952,3.706592082977295
1772732206171412700,8.583412841796875,2.0673987865448,-3.0780816078186035,2.9138216972351074
1772732206181439700,8.593439697265625,1.6923640966415405,-2.9698572158813477,2.315448522567749
1772732206191467500,8.603467529296875,1.1189260482788086,-2.3098278045654297,1.873456358909607
1772732206201495600,8.61349560546875,0.4797188341617584,-1.209054946899414,1.5621954202651978
1772732206211523600,8.623523681640625,0.010897352360188961,-0.17666180431842804,1.2163431644439697
1772732206221550600,8.633550537109375,-0.2972703278064728,0.3690018057823181,0.7365485429763794
1772732206231578600,8.64357861328125,-0.5258132815361023,0.43036580085754395,0.13415224850177765
1772732206241606400,8.6536064453125,-0.7090480327606201,0.2633592188358307,-0.492775559425354
1772732206251634700,8.663634765625,-0.878553569316864,0.15490290522575378,-0.9779393672943115
1772732206261661400,8.673661376953126,-1.0304092168807983,0.37661823630332947,-1.1893552541732788
1772732206271689700,8.683689697265624,-1.1612300872802734,0.8504422903060913,-1.155346155166626
1772732206281717500,8.693717529296874,-1.3274105787277222,1.332108736038208,-1.0829527378082275
1772732206291745500,8.70374560546875,-1.5278643369674683,1.6744126081466675,-1.081216812133789
1772732206301772500,8.7137724609375,-1.740821361541748,1.83351731300354,-1.1039538383483887
1772732206311800600,8.723800537109375,-1.9612205028533936,1.842719554901123,-1.1635692119598389
1772732206321828600,8.73382861328125,-2.1814768314361572,1.8264753818511963,-1.2259165048599243
1772732206331856400,8.7438564453125,-2.36376690864563,1.8909730911254883,-1.2895742654800415
1772732206341883600,8.753883544921875,-2.557074546813965,2.003865957260132,-1.3659297227859497
1772732206351911400,8.763911376953125,-2.7374677658081055,2.1250357627868652,-1.451958179473877
1772732206361939700,8.773939697265625,-2.8650851249694824,2.2376484870910645,-1.5635768175125122
1772732206371967500,8.783967529296875,-2.950488567352295,2.2618656158447266,-1.676915168762207
1772732206381994500,8.793994384765625,-2.998128890991211,2.2519338130950928,-1.7834179401397705
1772732206392022500,8.8040224609375,-3.010239601135254,2.197458028793335,-2.0092685222625732
1772732206402050600,8.814050537109376,-3.018770217895508,2.1145143508911133,-2.378619432449341
1772732206412078600,8.82407861328125,-3.0199365615844727,1.997536540031433,-2.779492139816284
1772732206422105600,8.834105712890626,-3.0100619792938232,1.9343247413635254,-3.189086437225342
1772732206432133600,8.844133544921876,-2.9653522968292236,1.9225980043411255,-3.5456485748291016
1772732206442161700,8.85416162109375,-2.909775972366333,1.902620553970337,-3.881298780441284
1772732206452189700,8.864189697265624,-2.803680896759033,1.878999948501587,-4.244026184082031
1772732206462216700,8.874216796875,-2.666421413421631,1.7877051830291748,-4.67822790145874
1772732206472244500,8.884244384765625,-2.490774631500244,1.5994913578033447,-5.190805435180664
1772732206482272500,8.8942724609375,-2.272531509399414,1.42507004737854,-5.691410541534424
1772732206492300500,8.904300537109375,-2.11917781829834,1.332579493522644,-6.05717134475708
1772732206502327800,8.914327880859375,-2.005216121673584,1.2461482286453247,-6.199664115905762
1772732206512355600,8.92435546875,-2.0987350940704346,1.0859535932540894,-6.230051040649414
1772732206522383600,8.934383544921875,-2.4251580238342285,1.1200518608093262,-6.444356918334961
1772732206532411600,8.94441162109375,-2.816265344619751,1.4608739614486694,-6.770328998565674
1772732206542438400,8.9544384765625,-3.091951370239258,1.950743317604065,-7.0853471755981445
1772732206552466700,8.964466796875,-3.2054591178894043,2.4135031700134277,-7.262775421142578
1772732206562494500,8.974494384765626,-3.2718377113342285,2.8310301303863525,-7.189579010009766
1772732206572522800,8.984522705078126,-3.3776605129241943,3.171464204788208,-6.736910820007324
1772732206582550500,8.994550537109374,-3.663181781768799,3.4827957153320312,-5.922265529632568
1772732206592577800,9.004577880859374,-4.110865116119385,3.626450300216675,-5.232640743255615
1772732206602605600,9.01460546875,-4.627508640289307,3.415518045425415,-5.145106792449951
1772732206612633600,9.024633544921874,-5.0166778564453125,2.964521884918213,-5.459754943847656
1772732206622661600,9.03466162109375,-5.112926483154297,2.6201131343841553,-5.7900214195251465
1772732206632688600,9.044688720703125,-4.772044658660889,2.523191213607788,-6.287662982940674
1772732206642716700,9.054716552734375,-4.100861072540283,2.32277774810791,-6.764748573303223
1772732206652744400,9.064744384765625,-3.631676197052002,2.169921875,-6.776193141937256
1772732206662772700,9.074772705078125,-3.7434473037719727,2.3194339275360107,-6.359735488891602
1772732206672799500,9.084799560546875,-3.835951805114746,2.9830572605133057,-5.831933975219727
1772732206682827500,9.09482763671875,-3.672689437866211,3.544111967086792,-5.460122585296631
1772732206692855600,9.10485546875,-3.744022846221924,3.313558578491211,-5.500074863433838
1772732206702883600,9.114883544921875,-3.684493064880371,2.2027599811553955,-5.971896171569824
1772732206712910600,9.12491064453125,-3.41335129737854,1.1151137351989746,-6.298765659332275
1772732206722938600,9.134938720703126,-3.054455041885376,0.7109699249267578,-6.167900085449219
1772732206732966700,9.144966552734376,-2.7162084579467773,0.9239209294319153,-5.62947416305542
1772732206742994400,9.154994384765626,-2.1942100524902344,1.1370328664779663,-4.881141662597656
1772732206753021400,9.165021484375,-1.3718352317810059,0.6319557428359985,-4.162045478820801
1772732206763049700,9.1750498046875,-0.456073522567749,-0.5585685968399048,-3.7757492065429688
1772732206773077500,9.185077392578124,0.11702421307563782,-1.7910561561584473,-3.695937395095825
1772732206783105500,9.19510546875,0.240874245762825,-2.7054381370544434,-3.595158576965332
1772732206793132500,9.205132568359375,0.19889725744724274,-3.2563257217407227,-3.1509366035461426
1772732206803160600,9.21516064453125,0.19458401203155518,-3.500195264816284,-2.3369202613830566
1772732206813188600,9.225188720703125,0.20032808184623718,-3.40834641456604,-1.369572639465332
1772732206823216600,9.235216552734375,0.1686367243528366,-3.018439769744873,-0.43486854434013367
1772732206833243600,9.24524365234375,0.1256563663482666,-2.629544973373413,0.38257652521133423
1772732206843271400,9.255271484375,0.1438329666852951,-2.3442893028259277,1.035548448562622
1772732206853299700,9.2652998046875,0.23352664709091187,-2.1709611415863037,1.5773301124572754
1772732206863327500,9.275327392578125,0.34926149249076843,-2.0623958110809326,2.028848171234131
1772732206873355500,9.28535546875,0.43531063199043274,-2.0599653720855713,2.4749484062194824
1772732206883382500,9.295382568359376,0.5683522820472717,-2.1295230388641357,2.8708910942077637
1772732206893410600,9.30541064453125,0.8418353796005249,-2.205265760421753,3.160348892211914
1772732206903438600,9.3154384765625,1.1887333393096924,-2.209714412689209,3.4007279872894287
1772732206913466600,9.325466552734374,1.535754680633545,-2.0696027278900146,3.6884634494781494
1772732206923492600,9.33549267578125,1.8061038255691528,-2.1032679080963135,4.298426628112793
1772732206933520600,9.345520751953124,1.9707834720611572,-2.5249807834625244,5.165937423706055
1772732206943548700,9.355548583984374,2.0437350273132324,-3.0480828285217285,5.9353437423706055
1772732206953576400,9.365576416015625,2.128300905227661,-3.684032440185547,6.396555423736572
1772732206963603700,9.375603759765625,2.2851645946502686,-4.266781806945801,6.547688961029053
1772732206973631700,9.3856318359375,2.3767879009246826,-4.690298557281494,6.754489421844482
1772732206983659800,9.39565966796875,2.3634579181671143,-4.923407554626465,7.067384719848633
1772732206993687600,9.4056875,2.2354907989501953,-5.059819221496582,7.697514533996582
1772732207003714600,9.415714599609375,2.1431825160980225,-5.103774070739746,8.371817588806152
1772732207013742600,9.42574267578125,2.0249946117401123,-5.221243381500244,8.987473487854004
1772732207023770600,9.4357705078125,1.699120044708252,-5.493252754211426,9.293559074401855
1772732207033798700,9.445798583984375,1.2906094789505005,-5.766529083251953,9.145135879516602
1772732207043825700,9.45582568359375,0.9215230345726013,-5.983175754547119,8.707564353942871
1772732207053853700,9.465853759765626,0.6520920395851135,-6.107606410980225,8.308115005493164
1772732207063881700,9.4758818359375,0.3530523478984833,-6.133774280548096,8.060766220092773
1772732207073909500,9.485909423828126,-0.05656949430704117,-6.077219486236572,7.832324981689453
1772732207083937500,9.4959375,-0.5181717276573181,-5.950283050537109,7.483236312866211
1772732207093964500,9.505964599609374,-0.8941993117332458,-5.819216728210449,6.972808837890625
1772732207103992600,9.51599267578125,-1.1638076305389404,-5.619150638580322,6.412987232208252
1772732207114020600,9.5260205078125,-1.3131957054138184,-5.382916450500488,5.7829976081848145
1772732207124048600,9.536048583984375,-1.3716883659362793,-5.047679901123047,5.195403099060059
1772732207134075600,9.54607568359375,-1.369167447090149,-4.540924549102783,4.791806221008301
1772732207144103400,9.556103515625,-1.3568836450576782,-3.906074285507202,4.627987861633301
1772732207154131700,9.566131591796875,-1.360615611076355,-3.2588672637939453,4.674101829528809
1772732207164159500,9.576159423828125,-1.3795557022094727,-2.6750760078430176,4.77932071685791
1772732207174186800,9.586186767578125,-1.4090486764907837,-2.1259100437164307,4.825954437255859
1772732207184214500,9.596214599609375,-1.376387119293213,-1.5933531522750854,4.6737260818481445
1772732207194242800,9.606242919921876,-1.1627705097198486,-1.153150200843811,4.261013507843018
1772732207204270600,9.6162705078125,-0.7986697554588318,-0.8732383847236633,3.6852636337280273
1772732207214297600,9.626297607421876,-0.4200124442577362,-0.7715945839881897,3.0327446460723877
1772732207224325600,9.63632568359375,-0.14554812014102936,-0.821475088596344,2.370070457458496
1772732207234353700,9.646353759765624,-0.0478731133043766,-0.9120722413063049,1.8126640319824219
1772732207244381700,9.656381591796874,-0.054572559893131256,-0.9197631478309631,1.4633078575134277
1772732207254408700,9.66640869140625,-0.12913838028907776,-0.7807586789131165,1.3405022621154785
1772732207264436700,9.676436767578124,-0.21051472425460815,-0.4376292824745178,1.4054540395736694
1772732207274464500,9.686464599609375,-0.31351351737976074,0.047465816140174866,1.5418696403503418
1772732207284492800,9.696492919921875,-0.4134100079536438,0.5246619582176208,1.6338618993759155
1772732207294521600,9.706521484375,-0.5293436050415039,0.883759617805481,1.5955287218093872
1772732207304549600,9.716549560546875,-0.6744962930679321,1.080121636390686,1.3931431770324707
1772732207314576600,9.72657666015625,-0.8252807855606079,1.1863044500350952,1.010611891746521
1772732207324604700,9.736604736328125,-0.988375723361969,1.155329704284668,0.4466191232204437
1772732207334632700,9.7466328125,-1.1278382539749146,1.0202821493148804,-0.24300050735473633
1772732207344660500,9.756660400390626,-1.2255553007125854,0.8971083164215088,-0.9186434149742126
1772732207354687700,9.766687744140626,-1.2641078233718872,0.8548244833946228,-1.4378020763397217
1772732207364715500,9.776715576171876,-1.2258567810058594,0.9272408485412598,-1.790162444114685
1772732207374743800,9.786743896484374,-1.1381477117538452,1.0586062669754028,-2.0194737911224365
1772732207384771600,9.796771484375,-1.012249231338501,1.1952186822891235,-2.24086594581604
1772732207394798600,9.806798583984374,-0.8112661838531494,1.308485746383667,-2.612872362136841
1772732207404826600,9.81682666015625,-0.5400546789169312,1.4246383905410767,-3.114929676055908
1772732207414854400,9.8268544921875,-0.2723560631275177,1.5112661123275757,-3.667536973953247
1772732207424882700,9.836882568359375,-0.02196778915822506,1.5773484706878662,-4.201710224151611
1772732207434909700,9.84690966796875,0.23757381737232208,1.6521660089492798,-4.702502250671387
1772732207444937700,9.856937744140625,0.5196377038955688,1.7337028980255127,-5.1734514236450195
1772732207454965500,9.866965576171875,0.8315710425376892,1.7083189487457275,-5.784794807434082
1772732207464993800,9.876993896484375,1.169631838798523,1.6176525354385376,-6.4690961837768555
1772732207475020500,9.8870205078125,1.4789152145385742,1.5550611019134521,-6.978927135467529
1772732207485048600,9.897048583984375,1.7238863706588745,1.587870717048645,-7.176854610443115
1772732207495076600,9.90707666015625,1.898048996925354,1.6476033926010132,-7.0220465660095215
1772732207505104600,9.917104736328126,2.1055848598480225,1.7064898014068604,-6.622512340545654
1772732207515131600,9.927131591796876,2.3612940311431885,1.7428022623062134,-6.206341743469238
1772732207525159700,9.93715966796875,2.4676856994628906,1.723857045173645,-6.0617218017578125
1772732207535187700,9.947187744140624,2.380012273788452,1.5517228841781616,-6.252595901489258
1772732207545215500,9.957215576171874,2.1897640228271484,1.2743748426437378,-6.708253383636475
1772732207555243800,9.967243896484375,2.040005922317505,1.2063926458358765,-7.313129425048828
1772732207565270800,9.977270751953125,2.1396191120147705,1.4148017168045044,-8.044594764709473
1772732207575298600,9.987298583984375,2.480938196182251,1.6938146352767944,-8.503216743469238
1772732207585326600,9.99732666015625,2.8970954418182373,1.9467960596084595,-8.412203788757324
1772732207595354600,10.007354736328125,3.0265088081359863,2.0555477142333984,-7.658520698547363
1772732207605381600,10.017381591796875,2.8105876445770264,2.1591429710388184,-6.517989635467529
1772732207615409700,10.02740966796875,2.209841012954712,2.321127414703369,-5.5454630851745605
1772732207625437700,10.037437744140625,1.4393553733825684,2.4528868198394775,-5.193357467651367
1772732207635465700,10.0474658203125,0.7362785339355469,2.607990026473999,-5.55404806137085
1772732207645492500,10.057492431640625,0.29844602942466736,2.99202299118042,-6.376735210418701
1772732207655520800,10.067520751953126,0.31685078144073486,3.7891762256622314,-7.266197681427002
1772732207665548500,10.077548583984376,1.0158426761627197,4.95424747467041,-8.050174713134766
1772732207675576600,10.08757666015625,2.0037620067596436,6.156710624694824,-8.219615936279297
1772732207685603600,10.097603515625,2.3865132331848145,7.212350845336914,-7.428591728210449
1772732207695631600,10.107631591796874,1.6484770774841309,7.840646266937256,-6.1014933586120605
1772732207705659600,10.11765966796875,0.029163064435124397,7.785765171051025,-5.123349189758301
1772732207715687700,10.127687744140625,-1.7576804161071777,6.938717842102051,-4.985321521759033
1772732207725714700,10.137714599609374,-2.5823493003845215,5.6724700927734375,-5.33608341217041
1772732207735742500,10.147742431640625,-2.1580517292022705,4.729802131652832,-5.397139549255371
1772732207745770800,10.157770751953125,-0.9131776094436646,4.29865837097168,-4.935389995574951
1772732207755798500,10.167798583984375,0.24506770074367523,3.803908109664917,-4.218997478485107
1772732207765826800,10.177826904296875,0.8546817302703857,2.9104552268981934,-3.5924925804138184
1772732207775853600,10.187853515625,0.9721617102622986,1.4102846384048462,-3.1023168563842773
1772732207785881600,10.197881591796875,0.9283671379089355,-0.5968434810638428,-2.8619232177734375
1772732207795909600,10.20790966796875,1.0450992584228516,-2.6699094772338867,-2.9139342308044434
1772732207805937400,10.2179375,1.17613685131073,-4.233949184417725,-3.0323503017425537
1772732207815964700,10.227964599609376,1.0218701362609863,-4.943769454956055,-2.833181142807007
1772732207825992700,10.23799267578125,0.558963418006897,-4.848223686218262,-1.9960415363311768
1772732207836020700,10.248020751953124,-0.09271169453859329,-4.206973552703857,-0.6747236847877502
1772732207846048500,10.258048583984374,-0.7710734009742737,-3.3112776279449463,0.683855414390564
1772732207856075500,10.268075439453124,-1.3217453956604004,-2.4321374893188477,1.8308335542678833
1772732207866103600,10.278103515625,-1.6747841835021973,-1.696770191192627,2.705826759338379
1772732207876131600,10.288131591796875,-1.806773066520691,-1.252570629119873,3.285916566848755
1772732207886159600,10.29815966796875,-1.6915807723999023,-1.0805176496505737,3.6540095806121826
1772732207896186600,10.3081865234375,-1.510385513305664,-1.1436214447021484,3.97588849067688
1772732207906214700,10.318214599609375,-1.3775984048843384,-1.2109389305114746,4.368412971496582
1772732207916242700,10.32824267578125,-1.295775294303894,-1.1517152786254883,4.9118757247924805
1772732207926270700,10.338270751953125,-1.2495396137237549,-1.0387872457504272,5.595796585083008
1772732207936298000,10.348298095703125,-1.1765930652618408,-0.986965000629425,6.230586051940918
1772732207946325800,10.35832568359375,-1.0355643033981323,-0.8382543325424194,6.858619213104248
1772732207956353800,10.368353759765625,-0.861205518245697,-0.6851473450660706,7.450375080108643
1772732207966381800,10.3783818359375,-0.6061175465583801,-0.752809464931488,7.745055675506592
1772732207976408800,10.388408935546876,-0.21058043837547302,-1.2750648260116577,7.600666046142578
1772732207986436900,10.398436767578126,0.22176751494407654,-2.214557647705078,7.31790018081665
1772732207996464600,10.408464599609376,0.5261921882629395,-3.138326644897461,7.238092422485352
1772732208006493000,10.418492919921874,0.5752441883087158,-3.654688835144043,7.510700225830078
1772732208016520700,10.428520751953124,0.37418368458747864,-3.705878496170044,7.956270694732666
1772732208026548000,10.4385478515625,0.11433160305023193,-3.658850908279419,8.342175483703613
1772732208036575700,10.44857568359375,-0.11140117049217224,-3.7839837074279785,8.735102653503418
1772732208046604000,10.45860400390625,-0.25707608461380005,-3.8833582401275635,9.04800796508789
1772732208056631800,10.4686318359375,-0.3219791352748871,-3.662719488143921,9.31092643737793
1772732208066658800,10.478658935546875,-0.3328797221183777,-3.2538254261016846,9.475631713867188
1772732208076686800,10.488686767578125,-0.4310537278652191,-3.027898073196411,9.550763130187988
1772732208086714600,10.498714599609375,-0.5913464426994324,-3.0718607902526855,9.58615779876709
1772732208096743000,10.508742919921875,-0.7024059295654297,-3.123671770095825,9.566778182983398
1772732208106770000,10.51877001953125,-0.673531174659729,-3.0006918907165527,9.510828971862793
1772732208116798000,10.5287978515625,-0.5320498943328857,-2.782369613647461,9.426302909851074
1772732208126825700,10.53882568359375,-0.34593167901039124,-2.651925802230835,9.230823516845703
1772732208136854000,10.54885400390625,-0.045129649341106415,-2.697829246520996,8.767545700073242
1772732208146880800,10.558880859375,0.4728865921497345,-3.0357749462127686,7.836407661437988
1772732208156908800,10.56890869140625,1.0912901163101196,-3.8035552501678467,6.366261959075928
1772732208166936800,10.578936767578124,1.5702452659606934,-4.902020454406738,4.578917980194092
1772732208176964900,10.58896484375,1.6961714029312134,-5.895798683166504,2.9206736087799072
1772732208186991900,10.598991943359374,1.3953609466552734,-6.422717094421387,1.7401738166809082
1772732208197020000,10.60902001953125,0.8776949644088745,-6.319368362426758,1.0063114166259766
1772732208207048000,10.6190478515625,0.37138304114341736,-5.673788070678711,0.7497164011001587
1772732208217075700,10.62907568359375,-0.045287083834409714,-4.704432010650635,0.8169999718666077
1772732208227104000,10.63910400390625,-0.32834917306900024,-3.553624153137207,0.9756226539611816
1772732208237131000,10.649131103515625,-0.5268042683601379,-2.483867645263672,1.0402662754058838
1772732208247158800,10.65915869140625,-0.710440456867218,-1.750001072883606,1.0122727155685425
1772732208257186800,10.669186767578125,-0.8638951182365417,-1.3444427251815796,0.867870032787323
1772732208267214800,10.67921484375,-1.0333547592163086,-0.9704598188400269,0.6292233467102051
1772732208277241900,10.689241943359375,-1.2676838636398315,-0.5423969030380249,0.42299962043762207
1772732208287270000,10.699269775390626,-1.490247130393982,0.001997443614527583,0.22643117606639862
1772732208297298000,10.7092978515625,-1.614264965057373,0.6464784741401672,0.0042001185938715935
1772732208307326000,10.719325927734374,-1.561693549156189,1.3009977340698242,-0.28451237082481384
1772732208317352700,10.729352783203124,-1.3455274105072021,1.8780152797698975,-0.7136794328689575
1772732208327381000,10.739381103515624,-1.0490460395812988,2.29567551612854,-1.3058182001113892
1772732208337408800,10.74940869140625,-0.7738164067268372,2.508431911468506,-2.0466365814208984
1772732208347436800,10.759436767578125,-0.5496677160263062,2.5566864013671875,-2.878028392791748
1772732208357463800,10.7694638671875,-0.3347988426685333,2.586883306503296,-3.6737406253814697
1772732208367491800,10.779491943359375,-0.09172546118497849,2.6644608974456787,-4.344735145568848
1772732208377519900,10.789519775390625,0.14661219716072083,2.8387794494628906,-4.870194435119629
1772732208387547600,10.799547607421875,0.3354220688343048,3.07682204246521,-5.2294182777404785
1772732208397575000,10.809574951171875,0.4586356282234192,3.2807416915893555,-5.466550827026367
1772732208407602700,10.819602783203125,0.5418391823768616,3.3879826068878174,-5.628039360046387
1772732208417631000,10.829630859375,0.6571297645568848,3.373323440551758,-5.789979457855225
1772732208427658800,10.83965869140625,0.815220296382904,3.2768208980560303,-5.939489841461182
1772732208437685800,10.849685791015625,0.9928297400474548,3.1863229274749756,-6.05844783782959
1772732208447713800,10.8597138671875,1.1260594129562378,3.1017825603485107,-6.127423286437988
1772732208457741800,10.869741943359376,1.162400245666504,3.0549089908599854,-6.122499465942383
1772732208467769900,10.879769775390624,1.1050171852111816,3.073735475540161,-6.009941101074219
1772732208477796900,10.889796875,1.0465760231018066,3.1398074626922607,-5.768264293670654
1772732208487825000,10.899824951171874,0.999243438243866,3.258413076400757,-5.372461795806885
1772732208497853000,10.90985302734375,0.8720591068267822,3.4000415802001953,-4.860293388366699
1772732208507881000,10.919880859375,0.7058155536651611,3.3963143825531006,-4.422525405883789
1772732208517908000,10.929907958984375,0.5016270279884338,3.2663865089416504,-4.265846252441406
1772732208527935700,10.939935791015625,0.2231224775314331,3.1403565406799316,-4.417271137237549
1772732208537963800,10.9499638671875,-0.0017623922321945429,3.104332685470581,-4.9530029296875
1772732208547991800,10.95999169921875,-0.17007683217525482,3.1705191135406494,-5.773246765136719
1772732208558019800,10.970019775390625,-0.14985036849975586,3.2907989025115967,-6.714116096496582
1772732208568046800,10.980046875,0.17807424068450928,3.412604808807373,-7.474532604217529
1772732208578075000,10.990074951171875,0.8650923371315002,3.516543388366699,-8.023347854614258
1772732208588103000,11.00010302734375,1.804161548614502,3.5081756114959717,-8.36523151397705
1772732208598131000,11.010130859375,2.386361837387085,3.283919334411621,-8.140737533569336
1772732208608158000,11.020157958984376,2.1405506134033203,2.7712600231170654,-7.658576011657715
1772732208618185700,11.030185791015626,1.3060418367385864,2.219452381134033,-7.712438583374023
1772732208628213800,11.0402138671875,0.45296743512153625,1.8809539079666138,-8.332258224487305
1772732208638241800,11.05024169921875,0.01704469509422779,1.9235268831253052,-8.763880729675293
1772732208648269000,11.06026904296875,0.0771181508898735,2.44655704498291,-8.272703170776367
1772732208658296800,11.070296875,0.1641303449869156,3.2935612201690674,-6.949867248535156
1772732208668324900,11.080324951171875,-0.3733850419521332,4.055535316467285,-5.2901225090026855
1772732208678353000,11.090352783203125,-1.4451898336410522,4.708072662353516,-3.884944200515747
1772732208688379600,11.100379638671875,-2.41910457611084,4.858547687530518,-3.147413492202759
1772732208698408000,11.110407958984375,-2.8033182621002197,4.1125078201293945,-3.13218092918396
1772732208708435700,11.120435791015625,-2.5765349864959717,2.456585168838501,-3.611837148666382
1772732208718464000,11.130464111328125,-1.9967182874679565,0.6257282495498657,-4.219444274902344
1772732208728491800,11.14049169921875,-1.3668049573898315,-0.6076985597610474,-4.589117050170898
1772732208738519000,11.15051904296875,-0.8106489181518555,-1.031028151512146,-4.564392566680908
1772732208748546800,11.160546875,-0.2572922706604004,-1.0888798236846924,-3.957339286804199
1772732208758574800,11.170574951171876,0.11229029297828674,-1.2372937202453613,-3.2657785415649414
1772732208768603000,11.180602783203126,0.20021162927150726,-1.5799213647842407,-2.8050599098205566
1772732208778630000,11.1906298828125,0.14525046944618225,-2.0169625282287598,-2.464651107788086
1772732208788658000,11.200657958984374,0.08134099841117859,-2.3256001472473145,-2.084561586380005
1772732208798685700,11.210685791015624,0.055201027542352676,-2.408548593521118,-1.6129549741744995
1772732208808714000,11.2207138671875,0.066550612449646,-2.290600538253784,-1.0676947832107544
1772732208818740700,11.23074072265625,0.061372507363557816,-2.0462324619293213,-0.5241594314575195
1772732208828768800,11.240768798828125,-0.027575736865401268,-1.7416915893554688,-0.009521093219518661
1772732208838796800,11.250796875,-0.1740768998861313,-1.3495495319366455,0.5155935883522034
1772732208848824800,11.260824951171875,-0.37849339842796326,-0.905678927898407,1.0886951684951782
1772732208858851800,11.270851806640625,-0.584839940071106,-0.545173704624176,1.7339911460876465
1772732208868880000,11.2808798828125,-0.793965756893158,-0.27073922753334045,2.441499710083008
1772732208878908000,11.290907958984375,-1.0048956871032715,-0.12775152921676636,3.1623423099517822
1772732208888935700,11.300935791015625,-1.170937180519104,-0.2608534097671509,3.6913602352142334
1772732208898962700,11.310962646484375,-1.1482328176498413,-0.6502984166145325,3.9438319206237793
1772732208908991000,11.320990966796876,-0.972739577293396,-1.09923255443573,4.0782318115234375
1772732208919018800,11.331018798828126,-0.8689439296722412,-1.4883449077606201,4.367434501647949
1772732208929046300,11.34104638671875,-0.8994850516319275,-1.739648699760437,4.866647243499756
1772732208939074600,11.351074462890624,-1.0420030355453491,-2.0314269065856934,5.761877059936523
1772732208949101600,11.3611015625,-1.2340073585510254,-2.456495523452759,6.636527061462402
1772732208959129600,11.371129638671874,-1.384828805923462,-3.044978141784668,7.087138652801514
1772732208969157400,11.381157470703124,-1.4886564016342163,-3.8188436031341553,7.103071689605713
1772732208979185700,11.391185546875,-1.5914884805679321,-4.477695465087891,7.090568542480469
1772732208989212400,11.40121240234375,-1.8207342624664307,-4.872446060180664,7.496525287628174
1772732208999240400,11.411240478515625,-2.0452187061309814,-4.857173442840576,8.099213600158691
1772732209009268500,11.4212685546875,-2.341827630996704,-4.609020233154297,8.664724349975586
1772732209019296500,11.431296630859375,-2.6390016078948975,-4.277463436126709,9.202203750610352
1772732209029323500,11.441323486328125,-2.885791063308716,-3.927518129348755,9.815229415893555
1772732209039351600,11.4513515625,-3.151815414428711,-3.557222843170166,10.412659645080566
1772732209049379300,11.46137939453125,-3.3003687858581543,-3.138233184814453,10.772285461425781
1772732209059407400,11.471407470703125,-3.1551103591918945,-2.6487843990325928,10.899530410766602
1772732209069434400,11.481434326171875,-2.848342180252075,-2.20322847366333,10.829129219055176
1772732209079462700,11.491462646484376,-2.5604469776153564,-1.889776349067688,10.521915435791016
1772732209089490400,11.501490478515626,-2.2564597129821777,-1.6806004047393799,10.125086784362793
1772732209099518500,11.5115185546875,-1.9159623384475708,-1.5152640342712402,9.613479614257812
1772732209109545500,11.52154541015625,-1.538177490234375,-1.4058867692947388,9.034015655517578
1772732209119573200,11.5315732421875,-1.1071099042892456,-1.437464714050293,8.3571195602417
1772732209129601500,11.5416015625,-0.630690336227417,-1.7792614698410034,7.482362270355225
1772732209139629300,11.55162939453125,-0.24622522294521332,-2.1592447757720947,6.369427680969238
1772732209149657600,11.56165771484375,-0.04388757050037384,-2.2082598209381104,5.082486152648926
1772732209159684400,11.571684326171875,0.12379886955022812,-1.9780594110488892,3.7484664916992188
1772732209169712600,11.581712646484375,0.29895150661468506,-1.6834861040115356,2.4400761127471924
1772732209179740400,11.591740478515625,0.3576960563659668,-1.467285394668579,1.345312237739563
1772732209189768400,11.6017685546875,0.2493157982826233,-1.2481911182403564,0.5941567420959473
1772732209199795500,11.61179541015625,0.0032045142725110054,-1.0785232782363892,0.09192623198032379
1772732209209823500,11.621823486328125,-0.2897791564464569,-0.8885729312896729,-0.2763042449951172
1772732209219851500,11.6318515625,-0.5733561515808105,-0.49381956458091736,-0.43847981095314026
1772732209229879300,11.64187939453125,-0.8744848370552063,0.11234226077795029,-0.34887081384658813
1772732209239906600,11.651906494140626,-1.2055119276046753,0.7596703767776489,-0.054093096405267715
1772732209249934300,11.661934326171876,-1.529104471206665,1.3151792287826538,0.3248872458934784
1772732209259962600,11.671962646484374,-1.7685266733169556,1.8416181802749634,0.6544958353042603
1772732209269990400,11.681990478515624,-1.9795397520065308,2.3461484909057617,0.8349673748016357
1772732209280017400,11.692017333984374,-2.1310973167419434,2.7260289192199707,0.7628073692321777
1772732209290045400,11.70204541015625,-2.1901872158050537,2.8500964641571045,0.4545917212963104
1772732209300073500,11.712073486328125,-2.184739828109741,2.649164915084839,0.04148935154080391
1772732209310101500,11.7221015625,-2.022221803665161,2.3240718841552734,-0.449746698141098
1772732209320128500,11.73212841796875,-1.7718021869659424,2.0053458213806152,-1.0629667043685913
1772732209330156500,11.742156494140625,-1.503164529800415,1.6688867807388306,-1.7388145923614502
1772732209340184600,11.7521845703125,-1.2417351007461548,1.3680626153945923,-2.3871424198150635
1772732209350212600,11.762212646484375,-1.0000311136245728,1.1799004077911377,-2.925417184829712
1772732209360240400,11.772240478515625,-0.7732570171356201,1.1093164682388306,-3.308826446533203
1772732209370267400,11.782267333984375,-0.5530780553817749,1.103028416633606,-3.601656198501587
1772732209380295400,11.79229541015625,-0.2931973338127136,1.0510468482971191,-3.9608161449432373
1772732209390323500,11.802323486328126,-0.008194366469979286,0.9450910687446594,-4.403503894805908
1772732209400351500,11.8123515625,0.28181594610214233,0.7855016589164734,-4.8788676261901855
1772732209410378500,11.82237841796875,0.6125414371490479,0.6489994525909424,-5.355829238891602
1772732209420406500,11.832406494140624,0.9717250466346741,0.6377052664756775,-5.736037731170654
1772732209430434600,11.8424345703125,1.3416948318481445,0.7521359920501709,-5.957873344421387
1772732209440462300,11.85246240234375,1.7026704549789429,1.018728494644165,-5.985333442687988
1772732209450489600,11.862489501953124,2.012208938598633,1.415494441986084,-5.784143447875977
1772732209460517400,11.872517333984375,2.2046666145324707,1.9102556705474854,-5.385697364807129
1772732209470545400,11.88254541015625,2.2185769081115723,2.4549050331115723,-4.798317909240723
1772732209480573400,11.892573486328125,2.046220302581787,2.9628593921661377,-4.142607688903809
1772732209490600400,11.902600341796875,1.7109712362289429,3.2284252643585205,-3.824531078338623
1772732209500628500,11.91262841796875,1.1986770629882812,3.1631834506988525,-3.8729474544525146
1772732209510656300,11.92265625,0.7663179039955139,2.9945545196533203,-4.470477104187012
1772732209520684500,11.9326845703125,0.41361767053604126,2.8825457096099854,-5.755548000335693
1772732209530711300,11.942711181640625,0.38037610054016113,2.8332197666168213,-7.216214656829834
1772732209540739600,11.952739501953126,0.8489766120910645,3.047102212905884,-8.771105766296387
1772732209550767400,11.962767333984376,1.8094072341918945,3.233506917953491,-10.14436149597168
1772732209560795600,11.972795654296876,2.6874542236328125,3.1095311641693115,-10.234800338745117
1772732209570822400,11.982822509765626,2.886691093444824,2.8075954914093018,-8.939255714416504
1772732209580850400,11.992850341796874,2.3166558742523193,2.575482130050659,-7.586656093597412
1772732209590878500,12.00287841796875,1.2145099639892578,2.7028932571411133,-6.5938191413879395
1772732209600906500,12.012906494140625,-0.41956156492233276,3.3799233436584473,-6.103290557861328
1772732209610934500,12.0229345703125,-1.8198844194412231,4.6308674812316895,-6.295748233795166
1772732209620961500,12.03296142578125,-2.0511386394500732,6.085395336151123,-6.706480979919434
1772732209630989600,12.042989501953125,-1.5169320106506348,7.288830757141113,-6.361492156982422
1772732209641017300,12.053017333984375,-0.9184918999671936,7.71895170211792,-5.086724758148193
1772732209651045600,12.063045654296875,-1.1686530113220215,6.966980457305908,-3.5608084201812744
1772732209661072400,12.073072265625,-2.3343279361724854,5.577699184417725,-2.4844799041748047
1772732209671100400,12.083100341796875,-3.4429664611816406,4.309218883514404,-1.6938927173614502
1772732209681128400,12.09312841796875,-3.6825625896453857,3.041818857192993,-1.2394455671310425
1772732209691156500,12.103156494140626,-3.080138921737671,1.809031367301941,-1.2410157918930054
1772732209701183500,12.11318359375,-2.0474793910980225,0.47545331716537476,-1.6402630805969238
1772732209711211500,12.12321142578125,-1.0236241817474365,-0.8329886198043823,-2.1790215969085693
1772732209721239600,12.133239501953126,-0.30169230699539185,-1.8768330812454224,-2.4776451587677
1772732209731267300,12.143267333984374,0.013278670608997345,-2.5464367866516113,-2.341956377029419
1772732209741294300,12.15329443359375,0.008949547074735165,-2.8869123458862305,-1.8319827318191528
1772732209751322600,12.163322509765624,-0.15286065638065338,-2.9569497108459473,-1.1362321376800537
1772732209761350400,12.173350341796874,-0.3499213755130768,-2.7385096549987793,-0.4271605312824249
1772732209771378400,12.18337841796875,-0.5207706093788147,-2.357832193374634,0.26246315240859985
1772732209781405400,12.193405517578125,-0.634348452091217,-1.8984779119491577,0.8872607350349426
1772732209791433500,12.20343359375,-0.6734135746955872,-1.4054712057113647,1.4192886352539062
1772732209801461500,12.21346142578125,-0.6365108489990234,-1.0396162271499634,1.833811640739441
1772732209811489500,12.223489501953125,-0.5602837204933167,-0.8442569375038147,2.1740505695343018
1772732209821517600,12.233517578125,-0.4504747688770294,-0.7845903635025024,2.522866725921631
1772732209831544300,12.24354443359375,-0.3609992265701294,-0.8541712760925293,2.9504082202911377
1772732209841572600,12.253572509765625,-0.26369619369506836,-0.9548051357269287,3.3575165271759033
1772732209851600400,12.263600341796876,-0.1536882072687149,-1.030326008796692,3.750295877456665
1772732209861628400,12.27362841796875,-0.011470413766801357,-1.1686631441116333,4.047022819519043
1772732209871655400,12.283655517578126,0.2535601854324341,-1.3845938444137573,4.259387493133545
1772732209881683500,12.293683349609376,0.576319694519043,-1.7011635303497314,4.534058094024658
1772732209891711500,12.30371142578125,0.7786427140235901,-2.067599058151245,4.845743179321289
1772732209901739300,12.3137392578125,0.8267900943756104,-2.312992572784424,5.203056335449219
1772732209911766500,12.3237666015625,0.7951999306678772,-2.4586803913116455,5.571162700653076
1772732209921794300,12.333794189453124,0.6980214715003967,-2.63729190826416,5.922497749328613
1772732209931822600,12.343822509765625,0.6245017051696777,-2.7870290279388428,6.200499534606934
1772732209941850600,12.3538505859375,0.5676226615905762,-2.866722822189331,6.497284412384033
1772732209951877600,12.363877685546875,0.546552836894989,-2.8518693447113037,6.782397270202637
1772732209961905400,12.373905517578125,0.5654889941215515,-2.745969772338867,7.07430362701416
1772732209971933700,12.38393359375,0.5636959075927734,-2.531764030456543,7.347879886627197
1772732209981961500,12.39396142578125,0.5536739826202393,-2.237083673477173,7.4823760986328125
1772732209991988700,12.40398876953125,0.4539008140563965,-2.18619441986084,7.563155174255371
1772732210002016500,12.4140166015625,0.2742103636264801,-2.378809690475464,7.502483367919922
1772732210012044500,12.42404443359375,0.15808027982711792,-2.5912418365478516,7.316308975219727
1772732210022072600,12.434072509765626,0.09973461925983429,-2.691176176071167,7.116889953613281
1772732210032100600,12.4441005859375,0.08937332779169083,-2.700244188308716,6.82221794128418
1772732210042127600,12.454127685546876,0.1028955727815628,-2.7626631259918213,6.270529270172119
1772732210052155400,12.4641552734375,0.24991805851459503,-2.902541399002075,5.34578275680542
1772732210062183700,12.47418359375,0.45443886518478394,-3.295090913772583,4.307111740112305
1772732210072211500,12.48421142578125,0.6009241938591003,-4.040145397186279,3.3350651264190674
1772732210082238700,12.49423876953125,0.5767937302589417,-4.862850189208984,2.6153616905212402
1772732210092266500,12.5042666015625,0.2912983298301697,-5.354592800140381,2.243985176086426
1772732210102294800,12.514294677734375,-0.24001860618591309,-5.515913963317871,2.162778854370117
1772732210112322600,12.524322509765625,-0.8858453035354614,-5.286920070648193,2.2790398597717285
1772732210122349600,12.534349609375,-1.5218499898910522,-4.79325008392334,2.8986642360687256
1772732210132377600,12.544377685546875,-1.9762667417526245,-4.100341796875,4.075060844421387
1772732210142405600,12.554405517578125,-2.258049964904785,-3.282758951187134,5.49206018447876
1772732210152433700,12.56443359375,-2.376682996749878,-2.684936761856079,6.823114395141602
1772732210162460700,12.574460693359375,-2.409775733947754,-2.519352674484253,7.771758079528809
1772732210172488700,12.58448876953125,-2.3976118564605713,-2.7558717727661133,8.194076538085938
1772732210182516500,12.5945166015625,-2.298229932785034,-3.153531551361084,8.1219482421875
1772732210192544800,12.604544677734374,-2.0052289962768555,-3.259523630142212,7.597425937652588
1772732210202572500,12.614572509765624,-1.5379669666290283,-2.7625274658203125,6.824920177459717
1772732210212599600,12.624599609375,-1.0520005226135254,-1.9235374927520752,5.989716529846191
1772732210222627600,12.634627685546874,-0.6660846471786499,-1.355861783027649,5.298069477081299
1772732210232655600,12.644655517578125,-0.40892478823661804,-1.1914334297180176,4.87891960144043
1772732210242683600,12.65468359375,-0.27145111560821533,-1.2109676599502563,4.638957500457764
1772732210252710700,12.664710693359375,-0.28665801882743835,-1.1477946043014526,4.602177619934082
1772732210262738700,12.67473876953125,-0.37563782930374146,-0.756700873374939,4.684578895568848
1772732210272766500,12.684766357421875,-0.4736080765724182,-0.1272536963224411,4.6371169090271
1772732210282794500,12.69479443359375,-0.45661935210227966,0.5019305348396301,4.232527256011963
1772732210292821800,12.70482177734375,-0.33909299969673157,1.0423504114151,3.421811580657959
1772732210302849500,12.714849609375,-0.2253805249929428,1.3295166492462158,2.2717669010162354
1772732210312877600,12.724877685546875,-0.14748892188072205,1.4866982698440552,0.9908518195152283
1772732210322905600,12.734905517578126,-0.07831983268260956,1.8179723024368286,-0.09769553691148758
1772732210332932400,12.744932373046876,-0.03042474389076233,2.370361804962158,-0.9408438205718994
