time,seconds_elapsed,z,y,x
1772642710362925000,0.060925048828125,0.1544306832551956,0.047502048148214814,0.3391775212537497
1772642710372970000,0.070969970703125,0.15254910729229448,0.03997968981936574,0.35053163976520296
1772642710383015200,0.08101513671875,0.20102876830101013,-0.01221066227555275,0.35134748619273304
1772642710393061000,0.09106103515625,0.2345832473784685,-0.004764584053307771,0.2842860935065895
1772642710403106000,0.10110595703125,0.37751638506352897,-0.004082008616626262,0.19990758225135505
1772642710413151000,0.11115087890625,0.5168576357364654,-0.047560208076238626,0.19887743548601863
1772642710423196200,0.121196044921875,0.5815700541436671,-0.08750877210497855,0.1910658118870109
1772642710433241000,0.131240966796875,0.6851911721378564,-0.10491948724165558,0.15679032505862414
1772642710443287000,0.141287109375,0.7589917368859053,-0.14172288511246442,0.09694529349207878
1772642710453332200,0.151332275390625,0.8057137405723332,-0.170647585497424,0.054419207125529646
1772642710463377000,0.161376953125,0.8636901287227868,-0.19305632811710238,0.024409122656658292
1772642710473422000,0.171422119140625,0.9756681561738252,-0.17498524937555193,-0.006803688665479421
1772642710483467000,0.181467041015625,1.129417871427536,-0.13154000233747065,-0.003350552536919713
1772642710493512200,0.19151220703125,1.2608493718892335,-0.08796995987594128,-0.013766659545898436
1772642710503558100,0.20155810546875,1.3508295025438068,-0.04284823099300265,-0.00540982315428555
1772642710513603000,0.21160302734375,1.432729202595353,0.004273220339789986,-0.025486981021240352
1772642710523648000,0.22164794921875,1.4735907898157834,0.03655870239473879,-0.08474215693585574
1772642710533693200,0.231693115234375,1.4545716165691613,0.052120355598628515,-0.11879494092427194
1772642710543738000,0.241738037109375,1.4237047691404818,0.15879150881320236,-0.12239201556816696
1772642710553784000,0.2517841796875,1.4859797312676906,0.25085677517876026,-0.05136171925105154
1772642710563829200,0.261829345703125,1.5473913545638323,0.30979587088152766,0.014846052280440926
1772642710573874000,0.2718740234375,1.5689239719361066,0.39230449661165473,0.02452697688266635
1772642710583919000,0.281919189453125,1.558801806372404,0.4864675389740616,-0.003354571124911308
1772642710593964000,0.291964111328125,1.5559434943318367,0.5926691749807447,-0.05806983858756721
1772642710604010000,0.302010009765625,1.5044289956718682,0.6854612943161279,-0.16194471214711664
1772642710614055200,0.31205517578125,1.4772814610272644,0.7872891722179949,-0.2871490086570382
1772642710624100000,0.32210009765625,1.581310575300455,0.8487482148524373,-0.38769254583679136
1772642710634145000,0.33214501953125,1.4981471389234065,0.7568950568675994,-0.4312153150904923
1772642710644190000,0.34218994140625,1.2708680770784615,0.652245618738979,-0.3746067081619054
1772642710654236200,0.352236083984375,1.3292483698546886,0.6920080125458539,-0.22062128445617854
1772642710664281000,0.362281005859375,1.5310025298207997,0.7720897764552385,-0.04243533934317529
1772642710674326300,0.372326171875,1.6057523581176996,0.7916177760068327,0.06728263422138989
1772642710684371000,0.382370849609375,1.3464455883711575,0.8784273868665099,0.08358977203033864
1772642710694416100,0.392416015625,0.9728893391102552,0.8921583175119012,0.12612835255227983
1772642710704461000,0.4024609375,0.5599123490869998,0.7549615315217524,0.22238412941023705
1772642710714507000,0.412507080078125,0.08726794908642768,0.4831569531213492,0.379131419044733
1772642710724552200,0.42255224609375,-0.5266735118299722,0.2089784121312201,0.5641600696593523
1772642710734597000,0.43259716796875,-1.1296160243481397,-0.06908040435835719,0.5891171815875917
1772642710744642000,0.44264208984375,-1.7680279096543787,-0.2319159278653562,0.643393473111093
1772642710754687000,0.45268701171875,-2.3710797277659177,-0.10184475597143172,0.6391094391163438
1772642710764733200,0.462733154296875,-2.9130829106748104,0.08370280395075679,0.5579755358055234
1772642710774778000,0.472778076171875,-3.6011955232173203,0.1494052563086152,0.6186599408056587
1772642710784823300,0.4828232421875,-4.135547314590215,0.10331935856863855,0.7250722238883376
1772642710794868000,0.492867919921875,-4.474396407607197,-0.2829499495320022,1.042782667286694
1772642710804913200,0.5029130859375,-4.680440958243608,-0.9091277916871011,1.4844811632730066
1772642710814958000,0.5129580078125,-4.832958501353859,-1.4538289815083145,1.7831434995912014
1772642710825004000,0.523004150390625,-4.895900402957201,-1.8410374701552092,1.8284952378377317
1772642710835049200,0.53304931640625,-4.911280927440524,-2.0067108474366364,1.4758005748197436
1772642710845094100,0.54309423828125,-5.060225288239121,-1.882869217582047,0.7574643811881542
1772642710855139000,0.55313916015625,-5.706354616054893,-1.6693750815920532,0.2161836673349142
1772642710865184000,0.56318408203125,-6.717410311952233,-1.1141659417599439,-0.20338577975593505
1772642710875230000,0.57322998046875,-7.414669523024559,-0.5545682115800679,-0.135538515655417
1772642710885275100,0.583275146484375,-7.325696523585915,-0.3507299388162792,0.6141864486534148
1772642710895320000,0.593320068359375,-6.924667745509743,-0.36609424281716346,1.6769532617613672
1772642710905365000,0.603364990234375,-6.041233636397123,-0.1610891182310879,1.9021835743829607
1772642710915410000,0.613409912109375,-4.357460465487837,-0.2642788590706885,1.8979954750433563
1772642710925456100,0.6234560546875,-3.1860376820236445,-0.43238793906643985,2.020450911236554
1772642710935501000,0.6335009765625,-2.2183529258191585,-0.3194029265299439,1.7409367813721297
1772642710945546200,0.643546142578125,-1.435067874675989,-0.3327447847925126,1.3115034543275832
1772642710955591200,0.653591064453125,-1.2763210817873478,-0.3610826982654631,0.696988650502637
1772642710965636000,0.663635986328125,-1.3107219485610724,-0.5823509023230522,-0.08551036482937634
1772642710975681000,0.673680908203125,-1.4670353768229483,-0.7758893148686736,-0.9841512492936104
1772642710985727000,0.68372705078125,-1.300166652277112,-0.7087942391086369,-1.9914479579836128
1772642710995772200,0.693772216796875,-0.9369196155846118,-0.3544662027351558,-2.635273392771184
1772642711005817000,0.703817138671875,-0.5439923108994961,0.19335574945509432,-2.7593381638571617
1772642711015862000,0.713862060546875,0.33110768510997296,0.6449862221952527,-2.3475138510003686
1772642711025907000,0.723906982421875,1.513086933901906,0.7196773791074752,-1.7026510359890759
1772642711035953200,0.733953125,3.026546208247542,0.8734559551294893,-1.2049744129974393
1772642711045998000,0.743998046875,4.494053294235468,1.0899802525956184,-0.934664530134201
1772642711056043300,0.754043212890625,5.5706917616337535,1.2886895649731158,-0.7905800304569304
1772642711066088200,0.764088134765625,6.25388796056211,1.4483248311340808,-0.6864359845671802
1772642711076133000,0.774133056640625,6.561894756069779,1.5702432378411293,-0.5641990134302526
1772642711086179000,0.784178955078125,6.575522883927822,1.63030432331115,-0.48670649882908906
1772642711096224000,0.79422412109375,6.867513195136189,2.0368157705821095,-0.38887843115311116
1772642711106269200,0.804269287109375,7.308022335207462,2.238782111994177,-0.4112964165251702
1772642711116314000,0.814314208984375,7.793126988330483,2.3954949148371814,-0.465297032912448
1772642711126359000,0.824359130859375,8.176810079330206,2.6968945671647786,-0.5954186928845941
1772642711136403500,0.834403564453125,8.115475028401613,3.057419777677953,-0.7843819064691663
1772642711146449700,0.84444970703125,7.5658432503104205,3.4533342814803123,-0.9648652418043464
1772642711156494600,0.85449462890625,6.653889733678102,3.717566817191243,-0.9403384841173886
1772642711166539800,0.864539794921875,5.915366199803352,3.7320115221291776,-0.6422345123343169
1772642711176584700,0.874584716796875,5.772922891461849,3.621558804549277,-0.3489405711814761
1772642711186630000,0.8846298828125,5.948562951484322,3.322361046180129,-0.29145039564538744
1772642711196675800,0.89467578125,6.063212828493118,3.0974791086047886,-0.6045031128983944
1772642711206720500,0.904720458984375,5.9609951475560665,3.0367160123452543,-1.2774718592576682
1772642711216765700,0.914765625,5.474768796926736,2.8437042540222404,-1.7214045440368353
1772642711226810600,0.924810546875,4.994342657008767,2.227838839305937,-1.641305902057886
1772642711236855800,0.934855712890625,5.100006094485521,1.5176070416748524,-1.3979945738226174
1772642711246900500,0.944900390625,5.63712968865931,1.0548276176065206,-1.1640727860275655
1772642711256946700,0.95494677734375,6.093550099089741,0.8779574312672018,-1.069682510780543
1772642711266991600,0.96499169921875,5.940002043887972,0.7476379837006331,-1.0238504416711627
1772642711277036500,0.97503662109375,5.13409950274527,0.36210517318099733,-0.6211296919200568
1772642711287081700,0.985081787109375,3.9031706373453137,-0.37810149147510524,0.07003675523512065
1772642711297126700,0.995126708984375,2.7501760754972695,-1.524525150500238,0.8300576159730553
1772642711307172900,1.0051728515625,2.4816338598936794,-2.962815786615014,1.4418699559062718
1772642711317217500,1.015217529296875,3.3003304161578413,-4.023571917487681,1.6247757691480218
1772642711327262700,1.0252626953125,3.964133347830176,-3.7816996821448203,1.1680193316962568
1772642711337307600,1.0353076171875,2.9637790786892175,-2.737678120712936,0.2910140135221183
1772642711347352800,1.045352783203125,0.8682014686673879,-2.452151452560723,-0.07450951673500239
1772642711357398800,1.055398681640625,-1.000032782101631,-2.402901683962345,-0.15843969970084726
1772642711367443500,1.065443359375,-2.460914312469959,-1.9423548412516711,-0.2922371986415237
1772642711377488600,1.075488525390625,-3.7890854084819554,-1.810475304761529,-0.004121829170361161
1772642711387533600,1.085533447265625,-4.575933705064654,-2.092738587203622,0.4067267705220729
1772642711397578800,1.095578857421875,-5.462859163424373,-2.335740411098301,0.6953656524106859
1772642711407623700,1.105623779296875,-6.413141533929109,-2.3471818425670263,0.8417987610407173
1772642711417670000,1.115669921875,-7.116402615764737,-2.1777625567555425,1.11522443783693
1772642711427714600,1.125714599609375,-7.929193162855506,-2.1870298590555786,1.6993734756231307
1772642711437759700,1.135759765625,-8.517813720032573,-2.2578502389490605,2.404189239554852
1772642711447804700,1.1458046875,-8.649483705425261,-2.0269953644439576,2.8191975892752406
1772642711457849900,1.155849853515625,-8.767931221151352,-1.4453250647962093,2.9744843048378824
1772642711467894500,1.16589453125,-9.186880271321535,-0.6224608674585819,3.1032106379941102
1772642711477940500,1.1759404296875,-10.045472784644364,0.4387430071815848,3.2792759376913305
1772642711487985700,1.185985595703125,-11.39775833121538,1.3436913212269543,3.3889854356884954
1772642711498030600,1.196030517578125,-12.54885962666273,1.639655504502356,3.250250334215164
1772642711508075800,1.20607568359375,-12.77631813672781,1.608623821900785,2.638631178766489
1772642711518120700,1.21612060546875,-11.70895544719696,1.1186059700340032,1.8877058439582586
1772642711528166700,1.226166748046875,-9.721727737256884,0.22164339404553174,1.2382321741506457
1772642711538211600,1.236211669921875,-7.583833080509304,-0.7313450205475092,0.7127006719626486
1772642711548256500,1.246256591796875,-5.621003314244747,-1.4829685667529702,0.2099014452602714
1772642711558301700,1.2563017578125,-4.192997048518062,-2.2312372495725747,-0.13862174075935035
1772642711568346600,1.2663466796875,-3.2901644114524125,-2.718650764159858,-0.27312665731701996
1772642711578391800,1.276391845703125,-2.703807707554102,-2.830074080337584,-0.25776600657794624
1772642711588437500,1.2864375,-2.1828730316370724,-2.7374866897940633,-0.12315415904708206
1772642711598482700,1.296482666015625,-1.4241408224701881,-2.6188863215938207,0.09211896931417286
1772642711608527600,1.306527587890625,-0.5836544592022895,-2.4062261522099373,0.24221180602815
1772642711618572800,1.31657275390625,0.20860358746945856,-2.057700007048249,0.030541177404578772
1772642711628617700,1.32661767578125,0.7839543287068605,-1.516682328045368,-0.406398598013632
1772642711638663700,1.33666357421875,1.087561427950859,-0.9212021142318845,-0.7734930673819035
1772642711648708600,1.34670849609375,1.1973036591738462,-0.43442455946058034,-1.087811237993464
1772642711658753500,1.35675341796875,1.346707454177737,-0.14887947886884212,-1.412329973167181
1772642711668798700,1.366798828125,1.832235885670781,0.07274477208480239,-1.671655447614193
1772642711678843600,1.37684375,2.610901460319757,0.32963279025182124,-1.774383416160941
1772642711688888800,1.386888916015625,3.2907541940391063,0.7080756425105035,-1.7257963492549955
1772642711698934500,1.3969345703125,3.58474707724154,1.3352316820479928,-1.5498428393691777
1772642711708979700,1.406979736328125,3.6862802830457686,2.129457229400426,-1.2483280362293123
1772642711719024600,1.417024658203125,3.8502404266685244,2.807801750513911,-0.8654109611660241
1772642711729069800,1.42706982421875,4.015741369992495,3.158656338623166,-0.3632257747087627
1772642711739114800,1.43711474609375,4.211390198820829,3.204669609518349,0.11598269651513546
1772642711749160700,1.44716064453125,4.598841702443361,3.160664755836129,0.45942061515972016
1772642711759205600,1.45720556640625,5.174964597097039,3.1839483085289597,0.5788512601716443
1772642711769250600,1.46725048828125,5.939419860085844,3.163575674846768,0.46220988055206835
1772642711779295700,1.477295654296875,6.633712038046121,3.045436786678433,0.29226847056262195
1772642711789340700,1.487340576171875,7.162565232002735,2.8552055989846585,0.13420414351280777
1772642711799385900,1.4973857421875,7.547030997812747,2.6220406939715146,-0.014325092579680494
1772642711809431600,1.507431640625,7.717027498990297,2.3569477420389653,-0.13182689298745243
1772642711819476500,1.5174765625,7.646026209571957,2.2027765865027904,-0.2381924143189564
1772642711829521700,1.527521728515625,7.3862559139668935,2.1700003983214495,-0.30455398817267265
1772642711839566600,1.537566650390625,7.031718253430724,2.289539216415584,-0.3199010853104293
1772642711849611800,1.54761181640625,6.632257163062691,2.5391958220243454,-0.3047729464192875
1772642711859657700,1.55765771484375,5.992120938181877,2.7828990721866487,-0.2085267228409648
1772642711869702700,1.56770263671875,5.358321515107154,2.900520658482611,-0.08302128796000033
1772642711879747600,1.57774755859375,5.002983059582114,2.8781796473369,0.05915646478049457
1772642711889792800,1.587792724609375,4.897406715866923,2.770361662174761,0.19034107780903578
1772642711899837700,1.597837646484375,4.974279527667164,2.5939757522210476,0.24082879070453345
1772642711909883000,1.6078828125,5.124767610776424,2.2653429327920076,0.3019125702857971
1772642711919928800,1.6179287109375,5.227771473655104,1.6681369180992245,0.4351375300355255
1772642711929973500,1.627973388671875,5.4066006851077075,0.9660054248154163,0.4316106710836291
1772642711940018700,1.638018798828125,5.3698968020886175,0.299008957798779,0.16474778686910868
1772642711950063600,1.648063720703125,4.934658880418539,-0.366794500041008,-0.215411440853402
1772642711960108800,1.65810888671875,4.041366225114465,-1.0947443251922726,-0.4669749760620296
1772642711970153500,1.668153564453125,2.4981799210250375,-2.4867048795476556,0.16379713508076965
1772642711980199700,1.67819970703125,1.4505746558874844,-4.304745943388343,1.1134379197463393
1772642711990244600,1.68824462890625,1.9802841744124888,-4.612956444774568,0.8538304865527897
1772642712000289800,1.698289794921875,2.9240912114232778,-3.456471118201315,-0.20242559295427054
1772642712010334700,1.708334716796875,2.922667316100001,-3.117062637735903,-0.3691980175187811
1772642712020380000,1.7183798828125,2.4573066433668136,-3.2899306026965376,-0.026859365352988242
1772642712030425900,1.72842578125,1.1272370202571154,-2.59028888040185,0.1720997935997322
1772642712040470500,1.738470458984375,-1.0158733253121375,-1.4719608505263924,0.5987260638669133
1772642712050515700,1.748515625,-3.14190160317719,-0.7811424861565232,1.0885090109992772
1772642712060560600,1.758560546875,-5.044464824527502,-0.982358301462233,1.6016593897156417
1772642712070605800,1.768605712890625,-5.933074874973297,-1.626318468545377,1.3843930417105554
1772642712080650500,1.778650390625,-5.872507885807752,-2.0652868089154364,0.38890206775702535
1772642712090696400,1.788696533203125,-6.119720313134789,-2.563584705610573,-0.2766101155186072
1772642712100741600,1.79874169921875,-6.040989890769124,-3.1209453243881464,-0.18997892996575683
1772642712110786600,1.80878662109375,-5.4864317621916525,-3.320342692095041,0.5305771316723897
1772642712120831700,1.818831787109375,-5.226428242352605,-2.982344662949443,1.4031494723677633
1772642712130876700,1.828876708984375,-5.34443502857387,-2.452289107465744,2.350790242322534
1772642712140923000,1.8389228515625,-6.086939741039275,-1.9357491593763232,2.8920103120297194
1772642712150967600,1.848967529296875,-7.0144093912333245,-1.201392097531259,2.6526789933413264
1772642712161012700,1.8590126953125,-7.819750791361928,-0.5722711876615881,2.0782436133831736
1772642712171057700,1.8690576171875,-8.57421657525599,-0.08000219586715102,1.4771535968638956
1772642712181102800,1.879102783203125,-9.341412661385535,0.23298618744537233,0.9931411228917538
1772642712191147800,1.889147705078125,-9.746172442683577,0.45536476389765734,0.5637442554000764
1772642712201193700,1.89919384765625,-9.514035419413446,0.4374975371651351,0.28409506444651633
1772642712211238700,1.90923876953125,-8.772874522772431,0.24636808545738456,0.05689273023274727
1772642712221283600,1.91928369140625,-7.792692688566446,0.10083148727566003,0.04087904524530749
1772642712231328800,1.929328857421875,-6.810486655056476,-0.09247940012440085,0.19819341701092197
1772642712241373700,1.939373779296875,-5.960183831173182,-0.10200345366448163,0.2652816246387549
1772642712251419000,1.9494189453125,-5.291390836128592,0.029476415983587502,0.31517767351772635
1772642712261464600,1.959464599609375,-4.687732284295558,0.16251637455523013,0.40203174457363783
1772642712271509800,1.969509765625,-3.993113358598947,0.2013924870468676,0.4641783310808241
1772642712281554700,1.9795546875,-3.083099870118499,0.08849149953201413,0.4724730985542759
1772642712291600000,1.989599853515625,-2.041554927933216,-0.12079334819987415,0.44949495854880656
1772642712301644800,1.999644775390625,-0.984426632168889,-0.3250122908443212,0.2654723249052651
1772642712311690800,2.009690673828125,0.10721125144064426,-0.3899237389549613,-0.1722873155284673
1772642712321735700,2.019735595703125,1.0110621256381274,-0.5009554254665971,-0.6090636257469654
1772642712331780600,2.029780517578125,1.7956056524097919,-0.6860419437482953,-0.9698221335593611
1772642712341825800,2.03982568359375,2.2420909442812205,-0.9010225189037621,-1.1358147328577934
1772642712351870700,2.04987060546875,2.518675596565008,-0.9216733850054443,-1.2049005440436302
1772642712361916000,2.059916015625,2.774470558798313,-0.6071364570766687,-1.3078669975213706
1772642712371961900,2.0699619140625,3.0587025109648702,0.013522694722190498,-1.3568378030478954
1772642712382006500,2.080006591796875,3.373215035104751,0.6973461587034165,-1.3010187390618027
1772642712392051700,2.0900517578125,3.642992929983139,1.3189645839884876,-1.223929288836196
1772642712402096600,2.1000966796875,3.921967107751965,1.8855156404376028,-1.021826534628123
1772642712412141800,2.110141845703125,4.216232962676883,2.3017577697366476,-0.6767323366764932
1772642712422187800,2.120187744140625,4.555032371333241,2.5982497762784362,-0.30577669836804267
1772642712432232700,2.130232666015625,4.858860419851541,2.779013170664012,-0.04776281797625124
1772642712442277600,2.140277587890625,5.0382051796108485,2.80657308550179,0.23321542962398378
1772642712452322800,2.15032275390625,5.262777905106544,2.7682643976345656,0.4676008163427934
1772642712462367700,2.16036767578125,5.605130037808418,2.7216952464222905,0.4881087668424472
1772642712472413000,2.170412841796875,6.1236447931021445,2.671445653131604,0.4008879083007574
1772642712482459000,2.180458984375,6.666109163782,2.517616442900896,0.24101200178433207
1772642712492503600,2.190503662109375,7.015683064430951,2.2692355563163757,0.0762169051747769
1772642712502548700,2.200548828125,7.15138391277492,2.047548176998645,-0.1597091716473922
1772642712512593700,2.21059375,7.164666003674268,1.8615096186891198,-0.4664810550652444
1772642712522638800,2.220638916015625,7.100781852784753,1.7102097808055579,-0.7553565952539444
1772642712532683500,2.23068359375,6.842448896506428,1.5281456790849566,-0.9705345926776527
1772642712542729700,2.240729736328125,6.297189926671981,1.294389384049922,-1.0289935036480427
1772642712552774700,2.250774658203125,5.716210239636898,1.1309928656592965,-0.911205474743992
1772642712562819800,2.26081982421875,5.381999912336468,1.1531602738037705,-0.8870974539257586
1772642712572864800,2.27086474609375,5.1252054176718,1.1890224453017115,-1.079795762385428
1772642712582909700,2.28090966796875,4.8315562333405015,0.9604653263449668,-1.341752462118864
1772642712592956000,2.290955810546875,4.6007875758141275,0.3397475031614303,-1.482741479998827
1772642712603000600,2.30100048828125,4.5195378641039134,-0.3772267544671893,-1.4629960383042693
1772642712613045800,2.311045654296875,4.593891971081495,-0.8996464082449674,-1.5223632962912321
1772642712623090700,2.321090576171875,4.682633499851822,-0.9991256041288376,-1.739934910853207
1772642712633135900,2.331135986328125,4.386031310933828,-0.36188100903630255,-2.235477225229889
1772642712643180500,2.3411806640625,3.2864030130922792,0.34606910739839075,-2.247988770148158
1772642712653226500,2.3512265625,1.648973075684905,0.21229893485605716,-1.1593850666027516
1772642712663271700,2.361271728515625,-0.10186346067190169,-1.1694301483422518,0.9543595568157732
1772642712673316600,2.371316650390625,-0.34220717127323147,-2.355854978366196,2.486836396972835
1772642712683361800,2.38136181640625,1.3949772718280553,-1.7912398584157228,2.4084591719590125
1772642712693406700,2.39140673828125,2.5128952595978973,-0.4083353016972542,1.060339293700084
1772642712703451600,2.40145166015625,2.071618642285466,-0.34913112531751395,-0.01167282907180488
1772642712713497600,2.41149755859375,1.0355974319577217,-1.2874068316861986,-0.5751014426514506
1772642712723542800,2.421542724609375,-0.3092144177317619,-1.9421756852924823,-1.1042648716010153
1772642712733587700,2.431587646484375,-2.0657506270349026,-2.0967191812723875,-1.5200122031204402
1772642712743633000,2.4416328125,-3.6275475235700605,-2.03986916680336,-1.620191071706265
1772642712753677600,2.451677490234375,-4.620556106123328,-2.106129106913507,-1.3449546191610395
1772642712763723500,2.4617236328125,-5.0691035912215705,-2.25293587116152,-0.8431047290727496
1772642712773768700,2.471768798828125,-5.074922506633401,-2.3993200260832905,-0.4039655256478116
1772642712783813600,2.481813720703125,-5.078284676542878,-2.665432676452398,-0.019422054959088563
1772642712793858800,2.49185888671875,-4.928229724153876,-3.011906565259397,0.24089290544930844
1772642712803903700,2.50190380859375,-4.840603463149071,-3.397405181248486,0.5707441972900181
1772642712813948700,2.51194873046875,-4.606139458236098,-3.814983819848299,1.1069085179775953
1772642712823994600,2.52199462890625,-4.329579940393566,-3.8719972081854936,1.4289130053080616
1772642712834039800,2.532039794921875,-4.957161219605803,-3.277235371774435,1.5282967779934404
1772642712844084700,2.542084716796875,-6.601763825121521,-1.9497317997604608,1.6652110937803983
1772642712854129700,2.552129638671875,-8.850210275909305,-0.7128405188247561,2.0381278760939834
1772642712864174600,2.562174560546875,-10.813849020469188,0.22722148643881082,2.426970980205387
1772642712874219800,2.5722197265625,-11.619776111531257,0.9174649735301732,2.597270702113211
1772642712884265700,2.582265625,-11.325673922735453,0.9174256644330918,2.518766781979799
1772642712894310700,2.592310546875,-10.01580829874277,0.46563189089000223,2.1734664669968184
1772642712904355800,2.60235595703125,-8.357570551106333,-0.007292348965257406,1.738459869864583
1772642712914400800,2.61240087890625,-6.928215793380141,-0.4191040946014225,1.3434244869843124
1772642712924445700,2.62244580078125,-5.6715673803120845,-0.8865047487296164,1.013506742311269
1772642712934491600,2.63249169921875,-4.509208777791262,-1.2425205189943314,0.7305711866308003
1772642712944536600,2.64253662109375,-3.441954224810004,-1.5199740630671381,0.5982829232092947
1772642712954581800,2.652581787109375,-2.5134324352145194,-1.5886974706813692,0.6474694173131138
1772642712964626700,2.662626708984375,-1.6586153487771749,-1.4810913747042416,0.7764097585462033
1772642712974671600,2.672671630859375,-0.9471744676172733,-1.2754442989528179,0.8203976610936224
1772642712984716500,2.682716552734375,-0.3389788568764925,-0.9005228988185524,0.7263063687931746
1772642712994762800,2.6927626953125,0.27680852416753765,-0.40888855166584254,0.6170165575128048
1772642713004807700,2.7028076171875,0.9959434669613838,-0.044131987193226814,0.5529605571877211
1772642713014852900,2.712852783203125,1.738485588827729,-0.029274902062118052,0.46569494618885215
1772642713024897800,2.722897705078125,2.5417443374633786,-0.27101810419782996,0.23673392260633408
1772642713034942700,2.732942626953125,3.520043426662683,-0.4845123863182962,-0.06571764992699027
1772642713044987600,2.742987548828125,4.679477081647515,-0.5123619317524135,-0.36323191218860446
1772642713055033600,2.75303369140625,5.751438204884529,-0.24648396692201494,-0.7240048138525337
1772642713065078800,2.763078857421875,6.550103195989132,0.23012729088291525,-1.0218356677826494
1772642713075123700,2.773123779296875,6.908468305858969,0.778790954594314,-1.2039105831582098
1772642713085168600,2.783168701171875,6.682934626376628,1.317464408558607,-1.1413417526509613
1772642713095213600,2.793213623046875,5.686111453971266,1.7513390790514647,-0.7042782960541546
1772642713105259800,2.803259765625,4.495284881857037,2.1727099495410918,-0.23717684406824407
1772642713115304700,2.8133046875,3.5169986521393057,2.5203014442011713,0.19746449994817375
1772642713125350000,2.823349853515625,2.8574107078135014,2.769077175322175,0.5862240539619699
1772642713135394800,2.833394775390625,2.7350007181972265,2.7754771054923535,0.7581267906196415
1772642713145439700,2.843439697265625,3.1536200980216265,2.729747035452723,0.7554265186849981
1772642713155484700,2.853484619140625,3.6742093215018508,2.4330057303249832,0.8070307414550334
1772642713165530600,2.863530517578125,4.230086715984344,2.0087816623613235,0.7503683585125952
1772642713175575800,2.873575927734375,4.9606625057250255,1.5827765561997889,0.30095844789873805
1772642713185620700,2.883620849609375,5.815533952698111,1.2644335139863192,-0.3579302255839109
1772642713195665700,2.893665771484375,6.449356172126532,1.0405028857864438,-0.942464463295415
1772642713205710600,2.903710693359375,6.687099929362535,0.8798265861399471,-1.231111966881901
1772642713215755800,2.913755859375,6.588456599780916,0.8311810670450329,-1.307281744979322
1772642713225801700,2.9238017578125,6.357162457075715,0.8729716056786477,-1.2172412624396383
1772642713235846700,2.9338466796875,6.064706281921267,1.0030250957854092,-1.0938008337970822
1772642713245891600,2.9438916015625,5.922984858113527,1.099293512929231,-1.0772262041583656
1772642713255936500,2.9539365234375,5.859537929597496,1.1261084546186029,-0.9409148957658559
1772642713265981700,2.963981689453125,5.677930485603213,1.034087904177606,-0.6885184899296611
1772642713276026600,2.974026611328125,5.347237226513028,0.8493108902364969,-0.37997349589206275
1772642713286072800,2.98407275390625,5.070099031999707,0.6525128913730383,-0.20345526479557155
1772642713296117800,2.99411767578125,5.065941327798366,0.27555881636738777,-0.05503850806765258
1772642713306162700,3.00416259765625,5.268068412730098,-0.3638318508431315,0.12451697183288633
1772642713316207600,3.01420751953125,5.316844426336885,-0.9527499296620487,0.13957359812408685
1772642713326252800,3.024252685546875,4.067237163951993,-0.9455912900790572,-0.31426399273891
1772642713336298800,3.034298828125,1.5463269402027129,-0.4958829445078969,-0.802183812880516
1772642713346343700,3.04434375,-0.5699217019259929,-0.2065109991043806,-0.7126711536072194
1772642713356388600,3.054388671875,-1.4009113380521534,-0.1469669232457876,-0.48755471315626053
1772642713366433500,3.06443359375,-0.46806700908243654,0.1902326489984989,-0.7528165553823113
1772642713376478700,3.074478759765625,1.3303601304888724,0.0675432579189539,-0.9875164148777723
1772642713386523600,3.084523681640625,2.1663170336335895,-0.8084022490039467,-1.0473091317351906
1772642713396569900,3.09456982421875,1.313842710930109,-1.9400126620396971,-1.1698504195809363
1772642713406614800,3.10461474609375,-0.9855682034194468,-2.6846681227982043,-1.23729650073573
1772642713416659700,3.11465966796875,-3.429520275172591,-2.4384587350338696,-1.4256766537353396
1772642713426704600,3.12470458984375,-5.456524699705839,-1.609576592580974,-1.5797287129364908
1772642713436749800,3.134749755859375,-6.800581347113847,-0.6898752383008598,-1.6664719074964522
1772642713446794800,3.144794677734375,-8.148388286966085,0.05975070434659719,-1.6066590976990758
1772642713456840700,3.1548408203125,-9.782726688098906,0.3215137812040746,-1.0719413225580006
1772642713466885600,3.1648857421875,-11.2765331674695,0.26246289568990466,-0.27905860464926807
1772642713476930600,3.1749306640625,-11.8340594982028,0.12597688831761478,0.668656436118111
1772642713486975700,3.184975830078125,-11.827091997277735,-0.228926682921499,1.269027271517366
1772642713497020700,3.195020751953125,-11.380795505976677,-0.7774595598600804,1.2716640497617422
1772642713507065900,3.20506591796875,-10.593965914094447,-1.1546828071959316,0.7284514910630882
1772642713517111800,3.21511181640625,-10.114379732131958,-1.3497282633036374,0.12795081873908637
1772642713527156500,3.225156494140625,-10.24330421820879,-1.1750588018789887,-0.13887805360797792
1772642713537201700,3.23520166015625,-10.396997234839201,-0.7114166235014796,-0.011978460954874754
1772642713547246600,3.24524658203125,-10.103383706343173,-0.2622815477736294,0.3547439602306112
1772642713557291800,3.255291748046875,-9.22426219973266,-0.10113865352869034,0.6290544935699552
1772642713567337700,3.265337646484375,-7.7412372266173355,-0.2156348012804985,0.6656403762325644
1772642713577382700,3.275382568359375,-6.323598625648021,-0.3977826357617974,0.6119512369472533
1772642713587427600,3.285427490234375,-5.241361607590317,-0.5970188215576112,0.8104349238753318
1772642713597472800,3.29547265625,-4.1427147220015526,-0.6374538539290427,1.0327204152166842
1772642713607517700,3.305517578125,-3.532065288367867,-0.8186796051293611,1.333453128068149
1772642713617563000,3.31556298828125,-3.0735359229594468,-1.1072981018170713,1.6019437596149741
1772642713627608800,3.32560888671875,-2.546548522874713,-1.405071088080108,1.6622914069414139
1772642713637653500,3.335653564453125,-2.024872673201561,-1.5589292321443557,1.5317998176783323
1772642713647698700,3.34569873046875,-1.4092390214145183,-1.5286685339152812,1.329261667727679
1772642713657743600,3.35574365234375,-0.7853133421003818,-1.2533984713613986,1.1864308213733137
1772642713667788800,3.365788818359375,-0.34890228499770165,-0.8441144906371831,1.0524099620055407
1772642713677833500,3.37583349609375,-0.0747276164650917,-0.3156815679192543,0.8623887638006359
1772642713687879700,3.385879638671875,0.18249825535416603,0.23405571637302636,0.7151029838640243
1772642713697924600,3.395924560546875,0.6437263583272695,0.5237818820416927,0.7724855708397924
1772642713707969800,3.4059697265625,1.3902467361748219,0.4949778123617172,1.0240795011866837
1772642713718014700,3.4160146484375,2.553816468051076,0.5223720152437686,1.1771532168749719
1772642713728059600,3.4260595703125,4.033096993941069,0.7756549946561455,1.1589740015838295
1772642713738104600,3.4361044921875,5.305938416919112,1.214753098885715,1.136785623716563
1772642713748150500,3.446150634765625,6.166692492190003,1.6233591803483665,1.0312988579809665
1772642713758195700,3.45619580078125,6.57768853752911,1.8672911247000097,0.8053921074025332
1772642713768240600,3.46624072265625,6.6477966775000095,1.9149803659833966,0.5778332422355189
1772642713778285800,3.476285888671875,6.575736234417557,1.8242428410902618,0.4078690724249929
1772642713788330500,3.48633056640625,6.494876398807763,1.7217409363843499,0.40415779681690034
1772642713798376400,3.49637646484375,6.528129849112034,1.6497816155888139,0.4700649049013853
1772642713808421600,3.506421630859375,6.611482086059451,1.5660726741582154,0.45660774969607587
1772642713818466600,3.516466552734375,6.742236710172891,1.4718363473638891,0.2734099677704275
1772642713828511700,3.52651171875,6.840284996470809,1.29739134234488,-0.0770026487249881
1772642713838556700,3.536556640625,7.12020083900392,1.1549302060857414,-0.6011519027743488
1772642713848601600,3.5466015625,7.389595872044563,1.0505842809483408,-1.088196364853531
1772642713858647600,3.5566474609375,7.450498961296677,0.926004399947077,-1.4411317047595977
1772642713868692700,3.566692626953125,7.395560333406925,0.8911131193079054,-1.681567769819498
1772642713878737700,3.576737548828125,7.407949274858832,1.0203021015398204,-1.7669458135060965
1772642713888782800,3.586782958984375,7.371929282450676,1.2615129503645002,-1.715366432916373
1772642713898827500,3.59682763671875,7.0092252665936945,1.500100903339684,-1.5856266849339007
1772642713908872700,3.606872802734375,6.335584246996045,1.7747757764793932,-1.2593569413743912
1772642713918918700,3.616918701171875,5.740333458024263,2.0924774520494043,-0.8259224158644676
1772642713928963600,3.626963623046875,5.280031822246313,2.2858549749448893,-0.4824497547000646
1772642713939008800,3.6370087890625,4.707849774172902,2.397343026921898,-0.2070118612986058
1772642713949053700,3.6470537109375,4.122317830660939,2.2931292037315667,-0.013443528538756072
1772642713959098600,3.6570986328125,3.776968854230642,1.9175475861229,0.07454951995182782
1772642713969143600,3.6671435546875,3.913271760120988,1.2980153194621205,0.03439597140289843
1772642713979189800,3.677189697265625,4.314688660731911,0.778845315130055,-0.2606585862142965
1772642713989234700,3.687234619140625,4.510037045308947,0.3120607470735907,-0.7033874116290361
1772642713999279600,3.697279541015625,4.293375239068269,0.14645429754853248,-1.2426901764728129
1772642714009324800,3.70732470703125,3.358767407557368,0.15855390066504477,-1.5649400168664753
1772642714019369700,3.71736962890625,1.6279875708013771,0.03528846326321363,-1.4281408518917857
1772642714029414700,3.72741455078125,-0.18474808010756968,-1.1199068234995007,-0.4214817104529589
1772642714039460600,3.737460693359375,-0.2795125224292278,-2.3308149373948575,0.1558118719479069
1772642714049505800,3.747505859375,1.58005151515007,-1.6845751349419353,-0.5456301047017798
1772642714059550700,3.75755078125,2.5198481474757193,-0.5704243907511234,-1.4548133163705468
1772642714069595600,3.767595703125,1.567141764694452,-1.2816107126280665,-1.1337012478351591
1772642714079640600,3.777640625,0.1949029788970947,-2.202516182000935,-0.7314299954172223
1772642714089685800,3.787685791015625,-1.4729156670331953,-1.9564441568806765,-0.9706400988787413
1772642714099731700,3.797731689453125,-3.8803865586072206,-1.4219509112104773,-0.7082721879959106
1772642714109776600,3.807776611328125,-6.0155257791668175,-1.0462693403586745,0.04977359610965941
1772642714119821800,3.81782177734375,-7.2240113420903675,-0.4950606683395803,0.49243368083685635
1772642714129866500,3.827866455078125,-7.784854834547638,0.115144528657943,0.459848923574388
1772642714139911200,3.8379111328125,-8.059171541899442,0.5912229947604238,0.5635252058219165
1772642714149957000,3.84795703125,-8.260146534186601,0.6097244277432561,0.9249456846743822
1772642714160002300,3.858002197265625,-8.119626887384056,0.11819354096502065,0.9587396715961396
1772642714170047200,3.868047119140625,-7.315648007780313,-0.29773879173249007,0.9274743263691663
1772642714180092200,3.878092041015625,-6.707649380916356,-0.4093675673544407,1.1038469384498895
1772642714190137000,3.88813720703125,-6.936342985734343,-0.3556951600082218,1.3893014181487262
1772642714200182300,3.898182373046875,-7.58673172456026,-0.31783129329904913,1.384427528502047
1772642714210228200,3.908228271484375,-7.822328532895446,-0.3058332508608699,1.1546434980988503
1772642714220273200,3.918273193359375,-7.530382645350694,-0.31845673172101374,0.7744333439067006
1772642714230318000,3.928318115234375,-7.105818093386292,-0.3682226331479847,0.4638461765170097
1772642714240363000,3.938363037109375,-6.3713412045538425,-0.5682660436734557,0.40215591894257813
1772642714250408200,3.948408203125,-5.4838440837860105,-0.9028706309884786,0.501876924225688
1772642714260453000,3.958453125,-4.725622746750712,-1.2820127175576985,0.6279259279314429
1772642714270499300,3.968499267578125,-4.1688200541168445,-1.5077797674044966,0.6429403955813497
1772642714280544300,3.978544189453125,-3.931673093730211,-1.6134021422185003,0.6721884096365421
1772642714290589200,3.988589111328125,-3.91569168074429,-1.7629560132175683,0.820689337516576
1772642714300634000,3.998634033203125,-3.896931450694799,-1.9923710641779004,0.9799012636989355
1772642714310679300,4.00867919921875,-3.8495039290875193,-2.1369215739317236,0.9198136555481702
1772642714320724200,4.01872412109375,-3.80604823372066,-2.1790466052167115,0.6772652014441788
1772642714330770200,4.028770263671875,-3.67719505931437,-2.062873464163393,0.39171734437346456
1772642714340815000,4.038815185546875,-3.3971132125645873,-1.7509931882232426,0.15701381334988398
1772642714350860000,4.048860107421875,-2.983376928606629,-1.3124500875279306,0.02917301259022206
1772642714360905200,4.0589052734375,-2.228840417563915,-0.8574931737788021,0.07174220744613558
1772642714370950100,4.0689501953125,-1.410679283350706,-0.4607419268913567,0.23470512019246814
1772642714380995300,4.078995361328125,-0.5696662658601999,-0.00665273588746786,0.26629052768666295
1772642714391041300,4.089041259765625,0.3738216221988201,0.41862741700038314,0.1953442929238081
1772642714401086200,4.099086181640625,1.2472644986510275,0.8412754678189754,0.09676460316292941
1772642714411131100,4.109131103515625,2.192968309193849,1.2163199098110198,0.11073825652301311
1772642714421176300,4.11917626953125,3.16241539889574,1.5361303942285478,0.274264465707913
1772642714431221200,4.12922119140625,4.071501835659146,1.8286872532784937,0.4651988332349807
1772642714441266200,4.13926611328125,4.7630333167344325,2.1041488928817214,0.5914660097360611
1772642714451312000,4.14931201171875,5.191267497122287,2.294792899160087,0.704456575230509
1772642714461357000,4.159357177734375,5.473735362225771,2.4334246863894164,0.8092471753954887
1772642714471402200,4.16940234375,5.693908975979685,2.478269936418533,0.8516042618706822
1772642714481447200,4.179447265625,5.8792006614446635,2.3390005819380284,0.9437526034098118
1772642714491492400,4.189492431640625,6.037485682040453,2.227914973282069,0.9234332342848182
1772642714501537000,4.199537109375,6.222526607614755,1.952426153410971,0.9585866729915141
1772642714511583000,4.2095830078125,6.407895449969172,1.567882353928685,1.076106552478671
1772642714521628200,4.219628173828125,6.554883416002989,1.2388773401863873,1.1104188641861081
1772642714531673000,4.229673095703125,6.7073904377192255,1.0442900031097233,1.0919976568326353
1772642714541718300,4.23971826171875,6.849143425709009,0.9346274129942059,1.064354301495105
1772642714551763000,4.249762939453125,7.028417458319663,0.8633870541229843,0.9267759688414633
1772642714561808100,4.25980810546875,7.160312484639882,0.8064845788143574,0.6049657254414632
1772642714571854000,4.26985400390625,6.937602045884728,0.8561370829947292,0.2196393242141232
1772642714581899300,4.279899169921875,6.340096755984425,0.922584800761938,-0.0331306641748175
1772642714591944200,4.289944091796875,5.638431418907642,0.9557507189132273,-0.07607081123497336
1772642714601989400,4.2999892578125,5.044712661808729,1.0718895193055271,-0.0776190270576626
1772642714612034000,4.310033935546875,4.531686567059159,1.2495903112500906,-0.058209173993021245
1772642714622079200,4.320079345703125,4.125810933473706,1.3716893352210522,-0.0026732012646272776
1772642714632125200,4.330125244140625,3.6972985206663607,1.3090826569214462,0.10919508220162243
1772642714642170000,4.340170166015625,3.182994661065936,0.9786676302507519,0.28599180144593117
1772642714652215300,4.35021533203125,2.7498551729798315,0.5462479808717966,0.38815501224938775
1772642714662260000,4.360260009765625,2.4852555575221777,0.2965150951564312,0.2847445595975034
1772642714672305200,4.37030517578125,1.961037037628889,0.28715339257121086,-0.04662211437537334
1772642714682350000,4.38035009765625,0.2623456990510225,-0.41730771270394323,0.1960023367074318
1772642714692396300,4.390396240234375,-1.9136855038672684,-2.7538074177369474,1.358296039032191
1772642714702441200,4.400441162109375,-0.8935247104942798,-3.475944172695279,0.629470673155412
1772642714712486100,4.410486083984375,1.4046370805770159,-1.1246443734154103,-1.7868673424199222
1772642714722531000,4.420531005859375,1.6605016009151934,1.1116095352753996,-3.395463984052837
1772642714732576300,4.430576171875,2.1494904019951817,1.7863763440325855,-3.5389486181408163
1772642714742621200,4.44062109375,2.8720167407929895,1.1673416516304016,-2.516426064072549
1772642714752667100,4.450667236328125,3.4894343533873555,0.05259294154644012,-1.2792225023172794
1772642714762712300,4.46071240234375,4.236359804904461,-1.2929635890305042,-0.5867613026438281
1772642714772757000,4.470757080078125,3.4905426068902012,-2.5198423022568224,-0.15109425057517364
1772642714782802200,4.48080224609375,0.2638748083144426,-2.7700197168692946,0.0484261407231912
1772642714792847000,4.49084716796875,-2.5592928536355495,-1.8276751536265015,-0.4777494315220043
1772642714802892300,4.500892333984375,-4.2892859239280225,-0.3344990811139345,-1.3989903068616985
1772642714812938200,4.510938232421875,-5.859241576999426,0.7178669686846435,-2.05708333645463
1772642714822983200,4.520983154296875,-7.548868734633922,0.8872108511723578,-1.8509763881064951
1772642714833028000,4.531028076171875,-8.97550897270441,0.5997842676829547,-1.110404689530283
1772642714843073000,4.541072998046875,-9.526481644010543,0.29865817159973085,-0.2564181356329471
1772642714853118200,4.5511181640625,-9.38538039792776,-0.5135137321360409,0.9199429079510271
1772642714863163100,4.5611630859375,-8.236464045304059,-1.263632134475559,1.731598459662497
1772642714873209300,4.571209228515625,-7.258422730258107,-1.6603709602728485,1.729616053673625
1772642714883254300,4.581254150390625,-6.286470964258909,-1.717379672434926,1.1245414975628256
1772642714893299200,4.59129931640625,-5.764560136786103,-1.6725297462306916,0.5065839328728616
1772642714903344000,4.60134423828125,-5.388896101590991,-1.439765969364345,0.1722170633038506
1772642714913389300,4.611389404296875,-4.8670250216066835,-1.2368458343587816,0.27117066441103815
1772642714923434200,4.621434326171875,-4.45548186377883,-1.151783870884031,0.6273034121189266
1772642714933480200,4.631480224609375,-3.9150755946725604,-0.9424292458515614,1.006542456256598
1772642714943525000,4.641525146484375,-3.518374616667628,-0.5466079002253711,1.3945930948160588
1772642714953570000,4.651570068359375,-3.2554420576393603,-0.06454699871242046,1.626641416889429
1772642714963615200,4.661615234375,-3.60356459043622,0.493543980166316,1.8090493636116385
1772642714973660200,4.67166015625,-4.679093050765991,0.9099294634588062,2.0383507250644266
1772642714983705300,4.681705322265625,-5.615636818775534,1.2357605233401059,2.1168892781198023
1772642714993751300,4.691751220703125,-6.050201371228694,1.5042954324200748,1.929280401753634
1772642715003796200,4.701796142578125,-6.24771424036324,1.6640836971856652,1.4483077338688075
1772642715013841200,4.711841064453125,-5.94416676235199,1.771049741693586,0.8105348771184683
1772642715023886000,4.721885986328125,-4.943435476592183,1.8000418812915682,0.10108425646033137
1772642715033931300,4.73193115234375,-3.844607389217615,1.4821975823804736,-0.4736066326288506
1772642715043976200,4.74197607421875,-2.5749568712353703,0.8865707997031509,-0.965886109284684
1772642715054022100,4.752022216796875,-1.195550678026676,0.22359219002574682,-1.3658854712478816
1772642715064067000,4.762067138671875,0.33218671251833437,-0.24569544689282774,-1.6500597018778322
1772642715074112300,4.7721123046875,1.833071167451143,-0.6643102966725826,-1.6036431108787654
1772642715084157200,4.7821572265625,2.7087077545553444,-0.9918338396854698,-1.0063277905926107
1772642715094202400,4.792202392578125,2.9376018503814936,-1.0101062862180172,-0.1020747653350234
1772642715104247000,4.8022470703125,2.9761171667367217,-0.8972649199359118,0.6731866999588907
1772642715114293000,4.81229296875,3.0592636519789695,-0.7925985306724905,1.073653898629546
1772642715124338200,4.822338134765625,3.1129099019706246,-0.6751731976009905,0.9270785319846123
1772642715134383000,4.832383056640625,3.281417625895142,-0.4940590900816023,0.37484088224396106
1772642715144429300,4.84242919921875,3.476085626992583,-0.33056232618689535,-0.24870193523243067
1772642715154474000,4.852473876953125,3.734969202890992,-0.13506678822413087,-0.582659602946043
1772642715164519200,4.862519287109375,4.139787436378002,0.09753113055601716,-0.7163629207972436
1772642715174565000,4.872565185546875,4.546564402717352,0.3892984466634691,-0.749282097645849
1772642715184610000,4.882610107421875,4.6857057469040155,0.8080361921705305,-0.6583619096621871
1772642715194655200,4.8926552734375,4.4043578257411715,1.3114518702708184,-0.3371535776780918
1772642715204700000,4.902699951171875,4.019232719239592,1.677135486460477,0.2705842428252101
1772642715214745000,4.9127451171875,3.954564139974117,1.9274615157634019,0.7942344613112509
1772642715224790000,4.9227900390625,4.383635940229892,1.9223695994518697,1.0118164511367678
1772642715234836200,4.932836181640625,5.257635281521082,1.8526377454474567,1.0004841060657053
1772642715244881200,4.942881103515625,6.191274560260772,1.739313125693053,0.781473763937503
1772642715254926000,4.952926025390625,6.793622029495239,1.461515736618638,0.6091724198836833
1772642715264971000,4.962970947265625,7.00798315757811,0.9906989904366433,0.507053705809079
1772642715275016200,4.97301611328125,6.8199395430564875,0.5247985117383301,0.4199612959526479
1772642715285061000,4.98306103515625,6.390053503808379,0.30034575936049224,0.15063791250926442
1772642715295107000,4.993107177734375,5.887993039709329,0.4430905348666012,-0.33176910816077143
1772642715305152300,5.00315234375,5.297165327876806,0.6792138512939214,-0.786966223873943
1772642715315197000,5.013197021484375,4.529826033884286,0.8189262733668088,-1.0457491158768535
1772642715325242000,5.0232421875,3.6271915497392415,0.9509932952530682,-1.0676514433443545
1772642715335287000,5.033287109375,2.775693963113427,1.148553802921623,-0.9098099287323653
1772642715345332200,5.043332275390625,2.1412883908390996,1.5150012430906294,-0.7065401035062968
1772642715355378200,5.053378173828125,1.633103306379914,1.743782526192069,-0.32556261820346116
1772642715365423000,5.063423095703125,1.4129682710707188,1.5589894378989935,0.2835772145848721
1772642715375468000,5.073468017578125,1.5320453168720005,1.1992153380140662,0.838792126570642
1772642715385513000,5.083512939453125,1.7239672341316938,0.6045061085730791,1.108462761682272
1772642715395558100,5.09355810546875,1.802815729919076,-0.5474103026494384,1.1768495577532798
1772642715405603000,5.10360302734375,2.205453696757555,-1.5246137055665254,0.7250540306445211
1772642715415649300,5.113649169921875,1.6002619440078734,-1.0651122802555562,-0.3777941060263663
1772642715425694000,5.12369384765625,-0.5731769043296575,-0.01205021101683378,-1.2659852734729646
1772642715435739100,5.1337392578125,-0.854998872745037,0.7514516967698931,-2.112882088305056
1772642715445784000,5.1437841796875,1.3492735052734612,0.8855161760836839,-2.3501114662781357
1772642715455829200,5.153829345703125,3.341074514478445,0.1746732608169317,-1.23252636372447
1772642715465874200,5.163874267578125,4.289503950592875,-1.1381900836870074,0.07081435201149433
1772642715475920100,5.173920166015625,3.74810282523036,-2.3397008391618725,0.8288256630253046
1772642715485965000,5.183965087890625,1.537207229679823,-2.4444062452614306,0.9199025759406387
1772642715496010000,5.194010009765625,-1.3859902477741242,-1.6363088244229553,0.7672978660035878
1772642715506055200,5.20405517578125,-3.8285739537835117,-0.08138912018090486,0.4310671387914568
1772642715516100000,5.21410009765625,-5.208181807044149,1.4930976004488765,0.06464421200919895
1772642715526145000,5.22414501953125,-6.258637785437703,2.3307842499956486,0.03779861945323646
1772642715536191000,5.23419091796875,-7.370173963215946,2.416163901117444,0.254970822901465
1772642715546236200,5.244236083984375,-7.558689286902546,1.8899721814550459,0.4131779194228351
1772642715556281000,5.254281005859375,-6.984386008891462,0.6054607789494096,1.0414694657962769
1772642715566326000,5.264325927734375,-5.778940544316172,-0.6603476766519248,1.5271441008269786
1772642715576371200,5.27437109375,-5.055318226975202,-1.4687420346103608,1.4543391229875384
1772642715586416000,5.284416015625,-5.024397019010782,-2.041705003928393,1.0180239274747669
1772642715596461000,5.2944609375,-5.359633182227611,-2.166686597598344,0.30841303822100163
1772642715606507000,5.304507080078125,-5.646406051048636,-2.13149165783748,-0.37366730841994283
1772642715616552200,5.31455224609375,-5.749678793996572,-1.8914713339716196,-0.7886072690792382
1772642715626597000,5.32459716796875,-5.545028328067064,-1.5969135103628038,-0.7714155304554849
1772642715636642000,5.33464208984375,-5.05485587016046,-1.4066167100869118,-0.4455081904675811
1772642715646687000,5.34468701171875,-4.836241760808229,-1.1998777474455535,-0.019094393907301128
1772642715656732200,5.354732177734375,-5.151535790714621,-0.9916239963270723,0.47312969929948445
1772642715666778000,5.364778076171875,-5.739997942459583,-0.8024258049428462,0.8753697528615594
1772642715676823000,5.374822998046875,-6.362600848737359,-0.6411427715748548,1.066563355846703
1772642715686868200,5.3848681640625,-6.863610927000641,-0.6796747468039394,0.9943963105846196
1772642715696913000,5.394912841796875,-7.176312017804384,-0.8257900216564535,0.5850231172069907
1772642715706958000,5.4049580078125,-7.0261337312966585,-0.9669938513308763,0.10741593456673436
1772642715717003000,5.4150029296875,-6.61004825386405,-1.178596328355372,-0.1237731494619511
1772642715727049200,5.42504931640625,-6.100630412739515,-1.3262706692181527,-0.1987595812600106
1772642715737094100,5.43509423828125,-5.484626174074411,-1.3341038470618427,-0.13714929358661174
1772642715747139000,5.44513916015625,-4.589581122145057,-1.2268905497945843,0.05187748675346374
1772642715757184000,5.45518408203125,-3.3414573763161894,-1.0798223581314086,0.3216662318194285
1772642715767229200,5.465229248046875,-2.007849057686329,-0.9123927848324179,0.5069277778744697
1772642715777274000,5.475274169921875,-0.7904068658471107,-0.7630188004449009,0.6655629270821809
1772642715787320000,5.485320068359375,0.33905484472215175,-0.6045999243363738,0.7655069639988243
1772642715797365200,5.495365234375,1.4163053065389395,-0.3475751280471682,0.6967348218720406
1772642715807410000,5.505409912109375,2.3948516484975815,-0.06713613842278719,0.5911850008375943
1772642715817455000,5.515455078125,3.211847246062755,0.19501184609904884,0.4736800997238606
1772642715827500000,5.5255,3.8672909301906824,0.4905519587434828,0.43276217920631166
1772642715837545200,5.535545166015625,4.353432525146007,0.8329961536429822,0.4794952888086438
1772642715847591200,5.545591064453125,4.629207614612579,1.1472966424673796,0.536847042254731
1772642715857636000,5.555635986328125,4.752009233894944,1.4566979610733688,0.600417231824249
1772642715867681000,5.565680908203125,4.895594113487005,1.736351353278011,0.7444561387941241
1772642715877726000,5.575725830078125,5.003747029691934,1.9072132391132413,0.9138146343290805
1772642715887771100,5.585771240234375,5.007884275627136,1.9789003188386558,1.0676340538181364
1772642715897816000,5.595816162109375,4.966135968700051,1.957847886198759,1.2632089406274258
1772642715907862300,5.6058623046875,4.961957221710682,1.9124075928859412,1.4725222838014362
1772642715917907000,5.615906982421875,5.191698289754987,1.8686558371819555,1.611175990601629
1772642715927952100,5.6259521484375,5.648038036164641,1.8084445295862852,1.666719598647207
1772642715937997000,5.6359970703125,6.330157545772194,1.6688997191652655,1.5194678671106696
1772642715948042200,5.646042236328125,7.07989805471003,1.4902224834039806,1.2261191270306706
1772642715958087200,5.656087158203125,7.685442858681082,1.4080490809775887,0.9239909412328153
1772642715968132000,5.666132080078125,7.937569361534714,1.4067249927669763,0.639229777560383
1772642715978178000,5.676177978515625,7.844614598983526,1.5194646522402762,0.2777592490211129
1772642715988223000,5.686222900390625,7.3448022060722105,1.7631793005794285,-0.05381113996347412
1772642715998268200,5.69626806640625,6.322606692001223,2.090055923990905,-0.25180393810207025
1772642716008313000,5.70631298828125,4.91466297109425,2.481899817353487,-0.19917764227529985
1772642716018358000,5.71635791015625,3.6434786676734685,2.9023452435612676,-0.05325572543726302
1772642716028403000,5.72640283203125,2.7872797714889046,3.346329950788617,0.028160675476212052
1772642716038449200,5.73644921875,2.350416878965497,3.7630721385642882,0.11358699701763689
1772642716048494000,5.746494140625,2.20018423192203,3.866573137310147,0.22428017228990793
1772642716058539300,5.756539306640625,2.0420833357214927,3.5934257659986613,0.5126248204723001
1772642716068584200,5.766584228515625,2.0340151800781485,3.0157573954686523,0.5810884081065655
1772642716078629000,5.776629150390625,2.6477666713804004,2.6807331214368344,0.0048973435875028365
1772642716088674000,5.786674072265625,2.9047102191269394,2.48052297604233,-0.6661144965503364
1772642716098720000,5.796719970703125,2.580580556336045,1.845072570890188,-0.5998582827672362
1772642716108765200,5.80676513671875,2.487479078790545,0.4834174306884408,0.10257686963826418
1772642716118810000,5.81681005859375,3.8828222613215444,-1.0045958522334695,0.5986066752709448
1772642716128855000,5.82685498046875,6.959137001344561,-0.9851733588829636,-0.3466232341498136
1772642716138900000,5.83689990234375,9.373982805600761,0.010585691422224043,-2.1900173504337666
1772642716148945000,5.84694482421875,9.57827671317756,-0.039591713415086265,-2.8312475080311295
1772642716158990800,5.856990966796875,8.762126334264874,-1.1743582523941993,-2.649791455206275
1772642716169036000,5.8670361328125,8.011909439986944,-1.7952710136279462,-2.981989858162403
1772642716179081000,5.8770810546875,5.876712936282158,-1.8525547433391212,-2.3337162117943167
1772642716189126000,5.8871259765625,2.3034254106879235,-2.153876361994445,-1.3963919609315694
1772642716199171000,5.897171142578125,-1.241691082432866,-2.2429817556411025,-1.0949049956467003
1772642716209216000,5.907216064453125,-3.5602936039865014,-1.48823715480566,-1.5087719933122397
1772642716219261000,5.917260986328125,-5.26623710564971,-0.46208924984708427,-2.028403623806685
1772642716229307000,5.927306884765625,-7.367206345582008,0.1386760647624731,-2.1291228828795252
1772642716239352000,5.93735205078125,-9.92089947951436,0.07238806760162114,-1.827169688322395
1772642716249397000,5.94739697265625,-11.891134553599358,-0.4029711443156004,-1.5278776757985353
1772642716259442000,5.95744189453125,-12.994999466097354,-0.7713278521720319,-1.225409517456591
1772642716269486800,5.96748681640625,-13.201965807753801,-1.0244598057411611,-0.8272459195531904
1772642716279532000,5.977531982421875,-12.390281176078318,-1.2237211990434675,-0.5401857216907665
1772642716289578000,5.987577880859375,-11.104700098514556,-1.3924644122242926,-0.45944008704517036
1772642716299623000,5.997622802734375,-9.907384164381027,-1.6494279798455536,-0.1734641042228788
1772642716309668000,6.007668212890625,-8.880143057358264,-2.034574275265634,0.3084493516433984
1772642716319712800,6.017712646484375,-7.764228226104378,-2.1906009955406187,0.7028575425360352
1772642716329758000,6.027758056640625,-6.619678836518526,-2.210763201342523,1.0682073967266827
1772642716339803000,6.037802978515625,-5.763256652972101,-2.140560807216912,1.3132180031605065
1772642716349849000,6.04784912109375,-5.386046557378768,-1.8439819991745054,1.3210381753921507
1772642716359894000,6.05789404296875,-5.421763182926178,-1.354092157601565,1.2187100928831844
1772642716369939000,6.06793896484375,-5.60894988835752,-0.8243905301220714,1.129832735838741
1772642716379984000,6.07798388671875,-5.753384662777185,-0.34394714680835603,1.0996611771978437
1772642716390029000,6.088029052734375,-5.707956790554523,0.0986973978564143,1.1719957610465586
1772642716400074000,6.098073974609375,-5.291268671053648,0.511937568860501,1.300971100527793
1772642716410119200,6.108119140625,-4.624821362352371,0.7687339632213115,1.4018258225485682
1772642716420165000,6.1181650390625,-3.9181174465864896,0.8343668574742973,1.3759082680903374
1772642716430209800,6.128209716796875,-3.2642472953855988,0.7853060355767607,1.2365249318413436
1772642716440255000,6.1382548828125,-2.5965795049786564,0.6942481926880777,1.0891295540504158
1772642716450300000,6.1482998046875,-1.963396167975664,0.47097807422354815,1.0676749703504145
1772642716460345000,6.158344970703125,-1.3116595216721296,0.1302685941621661,1.1030731775984168
1772642716470390000,6.16839013671875,-0.6142904204845429,-0.1726741959542036,1.115350621499866
1772642716480436000,6.17843603515625,0.2012953102827072,-0.4159735414907336,1.1406129269197582
1772642716490481000,6.18848095703125,1.0130196894466876,-0.6642008449487388,1.1601850578740238
1772642716500525800,6.19852587890625,1.7524860571295022,-0.7630062332242726,1.1122753057077526
1772642716510571000,6.208571044921875,2.4139959094285963,-0.5990834990024566,0.9992217579796909
1772642716520616000,6.218615966796875,2.8972558114677667,-0.22664032554998992,0.9501712382804601
1772642716530660900,6.228660888671875,3.1551801869452,0.22981018775776027,1.038697589930147
1772642716540705800,6.238705810546875,3.1840830408245324,0.9169710525333881,0.9900602541416883
1772642716550752000,6.248751953125,3.0520547435134646,1.4421442428030073,0.9003779373899101
1772642716560797000,6.258796875,2.9101094478219744,1.7392229631915688,0.8892284015398472
1772642716570842000,6.268842041015625,2.8795371994256973,1.898926618413627,0.9240303233951329
1772642716580887000,6.278886962890625,2.9743893200308085,1.968482092937827,0.8703811507940292
1772642716590932000,6.288931884765625,3.167651545983553,1.932122201050818,0.7553189666572958
1772642716600977000,6.298976806640625,3.448708959767222,1.728718812572956,0.6616388855062425
1772642716611022800,6.30902294921875,3.91759429949522,1.3964835847377777,0.4764196442229673
1772642716621068000,6.319068115234375,4.583705508109927,1.0965853499490767,0.15792351207332686
1772642716631113000,6.329113037109375,5.428064913418889,0.8969287467841058,-0.26585964372241866
1772642716641158000,6.339157958984375,6.308444311136007,0.7544713368520141,-0.698941611201316
1772642716651202800,6.349202880859375,7.0251277691245075,0.5098053060721606,-1.0464872939582914
1772642716661248000,6.359248046875,7.563883932936191,0.20224398930966853,-1.231714316689223
1772642716671294000,6.3692939453125,7.910271020242571,0.022165508448332545,-1.3266773503229021
1772642716681339100,6.379339111328125,8.049405350166559,0.1197654664568603,-1.4661787599936127
1772642716691384000,6.389384033203125,7.929737352734803,0.32231896010711786,-1.5922688994273542
1772642716701429000,6.399428955078125,7.412129190891981,0.48893677863180635,-1.6030663339041173
1772642716711474000,6.409473876953125,6.672260087627172,0.642347178928554,-1.4600082546651363
1772642716721519000,6.41951904296875,6.066849723690748,0.8514595927029848,-1.3164124152876435
1772642716731565000,6.42956494140625,5.535391900193691,1.1585400671459734,-1.2463793863795698
1772642716741610000,6.43960986328125,4.8505379971861835,1.4263101293332874,-1.0197947365395723
1772642716751655000,6.449655029296875,3.9954736579895016,1.480172067902237,-0.5272260676788166
1772642716761699800,6.459699951171875,3.2409260410308836,1.2204301216088234,0.07137699086293578
1772642716771745000,6.4697451171875,2.8493215093821287,0.8533541742779314,0.37535511537641286
1772642716781790000,6.4797900390625,2.6968162412315606,0.7142813652828335,0.16316727621201424
1772642716791835100,6.489835205078125,2.2552274892300366,0.7213818449378013,-0.20327168838959186
1772642716801881000,6.499881103515625,0.8232049735993147,0.5569390323646366,-0.13955405317340044
1772642716811926000,6.509926025390625,-0.38765725532770157,-0.07683306431174278,0.3611420637698844
1772642716821971000,6.519970947265625,0.245837631842494,-1.1993825112745164,0.7428056681733578
1772642716832016000,6.530015869140625,2.553595518776774,-1.134559618230164,0.03795994749478995
1772642716842061000,6.54006103515625,4.924839497193694,0.428345239546895,-1.790345832185447
1772642716852105700,6.550105712890625,5.977345978376269,1.1302268497228622,-2.889726292745769
1772642716862152000,6.56015185546875,5.949155656680464,0.23601094209402798,-2.369305411569774
1772642716872196900,6.57019677734375,5.361583147251606,-1.156492340835929,-1.1446064535353333
1772642716882242000,6.580241943359375,3.922931568869948,-1.643543744112551,-0.3359938862489536
1772642716892287000,6.590286865234375,1.513506620618701,-1.460648598395288,0.26625291735632345
1772642716902332200,6.600332275390625,-1.5718530111253262,-1.0323577193841338,0.7024012501358986
1772642716912376800,6.610376953125,-4.543454161742329,-0.3516564060114324,0.45112091578282415
1772642716922422000,6.620422119140625,-6.5967018655568355,0.4810938100464642,-0.38934056877214457
1772642716932468000,6.630468017578125,-8.320721122136712,1.1504853555060923,-1.0511404535263775
1772642716942513000,6.640512939453125,-9.90862802696228,1.4146487715035676,-1.383480018518865
1772642716952558000,6.65055810546875,-10.516382323676346,0.7817140024341642,-1.0926142543610184
1772642716962602800,6.660602783203125,-10.387042827057838,-0.2783228742532432,-0.4011553635979071
1772642716972648000,6.67064794921875,-9.756977329814433,-1.081534568876773,0.06939372635753825
1772642716982692900,6.68069287109375,-8.824457995015383,-1.7375247809715568,0.3622724925719201
1772642716992739000,6.690739013671875,-7.816984833779931,-2.2405821471534666,0.5087214198255912
1772642717002784000,6.700783935546875,-7.08409609092176,-2.5380133342415094,0.5382171615641563
1772642717012829200,6.7108291015625,-6.870526989999413,-2.6550416308194396,0.6979972430232911
1772642717022873900,6.720873779296875,-6.856650440338254,-2.58004922593832,0.9637705053701996
1772642717032919000,6.7309189453125,-6.769640849927067,-2.310477813417464,0.9790834445100277
1772642717042964000,6.7409638671875,-6.66215662676394,-1.9115346094436942,0.7598796987015753
1772642717053009200,6.751009033203125,-6.439126454535126,-1.5619968030214308,0.6136709734119474
1772642717063055000,6.76105517578125,-6.211641640985012,-1.2701375708468257,0.7115291439652442
1772642717073099800,6.771099853515625,-5.961349952343106,-0.9432719072207808,0.8917113774619996
1772642717083145000,6.78114501953125,-5.719266120076179,-0.6345823901459574,1.0486604732789098
1772642717093190000,6.79118994140625,-5.625414116424322,-0.390050141813606,1.1096672421012073
1772642717103235000,6.801235107421875,-5.358789132618904,-0.11469707715138792,1.095976205074787
1772642717113280000,6.811280029296875,-4.847238371118903,0.15626272098794577,1.0258546941656619
1772642717123326000,6.821325927734375,-4.069322738054394,0.2827854066200554,0.93835447069332
1772642717133371000,6.831370849609375,-3.127601275146007,0.1782861906170845,0.9283730287745594
1772642717143415800,6.841415771484375,-2.166965268409252,-0.07145458614379167,1.0983042096309363
1772642717153460700,6.851460693359375,-1.402702897644043,-0.3075036682911217,1.3907897570103407
1772642717163506000,6.861505859375,-0.8206453522443771,-0.3633557577639818,1.6598225326098501
1772642717173550600,6.871550537109375,-0.38039515537023544,-0.2572334706038236,1.7690677740961311
1772642717183595800,6.881595703125,0.04190963496863842,-0.06980681893676519,1.7025637960970401
1772642717193641700,6.891641845703125,0.5073083016246557,0.0802808666780591,1.4307234157308935
1772642717203686700,6.901686767578125,0.9731886143177747,0.08290420091897249,1.1825846673391758
1772642717213731800,6.91173193359375,1.578431220471859,0.04777238952219486,1.0251884122766555
1772642717223776800,6.92177685546875,2.282610586196184,0.03938493879660964,0.8956972322277724
1772642717233821700,6.93182177734375,3.0345997508436438,0.01647211911231279,0.9922489232923835
1772642717243866600,6.94186669921875,3.7324434838056564,0.3916891411922872,0.9783256118800491
1772642717253912600,6.95191259765625,4.209330343681573,0.9061025986470281,0.7201737843222916
1772642717263957800,6.961957763671875,4.325840753865242,1.1456941757068038,0.515819159534201
1772642717274002700,6.972002685546875,4.2840573756247755,1.2840993145734072,0.3999582262352109
1772642717284047600,6.982047607421875,4.245013651481271,1.4643810629218816,0.3571232931151986
1772642717294092500,6.992092529296875,4.15900008637011,1.7529719409503042,0.36202823548726737
1772642717304137700,7.0021376953125,4.157227231478691,2.036911632172018,0.44411425189115106
1772642717314182700,7.0121826171875,4.4078228715032335,2.1823120367534456,0.5768661142364144
1772642717324228900,7.022228759765625,5.022561035755277,2.2476355727963147,0.6289101897284388
1772642717334273800,7.032273681640625,5.86911765884757,2.2186190294094383,0.6123973732795566
1772642717344318700,7.042318603515625,6.842146698689461,2.039483528486639,0.552709943427518
1772642717354363600,7.05236376953125,7.84085729227662,1.713792315467447,0.40578349832259114
1772642717364408800,7.062408935546875,8.586926419225335,1.4033240982823072,0.15886406259275973
1772642717374453800,7.072453857421875,8.88627060032785,1.2608375353209673,-0.033850320218876004
1772642717384499700,7.082499755859375,8.576485104709864,1.292023677831888,-0.18025383742824197
1772642717394544600,7.092544677734375,7.663885691389441,1.3737977056771515,-0.21536972060352563
1772642717404589600,7.102589599609375,6.510740322893858,1.3171584113493562,-0.03313018925078213
1772642717414634800,7.112634765625,5.245930815201998,1.1818792955487967,0.2650519988676533
1772642717424679700,7.1226796875,4.0806887661993505,1.2551099514544009,0.34866211956627663
1772642717434724900,7.132724853515625,3.1226334236055613,1.6085998565033077,0.06301427271980792
1772642717444769500,7.14276953125,2.3316899666637183,2.1773355635151264,-0.2885225985651836
1772642717454815700,7.152815673828125,1.483660932931304,2.53707985278368,-0.29267295971028506
1772642717464860700,7.162860595703125,0.6803384714096784,2.4661095430254933,0.016303320150356737
1772642717474905900,7.17290576171875,0.26273557515144347,2.090879369203001,0.2717268369890749
1772642717484950800,7.18295068359375,0.05400689999759197,1.5734716983683406,0.31706922288537026
1772642717494995700,7.19299560546875,-0.3287514773726463,0.8301007244624197,0.13873524760380387
1772642717505040600,7.20304052734375,-0.9731436061322688,-0.6025038288399577,0.3889654518494382
1772642717515086600,7.213086669921875,-1.4238006307303905,-2.0115724621236324,0.30863398749530313
1772642717525131800,7.2231318359375,-0.7089239299029112,-1.7200231726810336,-0.8808245111361146
1772642717535176700,7.2331767578125,0.5486743312358856,0.1581800989165902,-2.4447544741772114
1772642717545222000,7.243221923828125,1.2807903361558914,1.112955396926403,-2.7110917270824313
1772642717555266600,7.2532666015625,1.1933446924149989,0.7490981193810701,-1.8724071525394916
1772642717565311700,7.263311767578125,0.8747469447880983,-0.28990912102013827,-0.42751927358414976
1772642717575356700,7.273356689453125,0.6584083791524171,-1.2539739331617952,0.5354485371010378
1772642717585402600,7.283402587890625,0.20843115351200103,-2.1544462708368894,1.1481943950247018
1772642717595447800,7.29344775390625,-1.294256551450491,-2.6203151853531597,1.4534126557923852
1772642717605492700,7.30349267578125,-3.517306695175171,-2.401898059877753,1.2882786460846662
1772642717615537700,7.31353759765625,-5.117089915755391,-1.547607919923961,0.7759336654670536
1772642717625582600,7.32358251953125,-5.785970004561543,-0.36321474185809494,0.06547818774846383
1772642717635627800,7.333627685546875,-6.330867155346274,0.5035343360438943,-0.2672500203685835
1772642717645673700,7.343673828125,-6.996081122860312,0.589381020155549,-0.10106602668389678
1772642717655719000,7.353718994140625,-7.215957799494266,-0.036493455138802526,0.14714796063480898
1772642717665763600,7.363763671875,-6.617309769299626,-0.9166633017584681,0.34756424132697283
1772642717675808800,7.373808837890625,-5.868323878121376,-1.544842254602909,0.441914549889788
1772642717685853700,7.383853759765625,-5.441456309911608,-2.115297332753241,0.34111791473180053
1772642717695899000,7.39389892578125,-5.041675486069917,-2.5146736674472687,-0.09446995288711041
1772642717705943800,7.40394384765625,-4.648883790463209,-2.679595641839504,-0.8382983517043292
1772642717715989800,7.41398974609375,-4.373341340708732,-2.591466399748623,-1.6060975182935595
1772642717726034700,7.42403466796875,-4.213195786938071,-2.3252597874857486,-1.8990625197529791
1772642717736079600,7.43407958984375,-3.7353409588128326,-1.8818410435780881,-1.6409747704073785
1772642717746124800,7.444124755859375,-2.885399369457364,-1.4674099092237651,-1.1075045841746032
1772642717756169700,7.454169677734375,-1.966661891773343,-1.2079827279679476,-0.40047110766079275
1772642717766214700,7.464214599609375,-1.1936556580603122,-0.9633825289659201,0.2645152616424486
1772642717776259600,7.474259521484375,-0.6725456255763769,-0.737257459461689,0.8003034059613943
1772642717786305800,7.484305908203125,-0.3123182289659977,-0.533633267839998,1.1236053126912564
1772642717796350700,7.494350830078125,-0.07007832935452461,-0.32055662660971285,1.2905679260656238
1772642717806395600,7.504395751953125,0.03134790894389152,-0.14870412230193614,1.3697105824939906
1772642717816440800,7.51444091796875,-0.08107318609952927,-0.016105623887479305,1.2588975071690975
1772642717826485800,7.52448583984375,-0.2509218032389879,0.08951295153424144,0.9833024504445492
1772642717836530700,7.53453076171875,-0.39852819343209267,0.2297144722983241,0.6629537674970924
1772642717846576600,7.54457666015625,-0.5551502492517233,0.4103291058629751,0.46545664392095054
1772642717856621800,7.554621826171875,-0.5261585480451584,0.6782258631698787,0.33993820342794057
1772642717866666800,7.564666748046875,-0.3513888411164284,0.9097313105382024,0.2831147847048938
1772642717876711700,7.574711669921875,-0.15497838026583194,1.0127624998152256,0.3033729434282519
1772642717886756600,7.584756591796875,0.02273848603069782,1.041502125956863,0.254378190770559
1772642717896801800,7.5948017578125,0.29214754759669304,1.037881158980727,0.17845447812238707
1772642717906846700,7.6048466796875,0.7204951252311468,1.017554410266876,0.06679663166957907
1772642717916892700,7.614892578125,1.4401783495575189,0.8885409307323395,-0.009497393862018361
1772642717926937900,7.624937744140625,2.0645751535147427,0.6397998325332999,-0.03548132808734663
1772642717936982500,7.634982421875,2.415651275420189,0.6021642216220497,-0.11109556379439309
1772642717947027700,7.64502783203125,2.796037078440189,0.5120087344005704,-0.16983396755959837
1772642717957072600,7.65507275390625,2.9224405216068026,0.2843088167950511,-0.19735660086059942
1772642717967117800,7.665117919921875,3.1378000130772588,0.07863806790709495,-0.2639682039526291
1772642717977162500,7.67516259765625,3.278817088007927,-0.04169190056473016,-0.3515977711593732
1772642717987208700,7.685208740234375,3.102186847904324,-0.09731295776069164,-0.3575261748276651
1772642717997253600,7.695253662109375,2.7838205709457395,-0.10161007043272256,-0.25355215174257756
1772642718007298800,7.705298828125,2.2238024233967066,0.15101824446320533,-0.07608887204804923
