time,seconds_elapsed,z,y,x
1772641377489988000,0.050988037109375,-0.9963531494140625,-0.0510711669921875,0.056304931640625
1772641377500033000,0.061032958984375,-0.993133544921875,-0.054595947265625,0.05914306640625
1772641377510078200,0.071078125,-0.98455810546875,-0.057373046875,0.0596160888671875
1772641377520124200,0.081124267578125,-0.9831695556640625,-0.057708740234375,0.0596160888671875
1772641377530169300,0.09116943359375,-0.9907073974609375,-0.059783935546875,0.0584716796875
1772641377540214300,0.10121435546875,-0.997467041015625,-0.0621337890625,0.0546417236328125
1772641377550259200,0.11125927734375,-1.001129150390625,-0.0607452392578125,0.0501556396484375
1772641377560304000,0.12130419921875,-1.00274658203125,-0.0616607666015625,0.0453948974609375
1772641377570350000,0.13135009765625,-1.0012359619140625,-0.0669097900390625,0.0424041748046875
1772641377580395300,0.141395263671875,-0.990997314453125,-0.073883056640625,0.04541015625
1772641377590440200,0.151440185546875,-0.9813385009765625,-0.0828399658203125,0.0459747314453125
1772641377600485000,0.161485107421875,-0.985595703125,-0.0882720947265625,0.04339599609375
1772641377610530000,0.171530029296875,-0.9899444580078125,-0.0867767333984375,0.040740966796875
1772641377620576300,0.181576171875,-0.9882354736328125,-0.0814971923828125,0.0362396240234375
1772641377630621200,0.19162109375,-0.9902496337890625,-0.0810546875,0.0399017333984375
1772641377640666400,0.201666259765625,-0.9876861572265625,-0.0800018310546875,0.0482025146484375
1772641377650711300,0.211711181640625,-0.985107421875,-0.0796051025390625,0.056640625
1772641377660756200,0.221756103515625,-0.9860687255859375,-0.075408935546875,0.059906005859375
1772641377670802200,0.23180224609375,-0.9892730712890625,-0.0703277587890625,0.0626678466796875
1772641377680847000,0.24184716796875,-0.9916839599609375,-0.0689544677734375,0.065277099609375
1772641377690892300,0.251892333984375,-0.9984283447265625,-0.0726165771484375,0.070526123046875
1772641377700937200,0.261937255859375,-1.0034027099609375,-0.075653076171875,0.0706939697265625
1772641377710982100,0.271982177734375,-1.001129150390625,-0.074676513671875,0.0689239501953125
1772641377721028000,0.282028076171875,-0.9986572265625,-0.070892333984375,0.0663909912109375
1772641377731073000,0.292072998046875,-1.0011749267578125,-0.0697784423828125,0.0630340576171875
1772641377741118200,0.3021181640625,-1.003753662109375,-0.07159423828125,0.062286376953125
1772641377751163100,0.3121630859375,-1.0036773681640625,-0.07098388671875,0.060791015625
1772641377761208300,0.322208251953125,-1.001708984375,-0.0697174072265625,0.0596466064453125
1772641377771253000,0.3322529296875,-1.0007476806640625,-0.0681304931640625,0.0572052001953125
1772641377781299200,0.34229931640625,-0.9976654052734375,-0.0679473876953125,0.0563201904296875
1772641377791344000,0.35234423828125,-0.9961090087890625,-0.070037841796875,0.0543670654296875
1772641377801389300,0.362389404296875,-0.999176025390625,-0.071685791015625,0.0522918701171875
1772641377811434200,0.372434326171875,-1,-0.0754852294921875,0.0527801513671875
1772641377821480400,0.38248046875,-0.9973297119140625,-0.0849761962890625,0.0557098388671875
1772641377831525400,0.392525390625,-0.9929351806640625,-0.095306396484375,0.0587158203125
1772641377841570300,0.4025703125,-0.9848480224609375,-0.1004180908203125,0.061553955078125
1772641377851615500,0.412615478515625,-0.9771728515625,-0.10137939453125,0.058258056640625
1772641377861660400,0.422660400390625,-0.9701690673828125,-0.1010894775390625,0.0547637939453125
1772641377871705600,0.43270556640625,-0.9586029052734375,-0.100128173828125,0.0553741455078125
1772641377881751600,0.44275146484375,-0.9486236572265625,-0.100555419921875,0.05804443359375
1772641377891796200,0.452796142578125,-0.943267822265625,-0.1027069091796875,0.0624237060546875
1772641377901841400,0.46284130859375,-0.94195556640625,-0.102691650390625,0.062225341796875
1772641377911886300,0.47288623046875,-0.9326629638671875,-0.10186767578125,0.0628204345703125
1772641377921931500,0.482931640625,-0.927581787109375,-0.098846435546875,0.0644073486328125
1772641377931977500,0.4929775390625,-0.9284210205078125,-0.0962677001953125,0.065093994140625
1772641377942022400,0.5030224609375,-0.9354248046875,-0.0962677001953125,0.0590667724609375
1772641377952067300,0.5130673828125,-0.9456024169921875,-0.09521484375,0.0546722412109375
1772641377962112500,0.523112548828125,-0.953399658203125,-0.09716796875,0.05291748046875
1772641377972158500,0.533158447265625,-0.95294189453125,-0.101898193359375,0.055267333984375
1772641377982203400,0.543203369140625,-0.9475555419921875,-0.1049652099609375,0.059478759765625
1772641377992248600,0.55324853515625,-0.95159912109375,-0.10711669921875,0.0670928955078125
1772641378002293200,0.563293212890625,-0.9632568359375,-0.1114959716796875,0.0765380859375
1772641378012338400,0.57333837890625,-0.9814605712890625,-0.1235504150390625,0.081756591796875
1772641378022383400,0.58338330078125,-1.003173828125,-0.1382904052734375,0.0809478759765625
1772641378032429600,0.5934296875,-1.026275634765625,-0.1510467529296875,0.0717926025390625
1772641378042474500,0.603474609375,-1.0393218994140625,-0.1553497314453125,0.052703857421875
1772641378052519400,0.61351953125,-1.0352630615234375,-0.152984619140625,0.0339202880859375
1772641378062564400,0.623564453125,-1.0174560546875,-0.1569976806640625,0.0222625732421875
1772641378072609500,0.633609619140625,-1.0018463134765625,-0.160247802734375,0.0165863037109375
1772641378082655500,0.643655517578125,-0.98663330078125,-0.1594390869140625,0.0138092041015625
1772641378092700400,0.653700439453125,-0.975433349609375,-0.1549530029296875,0.010986328125
1772641378102745600,0.66374560546875,-0.9681549072265625,-0.143310546875,0.0128936767578125
1772641378112790300,0.673790283203125,-0.966033935546875,-0.1312103271484375,0.020904541015625
1772641378122835500,0.68383544921875,-0.96893310546875,-0.120574951171875,0.032623291015625
1772641378132881400,0.69388134765625,-0.9702301025390625,-0.110992431640625,0.04534912109375
1772641378142926300,0.70392626953125,-0.9669189453125,-0.105987548828125,0.0597381591796875
1772641378152971500,0.713971435546875,-0.9647064208984375,-0.10809326171875,0.074951171875
1772641378163016400,0.724016357421875,-0.9719696044921875,-0.1020050048828125,0.077392578125
1772641378173061400,0.734061279296875,-0.97882080078125,-0.08599853515625,0.070159912109375
1772641378183107300,0.744107421875,-0.9878082275390625,-0.071319580078125,0.0660858154296875
1772641378193152500,0.754152587890625,-1.0005645751953125,-0.0645599365234375,0.06549072265625
1772641378203197400,0.764197509765625,-1.010772705078125,-0.0613250732421875,0.0720672607421875
1772641378213242600,0.77424267578125,-1.0127410888671875,-0.05419921875,0.079132080078125
1772641378223287300,0.784287353515625,-1.004119873046875,-0.0469512939453125,0.0840301513671875
1772641378233333200,0.794333251953125,-0.993255615234375,-0.043121337890625,0.0847625732421875
1772641378243378400,0.80437841796875,-0.99249267578125,-0.0387725830078125,0.082366943359375
1772641378253423400,0.81442333984375,-0.9866180419921875,-0.0371246337890625,0.07659912109375
1772641378263468500,0.824468505859375,-0.9788055419921875,-0.033477783203125,0.0681304931640625
1772641378273513500,0.834513427734375,-0.9796600341796875,-0.029998779296875,0.060211181640625
1772641378283559400,0.844559326171875,-0.98394775390625,-0.0283203125,0.0516204833984375
1772641378293604400,0.854604248046875,-0.986419677734375,-0.0275726318359375,0.0439910888671875
1772641378303649500,0.8646494140625,-0.9865264892578125,-0.0265045166015625,0.0393218994140625
1772641378313694500,0.874694580078125,-0.9763336181640625,-0.028961181640625,0.0353240966796875
1772641378323739600,0.88473974609375,-0.96453857421875,-0.034637451171875,0.0372314453125
1772641378333785600,0.89478564453125,-0.9643402099609375,-0.049041748046875,0.0446319580078125
1772641378343830300,0.904830322265625,-0.9696807861328125,-0.06982421875,0.055023193359375
1772641378353875500,0.91487548828125,-0.9750213623046875,-0.0864410400390625,0.0633392333984375
1772641378363920400,0.92492041015625,-0.9815521240234375,-0.0933837890625,0.0653076171875
1772641378373965600,0.934965576171875,-0.994171142578125,-0.090667724609375,0.06494140625
1772641378384011500,0.945011474609375,-1.0058135986328125,-0.08013916015625,0.0606689453125
1772641378394056400,0.955056396484375,-1.0207366943359375,-0.06219482421875,0.0500030517578125
1772641378404101400,0.965101318359375,-1.0372772216796875,-0.031646728515625,0.03375244140625
1772641378414146300,0.975146240234375,-1.04217529296875,-0.0012664794921875,0.0209808349609375
1772641378424191500,0.98519140625,-1.046356201171875,0.0170745849609375,0.0079498291015625
1772641378434236400,0.995236328125,-1.059783935546875,0.02728271484375,0.0001373291015625
1772641378444282600,1.00528271484375,-1.07440185546875,0.03802490234375,-0.008056640625
1772641378454327300,1.015327392578125,-1.084381103515625,0.046356201171875,-0.02069091796875
1772641378464372500,1.02537255859375,-1.100006103515625,0.057891845703125,-0.0389862060546875
1772641378474417400,1.03541748046875,-1.1234893798828125,0.0683441162109375,-0.0616455078125
1772641378484462600,1.045462646484375,-1.1508026123046875,0.07147216796875,-0.081756591796875
1772641378494508500,1.055508544921875,-1.1739044189453125,0.074066162109375,-0.0991363525390625
1772641378504553500,1.065553466796875,-1.179229736328125,0.075164794921875,-0.1054534912109375
1772641378514598400,1.075598388671875,-1.165313720703125,0.08221435546875,-0.111480712890625
1772641378524643300,1.085643310546875,-1.1446533203125,0.09527587890625,-0.116485595703125
1772641378534688500,1.0956884765625,-1.13702392578125,0.0986328125,-0.11181640625
1772641378544734500,1.105734375,-1.11029052734375,0.10968017578125,-0.10638427734375
1772641378554779600,1.115779541015625,-1.0731201171875,0.1246795654296875,-0.104339599609375
1772641378564824300,1.12582421875,-1.04052734375,0.13232421875,-0.1009979248046875
1772641378574869500,1.135869384765625,-1.0103912353515625,0.132080078125,-0.093902587890625
1772641378584914400,1.14591455078125,-0.97955322265625,0.1317901611328125,-0.08502197265625
1772641378594960400,1.15596044921875,-0.953887939453125,0.129913330078125,-0.07281494140625
1772641378605005600,1.166005615234375,-0.9293212890625,0.1268463134765625,-0.05584716796875
1772641378615050500,1.176050537109375,-0.9077911376953125,0.12542724609375,-0.041107177734375
1772641378625095400,1.186095458984375,-0.890289306640625,0.121734619140625,-0.0329132080078125
1772641378635140400,1.196140380859375,-0.8802642822265625,0.1177825927734375,-0.027130126953125
1772641378645186300,1.206186279296875,-0.8738555908203125,0.1104583740234375,-0.0229339599609375
1772641378655231500,1.2162314453125,-0.862762451171875,0.10552978515625,-0.017486572265625
1772641378665276400,1.2262763671875,-0.8516845703125,0.099273681640625,-0.0119476318359375
1772641378675321300,1.2363212890625,-0.845672607421875,0.09814453125,-0.0036163330078125
1772641378685366300,1.2463662109375,-0.8466949462890625,0.1024169921875,0
1772641378695412500,1.25641259765625,-0.8568572998046875,0.1033172607421875,0.002532958984375
1772641378705457400,1.26645751953125,-0.8673553466796875,0.103515625,0.0029754638671875
1772641378715502600,1.276502685546875,-0.8851165771484375,0.1034393310546875,0.0042572021484375
1772641378725547500,1.286547607421875,-0.9070281982421875,0.09716796875,0.0070037841796875
1772641378735592400,1.296592529296875,-0.924407958984375,0.0875701904296875,0.0101165771484375
1772641378745638400,1.306638427734375,-0.934234619140625,0.0772705078125,0.01416015625
1772641378755683300,1.316683349609375,-0.9439544677734375,0.068359375,0.014892578125
1772641378765728500,1.326728515625,-0.952056884765625,0.06109619140625,0.011138916015625
1772641378775773400,1.3367734375,-0.9583740234375,0.0536041259765625,0.0071258544921875
1772641378785818400,1.346818359375,-0.963592529296875,0.0406036376953125,0.006591796875
1772641378795864300,1.3568642578125,-0.963653564453125,0.03082275390625,0.007904052734375
1772641378805909500,1.366909423828125,-0.96209716796875,0.0242462158203125,0.00982666015625
1772641378815954400,1.376954345703125,-0.9654998779296875,0.020477294921875,0.0107879638671875
1772641378825999600,1.38699951171875,-0.97149658203125,0.019317626953125,0.013946533203125
1772641378836044800,1.397044921875,-0.974945068359375,0.01849365234375,0.0194244384765625
1772641378846089700,1.40708984375,-0.968414306640625,0.017730712890625,0.0325775146484375
1772641378856136000,1.417135986328125,-0.9593963623046875,0.01568603515625,0.043121337890625
1772641378866180900,1.427180908203125,-0.9482269287109375,0.0181121826171875,0.0519256591796875
1772641378876225800,1.437225830078125,-0.93701171875,0.0225677490234375,0.059722900390625
1772641378886270700,1.447270751953125,-0.934722900390625,0.02679443359375,0.065155029296875
1772641378896316000,1.45731591796875,-0.943450927734375,0.03106689453125,0.0672149658203125
1772641378906361900,1.46736181640625,-0.955535888671875,0.0382843017578125,0.0648345947265625
1772641378916406800,1.47740673828125,-0.965789794921875,0.0442657470703125,0.062042236328125
1772641378926452000,1.487451904296875,-0.974853515625,0.0482025146484375,0.0632476806640625
1772641378936496600,1.49749658203125,-0.983184814453125,0.0507049560546875,0.064544677734375
1772641378946541800,1.507541748046875,-0.9920501708984375,0.05194091796875,0.0654754638671875
1772641378956587800,1.517587890625,-0.9968719482421875,0.0527191162109375,0.0642547607421875
1772641378966633000,1.527633056640625,-1.0035858154296875,0.0533294677734375,0.063079833984375
1772641378976678000,1.537677978515625,-1.01104736328125,0.046417236328125,0.0607147216796875
1772641378986722800,1.547722900390625,-1.016204833984375,0.034881591796875,0.0598297119140625
1772641378996767700,1.557767822265625,-1.0234527587890625,0.0283660888671875,0.057708740234375
1772641379006813700,1.567813720703125,-1.0339813232421875,0.0256500244140625,0.0501708984375
1772641379016859000,1.57785888671875,-1.0383758544921875,0.0275115966796875,0.0424041748046875
1772641379026903800,1.58790380859375,-1.042999267578125,0.0243682861328125,0.0396881103515625
1772641379036949000,1.597948974609375,-1.0428466796875,0.0182952880859375,0.037017822265625
1772641379046993700,1.60799365234375,-1.0399627685546875,0.0095977783203125,0.0353546142578125
1772641379057039600,1.61803955078125,-1.0381011962890625,0.001068115234375,0.0311431884765625
1772641379067084800,1.628084716796875,-1.03466796875,-0.0075531005859375,0.0284423828125
1772641379077129700,1.638129638671875,-1.030548095703125,-0.0180816650390625,0.02667236328125
1772641379087175000,1.6481748046875,-1.0219268798828125,-0.02740478515625,0.02691650390625
1772641379097219600,1.658219482421875,-1.0158538818359375,-0.037353515625,0.0301666259765625
1772641379107264800,1.6682646484375,-1.013916015625,-0.044464111328125,0.027496337890625
1772641379117310700,1.678310791015625,-1.011322021484375,-0.0508880615234375,0.0240631103515625
1772641379127356000,1.68835595703125,-1.016693115234375,-0.05706787109375,0.0209503173828125
1772641379137400800,1.69840087890625,-1.0184478759765625,-0.0613555908203125,0.0191802978515625
1772641379147446000,1.708446044921875,-1.0184326171875,-0.066619873046875,0.0197601318359375
1772641379157490700,1.71849072265625,-1.02362060546875,-0.0678253173828125,0.0209503173828125
1772641379167536600,1.72853662109375,-1.02740478515625,-0.0616455078125,0.01654052734375
1772641379177581800,1.738581787109375,-1.0326995849609375,-0.05511474609375,0.01275634765625
1772641379187626800,1.748626708984375,-1.04803466796875,-0.0583648681640625,0.0162506103515625
1772641379197672000,1.758671875,-1.0696868896484375,-0.08026123046875,0.0302581787109375
1772641379207716600,1.768716552734375,-1.07513427734375,-0.1042022705078125,0.038543701171875
1772641379217762800,1.7787626953125,-1.0674896240234375,-0.104248046875,0.0382232666015625
1772641379227807700,1.788807861328125,-1.0603485107421875,-0.0865631103515625,0.0465850830078125
1772641379237853000,1.79885302734375,-1.066314697265625,-0.068817138671875,0.0743255615234375
1772641379247897900,1.80889794921875,-1.0803375244140625,-0.04510498046875,0.1007080078125
1772641379257943000,1.818943115234375,-1.08892822265625,-0.020538330078125,0.1087493896484375
1772641379267989000,1.828989013671875,-1.09185791015625,-0.0083465576171875,0.1170501708984375
1772641379278033700,1.83903369140625,-1.1090087890625,-0.0064239501953125,0.12908935546875
1772641379288078800,1.849078857421875,-1.0823516845703125,0.0084991455078125,0.125640869140625
1772641379298123800,1.859123779296875,-1.0443572998046875,0.031890869140625,0.113037109375
1772641379308169000,1.8691689453125,-1.0122528076171875,0.049560546875,0.1009368896484375
1772641379318215000,1.87921484375,-0.9820404052734375,0.06011962890625,0.0901031494140625
1772641379328259600,1.889259521484375,-0.968475341796875,0.072418212890625,0.0814361572265625
1772641379338304800,1.8993046875,-0.96942138671875,0.0850677490234375,0.078125
1772641379348349700,1.909349609375,-0.9843902587890625,0.09735107421875,0.0792236328125
1772641379358395000,1.919394775390625,-1.0099334716796875,0.109344482421875,0.0825653076171875
1772641379368440800,1.92944091796875,-1.0342864990234375,0.1185302734375,0.0904693603515625
1772641379378486000,1.939486083984375,-1.052276611328125,0.1271820068359375,0.099029541015625
1772641379388530700,1.94953076171875,-1.0633544921875,0.129150390625,0.108001708984375
1772641379398575900,1.959575927734375,-1.0558624267578125,0.129730224609375,0.115509033203125
1772641379408620800,1.969620849609375,-1.0349273681640625,0.1282806396484375,0.117767333984375
1772641379418666000,1.979666015625,-1.0121002197265625,0.1250457763671875,0.1191558837890625
1772641379428712000,1.9897119140625,-0.990631103515625,0.1225433349609375,0.1148529052734375
1772641379438756600,1.999756591796875,-0.972320556640625,0.1201324462890625,0.11114501953125
1772641379448801800,2.0098017578125,-0.956390380859375,0.1192169189453125,0.1165771484375
1772641379458846700,2.0198466796875,-0.9378662109375,0.1173553466796875,0.12152099609375
1772641379468893000,2.029892822265625,-0.92315673828125,0.1155242919921875,0.1268768310546875
1772641379478937900,2.039937744140625,-0.915557861328125,0.113189697265625,0.1330108642578125
1772641379488983000,2.049983154296875,-0.90887451171875,0.1082763671875,0.1449737548828125
1772641379499027700,2.06002783203125,-0.897735595703125,0.1036376953125,0.1534423828125
1772641379509073000,2.070072998046875,-0.8902587890625,0.0988922119140625,0.154144287109375
1772641379519117800,2.080117919921875,-0.887542724609375,0.094635009765625,0.1538238525390625
1772641379529163800,2.090163818359375,-0.88214111328125,0.088043212890625,0.1461181640625
1772641379539209000,2.100208984375,-0.8711395263671875,0.07965087890625,0.138092041015625
1772641379549253600,2.110253662109375,-0.87103271484375,0.07061767578125,0.1269989013671875
1772641379559298800,2.120298828125,-0.877532958984375,0.0619049072265625,0.113067626953125
1772641379569343700,2.13034375,-0.8856964111328125,0.056854248046875,0.103179931640625
1772641379579389700,2.1403896484375,-0.893768310546875,0.053802490234375,0.099517822265625
1772641379589435000,2.150434814453125,-0.9028472900390625,0.05523681640625,0.0974884033203125
1772641379599479800,2.160479736328125,-0.9135284423828125,0.0557098388671875,0.0955352783203125
1772641379609524700,2.170524658203125,-0.929412841796875,0.0570220947265625,0.092498779296875
1772641379619569700,2.180569580078125,-0.940948486328125,0.054107666015625,0.0894622802734375
1772641379629615900,2.190615966796875,-0.945648193359375,0.0496063232421875,0.0832366943359375
1772641379639660800,2.200660888671875,-0.94537353515625,0.0435791015625,0.07708740234375
1772641379649706000,2.2107060546875,-0.944366455078125,0.0355072021484375,0.07073974609375
1772641379659750700,2.220750732421875,-0.9408416748046875,0.0254364013671875,0.0650787353515625
1772641379669795800,2.2307958984375,-0.94287109375,0.0159912109375,0.0598907470703125
1772641379679841800,2.240841796875,-0.94622802734375,0.0068511962890625,0.0520477294921875
1772641379689886700,2.25088671875,-0.9562530517578125,0.0001983642578125,0.0460968017578125
1772641379699932000,2.260931884765625,-0.9588623046875,-0.0050506591796875,0.0430450439453125
1772641379709976800,2.270976806640625,-0.9581146240234375,-0.0045623779296875,0.04217529296875
1772641379720021800,2.281021728515625,-0.9572906494140625,-0.0027618408203125,0.043426513671875
1772641379730066700,2.291066650390625,-0.9569091796875,0.002197265625,0.0456695556640625
1772641379740113000,2.30111279296875,-0.9573974609375,0.0082550048828125,0.045135498046875
1772641379750157800,2.31115771484375,-0.9646453857421875,0.0117034912109375,0.045623779296875
1772641379760203000,2.321203125,-0.9833526611328125,0.010986328125,0.0475311279296875
1772641379770247700,2.33124755859375,-0.9982147216796875,0.00860595703125,0.0531158447265625
1772641379780292900,2.34129296875,-1.0091552734375,0.005828857421875,0.060699462890625
1772641379790338800,2.3513388671875,-1.00042724609375,0.006500244140625,0.0632171630859375
1772641379800383700,2.3613837890625,-0.9944305419921875,0.0016937255859375,0.0639801025390625
1772641379810429000,2.371428955078125,-1.003173828125,-0.007232666015625,0.0662384033203125
1772641379820474000,2.38147412109375,-0.9921722412109375,-0.00775146484375,0.0577545166015625
1772641379830519300,2.391519287109375,-0.98974609375,-0.01544189453125,0.0476837158203125
1772641379840565200,2.401565185546875,-0.9869537353515625,-0.026214599609375,0.0373992919921875
1772641379850610200,2.411610107421875,-0.9898681640625,-0.0325469970703125,0.02862548828125
1772641379860655400,2.4216552734375,-0.996551513671875,-0.0409088134765625,0.0274810791015625
1772641379870700000,2.431699951171875,-1.0029754638671875,-0.0474853515625,0.0298004150390625
1772641379880745200,2.4417451171875,-1.0032196044921875,-0.053314208984375,0.0366058349609375
1772641379890791200,2.451791259765625,-0.998870849609375,-0.0571746826171875,0.041259765625
1772641379900836400,2.46183642578125,-0.9899444580078125,-0.0626068115234375,0.04107666015625
1772641379910881300,2.47188134765625,-0.9875946044921875,-0.0655364990234375,0.036773681640625
1772641379920926200,2.48192626953125,-0.9919586181640625,-0.0687255859375,0.03582763671875
1772641379930971100,2.49197119140625,-0.99853515625,-0.0693817138671875,0.041229248046875
1772641379941016300,2.502016357421875,-1.009063720703125,-0.0661773681640625,0.04791259765625
1772641379951062300,2.512062255859375,-1.0151519775390625,-0.0569305419921875,0.0528411865234375
1772641379961107200,2.522107177734375,-1.013916015625,-0.0473480224609375,0.06097412109375
1772641379971152400,2.53215234375,-1.01214599609375,-0.0364837646484375,0.0702056884765625
1772641379981197000,2.542197021484375,-1.0151519775390625,-0.02911376953125,0.0805511474609375
1772641379991242200,2.5522421875,-1.0197296142578125,-0.020233154296875,0.08984375
1772641380001288200,2.5622880859375,-1.0218048095703125,-0.0126495361328125,0.0973358154296875
1772641380011333000,2.5723330078125,-1.0208587646484375,-0.0041961669921875,0.103790283203125
1772641380021378300,2.58237841796875,-1.0176239013671875,0.00933837890625,0.1057281494140625
1772641380031423000,2.592423095703125,-1.015899658203125,0.0185089111328125,0.1046905517578125
1772641380041468200,2.60246826171875,-1.02581787109375,0.018890380859375,0.1099395751953125
1772641380051514000,2.61251416015625,-1.0438079833984375,0.009918212890625,0.1230010986328125
1772641380061559300,2.622559326171875,-1.0493316650390625,-0.003631591796875,0.1345367431640625
1772641380071604200,2.632604248046875,-1.0535430908203125,-0.0054473876953125,0.13323974609375
1772641380081649400,2.6426494140625,-1.057098388671875,-0.0021514892578125,0.1275634765625
1772641380091694000,2.652694091796875,-1.0727691650390625,-0.0090484619140625,0.1257476806640625
1772641380101740000,2.662739990234375,-1.087493896484375,-0.0080413818359375,0.123626708984375
1772641380111785200,2.67278515625,-1.0994720458984375,0.011383056640625,0.0963134765625
1772641380121830100,2.682830078125,-1.1137237548828125,0.04730224609375,0.05596923828125
1772641380131875300,2.692875244140625,-1.137664794921875,0.0767364501953125,0.0267333984375
1772641380141920000,2.702919921875,-1.161407470703125,0.0977783203125,0.0138092041015625
1772641380151966200,2.71296630859375,-1.1830291748046875,0.119293212890625,0.0121002197265625
1772641380162011100,2.72301123046875,-1.1835784912109375,0.139129638671875,0.0144500732421875
1772641380172056300,2.733056396484375,-1.15185546875,0.1575927734375,0.014862060546875
1772641380182101200,2.743101318359375,-1.1544189453125,0.16497802734375,0.027862548828125
1772641380192146200,2.753146240234375,-1.14739990234375,0.17547607421875,0.0319976806640625
1772641380202192400,2.7631923828125,-1.129974365234375,0.184478759765625,0.033538818359375
1772641380212237000,2.773237060546875,-1.1202545166015625,0.17626953125,0.03607177734375
1772641380222282200,2.7832822265625,-1.1006011962890625,0.164337158203125,0.03643798828125
1772641380232327200,2.7933271484375,-1.066070556640625,0.150726318359375,0.033782958984375
1772641380242372400,2.803372314453125,-1.025970458984375,0.138763427734375,0.0317230224609375
1772641380252417000,2.8134169921875,-0.9788818359375,0.1296844482421875,0.0310211181640625
1772641380262463000,2.823462890625,-0.925048828125,0.1230316162109375,0.02935791015625
1772641380272508200,2.833508056640625,-0.88165283203125,0.114959716796875,0.030242919921875
1772641380282553000,2.843552978515625,-0.85137939453125,0.108856201171875,0.032379150390625
1772641380292598300,2.853598388671875,-0.833984375,0.100738525390625,0.03564453125
1772641380302643200,2.863643310546875,-0.8252716064453125,0.08685302734375,0.039398193359375
1772641380312689400,2.873689453125,-0.82293701171875,0.0706634521484375,0.0416412353515625
1772641380322734000,2.883734130859375,-0.8201904296875,0.05352783203125,0.0361328125
1772641380332779300,2.893779296875,-0.81536865234375,0.0442047119140625,0.0222930908203125
1772641380342824200,2.90382421875,-0.8098602294921875,0.03912353515625,0.005096435546875
1772641380352869400,2.913869384765625,-0.815032958984375,0.0361480712890625,-0.0064697265625
1772641380362915300,2.923915283203125,-0.830718994140625,0.0275115966796875,-0.0074615478515625
1772641380372960000,2.9339599609375,-0.853729248046875,0.0173187255859375,-0.00225830078125
1772641380383005200,2.944005126953125,-0.876312255859375,0.0131378173828125,0.0000762939453125
1772641380393050000,2.954050048828125,-0.8885345458984375,0.0159454345703125,0.0010223388671875
1772641380403095300,2.96409521484375,-0.9011077880859375,0.01751708984375,0.005157470703125
1772641380413141200,2.974141357421875,-0.91290283203125,0.0219879150390625,0.012359619140625
1772641380423186200,2.984186279296875,-0.9252471923828125,0.026580810546875,0.0246734619140625
1772641380433231000,2.994231201171875,-0.932830810546875,0.0293426513671875,0.0383453369140625
1772641380443276300,3.0042763671875,-0.937591552734375,0.02899169921875,0.0520477294921875
1772641380453321200,3.0143212890625,-0.9320220947265625,0.0273895263671875,0.0648651123046875
1772641380463366100,3.0243662109375,-0.9249114990234375,0.0234832763671875,0.0766754150390625
1772641380473412400,3.034412353515625,-0.911376953125,0.0204925537109375,0.0868377685546875
1772641380483457000,3.04445703125,-0.900726318359375,0.0166168212890625,0.08917236328125
1772641380493502200,3.054502197265625,-0.8935546875,0.009918212890625,0.0873565673828125
1772641380503547100,3.064547119140625,-0.8892822265625,0.0000152587890625,0.0860595703125
1772641380513592300,3.07459228515625,-0.88525390625,-0.0122222900390625,0.0830841064453125
1772641380523638300,3.08463818359375,-0.8821563720703125,-0.01953125,0.0776214599609375
1772641380533683200,3.09468310546875,-0.8809814453125,-0.0233612060546875,0.0727081298828125
1772641380543728000,3.10472802734375,-0.88153076171875,-0.0235748291015625,0.0701904296875
1772641380553773000,3.11477294921875,-0.8928070068359375,-0.0227813720703125,0.0709381103515625
1772641380563818200,3.124818359375,-0.9099884033203125,-0.0174407958984375,0.069061279296875
1772641380573864200,3.1348642578125,-0.9277191162109375,-0.0119781494140625,0.0661468505859375
1772641380583909400,3.144909423828125,-0.9438018798828125,-0.0081787109375,0.0655670166015625
1772641380593954000,3.1549541015625,-0.969879150390625,-0.0052490234375,0.0677947998046875
1772641380603999200,3.164999267578125,-1.002410888671875,-0.0065155029296875,0.072509765625
1772641380614044200,3.175044189453125,-1.0318145751953125,-0.0087127685546875,0.07635498046875
1772641380624090000,3.185090087890625,-1.0514984130859375,-0.006744384765625,0.0739898681640625
1772641380634135300,3.19513525390625,-1.063995361328125,0.0002593994140625,0.0654754638671875
1772641380644180200,3.20518017578125,-1.0729522705078125,0.005126953125,0.0608673095703125
1772641380654225200,3.21522509765625,-1.0817108154296875,0.0081329345703125,0.06451416015625
1772641380664270000,3.22527001953125,-1.0880279541015625,0.00927734375,0.07110595703125
1772641380674315300,3.235315185546875,-1.0911102294921875,0.010101318359375,0.0746307373046875
1772641380684361200,3.245361328125,-1.0879669189453125,0.0120697021484375,0.0753326416015625
1772641380694406100,3.25540625,-1.08538818359375,0.0122222900390625,0.07611083984375
1772641380704451000,3.265451171875,-1.079010009765625,0.0115203857421875,0.0720672607421875
1772641380714496300,3.275496337890625,-1.0701751708984375,0.00897216796875,0.0712890625
1772641380724541200,3.285541259765625,-1.05950927734375,0.0005340576171875,0.0703277587890625
1772641380734587100,3.295587158203125,-1.0493316650390625,-0.002044677734375,0.0704345703125
1772641380744632300,3.30563232421875,-1.0357666015625,-0.0010833740234375,0.0715179443359375
1772641380754677200,3.31567724609375,-1.0249786376953125,-0.0004119873046875,0.0701141357421875
1772641380764722200,3.32572216796875,-1.02239990234375,-0.00030517578125,0.0721893310546875
1772641380774767000,3.33576708984375,-1.0234527587890625,0.003570556640625,0.070648193359375
1772641380784813000,3.34581298828125,-1.02899169921875,0.008026123046875,0.0659027099609375
1772641380794858200,3.355858154296875,-1.03936767578125,0.0120849609375,0.063232421875
1772641380804903200,3.365903076171875,-1.047454833984375,0.0162200927734375,0.0608062744140625
1772641380814948000,3.375947998046875,-1.0574493408203125,0.0225372314453125,0.057464599609375
1772641380824992300,3.3859921875,-1.0698089599609375,0.020355224609375,0.0601043701171875
1772641380835038200,3.3960380859375,-1.0888519287109375,0.00213623046875,0.0707550048828125
1772641380845083000,3.406082763671875,-1.0784454345703125,-0.012939453125,0.0714874267578125
1772641380855128000,3.416128173828125,-1.0580291748046875,-0.0109405517578125,0.0605621337890625
1772641380865173000,3.426173095703125,-1.0418243408203125,-0.010589599609375,0.0533905029296875
1772641380875218200,3.43621826171875,-1.03839111328125,-0.0210113525390625,0.05352783203125
1772641380885264100,3.44626416015625,-1.0313262939453125,-0.012725830078125,0.0372467041015625
1772641380895309300,3.456309326171875,-1.0358734130859375,0.0237579345703125,-0.001495361328125
1772641380905354000,3.46635400390625,-1.0622100830078125,0.067535400390625,-0.03399658203125
1772641380915399200,3.476399169921875,-1.09454345703125,0.096221923828125,-0.0397796630859375
1772641380925444000,3.486444091796875,-1.12322998046875,0.1075439453125,-0.0192108154296875
1772641380935489300,3.4964892578125,-1.142181396484375,0.1148681640625,0.0121917724609375
1772641380945535200,3.50653515625,-1.1516876220703125,0.124420166015625,0.0442047119140625
1772641380955580000,3.516579833984375,-1.130767822265625,0.143524169921875,0.068817138671875
1772641380965625000,3.526625,-1.1023101806640625,0.1537017822265625,0.0872344970703125
1772641380975670000,3.536669921875,-1.0728759765625,0.1504669189453125,0.0975799560546875
1772641380985715200,3.546715087890625,-1.0478668212890625,0.1439056396484375,0.0944366455078125
1772641380995761200,3.55676123046875,-1.0321502685546875,0.1343841552734375,0.084442138671875
1772641381005806000,3.56680615234375,-1.022613525390625,0.12176513671875,0.070556640625
1772641381015851000,3.57685107421875,-1.01385498046875,0.113128662109375,0.0601348876953125
1772641381025896200,3.586896240234375,-1.0091705322265625,0.104278564453125,0.053741455078125
1772641381035941000,3.596941162109375,-0.999359130859375,0.098541259765625,0.053680419921875
1772641381045987000,3.606987060546875,-0.973419189453125,0.0914459228515625,0.0572509765625
1772641381056032300,3.6170322265625,-0.946807861328125,0.083740234375,0.0628662109375
1772641381066077000,3.627076904296875,-0.91607666015625,0.0748138427734375,0.0704345703125
1772641381076122000,3.6371220703125,-0.8876190185546875,0.0625152587890625,0.0743865966796875
1772641381086167000,3.6471669921875,-0.8578948974609375,0.0493927001953125,0.0777435302734375
1772641381096213000,3.657212890625,-0.8325347900390625,0.035614013671875,0.0776519775390625
1772641381106258200,3.667258056640625,-0.81390380859375,0.0263671875,0.07574462890625
1772641381116303000,3.67730322265625,-0.80035400390625,0.0183868408203125,0.074310302734375
1772641381126348000,3.68734814453125,-0.7923431396484375,0.0139617919921875,0.072906494140625
1772641381136393000,3.69739306640625,-0.8024749755859375,0.00958251953125,0.07318115234375
1772641381146438100,3.707438232421875,-0.81170654296875,0.0094757080078125,0.0738983154296875
1772641381156484000,3.717484130859375,-0.813079833984375,0.0123138427734375,0.07366943359375
1772641381166529300,3.727529296875,-0.8152008056640625,0.0172119140625,0.080352783203125
1772641381176574000,3.737573974609375,-0.8223876953125,0.0207977294921875,0.089202880859375
1772641381186619100,3.747619140625,-0.8258209228515625,0.02984619140625,0.096160888671875
1772641381196664000,3.7576640625,-0.831024169921875,0.0450286865234375,0.0981292724609375
1772641381206710000,3.7677099609375,-0.8433837890625,0.061798095703125,0.099517822265625
1772641381216755200,3.777755126953125,-0.8606719970703125,0.0764617919921875,0.1031036376953125
1772641381226800000,3.787800048828125,-0.8917694091796875,0.0870361328125,0.104248046875
1772641381236845000,3.797844970703125,-0.9251251220703125,0.0968017578125,0.1011810302734375
1772641381246890000,3.807889892578125,-0.958770751953125,0.10260009765625,0.0980987548828125
1772641381256936200,3.817936279296875,-0.982208251953125,0.1019439697265625,0.09759521484375
1772641381266981000,3.827981201171875,-0.9974365234375,0.09661865234375,0.0998687744140625
1772641381277026300,3.8380263671875,-1.003662109375,0.091827392578125,0.098052978515625
1772641381287071000,3.848071044921875,-0.99664306640625,0.086395263671875,0.0930328369140625
1772641381297116200,3.8581162109375,-0.9919586181640625,0.0785369873046875,0.0843505859375
1772641381307162000,3.868162109375,-0.9911346435546875,0.06951904296875,0.075927734375
1772641381317207000,3.87820703125,-0.9971160888671875,0.0578765869140625,0.0672607421875
1772641381327252200,3.888252197265625,-1.006988525390625,0.04522705078125,0.06500244140625
1772641381337297200,3.898297119140625,-1.01226806640625,0.0336761474609375,0.0640869140625
1772641381347342000,3.908342041015625,-1.011688232421875,0.0285797119140625,0.068756103515625
1772641381357387000,3.918386962890625,-1.00128173828125,0.0283966064453125,0.071746826171875
1772641381367433000,3.928432861328125,-0.995208740234375,0.03106689453125,0.0801544189453125
1772641381377478100,3.93847802734375,-0.9907073974609375,0.0327301025390625,0.092529296875
1772641381387523000,3.948523193359375,-0.988861083984375,0.034698486328125,0.104736328125
1772641381397568000,3.958568115234375,-0.9878082275390625,0.0390625,0.1131591796875
1772641381407613000,3.968613037109375,-0.989227294921875,0.042999267578125,0.113555908203125
1772641381417659100,3.9786591796875,-0.994049072265625,0.047515869140625,0.1154022216796875
1772641381427704000,3.9887041015625,-1.00079345703125,0.0495452880859375,0.1185455322265625
1772641381437749200,3.998749267578125,-1.0059661865234375,0.0490875244140625,0.122100830078125
1772641381447794200,4.008794189453125,-1.01336669921875,0.0478668212890625,0.1212310791015625
1772641381457839000,4.018839111328125,-1.0213623046875,0.046051025390625,0.1158447265625
1772641381467885000,4.028885009765625,-1.0281524658203125,0.0409088134765625,0.1082611083984375
1772641381477930000,4.038929931640625,-1.0373382568359375,0.0343475341796875,0.10089111328125
1772641381487975200,4.04897509765625,-1.04718017578125,0.0279388427734375,0.094512939453125
1772641381498020000,4.05902001953125,-1.0507965087890625,0.02081298828125,0.08856201171875
1772641381508065300,4.069065185546875,-1.04815673828125,0.0087890625,0.078460693359375
1772641381518110000,4.07910986328125,-1.04571533203125,-0.0045013427734375,0.066619873046875
1772641381528156200,4.08915625,-1.0394134521484375,-0.0171661376953125,0.0547637939453125
1772641381538201000,4.099201171875,-1.032135009765625,-0.0308380126953125,0.0441131591796875
1772641381548246300,4.109246337890625,-1.0225372314453125,-0.0418548583984375,0.037872314453125
1772641381558291200,4.119291259765625,-1.011077880859375,-0.0494384765625,0.035247802734375
1772641381568336100,4.129336181640625,-1.0025177001953125,-0.0507965087890625,0.0377044677734375
1772641381578382000,4.139382080078125,-0.9941864013671875,-0.047088623046875,0.0426025390625
1772641381588427000,4.149427001953125,-0.9886016845703125,-0.0406341552734375,0.05072021484375
1772641381598472200,4.15947216796875,-0.9820709228515625,-0.03436279296875,0.058380126953125
1772641381608517000,4.16951708984375,-0.9737091064453125,-0.02606201171875,0.0593109130859375
1772641381618562300,4.179562255859375,-0.967132568359375,-0.0152435302734375,0.0563812255859375
1772641381628608000,4.18960791015625,-0.97296142578125,-0.0030364990234375,0.05120849609375
1772641381638653000,4.19965283203125,-0.988555908203125,0.009521484375,0.048431396484375
1772641381648698000,4.209697998046875,-1.0074005126953125,0.019378662109375,0.05096435546875
1772641381658743000,4.219742919921875,-1.018829345703125,0.02911376953125,0.057281494140625
1772641381668788200,4.229788330078125,-1.027618408203125,0.029205322265625,0.0646209716796875
1772641381678834200,4.239834228515625,-1.03973388671875,0.01837158203125,0.0711669921875
1772641381688879000,4.249879150390625,-1.052032470703125,0.0013580322265625,0.06732177734375
1772641381698924000,4.259924072265625,-1.0640716552734375,-0.011962890625,0.0599212646484375
1772641381708969200,4.26996923828125,-1.0697021484375,-0.01666259765625,0.0549468994140625
1772641381719014100,4.28001416015625,-1.070465087890625,-0.019073486328125,0.058135986328125
1772641381729059300,4.290059326171875,-1.0713958740234375,-0.02093505859375,0.0624237060546875
1772641381739105300,4.300105224609375,-1.073028564453125,-0.0172119140625,0.056732177734375
1772641381749150000,4.31014990234375,-1.0729827880859375,-0.003143310546875,0.036468505859375
1772641381759195100,4.320195068359375,-1.0803680419921875,0.013153076171875,0.0157928466796875
1772641381769240000,4.330239990234375,-1.1005859375,0.0195770263671875,-0.0056915283203125
1772641381779285200,4.34028515625,-1.1217041015625,0.0265350341796875,-0.0259552001953125
1772641381789331200,4.350331298828125,-1.1314239501953125,0.03955078125,-0.0431671142578125
1772641381799376100,4.360376220703125,-1.1402587890625,0.0516815185546875,-0.0515594482421875
1772641381809421000,4.370421142578125,-1.1441802978515625,0.068206787109375,-0.05194091796875
1772641381819466200,4.38046630859375,-1.14422607421875,0.0928192138671875,-0.05364990234375
1772641381829511400,4.390511474609375,-1.15179443359375,0.1171112060546875,-0.0542449951171875
1772641381839557400,4.400557373046875,-1.15765380859375,0.1356048583984375,-0.0485992431640625
1772641381849602300,4.410602294921875,-1.1552276611328125,0.1502227783203125,-0.0365753173828125
1772641381859647200,4.420647216796875,-1.141143798828125,0.16485595703125,-0.0179290771484375
1772641381869692400,4.4306923828125,-1.1127166748046875,0.17803955078125,0.0022430419921875
1772641381879737300,4.4407373046875,-1.0732421875,0.1854248046875,0.0240478515625
1772641381889782500,4.450782470703125,-1.028839111328125,0.183380126953125,0.04583740234375
1772641381899828200,4.460828125,-0.9791412353515625,0.1729736328125,0.0692901611328125
1772641381909873200,4.470873046875,-0.9187774658203125,0.1613616943359375,0.087646484375
1772641381919918300,4.48091845703125,-0.8633270263671875,0.1506805419921875,0.095794677734375
1772641381929963300,4.49096337890625,-0.820037841796875,0.1419677734375,0.097076416015625
1772641381940008400,4.501008544921875,-0.7909393310546875,0.1253814697265625,0.0950927734375
1772641381950054400,4.511054443359375,-0.7818603515625,0.1051177978515625,0.087677001953125
1772641381960099300,4.521099365234375,-0.7885894775390625,0.089874267578125,0.0711517333984375
1772641381970144300,4.531144287109375,-0.805633544921875,0.07769775390625,0.051544189453125
1772641381980189400,4.541189453125,-0.8268280029296875,0.0688629150390625,0.0372161865234375
1772641381990234400,4.551234375,-0.8414764404296875,0.0649566650390625,0.0243072509765625
1772641382000280300,4.5612802734375,-0.8600311279296875,0.0655517578125,0.013214111328125
1772641382010325500,4.571325439453125,-0.8818206787109375,0.0653228759765625,0.0121917724609375
1772641382020370200,4.5813701171875,-0.8931427001953125,0.060394287109375,0.0173492431640625
1772641382030415400,4.591415283203125,-0.89337158203125,0.0535888671875,0.0321807861328125
1772641382040460300,4.601460205078125,-0.885467529296875,0.04656982421875,0.0482177734375
1772641382050505500,4.61150537109375,-0.877166748046875,0.03814697265625,0.0562286376953125
1772641382060551400,4.621551513671875,-0.8746795654296875,0.0287628173828125,0.0597991943359375
1772641382070596000,4.63159619140625,-0.8783111572265625,0.01666259765625,0.0579986572265625
1772641382080641300,4.641641357421875,-0.89178466796875,0.0022125244140625,0.0477294921875
1772641382090686200,4.651686279296875,-0.9175262451171875,-0.01287841796875,0.032958984375
1772641382100731400,4.6617314453125,-0.945587158203125,-0.0272064208984375,0.01708984375
1772641382110777300,4.67177734375,-0.96209716796875,-0.0441131591796875,0.0048980712890625
1772641382120822500,4.681822509765625,-0.9678497314453125,-0.055694580078125,-0.0025634765625
1772641382130867200,4.6918671875,-0.9746551513671875,-0.063690185546875,-0.0124359130859375
1772641382140912400,4.701912353515625,-0.9786376953125,-0.071014404296875,-0.019439697265625
1772641382150957300,4.711957275390625,-0.9736328125,-0.0812530517578125,-0.0211639404296875
1772641382161003300,4.722003173828125,-0.9692840576171875,-0.090423583984375,-0.022552490234375
1772641382171048400,4.73204833984375,-0.9571533203125,-0.09552001953125,-0.019378662109375
1772641382181093000,4.742093017578125,-0.9400177001953125,-0.09564208984375,-0.01507568359375
1772641382191138300,4.75213818359375,-0.9299163818359375,-0.0937652587890625,-0.0111083984375
1772641382201183200,4.762183349609375,-0.9315185546875,-0.0875396728515625,-0.0118255615234375
1772641382211228400,4.772228515625,-0.9382781982421875,-0.079925537109375,-0.0154571533203125
1772641382221274400,4.7822744140625,-0.9473419189453125,-0.07452392578125,-0.0158233642578125
1772641382231319600,4.792319580078125,-0.958038330078125,-0.0691375732421875,-0.011260986328125
1772641382241364200,4.8023642578125,-0.965789794921875,-0.0608978271484375,-0.006011962890625
1772641382251409400,4.812409423828125,-0.9752349853515625,-0.05352783203125,-0.004791259765625
1772641382261454300,4.822454345703125,-0.9944915771484375,-0.0464935302734375,-0.0101470947265625
1772641382271500300,4.832500244140625,-1.01348876953125,-0.0421905517578125,-0.0104827880859375
1772641382281545500,4.84254541015625,-1.026580810546875,-0.039794921875,-0.0110321044921875
1772641382291590100,4.852590087890625,-1.0341033935546875,-0.0394744873046875,-0.0100860595703125
1772641382301635300,4.86263525390625,-1.0394439697265625,-0.038970947265625,-0.014862060546875
1772641382311680300,4.87268017578125,-1.0468597412109375,-0.0409393310546875,-0.0249176025390625
1772641382321726200,4.882726318359375,-1.070526123046875,-0.045074462890625,-0.0332794189453125
1772641382331771400,4.892771484375,-1.096588134765625,-0.0436859130859375,-0.03826904296875
1772641382341816300,4.90281640625,-1.1066741943359375,-0.0421600341796875,-0.03814697265625
1772641382351861200,4.912861328125,-1.100982666015625,-0.0481414794921875,-0.030975341796875
1772641382361906200,4.92290625,-1.0855560302734375,-0.059326171875,-0.0244903564453125
1772641382371951400,4.932951416015625,-1.0665130615234375,-0.071502685546875,-0.0193939208984375
1772641382381997300,4.942997314453125,-1.0499267578125,-0.0849609375,-0.01336669921875
1772641382392042500,4.95304248046875,-1.036834716796875,-0.0950927734375,-0.00811767578125
1772641382402087200,4.963087158203125,-1.027862548828125,-0.10186767578125,-0.0005645751953125
1772641382412132400,4.97313232421875,-1.0200958251953125,-0.105804443359375,0.0085296630859375
1772641382422177300,4.98317724609375,-1.0148773193359375,-0.105499267578125,0.0152130126953125
1772641382432223200,4.99322314453125,-1.0073394775390625,-0.1053314208984375,0.025177001953125
1772641382442268400,5.003268310546875,-1.0073089599609375,-0.104644775390625,0.0334320068359375
1772641382452313300,5.013313232421875,-1.01617431640625,-0.10186767578125,0.0339202880859375
1772641382462358300,5.023358154296875,-1.027130126953125,-0.1005706787109375,0.0315093994140625
1772641382472403200,5.0334033203125,-1.038360595703125,-0.1002655029296875,0.0266571044921875
1772641382482449400,5.043449462890625,-1.0558624267578125,-0.1029510498046875,0.02215576171875
1772641382492494300,5.053494384765625,-1.0608367919921875,-0.1201171875,0.0260467529296875
1772641382502539500,5.06353955078125,-1.056732177734375,-0.139434814453125,0.0305938720703125
1772641382512584200,5.073584228515625,-1.0500946044921875,-0.14263916015625,0.02386474609375
1772641382522629400,5.08362939453125,-1.050262451171875,-0.1386260986328125,0.0149688720703125
1772641382532674300,5.09367431640625,-1.0608673095703125,-0.136505126953125,0.0149993896484375
1772641382542720300,5.10372021484375,-1.0715179443359375,-0.1307373046875,0.0175323486328125
1772641382552765400,5.113765380859375,-1.0846405029296875,-0.1135406494140625,0.0170440673828125
1772641382562810400,5.123810302734375,-1.0939788818359375,-0.0912933349609375,0.0142822265625
1772641382572855300,5.133855224609375,-1.10430908203125,-0.070526123046875,0.0117034912109375
1772641382582900200,5.143900146484375,-1.109039306640625,-0.049896240234375,0.012481689453125
1772641382592946200,5.1539462890625,-1.104736328125,-0.0359039306640625,0.01116943359375
1772641382602991400,5.163991455078125,-1.09765625,-0.0171661376953125,0.00732421875
1772641382613036300,5.174036376953125,-1.0856781005859375,0.0029754638671875,0.00860595703125
1772641382623081200,5.184081298828125,-1.0741119384765625,0.0188751220703125,0.0120697021484375
1772641382633126100,5.194126220703125,-1.07183837890625,0.03045654296875,0.016937255859375
1772641382643172400,5.20417236328125,-1.0758056640625,0.03814697265625,0.0195159912109375
1772641382653217300,5.21421728515625,-1.0716094970703125,0.0410614013671875,0.014312744140625
1772641382663262500,5.224262451171875,-1.056793212890625,0.0372772216796875,0.0030975341796875
1772641382673307400,5.234307373046875,-1.03240966796875,0.0295257568359375,-0.0072021484375
1772641382683352300,5.244352294921875,-1.0012969970703125,0.015533447265625,-0.0137786865234375
1772641382693397200,5.254397216796875,-0.9648895263671875,0.0023651123046875,-0.0171051025390625
1772641382703443200,5.264443115234375,-0.931060791015625,-0.006683349609375,-0.0155792236328125
1772641382713488400,5.27448828125,-0.89697265625,-0.0168609619140625,-0.0071258544921875
1772641382723533300,5.284533203125,-0.8689117431640625,-0.0291290283203125,-0.00225830078125
1772641382733578200,5.294578125,-0.8515777587890625,-0.0352630615234375,0.002227783203125
1772641382743623200,5.304623046875,-0.846466064453125,-0.041229248046875,0.0041351318359375
1772641382753669400,5.31466943359375,-0.842254638671875,-0.0440673828125,0.0101318359375
1772641382763714300,5.32471435546875,-0.850341796875,-0.041259765625,0.016082763671875
1772641382773759500,5.334759521484375,-0.857635498046875,-0.038726806640625,0.0258026123046875
1772641382783804400,5.344804443359375,-0.863037109375,-0.037628173828125,0.0391693115234375
1772641382793849300,5.354849365234375,-0.859405517578125,-0.042205810546875,0.053741455078125
1772641382803894300,5.364894287109375,-0.850555419921875,-0.0458831787109375,0.0640106201171875
1772641382813940200,5.374940185546875,-0.839569091796875,-0.051666259765625,0.0700836181640625
1772641382823986200,5.384986083984375,-0.831207275390625,-0.0566864013671875,0.0692901611328125
1772641382834031000,5.395031005859375,-0.8299713134765625,-0.0602569580078125,0.0674896240234375
1772641382844076000,5.405075927734375,-0.833404541015625,-0.0578155517578125,0.061370849609375
1772641382854121200,5.415121337890625,-0.8467559814453125,-0.0537872314453125,0.052764892578125
1772641382864167200,5.425167236328125,-0.8688201904296875,-0.0504302978515625,0.0452423095703125
1772641382874212400,5.43521240234375,-0.893798828125,-0.0481109619140625,0.0374755859375
1772641382884257000,5.445257080078125,-0.9178009033203125,-0.0485382080078125,0.0284576416015625
1772641382894302200,5.45530224609375,-0.9370574951171875,-0.04705810546875,0.021484375
1772641382904347100,5.46534716796875,-0.95379638671875,-0.0458831787109375,0.011566162109375
1772641382914393000,5.47539306640625,-0.9691009521484375,-0.0487213134765625,0.0007171630859375
1772641382924438300,5.485438232421875,-0.9786529541015625,-0.0504302978515625,-0.0106048583984375
1772641382934483200,5.495483154296875,-0.990509033203125,-0.0573272705078125,-0.0273284912109375
1772641382944528100,5.505528076171875,-1.00408935546875,-0.071807861328125,-0.0410003662109375
1772641382954573000,5.515572998046875,-1.012237548828125,-0.0843658447265625,-0.049835205078125
1772641382964618200,5.5256181640625,-1.016876220703125,-0.09613037109375,-0.056060791015625
1772641382974664200,5.535664306640625,-1.01513671875,-0.1026458740234375,-0.0569610595703125
1772641382984709400,5.54570947265625,-1.0131072998046875,-0.1091156005859375,-0.0552978515625
1772641382994754000,5.555754150390625,-1.0112762451171875,-0.1126861572265625,-0.0509490966796875
1772641383004799200,5.56579931640625,-1.006134033203125,-0.11676025390625,-0.0388336181640625
1772641383014844200,5.57584423828125,-0.995269775390625,-0.11761474609375,-0.0251617431640625
1772641383024890000,5.58589013671875,-0.9788055419921875,-0.1128387451171875,-0.014862060546875
1772641383034935300,5.595935302734375,-0.959747314453125,-0.104156494140625,-0.0072174072265625
1772641383044980200,5.605980224609375,-0.94903564453125,-0.0966033935546875,-0.0018310546875
1772641383055025200,5.616025146484375,-0.947479248046875,-0.0926513671875,0.0045013427734375
1772641383065070000,5.626070068359375,-0.949371337890625,-0.0908050537109375,0.0153656005859375
1772641383075116000,5.636115966796875,-0.954864501953125,-0.089691162109375,0.0281982421875
1772641383085161200,5.6461611328125,-0.954864501953125,-0.0841217041015625,0.037994384765625
1772641383095206100,5.6562060546875,-0.9516143798828125,-0.0762176513671875,0.0435638427734375
1772641383105251000,5.6662509765625,-0.9559326171875,-0.07000732421875,0.047607421875
1772641383115296000,5.6762958984375,-0.9675140380859375,-0.0690460205078125,0.0474090576171875
1772641383125341200,5.686341064453125,-0.9860992431640625,-0.0702972412109375,0.04852294921875
1772641383135387100,5.69638720703125,-1.0070037841796875,-0.0688934326171875,0.04937744140625
1772641383145432300,5.706432373046875,-1.0184326171875,-0.0655517578125,0.0498046875
1772641383155477200,5.716477294921875,-1.0238800048828125,-0.0641937255859375,0.0487823486328125
1772641383165522200,5.726522216796875,-1.026031494140625,-0.0672454833984375,0.0418853759765625
1772641383175567000,5.736567138671875,-1.024505615234375,-0.07513427734375,0.032745361328125
1772641383185613000,5.746613037109375,-1.0216522216796875,-0.0877685546875,0.0268707275390625
1772641383195658200,5.756658203125,-1.017364501953125,-0.1004180908203125,0.0217132568359375
1772641383205703200,5.766703125,-1.0130615234375,-0.1103668212890625,0.020263671875
1772641383215748000,5.776748046875,-1.0107574462890625,-0.119873046875,0.0166015625
1772641383225793000,5.78679296875,-1.007415771484375,-0.1263427734375,0.0148773193359375
1772641383235838200,5.796838134765625,-1.00390625,-0.13134765625,0.01593017578125
1772641383245884200,5.80688427734375,-1.0019378662109375,-0.1321563720703125,0.01910400390625
1772641383255929300,5.816929443359375,-1.003326416015625,-0.1304168701171875,0.0223541259765625
1772641383265974300,5.826974365234375,-1.0016021728515625,-0.126434326171875,0.0261688232421875
1772641383276019200,5.837019287109375,-1.0022125244140625,-0.122039794921875,0.0301971435546875
1772641383286064000,5.847064208984375,-0.998870849609375,-0.114166259765625,0.0316925048828125
1772641383296110000,5.857110107421875,-0.995330810546875,-0.10797119140625,0.032501220703125
1772641383306155300,5.8671552734375,-0.9939727783203125,-0.09716796875,0.0368194580078125
1772641383316200200,5.8772001953125,-0.99786376953125,-0.086578369140625,0.044097900390625
1772641383326245400,5.887245361328125,-1.00616455078125,-0.0773162841796875,0.0507965087890625
1772641383336290000,5.8972900390625,-1.015167236328125,-0.0672607421875,0.0533905029296875
1772641383346335200,5.907335205078125,-1.029144287109375,-0.0601959228515625,0.0559234619140625
1772641383356381200,5.917381103515625,-1.04644775390625,-0.062469482421875,0.0633392333984375
1772641383366426000,5.927426025390625,-1.057525634765625,-0.080047607421875,0.0765228271484375
1772641383376471300,5.93747119140625,-1.060699462890625,-0.105072021484375,0.0828857421875
1772641383386516000,5.947515869140625,-1.053436279296875,-0.122589111328125,0.0741729736328125
1772641383396561200,5.95756103515625,-1.045806884765625,-0.1274566650390625,0.0648956298828125
1772641383406607000,5.967607177734375,-1.046051025390625,-0.134674072265625,0.068115234375
1772641383416652300,5.97765234375,-1.0619964599609375,-0.1419219970703125,0.06463623046875
1772641383426697200,5.987697265625,-1.080047607421875,-0.1192474365234375,0.0278167724609375
1772641383436742400,5.997742431640625,-1.09539794921875,-0.07916259765625,-0.01898193359375
1772641383446787000,6.007787109375,-1.119903564453125,-0.05181884765625,-0.04010009765625
1772641383456833000,6.0178330078125,-1.1415252685546875,-0.032073974609375,-0.0399322509765625
1772641383466878200,6.027878173828125,-1.1429443359375,-0.01275634765625,-0.0279541015625
1772641383476923100,6.037923095703125,-1.130584716796875,0.0097503662109375,-0.0225677490234375
1772641383486968300,6.04796826171875,-1.11669921875,0.0287017822265625,-0.0269012451171875
1772641383497013000,6.058012939453125,-1.10565185546875,0.0420989990234375,-0.04052734375
1772641383507058200,6.06805810546875,-1.0821075439453125,0.0507659912109375,-0.05419921875
1772641383517104000,6.078104248046875,-1.065093994140625,0.0550079345703125,-0.0562286376953125
1772641383527149300,6.0881494140625,-1.069732666015625,0.0373992919921875,-0.0256195068359375
1772641383537194200,6.0981943359375,-1.0401458740234375,0.0470428466796875,0.001373291015625
1772641383547239400,6.108239501953125,-1.0004119873046875,0.0621337890625,0.0243682861328125
1772641383557284000,6.1182841796875,-0.964508056640625,0.0640716552734375,0.04730224609375
1772641383567330000,6.128330078125,-0.9229583740234375,0.065673828125,0.064117431640625
1772641383577375200,6.138375244140625,-0.882720947265625,0.07110595703125,0.0753631591796875
1772641383587420200,6.148420166015625,-0.85284423828125,0.0721588134765625,0.082244873046875
1772641383597465300,6.15846533203125,-0.8343658447265625,0.074798583984375,0.082611083984375
1772641383607510000,6.168510009765625,-0.830230712890625,0.078582763671875,0.0767059326171875
1772641383617555200,6.17855517578125,-0.8366851806640625,0.07574462890625,0.068603515625
1772641383627601200,6.18860107421875,-0.84869384765625,0.0640869140625,0.062713623046875
1772641383637646000,6.19864599609375,-0.85662841796875,0.0490875244140625,0.052215576171875
1772641383647691300,6.208691162109375,-0.864349365234375,0.037445068359375,0.0403289794921875
1772641383657736200,6.218736083984375,-0.8641510009765625,0.030029296875,0.027069091796875
1772641383667781000,6.228781005859375,-0.87286376953125,0.0234375,0.015594482421875
1772641383677827000,6.2388271484375,-0.8908843994140625,0.019744873046875,0.003662109375
1772641383687872300,6.248872314453125,-0.9159088134765625,0.0204925537109375,-0.0051422119140625
1772641383697917200,6.258917236328125,-0.946380615234375,0.024993896484375,-0.0011749267578125
1772641383707962400,6.26896240234375,-0.9753265380859375,0.0295257568359375,0.0050048828125
1772641383718007000,6.279007080078125,-0.9971923828125,0.0343170166015625,0.011260986328125
1772641383728052200,6.28905224609375,-1.0153656005859375,0.041046142578125,0.0117950439453125
1772641383738098200,6.29909814453125,-1.02044677734375,0.0497283935546875,0.007568359375
1772641383748143000,6.30914306640625,-1.023162841796875,0.045806884765625,0.00469970703125
1772641383758188300,6.319188232421875,-1.022979736328125,0.0349884033203125,0.0048675537109375
1772641383768233200,6.329233154296875,-1.0171966552734375,0.0231781005859375,0.0059356689453125
1772641383778278100,6.339278076171875,-1.0142364501953125,0.0087127685546875,0.0077972412109375
1772641383788324000,6.349323974609375,-1.00787353515625,-0.0048828125,0.0052032470703125
1772641383798369300,6.359369384765625,-0.9975738525390625,-0.021759033203125,0.003143310546875
1772641383808414200,6.369414306640625,-0.9842987060546875,-0.039764404296875,0.0038604736328125
1772641383818459400,6.37945947265625,-0.963409423828125,-0.0525665283203125,0.00787353515625
1772641383828503800,6.38950390625,-0.9366455078125,-0.062713623046875,0.010284423828125
1772641383838549800,6.3995498046875,-0.918670654296875,-0.069610595703125,0.0117034912109375
1772641383848595000,6.409594970703125,-0.9080047607421875,-0.074737548828125,0.006134033203125
1772641383858640000,6.419639892578125,-0.9077301025390625,-0.069061279296875,0.0016021728515625
1772641383868685000,6.42968505859375,-0.9124908447265625,-0.061798095703125,0.000152587890625
1772641383878730000,6.43972998046875,-0.91802978515625,-0.05487060546875,0.006927490234375
1772641383888775000,6.44977490234375,-0.9282073974609375,-0.0505523681640625,0.0158233642578125
1772641383898820900,6.45982080078125,-0.93994140625,-0.04937744140625,0.0237579345703125
1772641383908866000,6.469865966796875,-0.9538116455078125,-0.049407958984375,0.0287933349609375
1772641383918911000,6.479910888671875,-0.966400146484375,-0.0445404052734375,0.0248870849609375
1772641383928956000,6.489955810546875,-0.9785919189453125,-0.0380859375,0.02142333984375
1772641383939000800,6.500000732421875,-0.9894561767578125,-0.036468505859375,0.0185699462890625
1772641383949046800,6.510046875,-1.00286865234375,-0.033843994140625,0.011993408203125
1772641383959092000,6.520092041015625,-1.0143890380859375,-0.0321197509765625,0.004730224609375
1772641383969137000,6.530136962890625,-1.01837158203125,-0.031646728515625,0.0041656494140625
1772641383979182000,6.54018212890625,-1.0196990966796875,-0.030517578125,0.0064849853515625
1772641383989227000,6.55022705078125,-1.022735595703125,-0.027008056640625,0.0086669921875
1772641383999272000,6.56027197265625,-1.019775390625,-0.02392578125,0.0106201171875
1772641384009318000,6.57031787109375,-1.02178955078125,-0.0282135009765625,0.01239013671875
1772641384019362800,6.58036279296875,-1.0236358642578125,-0.035858154296875,0.0185699462890625
1772641384029408000,6.590407958984375,-1.020172119140625,-0.045440673828125,0.020538330078125
1772641384039453000,6.600452880859375,-1.0105133056640625,-0.0580291748046875,0.02142333984375
1772641384049497900,6.610497802734375,-1.001251220703125,-0.0693817138671875,0.0241546630859375
1772641384059543800,6.620543701171875,-0.9956207275390625,-0.0763092041015625,0.0255279541015625
1772641384069589000,6.630589111328125,-0.9927215576171875,-0.0834808349609375,0.029571533203125
1772641384079634000,6.640634033203125,-0.9911346435546875,-0.0897064208984375,0.0342559814453125
1772641384089679000,6.65067919921875,-0.9864654541015625,-0.09283447265625,0.0413818359375
1772641384099724000,6.66072412109375,-0.982421875,-0.0932464599609375,0.0475311279296875
1772641384109769000,6.67076904296875,-0.9804840087890625,-0.0899810791015625,0.0507965087890625
1772641384119815000,6.68081494140625,-0.9839935302734375,-0.084930419921875,0.0530853271484375
1772641384129859800,6.69085986328125,-0.9930572509765625,-0.0797882080078125,0.057098388671875
1772641384139905000,6.700905029296875,-1.0034027099609375,-0.0747528076171875,0.0609130859375
1772641384149950000,6.710949951171875,-1.015838623046875,-0.062652587890625,0.064666748046875
1772641384159995000,6.720994873046875,-1.02972412109375,-0.0474853515625,0.0662078857421875
1772641384170040800,6.731040771484375,-1.04150390625,-0.039306640625,0.0699005126953125
1772641384180086000,6.7410859375,-1.0519256591796875,-0.0377044677734375,0.072967529296875
1772641384190131000,6.751130859375,-1.0604705810546875,-0.0432281494140625,0.0781097412109375
1772641384200176000,6.761176025390625,-1.060791015625,-0.0491943359375,0.0807342529296875
1772641384210221000,6.771220947265625,-1.05718994140625,-0.057098388671875,0.0790863037109375
1772641384220266000,6.781265869140625,-1.0531768798828125,-0.062225341796875,0.0742645263671875
1772641384230312000,6.79131201171875,-1.059051513671875,-0.063568115234375,0.0601348876953125
1772641384240356900,6.80135693359375,-1.06658935546875,-0.0680999755859375,0.05218505859375
1772641384250402000,6.811402099609375,-1.0681304931640625,-0.0738525390625,0.0533905029296875
1772641384260447000,6.821447021484375,-1.065338134765625,-0.0731048583984375,0.0511016845703125
1772641384270492000,6.831491943359375,-1.06488037109375,-0.061248779296875,0.0421905517578125
1772641384280537900,6.841537841796875,-1.076568603515625,-0.0453948974609375,0.0359954833984375
1772641384290582800,6.851582763671875,-1.085662841796875,-0.036590576171875,0.0365447998046875
1772641384300628000,6.8616279296875,-1.087921142578125,-0.02862548828125,0.0420379638671875
1772641384310673000,6.8716728515625,-1.0948944091796875,-0.013580322265625,0.0490875244140625
1772641384320718000,6.881718017578125,-1.085235595703125,-0.0052642822265625,0.0485992431640625
1772641384330764000,6.891763916015625,-1.0963592529296875,0.004119873046875,0.0593109130859375
1772641384340809000,6.90180908203125,-1.086700439453125,0.021331787109375,0.0662078857421875
1772641384350854000,6.91185400390625,-1.072967529296875,0.02972412109375,0.0739898681640625
1772641384360899000,6.921899169921875,-1.070770263671875,0.0388336181640625,0.0778961181640625
1772641384370944000,6.931944091796875,-1.0570526123046875,0.0475616455078125,0.0706329345703125
1772641384380989000,6.941989013671875,-1.058441162109375,0.0488128662109375,0.06500244140625
1772641384391035000,6.952034912109375,-1.051239013671875,0.043792724609375,0.054443359375
1772641384401079800,6.962079833984375,-1.0418853759765625,0.0348052978515625,0.046295166015625
1772641384411125000,6.972125,-1.028533935546875,0.03192138671875,0.033966064453125
1772641384421170000,6.982169921875,-1.0143280029296875,0.027923583984375,0.021759033203125
1772641384431215000,6.992215087890625,-1.0040435791015625,0.0203399658203125,0.01605224609375
1772641384441261000,7.002260986328125,-0.98809814453125,0.0072784423828125,0.0173492431640625
1772641384451306000,7.012305908203125,-0.9679107666015625,-0.0049896240234375,0.023651123046875
1772641384461351000,7.022350830078125,-0.936492919921875,-0.0130157470703125,0.0352935791015625
1772641384471396000,7.03239599609375,-0.901275634765625,-0.020660400390625,0.0522918701171875
1772641384481441000,7.04244091796875,-0.8704986572265625,-0.02703857421875,0.0694580078125
1772641384491486000,7.05248583984375,-0.8502349853515625,-0.033599853515625,0.084014892578125
1772641384501532000,7.062531982421875,-0.8329010009765625,-0.0330352783203125,0.0909271240234375
1772641384511576800,7.072576904296875,-0.8174896240234375,-0.0316314697265625,0.0984039306640625
1772641384521622000,7.0826220703125,-0.80828857421875,-0.033355712890625,0.1064910888671875
1772641384531667000,7.0926669921875,-0.8050079345703125,-0.0339813232421875,0.1163787841796875
1772641384541712100,7.102712158203125,-0.8154296875,-0.035919189453125,0.12481689453125
1772641384551758000,7.112758056640625,-0.82647705078125,-0.0348052978515625,0.1267547607421875
1772641384561802800,7.122802734375,-0.8333282470703125,-0.0364227294921875,0.1318206787109375
1772641384571848000,7.132847900390625,-0.850555419921875,-0.03753662109375,0.13848876953125
1772641384581892900,7.142892822265625,-0.866729736328125,-0.0299530029296875,0.141937255859375
1772641384591938000,7.15293798828125,-0.87603759765625,-0.021942138671875,0.146636962890625
1772641384601982700,7.162982666015625,-0.898712158203125,-0.01861572265625,0.1468658447265625
1772641384612029000,7.17302880859375,-0.9181060791015625,-0.0100860595703125,0.1428985595703125
1772641384622073900,7.183073974609375,-0.9311065673828125,0.00201416015625,0.142303466796875
1772641384632119000,7.193119140625,-0.952239990234375,0.012725830078125,0.1373443603515625
1772641384642164000,7.2031640625,-0.976959228515625,0.02105712890625,0.133453369140625
1772641384652209200,7.213209228515625,-1.0013580322265625,0.0277557373046875,0.1275787353515625
1772641384662255000,7.223255126953125,-1.028167724609375,0.0294036865234375,0.1198272705078125
1772641384672299800,7.2332998046875,-1.054046630859375,0.0300140380859375,0.10986328125
1772641384682345000,7.243344970703125,-1.071929931640625,0.0270233154296875,0.1026611328125
1772641384692390000,7.253389892578125,-1.0852508544921875,0.02044677734375,0.0966949462890625
1772641384702435000,7.26343505859375,-1.085968017578125,0.014068603515625,0.082672119140625
1772641384712479700,7.273479736328125,-1.0802001953125,0.003814697265625,0.0690155029296875
1772641384722526000,7.28352587890625,-1.0764007568359375,-0.0153045654296875,0.0591888427734375
1772641384732571000,7.29357080078125,-1.06207275390625,-0.037811279296875,0.0548095703125
1772641384742616000,7.303615966796875,-1.0384674072265625,-0.0545501708984375,0.052032470703125
1772641384752661000,7.313660888671875,-1.007904052734375,-0.0619964599609375,0.046173095703125
1772641384762706000,7.323705810546875,-0.9823760986328125,-0.06719970703125,0.0406951904296875
1772641384772752100,7.333752197265625,-0.9690399169921875,-0.07269287109375,0.04132080078125
1772641384782796800,7.343796875,-0.961090087890625,-0.0754852294921875,0.04888916015625
1772641384792842000,7.353842041015625,-0.950042724609375,-0.0767059326171875,0.0616607666015625
1772641384802887000,7.363886962890625,-0.9455718994140625,-0.0809173583984375,0.0750274658203125
1772641384812932000,7.37393212890625,-0.949981689453125,-0.0839996337890625,0.0814056396484375
1772641384822976800,7.383976806640625,-0.947265625,-0.0851593017578125,0.08099365234375
1772641384833022500,7.3940224609375,-0.936370849609375,-0.0877532958984375,0.0812835693359375
1772641384843067400,7.4040673828125,-0.9212493896484375,-0.0903472900390625,0.09161376953125
1772641384853112300,7.4141123046875,-0.89398193359375,-0.08026123046875,0.0916900634765625
1772641384863157200,7.4241572265625,-0.8796539306640625,-0.081298828125,0.0997772216796875
1772641384873202400,7.434202392578125,-0.88031005859375,-0.083282470703125,0.104217529296875
1772641384883248400,7.444248291015625,-0.9051513671875,-0.0841064453125,0.10675048828125
1772641384893293300,7.454293212890625,-0.9247894287109375,-0.09124755859375,0.1097869873046875
1772641384903338500,7.46433837890625,-0.9450531005859375,-0.0987548828125,0.1169281005859375
1772641384913383200,7.474383056640625,-0.955474853515625,-0.0973968505859375,0.11102294921875
1772641384923428400,7.484428466796875,-0.9508819580078125,-0.095794677734375,0.0959930419921875
1772641384933473300,7.494473388671875,-0.955902099609375,-0.103759765625,0.0858306884765625
1772641384943519200,7.504519287109375,-0.9611968994140625,-0.1168212890625,0.0747222900390625
1772641384953564400,7.514564453125,-0.9734954833984375,-0.1221923828125,0.0663299560546875
1772641384963609300,7.524609375,-0.9853057861328125,-0.1248779296875,0.0598297119140625
1772641384973654300,7.534654296875,-0.99603271484375,-0.12786865234375,0.0563201904296875
1772641384983699200,7.54469921875,-1.008575439453125,-0.128448486328125,0.063751220703125
1772641384993745400,7.554745361328125,-1.0140380859375,-0.1280517578125,0.0718231201171875
1772641385003790300,7.564790283203125,-1.010955810546875,-0.124755859375,0.07672119140625
1772641385013835500,7.57483544921875,-1.0138092041015625,-0.12225341796875,0.0813140869140625
1772641385023880200,7.584880126953125,-1.009063720703125,-0.1148681640625,0.0871429443359375
1772641385033925400,7.59492529296875,-1.0096282958984375,-0.1069488525390625,0.0932464599609375
1772641385043970300,7.60497021484375,-1.0100860595703125,-0.103179931640625,0.0948486328125
1772641385054016300,7.615016357421875,-1.02020263671875,-0.103057861328125,0.0972137451171875
1772641385064061400,7.6250615234375,-1.0303497314453125,-0.1022491455078125,0.0988006591796875
1772641385074106000,7.635106201171875,-1.0243988037109375,-0.0918121337890625,0.0999298095703125
1772641385084151300,7.6451513671875,-1.0263671875,-0.0808258056640625,0.1054534912109375
1772641385094196200,7.6551962890625,-1.0245361328125,-0.0719146728515625,0.1109619140625
1772641385104242400,7.665242431640625,-1.0321197509765625,-0.0681304931640625,0.119049072265625
1772641385114287400,7.675287353515625,-1.0452423095703125,-0.0628204345703125,0.11993408203125
1772641385124332500,7.68533251953125,-1.0607147216796875,-0.062347412109375,0.119720458984375
1772641385134377200,7.695377197265625,-1.088714599609375,-0.07293701171875,0.12689208984375
1772641385144422400,7.70542236328125,-1.097442626953125,-0.0883331298828125,0.1332550048828125
1772641385154467300,7.71546728515625,-1.0824127197265625,-0.100433349609375,0.1402130126953125
1772641385164513300,7.72551318359375,-1.0557861328125,-0.112457275390625,0.147003173828125
1772641385174558500,7.735558349609375,-1.0485687255859375,-0.1269683837890625,0.146240234375
1772641385184603100,7.74560302734375,-1.0507354736328125,-0.140533447265625,0.1265869140625
1772641385194648300,7.7556484375,-1.0623626708984375,-0.1492156982421875,0.0880126953125
1772641385204693200,7.765693359375,-1.0715484619140625,-0.1368560791015625,0.0344085693359375
1772641385214739200,7.7757392578125,-1.08258056640625,-0.115997314453125,-0.00341796875
1772641385224784400,7.785784423828125,-1.104888916015625,-0.0978546142578125,-0.0106964111328125
1772641385234829300,7.795829345703125,-1.122283935546875,-0.0778045654296875,0.0059661865234375
1772641385244874200,7.805874267578125,-1.1334075927734375,-0.0565338134765625,0.0387420654296875
1772641385254919200,7.815919189453125,-1.1341094970703125,-0.0277252197265625,0.067596435546875
1772641385264964400,7.82596435546875,-1.124298095703125,-0.000579833984375,0.0893096923828125
1772641385275010300,7.83601025390625,-1.1025848388671875,0.016143798828125,0.1098785400390625
1772641385285055500,7.846055419921875,-1.0817718505859375,0.015228271484375,0.1239776611328125
1772641385295100200,7.85610009765625,-1.060028076171875,0.0111236572265625,0.129730224609375
1772641385305145300,7.866145263671875,-1.0351409912109375,0.009490966796875,0.1276702880859375
1772641385315190300,7.876190185546875,-1.011199951171875,0.00665283203125,0.1233673095703125
1772641385325236200,7.886236328125,-0.983489990234375,0.003753662109375,0.1234130859375
1772641385335281400,7.896281494140625,-0.9562530517578125,0.00054931640625,0.12274169921875
1772641385345326300,7.906326416015625,-0.933135986328125,-0.0020751953125,0.1239013671875
1772641385355371300,7.916371337890625,-0.9165496826171875,-0.00274658203125,0.1222686767578125
1772641385365416200,7.926416259765625,-0.9033355712890625,-0.003082275390625,0.1151885986328125
1772641385375461400,7.93646142578125,-0.8831939697265625,-0.00384521484375,0.108062744140625
1772641385385507300,7.94650732421875,-0.8498382568359375,-0.0083770751953125,0.1066741943359375
1772641385395552500,7.956552490234375,-0.821319580078125,-0.021240234375,0.1070098876953125
1772641385405597200,7.96659716796875,-0.8112945556640625,-0.0372772216796875,0.1069488525390625
1772641385415642400,7.976642333984375,-0.8156585693359375,-0.04852294921875,0.104156494140625
1772641385425687300,7.986687255859375,-0.819427490234375,-0.0582275390625,0.0985565185546875
1772641385435733200,7.996733154296875,-0.810821533203125,-0.069122314453125,0.10052490234375
1772641385445778400,8.0067783203125,-0.794891357421875,-0.08685302734375,0.10662841796875
1772641385455823400,8.0168232421875,-0.806793212890625,-0.08953857421875,0.10198974609375
1772641385465868300,8.026868408203125,-0.8508453369140625,-0.0857391357421875,0.0849151611328125
1772641385475913200,8.036913330078125,-0.8880462646484375,-0.0821075439453125,0.0644378662109375
1772641385485958400,8.04695849609375,-0.9117889404296875,-0.0813140869140625,0.0553131103515625
1772641385496004400,8.05700439453125,-0.9417877197265625,-0.07562255859375,0.0535125732421875
1772641385506049300,8.06704931640625,-0.9672698974609375,-0.06402587890625,0.0504608154296875
1772641385516094200,8.07709423828125,-0.9805145263671875,-0.052154541015625,0.0455474853515625
1772641385526139100,8.08713916015625,-0.9840545654296875,-0.044342041015625,0.0414581298828125
1772641385536184300,8.097184326171876,-0.99383544921875,-0.0406951904296875,0.04443359375
