time,seconds_elapsed,z,y,x
1772641377489988000,0.050988037109375,-0.05457855761051178,-0.280714213848114,0.06504744291305542
1772641377500033000,0.061032958984375,-0.060990117490291595,-0.31616461277008057,0.08528853207826614
1772641377510078200,0.071078125,-0.05802122503519058,-0.3674669563770294,0.10166484117507935
1772641377520124200,0.081124267578125,-0.05590907111763954,-0.41785770654678345,0.11972826719284058
1772641377530169300,0.09116943359375,-0.05205601081252098,-0.44336119294166565,0.13292795419692993
1772641377540214300,0.10121435546875,-0.04608440399169922,-0.4394697844982147,0.14671513438224792
1772641377550259200,0.11125927734375,-0.035829637199640274,-0.40319111943244934,0.15226277709007263
1772641377560304000,0.12130419921875,-0.01852521486580372,-0.34187185764312744,0.14610980451107025
1772641377570350000,0.13135009765625,0.004299940075725317,-0.2691105604171753,0.1222984790802002
1772641377580395300,0.141395263671875,0.029629530385136604,-0.21044112741947174,0.0802445039153099
1772641377590440200,0.151440185546875,0.05210687592625618,-0.15024755895137787,0.024562601000070572
1772641377600485000,0.161485107421875,0.06968747079372406,-0.06675346195697784,-0.03572417423129082
1772641377610530000,0.171530029296875,0.0847415179014206,0.027591414749622345,-0.09399972856044769
1772641377620576300,0.181576171875,0.09773854166269302,0.11549090594053268,-0.15248221158981323
1772641377630621200,0.19162109375,0.11094329506158829,0.1818520873785019,-0.19563953578472137
1772641377640666400,0.201666259765625,0.12427614629268646,0.2122395634651184,-0.22618013620376587
1772641377650711300,0.211711181640625,0.13152793049812317,0.21219401061534882,-0.2351595163345337
1772641377660756200,0.221756103515625,0.1335410177707672,0.18591155111789703,-0.22904330492019653
1772641377670802200,0.23180224609375,0.1313239336013794,0.14859560132026672,-0.20319439470767975
1772641377680847000,0.24184716796875,0.12445883452892303,0.11486320197582245,-0.17168280482292175
1772641377690892300,0.251892333984375,0.11690770834684372,0.08607815951108932,-0.13442544639110565
1772641377700937200,0.261937255859375,0.10772086679935455,0.06638860702514648,-0.10002832859754562
1772641377710982100,0.271982177734375,0.1024978756904602,0.05321235582232475,-0.07751849293708801
1772641377721028000,0.282028076171875,0.09829913824796677,0.04663408175110817,-0.06757637858390808
1772641377731073000,0.292072998046875,0.0964498370885849,0.05838581174612045,-0.06693189591169357
1772641377741118200,0.3021181640625,0.09415099769830704,0.08503739535808563,-0.07398394495248795
1772641377751163100,0.3121630859375,0.09590202569961548,0.10829851031303406,-0.0900353491306305
1772641377761208300,0.322208251953125,0.10241398960351944,0.1397123634815216,-0.10722525417804718
1772641377771253000,0.3322529296875,0.11018536239862442,0.16496045887470245,-0.12938062846660614
1772641377781299200,0.34229931640625,0.11767896264791489,0.17744243144989014,-0.14804992079734802
1772641377791344000,0.35234423828125,0.12631665170192719,0.19063732028007507,-0.16357961297035217
1772641377801389300,0.362389404296875,0.13204325735569,0.2075076550245285,-0.16759033501148224
1772641377811434200,0.372434326171875,0.13205204904079437,0.21420763432979584,-0.15671131014823914
1772641377821480400,0.38248046875,0.12699443101882935,0.19994480907917023,-0.13605263829231262
1772641377831525400,0.392525390625,0.11963878571987152,0.166245698928833,-0.10773392021656036
1772641377841570300,0.4025703125,0.10628090053796768,0.11073796451091766,-0.08057127147912979
1772641377851615500,0.412615478515625,0.08147302269935608,0.05584409087896347,-0.05470532178878784
1772641377861660400,0.422660400390625,0.056825198233127594,0.01074132788926363,-0.033910561352968216
1772641377871705600,0.43270556640625,0.03172144293785095,-0.039320241659879684,-0.022723687812685966
1772641377881751600,0.44275146484375,0.01284522470086813,-0.08890217542648315,-0.019992882385849953
1772641377891796200,0.452796142578125,-0.0015222628135234118,-0.11921986937522888,-0.02027331292629242
1772641377901841400,0.46284130859375,-0.012840431183576584,-0.15728150308132172,-0.028232702985405922
1772641377911886300,0.47288623046875,-0.018027469515800476,-0.19613675773143768,-0.043599408119916916
1772641377921931500,0.482931640625,-0.01635580323636532,-0.23025476932525635,-0.06216856464743614
1772641377931977500,0.4929775390625,-0.009462477639317513,-0.24223287403583527,-0.08589386940002441
1772641377942022400,0.5030224609375,-0.001204547705128789,-0.23089739680290222,-0.10564493387937546
1772641377952067300,0.5130673828125,0.0024588967207819223,-0.1985040307044983,-0.12851643562316895
1772641377962112500,0.523112548828125,0.005510080140084028,-0.15772917866706848,-0.15370434522628784
1772641377972158500,0.533158447265625,0.008310128003358841,-0.13343289494514465,-0.1870492547750473
1772641377982203400,0.543203369140625,0.014405304566025734,-0.12275015562772751,-0.22072891891002655
1772641377992248600,0.55324853515625,0.039326101541519165,-0.138639897108078,-0.23384632170200348
1772641378002293200,0.563293212890625,0.08744942396879196,-0.1732008159160614,-0.21591737866401672
1772641378012338400,0.57333837890625,0.13794055581092834,-0.22718548774719238,-0.17729276418685913
1772641378022383400,0.58338330078125,0.1760522574186325,-0.2638614773750305,-0.12245400995016098
1772641378032429600,0.5934296875,0.19353032112121582,-0.2756587564945221,-0.050878360867500305
1772641378042474500,0.603474609375,0.18497730791568756,-0.26362311840057373,0.02593785710632801
1772641378052519400,0.61351953125,0.15365055203437805,-0.2643003463745117,0.08978607505559921
1772641378062564400,0.623564453125,0.10048506408929825,-0.2898182272911072,0.12946665287017822
1772641378072609500,0.633609619140625,0.038364432752132416,-0.32316872477531433,0.15507453680038452
1772641378082655500,0.643655517578125,-0.032108135521411896,-0.35734695196151733,0.1548154056072235
1772641378092700400,0.653700439453125,-0.09925414621829987,-0.385954350233078,0.13799116015434265
1772641378102745600,0.66374560546875,-0.1530529260635376,-0.3944871127605438,0.11019734293222427
1772641378112790300,0.673790283203125,-0.1940067559480667,-0.39203861355781555,0.07776004076004028
1772641378122835500,0.68383544921875,-0.20897185802459717,-0.37249499559402466,0.04409555718302727
1772641378132881400,0.69388134765625,-0.20326869189739227,-0.34380343556404114,0.006792924832552671
1772641378142926300,0.70392626953125,-0.18766070902347565,-0.3220968246459961,-0.04296158254146576
1772641378152971500,0.713971435546875,-0.16065385937690735,-0.3015827536582947,-0.09255789965391159
1772641378163016400,0.724016357421875,-0.13428562879562378,-0.2685750126838684,-0.13997361063957214
1772641378173061400,0.734061279296875,-0.11036698520183563,-0.214754119515419,-0.18395838141441345
1772641378183107300,0.744107421875,-0.08750854432582855,-0.14915485680103302,-0.21458128094673157
1772641378193152500,0.754152587890625,-0.06946642696857452,-0.07831211388111115,-0.23233896493911743
1772641378203197400,0.764197509765625,-0.04567241296172142,-0.005958023946732283,-0.23007234930992126
1772641378213242600,0.77424267578125,-0.011492605321109295,0.04800241440534592,-0.22344374656677246
1772641378223287300,0.784287353515625,0.027643345296382904,0.07028934359550476,-0.2173600196838379
1772641378233333200,0.794333251953125,0.07082170993089676,0.08265653252601624,-0.20430733263492584
1772641378243378400,0.80437841796875,0.11535561829805374,0.09044281393289566,-0.18157325685024261
1772641378253423400,0.81442333984375,0.14366395771503448,0.07612113654613495,-0.16658125817775726
1772641378263468500,0.824468505859375,0.16351835429668427,0.05314444378018379,-0.14588423073291779
1772641378273513500,0.834513427734375,0.17565330862998962,0.04506920650601387,-0.1209288164973259
1772641378283559400,0.844559326171875,0.1862950474023819,0.05538389831781387,-0.09620855748653412
1772641378293604400,0.854604248046875,0.19856715202331543,0.08094678074121475,-0.06558753550052643
1772641378303649500,0.8646494140625,0.2134169340133667,0.10422813147306442,-0.03561605140566826
1772641378313694500,0.874694580078125,0.22525203227996826,0.10016388446092606,-0.013609019108116627
1772641378323739600,0.88473974609375,0.22982867062091827,0.0853617712855339,0.0028794098179787397
1772641378333785600,0.89478564453125,0.225459486246109,0.066414974629879,0.017433585599064827
1772641378343830300,0.904830322265625,0.21168695390224457,0.026582607999444008,0.024659806862473488
1772641378353875500,0.91487548828125,0.17834417521953583,-0.04249073565006256,0.019283415749669075
1772641378363920400,0.92492041015625,0.12355762720108032,-0.12406814843416214,0.010685134679079056
1772641378373965600,0.934965576171875,0.06274567544460297,-0.18857896327972412,0.00618306128308177
1772641378384011500,0.945011474609375,0.013291303999722004,-0.24913179874420166,-0.004948685877025127
1772641378394056400,0.955056396484375,-0.006626743823289871,-0.2611658275127411,-0.02436259761452675
1772641378404101400,0.965101318359375,0.003941744565963745,-0.21558421850204468,-0.06962248682975769
1772641378414146300,0.975146240234375,0.045885466039180756,-0.1456112563610077,-0.14665016531944275
1772641378424191500,0.98519140625,0.10989055037498474,-0.05080299451947212,-0.24950143694877625
1772641378434236400,0.995236328125,0.1922064572572708,0.06191476806998253,-0.3562784790992737
1772641378444282600,1.00528271484375,0.2732214033603668,0.14143648743629456,-0.4553701877593994
1772641378454327300,1.015327392578125,0.3393112123012543,0.17120078206062317,-0.5285317301750183
1772641378464372500,1.02537255859375,0.38573330640792847,0.16350583732128143,-0.5661633014678955
1772641378474417400,1.03541748046875,0.40346622467041016,0.14694178104400635,-0.5556395053863525
1772641378484462600,1.045462646484375,0.39187055826187134,0.14998923242092133,-0.5065300464630127
1772641378494508500,1.055508544921875,0.35234418511390686,0.17625093460083008,-0.4277545213699341
1772641378504553500,1.065553466796875,0.2931607663631439,0.2040569931268692,-0.3283725678920746
1772641378514598400,1.075598388671875,0.2146393358707428,0.2250075489282608,-0.2465924769639969
1772641378524643300,1.085643310546875,0.15065714716911316,0.23234668374061584,-0.11415959149599075
1772641378534688500,1.0956884765625,0.07779306173324585,0.23026037216186523,0.025798041373491287
1772641378544734500,1.105734375,-0.00893996562808752,0.19050496816635132,0.16185574233531952
1772641378554779600,1.115779541015625,-0.09933537244796753,0.11570023000240326,0.2903657853603363
1772641378564824300,1.12582421875,-0.1956443339586258,0.03634895384311676,0.40534085035324097
1772641378574869500,1.135869384765625,-0.28841421008110046,-0.031326230615377426,0.4934592545032501
1772641378584914400,1.14591455078125,-0.3729988634586334,-0.06883685290813446,0.5471435189247131
1772641378594960400,1.15596044921875,-0.43720927834510803,-0.08023651689291,0.5679814219474792
1772641378605005600,1.166005615234375,-0.47242987155914307,-0.07469288259744644,0.557770311832428
1772641378615050500,1.176050537109375,-0.4856244921684265,-0.06944379210472107,0.5252270102500916
1772641378625095400,1.186095458984375,-0.4830649197101593,-0.05235481634736061,0.4689147472381592
1772641378635140400,1.196140380859375,-0.4794566035270691,-0.005483182147145271,0.398282915353775
1772641378645186300,1.206186279296875,-0.47157230973243713,0.05263684689998627,0.31123483180999756
1772641378655231500,1.2162314453125,-0.46505555510520935,0.10482282191514969,0.2097577601671219
1772641378665276400,1.2262763671875,-0.4548173248767853,0.14329484105110168,0.09537019580602646
1772641378675321300,1.2363212890625,-0.4343269467353821,0.16706222295761108,-0.017883924767374992
1772641378685366300,1.2463662109375,-0.39989545941352844,0.19313323497772217,-0.12962430715560913
1772641378695412500,1.25641259765625,-0.3575490713119507,0.2237529307603836,-0.23203057050704956
1772641378705457400,1.26645751953125,-0.3150074779987335,0.24611656367778778,-0.32013246417045593
1772641378715502600,1.276502685546875,-0.27608856558799744,0.26944586634635925,-0.37803277373313904
1772641378725547500,1.286547607421875,-0.24198147654533386,0.29026350378990173,-0.4015578031539917
1772641378735592400,1.296592529296875,-0.2133713960647583,0.2936534583568573,-0.40289926528930664
1772641378745638400,1.306638427734375,-0.18560820817947388,0.2785149812698364,-0.3907957077026367
1772641378755683300,1.316683349609375,-0.1593310683965683,0.25268125534057617,-0.36907151341438293
1772641378765728500,1.326728515625,-0.14143195748329163,0.2236139178276062,-0.3383447527885437
1772641378775773400,1.3367734375,-0.13406673073768616,0.19228075444698334,-0.3057689666748047
1772641378785818400,1.346818359375,-0.13772644102573395,0.1614176481962204,-0.27535808086395264
1772641378795864300,1.3568642578125,-0.14503441751003265,0.12563754618167877,-0.25083115696907043
1772641378805909500,1.366909423828125,-0.15780268609523773,0.09122525155544281,-0.22768323123455048
1772641378815954400,1.376954345703125,-0.17103485763072968,0.06836387515068054,-0.20037303864955902
1772641378825999600,1.38699951171875,-0.18507611751556396,0.06054217368364334,-0.16794373095035553
1772641378836044800,1.397044921875,-0.1965615302324295,0.05469387024641037,-0.13957281410694122
1772641378846089700,1.40708984375,-0.2075691670179367,0.039733029901981354,-0.11524776369333267
1772641378856136000,1.417135986328125,-0.20839394629001617,0.017962222918868065,-0.10458926111459732
1772641378866180900,1.427180908203125,-0.2048783153295517,-0.009266202338039875,-0.10397700220346451
1772641378876225800,1.437225830078125,-0.19185172021389008,-0.04721784591674805,-0.11446718871593475
1772641378886270700,1.447270751953125,-0.17361173033714294,-0.06833191961050034,-0.13784228265285492
1772641378896316000,1.45731591796875,-0.15116581320762634,-0.06282103806734085,-0.16229170560836792
1772641378906361900,1.46736181640625,-0.11968139559030533,-0.030426882207393646,-0.1939135491847992
1772641378916406800,1.47740673828125,-0.08423205465078354,0.014972291886806488,-0.22324161231517792
1772641378926452000,1.487451904296875,-0.048778459429740906,0.05909208208322525,-0.2511765658855438
1772641378936496600,1.49749658203125,-0.010281133465468884,0.10192103683948517,-0.271036297082901
1772641378946541800,1.507541748046875,0.02997174672782421,0.13060487806797028,-0.2812636196613312
1772641378956587800,1.517587890625,0.07028800994157791,0.13652029633522034,-0.2813113033771515
1772641378966633000,1.527633056640625,0.10562895983457565,0.12298930436372757,-0.2687361240386963
1772641378976678000,1.537677978515625,0.127900168299675,0.0948127955198288,-0.25076165795326233
1772641378986722800,1.547722900390625,0.14329591393470764,0.05633224919438362,-0.22237475216388702
1772641378996767700,1.557767822265625,0.15647003054618835,0.02448457106947899,-0.18703220784664154
1772641379006813700,1.567813720703125,0.1658848375082016,-0.00205276464112103,-0.1424199938774109
1772641379016859000,1.57785888671875,0.17519710958003998,-0.017946243286132812,-0.09738221019506454
1772641379026903800,1.58790380859375,0.18933743238449097,-0.01792227476835251,-0.05049886181950569
1772641379036949000,1.597948974609375,0.2059110850095749,-0.014827948063611984,-0.009975136257708073
1772641379046993700,1.60799365234375,0.22154197096824646,-0.003008306724950671,0.027283020317554474
1772641379057039600,1.61803955078125,0.23342446982860565,0.019955331459641457,0.06241677328944206
1772641379067084800,1.628084716796875,0.23458880186080933,0.04526122286915779,0.09962645918130875
1772641379077129700,1.638129638671875,0.23382873833179474,0.054735150188207626,0.1403062492609024
1772641379087175000,1.6481748046875,0.22956421971321106,0.05387255176901817,0.1771036684513092
1772641379097219600,1.658219482421875,0.22452791035175323,0.0419895276427269,0.212066188454628
1772641379107264800,1.6682646484375,0.21982184052467346,0.0336541011929512,0.23437096178531647
1772641379117310700,1.678310791015625,0.21762819588184357,0.03404265642166138,0.2496708184480667
1772641379127356000,1.68835595703125,0.21470537781715393,0.05403180792927742,0.2513352930545807
1772641379137400800,1.69840087890625,0.21220600605010986,0.07313919067382812,0.2462068498134613
1772641379147446000,1.708446044921875,0.21440869569778442,0.08987955749034882,0.2374652773141861
1772641379157490700,1.71849072265625,0.2225329428911209,0.10921836644411087,0.22661450505256653
1772641379167536600,1.72853662109375,0.23641040921211243,0.12380050122737885,0.21808865666389465
1772641379177581800,1.738581787109375,0.2503563165664673,0.1505487561225891,0.20452570915222168
1772641379187626800,1.748626708984375,0.27021950483322144,0.2028215527534485,0.20540376007556915
1772641379197672000,1.758671875,0.270515114068985,0.2689547538757324,0.2015155404806137
1772641379207716600,1.768716552734375,0.23589988052845,0.3176940679550171,0.18719252943992615
1772641379217762800,1.7787626953125,0.1673184186220169,0.33230870962142944,0.17110410332679749
1772641379227807700,1.788807861328125,0.09410466253757477,0.28560006618499756,0.17590418457984924
1772641379237853000,1.79885302734375,0.032942235469818115,0.17201970517635345,0.22265811264514923
1772641379247897900,1.80889794921875,-0.015109177678823471,0.051656801253557205,0.3056408762931824
1772641379257943000,1.818943115234375,-0.07192292809486389,-0.017537182196974754,0.35555729269981384
1772641379267989000,1.828989013671875,-0.07102970033884048,-0.04839150235056877,0.47491058707237244
1772641379278033700,1.83903369140625,-0.06787119060754776,-0.054601460695266724,0.5571956038475037
1772641379288078800,1.849078857421875,-0.07164888828992844,-0.03814445436000824,0.5670442581176758
1772641379298123800,1.859123779296875,-0.06543652713298798,0.006139385048300028,0.5241125226020813
1772641379308169000,1.8691689453125,-0.04519384354352951,0.06285938620567322,0.4203283190727234
1772641379318215000,1.87921484375,-0.02323022112250328,0.13587874174118042,0.26887887716293335
1772641379328259600,1.889259521484375,0.0059937103651463985,0.21405929327011108,0.10155592113733292
1772641379338304800,1.8993046875,0.03268178179860115,0.2894352674484253,-0.05013800039887428
1772641379348349700,1.909349609375,0.05933443084359169,0.34791135787963867,-0.1547725349664688
1772641379358395000,1.919394775390625,0.07414986193180084,0.38324859738349915,-0.1984422504901886
1772641379368440800,1.92944091796875,0.09025505930185318,0.3836515247821808,-0.17481522262096405
1772641379378486000,1.939486083984375,0.10458126664161682,0.36325037479400635,-0.10225313156843185
1772641379388530700,1.94953076171875,0.10986152291297913,0.32572856545448303,0.0030027141328901052
1772641379398575900,1.959575927734375,0.10546091198921204,0.2643807828426361,0.11177260428667068
1772641379408620800,1.969620849609375,0.08877700567245483,0.17856761813163757,0.20719845592975616
1772641379418666000,1.979666015625,0.058327753096818924,0.08119072765111923,0.29253679513931274
1772641379428712000,1.9897119140625,0.00971734244376421,0.011523764580488205,0.34576326608657837
1772641379438756600,1.999756591796875,-0.04326917603611946,-0.036732714623212814,0.3810780942440033
1772641379448801800,2.0098017578125,-0.08619879931211472,-0.08989979326725006,0.39377206563949585
1772641379458846700,2.0198466796875,-0.12482555210590363,-0.13930650055408478,0.39049211144447327
1772641379468893000,2.029892822265625,-0.15089097619056702,-0.1878785640001297,0.3758543133735657
1772641379478937900,2.039937744140625,-0.16447202861309052,-0.22071880102157593,0.35958054661750793
1772641379488983000,2.049983154296875,-0.16020432114601135,-0.2493554949760437,0.33211323618888855
1772641379499027700,2.06002783203125,-0.13732829689979553,-0.27767395973205566,0.2859230935573578
1772641379509073000,2.070072998046875,-0.10320894420146942,-0.2820974588394165,0.23457922041416168
1772641379519117800,2.080117919921875,-0.06510017067193985,-0.2742805480957031,0.173233300447464
1772641379529163800,2.090163818359375,-0.027784759178757668,-0.27128076553344727,0.10202516615390778
1772641379539209000,2.100208984375,0.003990480676293373,-0.2669379413127899,0.01912895403802395
1772641379549253600,2.110253662109375,0.027840152382850647,-0.24283207952976227,-0.07314691692590714
1772641379559298800,2.120298828125,0.03841370344161987,-0.1956413984298706,-0.15947461128234863
1772641379569343700,2.13034375,0.04290245845913887,-0.1528550535440445,-0.2330889105796814
1772641379579389700,2.1403896484375,0.05042402446269989,-0.13720472157001495,-0.2860397398471832
1772641379589435000,2.150434814453125,0.05976426228880882,-0.1507927030324936,-0.3146037459373474
1772641379599479800,2.160479736328125,0.06956043839454651,-0.18183504045009613,-0.3163294792175293
1772641379609524700,2.170524658203125,0.07790784537792206,-0.21465983986854553,-0.2961866557598114
1772641379619569700,2.180569580078125,0.08577775210142136,-0.24139957129955292,-0.26559650897979736
1772641379629615900,2.190615966796875,0.09467990696430206,-0.26573047041893005,-0.23523195087909698
1772641379639660800,2.200660888671875,0.10000329464673996,-0.27124375104904175,-0.2164340317249298
1772641379649706000,2.2107060546875,0.10195326060056686,-0.2765069603919983,-0.20539496839046478
1772641379659750700,2.220750732421875,0.09799820184707642,-0.2765809893608093,-0.20288386940956116
1772641379669795800,2.2307958984375,0.08622276782989502,-0.26055967807769775,-0.21672086417675018
1772641379679841800,2.240841796875,0.07575841248035431,-0.22632022202014923,-0.24138759076595306
1772641379689886700,2.25088671875,0.055328235030174255,-0.1749209463596344,-0.26739680767059326
1772641379699932000,2.260931884765625,0.02889263443648815,-0.1269046813249588,-0.29777655005455017
1772641379709976800,2.270976806640625,0.0004828310920856893,-0.08841295540332794,-0.3247314691543579
1772641379720021800,2.281021728515625,-0.025784192606806755,-0.06077706441283226,-0.355170339345932
1772641379730066700,2.291066650390625,-0.04033144563436508,-0.03623150661587715,-0.38642120361328125
1772641379740113000,2.30111279296875,-0.05006849393248558,-0.01912629045546055,-0.4156089127063751
1772641379750157800,2.31115771484375,-0.055147942155599594,0.006779875606298447,-0.4267500042915344
1772641379760203000,2.321203125,-0.060983724892139435,0.04139857366681099,-0.420285165309906
1772641379770247700,2.33124755859375,-0.06172328442335129,0.0842331200838089,-0.3990885317325592
1772641379780292900,2.34129296875,-0.055452872067689896,0.11661023646593094,-0.3692891001701355
1772641379790338800,2.3513388671875,-0.04988553375005722,0.1206023171544075,-0.35375967621803284
1772641379800383700,2.3613837890625,-0.023728232830762863,0.11652368307113647,-0.3015987277030945
1772641379810429000,2.371428955078125,-0.012489160522818565,0.10236312448978424,-0.26108139753341675
1772641379820474000,2.38147412109375,-0.017230918630957603,0.07557491958141327,-0.22546881437301636
1772641379830519300,2.391519287109375,-0.03284183517098427,0.05108156055212021,-0.19511009752750397
1772641379840565200,2.401565185546875,-0.0634322389960289,0.03423626720905304,-0.17658355832099915
1772641379850610200,2.411610107421875,-0.09595635533332825,0.022125542163848877,-0.1551712155342102
1772641379860655400,2.4216552734375,-0.12993696331977844,0.016861004754900932,-0.12790390849113464
1772641379870700000,2.431699951171875,-0.15719787776470184,0.005350024439394474,-0.09128357470035553
1772641379880745200,2.4417451171875,-0.175789937376976,-0.020712735131382942,-0.05439719557762146
1772641379890791200,2.451791259765625,-0.19440756738185883,-0.06337551027536392,-0.01619494892656803
1772641379900836400,2.46183642578125,-0.21937629580497742,-0.11395373195409775,0.003677559085190296
1772641379910881300,2.47188134765625,-0.2514881491661072,-0.14472949504852295,0.018569156527519226
1772641379920926200,2.48192626953125,-0.2854807376861572,-0.15964291989803314,0.025064872577786446
1772641379930971100,2.49197119140625,-0.31893670558929443,-0.1712963879108429,0.03701633960008621
1772641379941016300,2.502016357421875,-0.3530784249305725,-0.1753169596195221,0.0571245402097702
1772641379951062300,2.512062255859375,-0.3764692544937134,-0.1835535764694214,0.08057207614183426
1772641379961107200,2.522107177734375,-0.39375820755958557,-0.19312524795532227,0.10492908209562302
1772641379971152400,2.53215234375,-0.39846640825271606,-0.20457284152507782,0.12420637160539627
1772641379981197000,2.542197021484375,-0.3949800729751587,-0.2055869847536087,0.14627012610435486
1772641379991242200,2.5522421875,-0.38130608201026917,-0.19615326821804047,0.16856370866298676
1772641380001288200,2.5622880859375,-0.3552590310573578,-0.175959050655365,0.18742848932743073
1772641380011333000,2.5723330078125,-0.318930059671402,-0.15580052137374878,0.2063763439655304
1772641380021378300,2.58237841796875,-0.27280810475349426,-0.14844992756843567,0.2165893018245697
1772641380031423000,2.592423095703125,-0.23091444373130798,-0.15005581080913544,0.22315505146980286
1772641380041468200,2.60246826171875,-0.19679374992847443,-0.138525128364563,0.2338031679391861
1772641380051514000,2.61251416015625,-0.16002482175827026,-0.14068840444087982,0.24036014080047607
1772641380061559300,2.622559326171875,-0.13993632793426514,-0.16417242586612701,0.2327701300382614
1772641380071604200,2.632604248046875,-0.12476403266191483,-0.18719039857387543,0.20723973214626312
1772641380081649400,2.6426494140625,-0.1217259019613266,-0.19413192570209503,0.15417997539043427
1772641380091694000,2.652694091796875,-0.11227620393037796,-0.1775156706571579,0.07962532341480255
1772641380101740000,2.662739990234375,-0.09267747402191162,-0.1464506834745407,-0.006638728082180023
1772641380111785200,2.67278515625,-0.07885966449975967,-0.0909980833530426,-0.11239152401685715
1772641380121830100,2.682830078125,-0.07442523539066315,-0.0033332123421132565,-0.2105282098054886
1772641380131875300,2.692875244140625,-0.08265147358179092,0.09954869747161865,-0.287401407957077
1772641380141920000,2.702919921875,-0.08992376178503036,0.21307818591594696,-0.31708499789237976
1772641380151966200,2.71296630859375,-0.0935019850730896,0.32192477583885193,-0.3010173738002777
1772641380162011100,2.72301123046875,-0.11266236752271652,0.4090660810470581,-0.3098614513874054
1772641380172056300,2.733056396484375,-0.08622170239686966,0.4204857051372528,-0.25251907110214233
1772641380182101200,2.743101318359375,-0.049439456313848495,0.4221131503582001,-0.14340722560882568
1772641380192146200,2.753146240234375,-0.021396368741989136,0.37806129455566406,-0.01477601658552885
1772641380202192400,2.7631923828125,0.008319448679685593,0.3211148977279663,0.14061836898326874
1772641380212237000,2.773237060546875,0.03230920433998108,0.26487746834754944,0.31916573643684387
1772641380222282200,2.7832822265625,0.03442934527993202,0.19704009592533112,0.4957956373691559
1772641380232327200,2.7933271484375,0.007728226948529482,0.13233007490634918,0.6469547748565674
1772641380242372400,2.803372314453125,-0.033367011696100235,0.06826187670230865,0.7614126801490784
1772641380252417000,2.8134169921875,-0.07996407151222229,0.0041215079836547375,0.8284327387809753
1772641380262463000,2.823462890625,-0.12539227306842804,-0.05813893675804138,0.8351465463638306
1772641380272508200,2.833508056640625,-0.15430328249931335,-0.09553530812263489,0.7882480025291443
1772641380282553000,2.843552978515625,-0.15792784094810486,-0.09877078235149384,0.702788770198822
1772641380292598300,2.853598388671875,-0.13781192898750305,-0.06107507273554802,0.5864315032958984
1772641380302643200,2.863643310546875,-0.0948823019862175,0.011542405933141708,0.45503222942352295
1772641380312689400,2.873689453125,-0.04187394678592682,0.10699222981929779,0.313209593296051
1772641380322734000,2.883734130859375,0.003373159794136882,0.21129253506660461,0.16292127966880798
1772641380332779300,2.893779296875,0.03726401552557945,0.2998298704624176,0.01107182539999485
1772641380342824200,2.90382421875,0.0495249405503273,0.3633180260658264,-0.13476073741912842
1772641380352869400,2.913869384765625,0.049786996096372604,0.4019186794757843,-0.2555422782897949
1772641380362915300,2.923915283203125,0.03936178609728813,0.40446677803993225,-0.3361993134021759
1772641380372960000,2.9339599609375,0.024389496073126793,0.384193480014801,-0.3748612403869629
1772641380383005200,2.944005126953125,0.0037734329234808683,0.3470676839351654,-0.38405153155326843
1772641380393050000,2.954050048828125,-0.027392208576202393,0.2850669026374817,-0.3751770853996277
1772641380403095300,2.96409521484375,-0.06193287670612335,0.21738584339618683,-0.34503594040870667
1772641380413141200,2.974141357421875,-0.09030698984861374,0.13809289038181305,-0.2957965135574341
1772641380423186200,2.984186279296875,-0.11116912961006165,0.05699723958969116,-0.23147504031658173
1772641380433231000,2.994231201171875,-0.12337999045848846,-0.018812835216522217,-0.15810388326644897
1772641380443276300,3.0042763671875,-0.1271291822195053,-0.08453512191772461,-0.08772558718919754
1772641380453321200,3.0143212890625,-0.12402047961950302,-0.1390143483877182,-0.02864309586584568
1772641380463366100,3.0243662109375,-0.10589633882045746,-0.18733766674995422,0.012059059925377369
1772641380473412400,3.034412353515625,-0.08019044250249863,-0.22263653576374054,0.02924390509724617
1772641380483457000,3.04445703125,-0.05247678980231285,-0.23114320635795593,0.024114923551678658
1772641380493502200,3.054502197265625,-0.02377217449247837,-0.20926746726036072,-0.0044141896069049835
1772641380503547100,3.064547119140625,0.0026578346733003855,-0.16549602150917053,-0.05326375365257263
1772641380513592300,3.07459228515625,0.019687950611114502,-0.10801035910844803,-0.12305402010679245
1772641380523638300,3.08463818359375,0.03239362686872482,-0.03899640217423439,-0.2087707817554474
1772641380533683200,3.09468310546875,0.0424201600253582,0.02111007831990719,-0.30040058493614197
1772641380543728000,3.10472802734375,0.04549850896000862,0.06656171381473541,-0.38958343863487244
1772641380553773000,3.11477294921875,0.05313964933156967,0.09734226763248444,-0.464703768491745
1772641380563818200,3.124818359375,0.060079582035541534,0.12275974452495575,-0.5205225348472595
1772641380573864200,3.1348642578125,0.06808477640151978,0.12297119945287704,-0.5584598183631897
1772641380583909400,3.144909423828125,0.07176606357097626,0.10636691749095917,-0.5764958262443542
1772641380593954000,3.1549541015625,0.08260912448167801,0.09911379963159561,-0.5718944072723389
1772641380603999200,3.164999267578125,0.09711136668920517,0.09969357401132584,-0.5400635004043579
1772641380614044200,3.175044189453125,0.11559690535068512,0.11134649813175201,-0.49523529410362244
1772641380624090000,3.185090087890625,0.13000433146953583,0.11741264909505844,-0.44462326169013977
1772641380634135300,3.19513525390625,0.13157054781913757,0.11963053047657013,-0.3879871368408203
1772641380644180200,3.20518017578125,0.12947143614292145,0.11667654663324356,-0.31910157203674316
1772641380654225200,3.21522509765625,0.12921524047851562,0.10197243839502335,-0.24626383185386658
1772641380664270000,3.22527001953125,0.13790807127952576,0.08066927641630173,-0.1616850346326828
1772641380674315300,3.235315185546875,0.15088166296482086,0.05480918660759926,-0.07977179437875748
1772641380684361200,3.245361328125,0.1643785536289215,0.024526381865143776,-0.0013848437229171395
1772641380694406100,3.25540625,0.1824992448091507,0.004023769870400429,0.06647862493991852
1772641380704451000,3.265451171875,0.19633568823337555,-0.0008772452711127698,0.12292219698429108
1772641380714496300,3.275496337890625,0.20895321667194366,0.007216900121420622,0.1592349261045456
1772641380724541200,3.285541259765625,0.2158300280570984,0.02496607042849064,0.18254797160625458
1772641380734587100,3.295587158203125,0.2204412966966629,0.04006033390760422,0.1984451860189438
1772641380744632300,3.30563232421875,0.2204599380493164,0.037038177251815796,0.20396138727664948
1772641380754677200,3.31567724609375,0.22125062346458435,0.023244336247444153,0.20707036554813385
1772641380764722200,3.32572216796875,0.22335265576839447,0.00926274061203003,0.20557473599910736
1772641380774767000,3.33576708984375,0.23652571439743042,0.001722798915579915,0.19938340783119202
1772641380784813000,3.34581298828125,0.25421416759490967,0.005103681702166796,0.19106370210647583
1772641380794858200,3.355858154296875,0.2782753109931946,0.012633237056434155,0.18980269134044647
1772641380804903200,3.365903076171875,0.31029289960861206,0.015427691861987114,0.19444750249385834
1772641380814948000,3.375947998046875,0.3501308560371399,0.008528773672878742,0.20393715798854828
1772641380824992300,3.3859921875,0.3929542005062103,0.032049279659986496,0.22860655188560486
1772641380835038200,3.3960380859375,0.4233129024505615,0.029871879145503044,0.24377217888832092
1772641380845083000,3.406082763671875,0.4194446802139282,-0.005360943265259266,0.23796196281909943
1772641380855128000,3.416128173828125,0.38166746497154236,-0.059711799025535583,0.20923444628715515
1772641380865173000,3.426173095703125,0.32555440068244934,-0.11776791512966156,0.16147197782993317
1772641380875218200,3.43621826171875,0.2659882605075836,-0.20062658190727234,0.0979798287153244
1772641380885264100,3.44626416015625,0.18694964051246643,-0.2847294807434082,0.018907643854618073
1772641380895309300,3.456309326171875,0.09852977097034454,-0.3366270065307617,-0.05848461389541626
1772641380905354000,3.46635400390625,0.013117133639752865,-0.3415679931640625,-0.11182373762130737
1772641380915399200,3.476399169921875,-0.05423527583479881,-0.31004759669303894,-0.13081100583076477
1772641380925444000,3.486444091796875,-0.09189397096633911,-0.25557637214660645,-0.12115811556577682
1772641380935489300,3.4964892578125,-0.09223166108131409,-0.1718583106994629,-0.08333989977836609
1772641380945535200,3.50653515625,-0.04446067661046982,-0.07635682076215744,-0.030460704118013382
1772641380955580000,3.516579833984375,0.042510174214839935,-0.01571451500058174,0.018521485850214958
1772641380965625000,3.526625,0.1508675366640091,0.021868014708161354,0.050995271652936935
1772641380975670000,3.536669921875,0.24968093633651733,0.03394092246890068,0.07474587857723236
1772641380985715200,3.546715087890625,0.3226110637187958,0.03771249204874039,0.09223166108131409
1772641380995761200,3.55676123046875,0.35968121886253357,0.03484533354640007,0.11894796043634415
1772641381005806000,3.56680615234375,0.3648160398006439,0.02052711322903633,0.15935583412647247
1772641381015851000,3.57685107421875,0.3467446267604828,-0.0022442457266151905,0.22037498652935028
1772641381025896200,3.586896240234375,0.31590044498443604,-0.024024909362196922,0.3033481538295746
1772641381035941000,3.596941162109375,0.27940234541893005,-0.0554635263979435,0.391855925321579
1772641381045987000,3.606987060546875,0.2405356466770172,-0.09389160573482513,0.4724447727203369
1772641381056032300,3.6170322265625,0.20346283912658691,-0.13273274898529053,0.5337403416633606
1772641381066077000,3.627076904296875,0.1634400635957718,-0.17556889355182648,0.5735296010971069
1772641381076122000,3.6371220703125,0.11910881102085114,-0.21435223519802094,0.5873854756355286
1772641381086167000,3.6471669921875,0.06655425578355789,-0.24334926903247833,0.5700783729553223
1772641381096213000,3.657212890625,0.008695486932992935,-0.26258793473243713,0.523685872554779
1772641381106258200,3.667258056640625,-0.04868098720908165,-0.2763591408729553,0.4560905694961548
1772641381116303000,3.67730322265625,-0.11049108952283859,-0.29055964946746826,0.3703061640262604
1772641381126348000,3.68734814453125,-0.16969342529773712,-0.2896991968154907,0.2788630723953247
1772641381136393000,3.69739306640625,-0.226133793592453,-0.2651272714138031,0.19731013476848602
1772641381146438100,3.707438232421875,-0.27731868624687195,-0.2306252270936966,0.1170099750161171
1772641381156484000,3.717484130859375,-0.3216688334941864,-0.1986454576253891,0.028149878606200218
1772641381166529300,3.727529296875,-0.3528826832771301,-0.15725673735141754,-0.06627196073532104
1772641381176574000,3.737573974609375,-0.3712558448314667,-0.11107511818408966,-0.17128200829029083
1772641381186619100,3.747619140625,-0.3785076141357422,-0.07077989727258682,-0.28414756059646606
1772641381196664000,3.7576640625,-0.3720127046108246,-0.021165207028388977,-0.4035021960735321
1772641381206710000,3.7677099609375,-0.350315123796463,0.02852804772555828,-0.5293197631835938
1772641381216755200,3.777755126953125,-0.3061996102333069,0.0927288681268692,-0.6366808414459229
1772641381226800000,3.787800048828125,-0.24919012188911438,0.16419000923633575,-0.7186545729637146
1772641381236845000,3.797844970703125,-0.18485400080680847,0.23846609890460968,-0.7618027925491333
1772641381246890000,3.807889892578125,-0.12710042297840118,0.3075208067893982,-0.771378219127655
1772641381256936200,3.817936279296875,-0.07205235213041306,0.35575783252716064,-0.7495871782302856
1772641381266981000,3.827981201171875,-0.019957462325692177,0.3887067437171936,-0.7128435373306274
1772641381277026300,3.8380263671875,0.02069675549864769,0.3923848271369934,-0.6717104911804199
1772641381287071000,3.848071044921875,0.04741545394062996,0.35959917306900024,-0.6354824304580688
1772641381297116200,3.8581162109375,0.057016149163246155,0.30529627203941345,-0.5951400399208069
1772641381307162000,3.868162109375,0.047630902379751205,0.23611293733119965,-0.54902184009552
1772641381317207000,3.87820703125,0.021203555166721344,0.16563104093074799,-0.4884974956512451
1772641381327252200,3.888252197265625,-0.01872148923575878,0.09438509494066238,-0.41735008358955383
1772641381337297200,3.898297119140625,-0.07053248584270477,0.026314960792660713,-0.3434106111526489
1772641381347342000,3.908342041015625,-0.12501198053359985,-0.04861174523830414,-0.27264031767845154
1772641381357387000,3.918386962890625,-0.17784376442432404,-0.13282382488250732,-0.2107021063566208
1772641381367433000,3.928432861328125,-0.22048230469226837,-0.2144230753183365,-0.15517067909240723
1772641381377478100,3.93847802734375,-0.24808970093727112,-0.28711485862731934,-0.10999920219182968
1772641381387523000,3.948523193359375,-0.2617908716201782,-0.33867764472961426,-0.07875633239746094
1772641381397568000,3.958568115234375,-0.26452913880348206,-0.35840821266174316,-0.06718862801790237
1772641381407613000,3.968613037109375,-0.25885045528411865,-0.3472312092781067,-0.07371470332145691
1772641381417659100,3.9786591796875,-0.24271038174629211,-0.3139725625514984,-0.09038342535495758
1772641381427704000,3.9887041015625,-0.21900291740894318,-0.2773820757865906,-0.10891609638929367
1772641381437749200,3.998749267578125,-0.19489571452140808,-0.24225178360939026,-0.12256825715303421
1772641381447794200,4.008794189453125,-0.16601985692977905,-0.2071973979473114,-0.12943202257156372
1772641381457839000,4.018839111328125,-0.14413613080978394,-0.17442587018013,-0.12656965851783752
1772641381467885000,4.028885009765625,-0.12652811408042908,-0.14663951098918915,-0.11322855204343796
1772641381477930000,4.038929931640625,-0.11369247734546661,-0.1156323254108429,-0.08572103083133698
1772641381487975200,4.04897509765625,-0.09979663789272308,-0.10137136280536652,-0.04162866994738579
1772641381498020000,4.05902001953125,-0.0923277959227562,-0.11378861963748932,0.022651515901088715
1772641381508065300,4.069065185546875,-0.09609590470790863,-0.13719381392002106,0.09463383257389069
1772641381518110000,4.07910986328125,-0.1113068163394928,-0.1560942679643631,0.16208210587501526
1772641381528156200,4.08915625,-0.14365863800048828,-0.15959419310092926,0.21403585374355316
1772641381538201000,4.099201171875,-0.18885567784309387,-0.15487825870513916,0.24880342185497284
1772641381548246300,4.109246337890625,-0.24272795021533966,-0.14792342483997345,0.2711220383644104
1772641381558291200,4.119291259765625,-0.30418065190315247,-0.14247272908687592,0.28186923265457153
1772641381568336100,4.129336181640625,-0.35708916187286377,-0.13711445033550262,0.28251025080680847
1772641381578382000,4.139382080078125,-0.3967532217502594,-0.13362117111682892,0.28278055787086487
1772641381588427000,4.149427001953125,-0.41776955127716064,-0.12856489419937134,0.2819770872592926
1772641381598472200,4.15947216796875,-0.42522957921028137,-0.12887142598628998,0.27197691798210144
1772641381608517000,4.16951708984375,-0.42942434549331665,-0.13271011412143707,0.25223755836486816
1772641381618562300,4.179562255859375,-0.4287321865558624,-0.12866637110710144,0.22557507455348969
1772641381628608000,4.18960791015625,-0.42104896903038025,-0.10343105345964432,0.19820789992809296
1772641381638653000,4.19965283203125,-0.40281376242637634,-0.061401307582855225,0.1767665147781372
1772641381648698000,4.209697998046875,-0.3699844479560852,-0.010725614614784718,0.16682839393615723
1772641381658743000,4.219742919921875,-0.32184353470802307,0.018556106835603714,0.16446910798549652
1772641381668788200,4.229788330078125,-0.2669169306755066,0.02334207482635975,0.17256085574626923
1772641381678834200,4.239834228515625,-0.22363415360450745,0.009445966221392155,0.1830846071243286
1772641381688879000,4.249879150390625,-0.21618369221687317,-0.0036221654154360294,0.19519932568073273
1772641381698924000,4.259924072265625,-0.2367185354232788,-0.008339955471456051,0.1992097795009613
1772641381708969200,4.26996923828125,-0.26092854142189026,-0.01950632408261299,0.19532768428325653
1772641381719014100,4.28001416015625,-0.27014225721359253,-0.040346357971429825,0.17504265904426575
1772641381729059300,4.290059326171875,-0.2704746425151825,-0.056827329099178314,0.13758821785449982
1772641381739105300,4.300105224609375,-0.2634734511375427,-0.059723783284425735,0.08233535289764404
1772641381749150000,4.31014990234375,-0.2615636885166168,-0.047936100512742996,0.013078250922262669
1772641381759195100,4.320195068359375,-0.2596563398838043,-0.007193464320152998,-0.06136668846011162
1772641381769240000,4.330239990234375,-0.27043628692626953,0.0659278854727745,-0.12338904291391373
1772641381779285200,4.34028515625,-0.2978314161300659,0.14108522236347198,-0.17341598868370056
1772641381789331200,4.350331298828125,-0.34248223900794983,0.20410946011543274,-0.20760858058929443
1772641381799376100,4.360376220703125,-0.38557058572769165,0.24167786538600922,-0.22165729105472565
1772641381809421000,4.370421142578125,-0.4206550717353821,0.24717943370342255,-0.22029295563697815
1772641381819466200,4.38046630859375,-0.44744646549224854,0.2331397831439972,-0.19290447235107422
1772641381829511400,4.390511474609375,-0.47575828433036804,0.2239377647638321,-0.1266716569662094
1772641381839557400,4.400557373046875,-0.5004569888114929,0.21645693480968475,-0.024398550391197205
1772641381849602300,4.410602294921875,-0.5264946818351746,0.2074248343706131,0.10791341960430145
1772641381859647200,4.420647216796875,-0.5400451421737671,0.18984051048755646,0.26512089371681213
1772641381869692400,4.4306923828125,-0.5418475270271301,0.15320153534412384,0.42986801266670227
1772641381879737300,4.4407373046875,-0.5291118025779724,0.10829398036003113,0.5864895582199097
1772641381889782500,4.450782470703125,-0.5126579999923706,0.06734228879213333,0.728188693523407
1772641381899828200,4.460828125,-0.4917830526828766,0.0008455536444671452,0.835792064666748
1772641381909873200,4.470873046875,-0.4706468880176544,-0.09592786431312561,0.9025008082389832
1772641381919918300,4.48091845703125,-0.45097729563713074,-0.19744142889976501,0.9276527762413025
1772641381929963300,4.49096337890625,-0.42666715383529663,-0.27977466583251953,0.9010531306266785
1772641381940008400,4.501008544921875,-0.4022563695907593,-0.32739704847335815,0.830262303352356
1772641381950054400,4.511054443359375,-0.38175880908966064,-0.33108285069465637,0.7326566576957703
1772641381960099300,4.521099365234375,-0.371231347322464,-0.29615655541419983,0.6232092380523682
1772641381970144300,4.531144287109375,-0.3732151389122009,-0.25677773356437683,0.5317482948303223
1772641381980189400,4.541189453125,-0.38731950521469116,-0.24619965255260468,0.4617636203765869
1772641381990234400,4.551234375,-0.40943679213523865,-0.27316734194755554,0.4123462736606598
1772641382000280300,4.5612802734375,-0.4285513460636139,-0.29671820998191833,0.38574424386024475
1772641382010325500,4.571325439453125,-0.4404524862766266,-0.30185359716415405,0.36741554737091064
1772641382020370200,4.5813701171875,-0.4313255548477173,-0.29234185814857483,0.3337377607822418
1772641382030415400,4.591415283203125,-0.39174461364746094,-0.2684096097946167,0.2762105464935303
1772641382040460300,4.601460205078125,-0.31950104236602783,-0.23641200363636017,0.187632218003273
1772641382050505500,4.61150537109375,-0.22292974591255188,-0.20504608750343323,0.07882291078567505
1772641382060551400,4.621551513671875,-0.11273054033517838,-0.16609309613704681,-0.03537343814969063
1772641382070596000,4.63159619140625,-0.003254915354773402,-0.12343325465917587,-0.14623551070690155
1772641382080641300,4.641641357421875,0.0989561378955841,-0.059958141297101974,-0.24623426795005798
1772641382090686200,4.651686279296875,0.18660929799079895,0.024766067042946815,-0.3188810348510742
1772641382100731400,4.6617314453125,0.2545590400695801,0.12089312821626663,-0.3583022356033325
1772641382110777300,4.67177734375,0.29916805028915405,0.1953471302986145,-0.3717338740825653
1772641382120822500,4.681822509765625,0.32357168197631836,0.2328881025314331,-0.3615803122520447
1772641382130867200,4.6918671875,0.32607823610305786,0.24623560905456543,-0.3232840597629547
1772641382140912400,4.701912353515625,0.3111807703971863,0.22067086398601532,-0.2654407322406769
1772641382150957300,4.711957275390625,0.2799661457538605,0.15550677478313446,-0.20311982929706573
1772641382161003300,4.722003173828125,0.23060232400894165,0.07559728622436523,-0.14612817764282227
1772641382171048400,4.73204833984375,0.18085366487503052,-0.018856246024370193,-0.10892408341169357
1772641382181093000,4.742093017578125,0.1353602260351181,-0.10733604431152344,-0.09073948860168457
1772641382191138300,4.75213818359375,0.1046193540096283,-0.16534261405467987,-0.10133567452430725
1772641382201183200,4.762183349609375,0.08812852948904037,-0.17182661592960358,-0.13700339198112488
1772641382211228400,4.772228515625,0.0792894959449768,-0.12775476276874542,-0.18881812691688538
1772641382221274400,4.7822744140625,0.0814458578824997,-0.06591909378767014,-0.25012513995170593
1772641382231319600,4.792319580078125,0.09845387190580368,0.006069876719266176,-0.3090830147266388
1772641382241364200,4.8023642578125,0.12716993689537048,0.05748220160603523,-0.35436394810676575
1772641382251409400,4.812409423828125,0.15895450115203857,0.10129120200872421,-0.37658214569091797
1772641382261454300,4.822454345703125,0.18196234107017517,0.13304060697555542,-0.37842240929603577
1772641382271500300,4.832500244140625,0.19923827052116394,0.1562063843011856,-0.3551804721355438
1772641382281545500,4.84254541015625,0.21513734757900238,0.15395814180374146,-0.30972936749458313
1772641382291590100,4.852590087890625,0.2278563380241394,0.1303662657737732,-0.25434252619743347
1772641382301635300,4.86263525390625,0.22773675620555878,0.0869857668876648,-0.19342271983623505
1772641382311680300,4.87268017578125,0.2048514187335968,0.037101827561855316,-0.12338904291391373
1772641382321726200,4.882726318359375,0.1728239804506302,0.0027832696214318275,-0.022782010957598686
1772641382331771400,4.892771484375,0.1370830237865448,-0.0163028072565794,0.0932532474398613
1772641382341816300,4.90281640625,0.10838320106267929,-0.04295705258846283,0.2103620320558548
1772641382351861200,4.912861328125,0.08487947285175323,-0.07151705771684647,0.3134958744049072
1772641382361906200,4.92290625,0.06426393985748291,-0.09972845762968063,0.38573572039604187
1772641382371951400,4.932951416015625,0.04535150155425072,-0.11887551844120026,0.4341951310634613
1772641382381997300,4.942997314453125,0.029575202614068985,-0.11852957308292389,0.45550787448883057
1772641382392042500,4.95304248046875,0.015674300491809845,-0.09675716608762741,0.45090407133102417
1772641382402087200,4.963087158203125,0.010005230084061623,-0.057205766439437866,0.43350908160209656
1772641382412132400,4.97313232421875,0.01618189923465252,-0.014541125856339931,0.40837523341178894
1772641382422177300,4.98317724609375,0.03405623883008957,0.030220486223697662,0.3795124292373657
1772641382432223200,4.99322314453125,0.063127301633358,0.05540014058351517,0.34847915172576904
1772641382442268400,5.003268310546875,0.10404810309410095,0.07166433334350586,0.32856377959251404
1772641382452313300,5.013313232421875,0.15438663959503174,0.07560474425554276,0.314901739358902
1772641382462358300,5.023358154296875,0.2066599726676941,0.08068179339170456,0.3090081810951233
1772641382472403200,5.0334033203125,0.2604462206363678,0.09475207328796387,0.31654518842697144
1772641382482449400,5.043449462890625,0.30794692039489746,0.11732183396816254,0.32657304406166077
1772641382492494300,5.053494384765625,0.34195786714553833,0.11922413110733032,0.3185950219631195
1772641382502539500,5.06353955078125,0.3605603277683258,0.10791981220245361,0.29140496253967285
1772641382512584200,5.073584228515625,0.35734376311302185,0.08158407360315323,0.24888305366039276
1772641382522629400,5.08362939453125,0.3400332033634186,0.05164534971117973,0.2071758210659027
1772641382532674300,5.09367431640625,0.31590497493743896,0.020773721858859062,0.16830086708068848
1772641382542720300,5.10372021484375,0.2919418513774872,-0.006449110805988312,0.14056377112865448
1772641382552765400,5.113765380859375,0.26542049646377563,-0.04241083934903145,0.12421382963657379
1772641382562810400,5.123810302734375,0.24843484163284302,-0.06932767480611801,0.12187184393405914
1772641382572855300,5.133855224609375,0.23944561183452606,-0.07660636305809021,0.12715475261211395
1772641382582900200,5.143900146484375,0.23736141622066498,-0.06700300425291061,0.1300797015428543
1772641382592946200,5.1539462890625,0.24154657125473022,-0.04490675404667854,0.1311204731464386
1772641382602991400,5.163991455078125,0.24460308253765106,-0.016167517751455307,0.12870630621910095
1772641382613036300,5.174036376953125,0.2564797103404999,-0.001118793967179954,0.12381648272275925
1772641382623081200,5.184081298828125,0.276156485080719,0.0003307645965833217,0.13239212334156036
1772641382633126100,5.194126220703125,0.30675941705703735,0.00669225724413991,0.16725210845470428
1772641382643172400,5.20417236328125,0.34274590015411377,0.025380190461874008,0.22976794838905334
1772641382653217300,5.21421728515625,0.3731839656829834,0.03759424760937691,0.3050464689731598
1772641382663262500,5.224262451171875,0.3853841722011566,0.05425950884819031,0.3805239200592041
1772641382673307400,5.234307373046875,0.38052070140838623,0.07344359159469604,0.4460078477859497
1772641382683352300,5.244352294921875,0.3611009418964386,0.08583208173513412,0.4923047721385956
1772641382693397200,5.254397216796875,0.3368680477142334,0.08805742114782333,0.52093106508255
1772641382703443200,5.264443115234375,0.3083815276622772,0.08374842256307602,0.5323179364204407
1772641382713488400,5.27448828125,0.27093324065208435,0.05157983675599098,0.5254586935043335
1772641382723533300,5.284533203125,0.23040737211704254,0.008349276147782803,0.49637752771377563
1772641382733578200,5.294578125,0.18313519656658173,-0.03699823096394539,0.4607817232608795
1772641382743623200,5.304623046875,0.13094229996204376,-0.07491924613714218,0.41713863611221313
1772641382753669400,5.31466943359375,0.0824139192700386,-0.0956820473074913,0.37052080035209656
1772641382763714300,5.32471435546875,0.04771292582154274,-0.09761843830347061,0.32588064670562744
1772641382773759500,5.334759521484375,0.031626902520656586,-0.07561247050762177,0.2873002290725708
1772641382783804400,5.344804443359375,0.034148916602134705,-0.04728708788752556,0.24171888828277588
1772641382793849300,5.354849365234375,0.05373460054397583,-0.014990666881203651,0.1849384307861328
1772641382803894300,5.364894287109375,0.08449011296033859,0.015934225171804428,0.10749876499176025
1772641382813940200,5.374940185546875,0.11517105996608734,0.038000114262104034,0.010972755961120129
1772641382823986200,5.384986083984375,0.1453326940536499,0.05916185677051544,-0.10111836344003677
1772641382834031000,5.395031005859375,0.17411507666110992,0.07599356770515442,-0.21979601681232452
1772641382844076000,5.405075927734375,0.20292754471302032,0.09034693986177444,-0.34151631593704224
1772641382854121200,5.415121337890625,0.23021988570690155,0.10687478631734848,-0.44866007566452026
1772641382864167200,5.425167236328125,0.25814101099967957,0.13228639960289001,-0.5383313894271851
1772641382874212400,5.43521240234375,0.2877787947654724,0.1640661656856537,-0.6019809246063232
1772641382884257000,5.445257080078125,0.31743308901786804,0.19194146990776062,-0.6437414288520813
1772641382894302200,5.45530224609375,0.35389310121536255,0.2159765064716339,-0.6632400155067444
1772641382904347100,5.46534716796875,0.3891077935695648,0.22474469244480133,-0.6644219160079956
1772641382914393000,5.47539306640625,0.4155966639518738,0.22667601704597473,-0.6542230844497681
1772641382924438300,5.485438232421875,0.43593284487724304,0.21673497557640076,-0.6317617297172546
1772641382934483200,5.495483154296875,0.4256112277507782,0.20487059652805328,-0.5942050218582153
1772641382944528100,5.505528076171875,0.3958701193332672,0.18908736109733582,-0.5419452786445618
1772641382954573000,5.515572998046875,0.3492160439491272,0.157035693526268,-0.4828755855560303
1772641382964618200,5.5256181640625,0.2856341302394867,0.11602620780467987,-0.4135982394218445
1772641382974664200,5.535664306640625,0.21423080563545227,0.056544769555330276,-0.3423701226711273
1772641382984709400,5.54570947265625,0.14113156497478485,-0.006542854011058807,-0.2703968584537506
1772641382994754000,5.555754150390625,0.0659332126379013,-0.06563173979520798,-0.19769656658172607
1772641383004799200,5.56579931640625,-0.0006407565670087934,-0.1191231980919838,-0.1341618001461029
1772641383014844200,5.57584423828125,-0.052012600004673004,-0.16291674971580505,-0.08858206123113632
1772641383024890000,5.58589013671875,-0.09410412609577179,-0.19280780851840973,-0.06919664889574051
1772641383034935300,5.595935302734375,-0.12244974821805954,-0.20609085261821747,-0.07943890243768692
1772641383044980200,5.605980224609375,-0.14837348461151123,-0.19208768010139465,-0.10821834951639175
1772641383055025200,5.616025146484375,-0.16547098755836487,-0.15873637795448303,-0.14297392964363098
1772641383065070000,5.626070068359375,-0.17953594028949738,-0.11345864832401276,-0.17800702154636383
1772641383075116000,5.636115966796875,-0.186008483171463,-0.06462879478931427,-0.20964351296424866
1772641383085161200,5.6461611328125,-0.18329951167106628,-0.028060130774974823,-0.24073192477226257
1772641383095206100,5.6562060546875,-0.17839904129505157,-0.003912183456122875,-0.27467790246009827
1772641383105251000,5.6662509765625,-0.17247270047664642,0.008358065038919449,-0.2973158359527588
1772641383115296000,5.6762958984375,-0.169364795088768,0.014429805800318718,-0.3025343120098114
1772641383125341200,5.686341064453125,-0.16736449301242828,0.019218169152736664,-0.28679049015045166
1772641383135387100,5.69638720703125,-0.1611795723438263,0.021336181089282036,-0.24999839067459106
1772641383145432300,5.706432373046875,-0.1502358466386795,0.013836986385285854,-0.2075880765914917
1772641383155477200,5.716477294921875,-0.13146747648715973,0.005715143866837025,-0.16588670015335083
1772641383165522200,5.726522216796875,-0.12089473009109497,0.008992429822683334,-0.13039422035217285
1772641383175567000,5.736567138671875,-0.1170845478773117,0.018982212990522385,-0.1011844053864479
1772641383185613000,5.746613037109375,-0.1214236319065094,0.028292624279856682,-0.08154119551181793
1772641383195658200,5.756658203125,-0.13341984152793884,0.030005302280187607,-0.06335340440273285
1772641383205703200,5.766703125,-0.15216316282749176,0.023498134687542915,-0.04086034744977951
1772641383215748000,5.776748046875,-0.17895829677581787,0.012650547549128532,-0.018025072291493416
1772641383225793000,5.78679296875,-0.2106536477804184,-0.008442220278084278,0.004181961994618177
1772641383235838200,5.796838134765625,-0.24320413172245026,-0.031438082456588745,0.029017003253102303
1772641383245884200,5.80688427734375,-0.26974305510520935,-0.0591389536857605,0.049542784690856934
1772641383255929300,5.816929443359375,-0.29509156942367554,-0.08449064940214157,0.07171440124511719
1772641383265974300,5.826974365234375,-0.31137600541114807,-0.1049056425690651,0.09887012094259262
1772641383276019200,5.837019287109375,-0.329538494348526,-0.12137889117002487,0.12107262760400772
1772641383286064000,5.847064208984375,-0.3491438925266266,-0.14107589423656464,0.1366119086742401
1772641383296110000,5.857110107421875,-0.36693644523620605,-0.16022029519081116,0.14558888971805573
1772641383306155300,5.8671552734375,-0.3765091896057129,-0.1791662871837616,0.15722370147705078
1772641383316200200,5.8772001953125,-0.37602049112319946,-0.19412793219089508,0.17037279903888702
1772641383326245400,5.887245361328125,-0.3632117509841919,-0.20731857419013977,0.18865354359149933
1772641383336290000,5.8972900390625,-0.3447805643081665,-0.21274662017822266,0.21517542004585266
1772641383346335200,5.907335205078125,-0.322741836309433,-0.20884215831756592,0.2515707314014435
1772641383356381200,5.917381103515625,-0.29214078187942505,-0.20824187994003296,0.29667720198631287
1772641383366426000,5.927426025390625,-0.2691939175128937,-0.22324587404727936,0.3281475305557251
1772641383376471300,5.93747119140625,-0.2660476565361023,-0.24145549535751343,0.3254215121269226
1772641383386516000,5.947515869140625,-0.28276005387306213,-0.24440442025661469,0.27202165126800537
1772641383396561200,5.95756103515625,-0.2925882041454315,-0.21822234988212585,0.16097557544708252
1772641383406607000,5.967607177734375,-0.27389439940452576,-0.16669683158397675,0.010509099811315536
1772641383416652300,5.97765234375,-0.2424299418926239,-0.07154342532157898,-0.15731506049633026
1772641383426697200,5.987697265625,-0.21653923392295837,0.0876249223947525,-0.34325695037841797
1772641383436742400,5.997742431640625,-0.19757512211799622,0.3063356876373291,-0.5188234448432922
1772641383446787000,6.007787109375,-0.18148110806941986,0.5350897908210754,-0.6451166868209839
1772641383456833000,6.0178330078125,-0.16223524510860443,0.6976073384284973,-0.6869378685951233
1772641383466878200,6.027878173828125,-0.14292839169502258,0.7436778545379639,-0.6509809494018555
1772641383476923100,6.037923095703125,-0.13239745795726776,0.6824848055839539,-0.5466138124465942
1772641383486968300,6.04796826171875,-0.15245212614536285,0.5554016828536987,-0.39882010221481323
1772641383497013000,6.058012939453125,-0.20452624559402466,0.40273547172546387,-0.22467918694019318
1772641383507058200,6.06805810546875,-0.3090127110481262,0.2721012830734253,-0.0878203958272934
1772641383517104000,6.078104248046875,-0.38180676102638245,0.1372806280851364,0.12705089151859283
1772641383527149300,6.0881494140625,-0.4569164216518402,0.0005603290628641844,0.33612900972366333
1772641383537194200,6.0981943359375,-0.5162809491157532,-0.12905438244342804,0.5132886171340942
1772641383547239400,6.108239501953125,-0.5469352602958679,-0.23258957266807556,0.6522718071937561
1772641383557284000,6.1182841796875,-0.5598851442337036,-0.312503844499588,0.7435337901115417
1772641383567330000,6.128330078125,-0.5608921051025391,-0.37545058131217957,0.7805472016334534
1772641383577375200,6.138375244140625,-0.5447804927825928,-0.4250231981277466,0.7616518139839172
1772641383587420200,6.148420166015625,-0.508762538433075,-0.4437590539455414,0.6951020956039429
1772641383597465300,6.15846533203125,-0.4561275839805603,-0.42431241273880005,0.5906212329864502
1772641383607510000,6.168510009765625,-0.38410425186157227,-0.3605233132839203,0.45541438460350037
1772641383617555200,6.17855517578125,-0.2968822717666626,-0.2428366094827652,0.3060605823993683
1772641383627601200,6.18860107421875,-0.20977480709552765,-0.09778381884098053,0.14490552246570587
1772641383637646000,6.19864599609375,-0.12946690618991852,0.06897826492786407,-0.02636449597775936
1772641383647691300,6.208691162109375,-0.062000520527362823,0.2213832587003708,-0.19874931871891022
1772641383657736200,6.218736083984375,-0.011582087725400925,0.3233937621116638,-0.3625033497810364
1772641383667781000,6.228781005859375,0.019518308341503143,0.37042734026908875,-0.4974505305290222
1772641383677827000,6.2388271484375,0.028988242149353027,0.38909077644348145,-0.5971499681472778
1772641383687872300,6.248872314453125,0.03256300464272499,0.38983458280563354,-0.6567254066467285
1772641383697917200,6.258917236328125,0.04794036224484444,0.38506752252578735,-0.6803423166275024
1772641383707962400,6.26896240234375,0.07644177973270416,0.37982988357543945,-0.6754679083824158
1772641383718007000,6.279007080078125,0.11728321760892868,0.3909139633178711,-0.6441691517829895
1772641383728052200,6.28905224609375,0.15985438227653503,0.39481788873672485,-0.5923312306404114
1772641383738098200,6.29909814453125,0.19114811718463898,0.3730020821094513,-0.5209656953811646
1772641383748143000,6.30914306640625,0.2033589780330658,0.3170274794101715,-0.42257654666900635
1772641383758188300,6.319188232421875,0.2010452300310135,0.21901224553585052,-0.304470956325531
1772641383768233200,6.329233154296875,0.1827719509601593,0.09401464462280273,-0.17368656396865845
1772641383778278100,6.339278076171875,0.16386909782886505,-0.035345740616321564,-0.03966671973466873
1772641383788324000,6.349323974609375,0.12837395071983337,-0.15683701634407043,0.08385948091745377
1772641383798369300,6.359369384765625,0.08560092002153397,-0.24884124100208282,0.18244491517543793
1772641383808414200,6.369414306640625,0.04565403610467911,-0.3020448088645935,0.24288854002952576
1772641383818459400,6.37945947265625,0.016810938715934753,-0.32985568046569824,0.2562735974788666
1772641383828503800,6.38950390625,-0.0027350664604455233,-0.3231354355812073,0.21895071864128113
1772641383838549800,6.3995498046875,-0.017615744844079018,-0.2889905273914337,0.14465226233005524
1772641383848595000,6.409594970703125,-0.03037974424660206,-0.22773835062980652,0.0455981120467186
1772641383858640000,6.419639892578125,-0.038769498467445374,-0.13870088756084442,-0.06016933172941208
1772641383868685000,6.42968505859375,-0.0395391546189785,-0.044068124145269394,-0.16075240075588226
1772641383878730000,6.43972998046875,-0.026130670681595802,0.044675059616565704,-0.2500956058502197
1772641383888775000,6.44977490234375,-0.006352438125759363,0.1065962165594101,-0.3165625035762787
1772641383898820900,6.45982080078125,0.013540576212108135,0.13695305585861206,-0.3558957874774933
1772641383908866000,6.469865966796875,0.02635331079363823,0.14301468431949615,-0.3741333782672882
1772641383918911000,6.479910888671875,0.03549753874540329,0.14214009046554565,-0.37695208191871643
1772641383928956000,6.489955810546875,0.044615671038627625,0.136676624417305,-0.36844485998153687
1772641383939000800,6.500000732421875,0.05694051459431648,0.13544172048568726,-0.354680597782135
1772641383949046800,6.510046875,0.06850822269916534,0.14983902871608734,-0.3349258005619049
1772641383959092000,6.520092041015625,0.07655096799135208,0.17616970837116241,-0.3151850998401642
1772641383969137000,6.530136962890625,0.08246424794197083,0.195200115442276,-0.2915911078453064
1772641383979182000,6.54018212890625,0.09094642102718353,0.19039924442768097,-0.2612220048904419
1772641383989227000,6.55022705078125,0.1022036001086235,0.1777995526790619,-0.21886976063251495
1772641383999272000,6.56027197265625,0.11345385760068893,0.1502169370651245,-0.16898901760578156
1772641384009318000,6.57031787109375,0.12464100122451782,0.1307087391614914,-0.11671729385852814
1772641384019362800,6.58036279296875,0.13423530757427216,0.11118032038211823,-0.06265139579772949
1772641384029408000,6.590407958984375,0.1371850222349167,0.08739323168992996,-0.011775699444115162
1772641384039453000,6.600452880859375,0.12997451424598694,0.05493728443980217,0.026749854907393456
1772641384049497900,6.610497802734375,0.11715831607580185,0.022949257865548134,0.06010860949754715
1772641384059543800,6.620543701171875,0.10013698786497116,0.0060027651488780975,0.08135184645652771
1772641384069589000,6.630589111328125,0.08083093166351318,0.009211075492203236,0.0955054834485054
1772641384079634000,6.640634033203125,0.06603360921144485,0.017557688057422638,0.10312798619270325
1772641384089679000,6.65067919921875,0.054362572729587555,0.024547154083848,0.0989641323685646
1772641384099724000,6.66072412109375,0.0444505549967289,0.031017836183309555,0.08780628442764282
1772641384109769000,6.67076904296875,0.04056606814265251,0.03927896171808243,0.07420764863491058
1772641384119815000,6.68081494140625,0.04023583605885506,0.05408773571252823,0.05657273158431053
1772641384129859800,6.69085986328125,0.04356824979186058,0.07306329160928726,0.04806260019540787
1772641384139905000,6.700905029296875,0.051718588918447495,0.08696792274713516,0.04837445542216301
1772641384149950000,6.710949951171875,0.07051624357700348,0.100895456969738,0.05994056537747383
1772641384159995000,6.720994873046875,0.09553717821836472,0.11089082807302475,0.08700094372034073
1772641384170040800,6.731040771484375,0.13390666246414185,0.11499902606010437,0.12857714295387268
1772641384180086000,6.7410859375,0.17378351092338562,0.1209767535328865,0.17407245934009552
1772641384190131000,6.751130859375,0.21790888905525208,0.12676620483398438,0.22073504328727722
1772641384200176000,6.761176025390625,0.2597127854824066,0.12386175990104675,0.2545159161090851
1772641384210221000,6.771220947265625,0.28592950105667114,0.10124140232801437,0.27558231353759766
1772641384220266000,6.781265869140625,0.29103076457977295,0.06678701937198639,0.29472458362579346
1772641384230312000,6.79131201171875,0.2771548926830292,0.04990657418966293,0.31452250480651855
1772641384240356900,6.80135693359375,0.24116308987140656,0.017560351639986038,0.3303952217102051
1772641384250402000,6.811402099609375,0.19473406672477722,-0.030065223574638367,0.34804558753967285
1772641384260447000,6.821447021484375,0.13882100582122803,-0.09939023852348328,0.357377827167511
1772641384270492000,6.831491943359375,0.07911425828933716,-0.16814692318439484,0.3686422109603882
1772641384280537900,6.841537841796875,0.02672641910612583,-0.21754616498947144,0.3785017728805542
1772641384290582800,6.851582763671875,-0.016992565244436264,-0.258301317691803,0.3755909204483032
1772641384300628000,6.8616279296875,-0.042878225445747375,-0.2511528730392456,0.35928332805633545
1772641384310673000,6.8716728515625,-0.04632701724767685,-0.22438117861747742,0.3210510015487671
1772641384320718000,6.881718017578125,-0.0461358018219471,-0.1727914810180664,0.2626335024833679
1772641384330764000,6.891763916015625,-0.008406800217926502,-0.062243666499853134,0.20565995573997498
1772641384340809000,6.90180908203125,0.05047089606523514,0.026009496301412582,0.13448350131511688
1772641384350854000,6.91185400390625,0.1223008781671524,0.11996821314096451,0.07322308421134949
1772641384360899000,6.921899169921875,0.2026071697473526,0.18326570093631744,0.026024410501122475
1772641384370944000,6.931944091796875,0.2722536325454712,0.21909773349761963,0.0010551444720476866
1772641384380989000,6.941989013671875,0.32995980978012085,0.24163366854190826,0.005859486758708954
1772641384391035000,6.952034912109375,0.3647260367870331,0.23623649775981903,0.03746747970581055
1772641384401079800,6.962079833984375,0.37219592928886414,0.21415197849273682,0.0848243460059166
1772641384411125000,6.972125,0.3637441396713257,0.1719675064086914,0.13999438285827637
1772641384421170000,6.982169921875,0.3424958288669586,0.13614025712013245,0.20340505242347717
1772641384431215000,6.992215087890625,0.30424273014068604,0.11095181852579117,0.27372661232948303
1772641384441261000,7.002260986328125,0.2561284601688385,0.08685660362243652,0.3399091064929962
1772641384451306000,7.012305908203125,0.20342662930488586,0.06510336697101593,0.4042641222476959
1772641384461351000,7.022350830078125,0.15391047298908234,0.02600124105811119,0.44917991757392883
1772641384471396000,7.03239599609375,0.11879642307758331,-0.014910239726305008,0.47056591510772705
1772641384481441000,7.04244091796875,0.08956930041313171,-0.04881441220641136,0.46137747168540955
1772641384491486000,7.05248583984375,0.06883233040571213,-0.056298691779375076,0.4317668378353119
1772641384501532000,7.062531982421875,0.05179661884903908,-0.05044879391789436,0.374294251203537
1772641384511576800,7.072576904296875,0.03680435195565224,-0.035345207899808884,0.29904529452323914
1772641384521622000,7.0826220703125,0.02617807500064373,-0.027042269706726074,0.2146177589893341
1772641384531667000,7.0926669921875,0.014813034795224667,-0.01477468479424715,0.1275624930858612
1772641384541712100,7.102712158203125,0.007180415093898773,0.018861837685108185,0.052683718502521515
1772641384551758000,7.112758056640625,-0.0046301716938614845,0.04566016420722008,-0.0349060520529747
1772641384561802800,7.122802734375,-0.01968368887901306,0.0837971642613411,-0.12121990323066711
1772641384571848000,7.132847900390625,-0.030423952266573906,0.11280457675457001,-0.19897808134555817
1772641384581892900,7.142892822265625,-0.03214302286505699,0.1229618713259697,-0.26716113090515137
1772641384591938000,7.15293798828125,-0.030654847621917725,0.13225524127483368,-0.33130335807800293
1772641384601982700,7.162982666015625,-0.02707475982606411,0.13613998889923096,-0.381842702627182
1772641384612029000,7.17302880859375,-0.01793345995247364,0.12862002849578857,-0.4317657947540283
1772641384622073900,7.183073974609375,0.0006301039247773588,0.12029152363538742,-0.47479048371315
1772641384632119000,7.193119140625,0.03157550469040871,0.11577799916267395,-0.5122028589248657
1772641384642164000,7.2031640625,0.07571925967931747,0.11986062675714493,-0.5361337661743164
1772641384652209200,7.213209228515625,0.12787407636642456,0.13212049007415771,-0.5521007180213928
1772641384662255000,7.223255126953125,0.18613871932029724,0.18177832663059235,-0.5532000660896301
1772641384672299800,7.2332998046875,0.23893854022026062,0.23388946056365967,-0.5412874817848206
1772641384682345000,7.243344970703125,0.2885282039642334,0.28046920895576477,-0.5038557052612305
1772641384692390000,7.253389892578125,0.3381607234477997,0.31402796506881714,-0.44896048307418823
1772641384702435000,7.26343505859375,0.369704008102417,0.3179904818534851,-0.38659217953681946
1772641384712479700,7.273479736328125,0.3760804235935211,0.3029092848300934,-0.30297210812568665
1772641384722526000,7.28352587890625,0.35457006096839905,0.2618390619754791,-0.20466819405555725
1772641384732571000,7.29357080078125,0.30636340379714966,0.1986510455608368,-0.09952951967716217
1772641384742616000,7.303615966796875,0.2433767020702362,0.0879351794719696,-0.001969940261915326
1772641384752661000,7.313660888671875,0.16792508959770203,-0.04567667469382286,0.07907351106405258
1772641384762706000,7.323705810546875,0.09114109724760056,-0.17043884098529816,0.14585253596305847
1772641384772752100,7.333752197265625,0.018428808078169823,-0.24701377749443054,0.19605793058872223
1772641384782796800,7.343796875,-0.035888757556676865,-0.28343385457992554,0.22201628983020782
1772641384792842000,7.353842041015625,-0.07213464379310608,-0.2904094457626343,0.2240818291902542
1772641384802887000,7.363886962890625,-0.09545435011386871,-0.26588040590286255,0.21489019691944122
1772641384812932000,7.37393212890625,-0.1120181456208229,-0.210049107670784,0.19775435328483582
1772641384822976800,7.383976806640625,-0.13365446031093597,-0.16175907850265503,0.1753571778535843
1772641384833022500,7.3940224609375,-0.15694060921669006,-0.09796038269996643,0.13852672278881073
1772641384843067400,7.4040673828125,-0.16804440319538116,-0.06257842481136322,0.07804979383945465
1772641384853112300,7.4141123046875,-0.16567204892635345,-0.06735426932573318,-0.0011475561186671257
1772641384863157200,7.4241572265625,-0.15027019381523132,-0.10180652141571045,-0.08769097179174423
1772641384873202400,7.434202392578125,-0.13218359649181366,-0.10964606702327728,-0.1492914855480194
1772641384883248400,7.444248291015625,-0.11870188266038895,-0.10480550676584244,-0.18706922233104706
1772641384893293300,7.454293212890625,-0.09714093059301376,-0.10890278220176697,-0.21332532167434692
1772641384903338500,7.46433837890625,-0.06522241234779358,-0.07425665110349655,-0.21894140541553497
1772641384913383200,7.474383056640625,-0.04418716952204704,-0.06179758906364441,-0.213633194565773
1772641384923428400,7.484428466796875,-0.03277898579835892,-0.06196429952979088,-0.20978865027427673
1772641384933473300,7.494473388671875,-0.038307707756757736,-0.06487753242254257,-0.20601867139339447
1772641384943519200,7.504519287109375,-0.06150810047984123,-0.06156802177429199,-0.19641904532909393
1772641384953564400,7.514564453125,-0.09654651582241058,-0.05819486454129219,-0.1729390174150467
1772641384963609300,7.524609375,-0.14653538167476654,-0.05976559594273567,-0.14650581777095795
1772641384973654300,7.534654296875,-0.2006627917289734,-0.06011686474084854,-0.11587653309106827
1772641384983699200,7.54469921875,-0.2502439320087433,-0.05962285026907921,-0.07796190679073334
1772641384993745400,7.554745361328125,-0.29119694232940674,-0.07534614950418472,-0.04469742998480797
1772641385003790300,7.564790283203125,-0.32390376925468445,-0.07915447652339935,-0.013081713579595089
1772641385013835500,7.57483544921875,-0.34724023938179016,-0.08435908704996109,0.01501330453902483
1772641385023880200,7.584880126953125,-0.3562571704387665,-0.08577881753444672,0.03880625218153
1772641385033925400,7.59492529296875,-0.35084590315818787,-0.09118423610925674,0.05705263465642929
1772641385043970300,7.60497021484375,-0.34482690691947937,-0.0885506346821785,0.07452989369630814
1772641385054016300,7.615016357421875,-0.3453664481639862,-0.06266658008098602,0.09091738611459732
1772641385064061400,7.6250615234375,-0.3459544777870178,-0.04212428256869316,0.11135102808475494
1772641385074106000,7.635106201171875,-0.34459760785102844,-0.0341142937541008,0.129783034324646
1772641385084151300,7.6451513671875,-0.33116087317466736,-0.05528482794761658,0.15952575206756592
1772641385094196200,7.6551962890625,-0.3077298700809479,-0.08932162076234818,0.1933889091014862
1772641385104242400,7.665242431640625,-0.2757143974304199,-0.1191844493150711,0.24080781638622284
1772641385114287400,7.675287353515625,-0.24498605728149414,-0.13382330536842346,0.29853928089141846
1772641385124332500,7.68533251953125,-0.21579301357269287,-0.1034851148724556,0.36948803067207336
1772641385134377200,7.695377197265625,-0.18661808967590332,-0.011999937705695629,0.4488219916820526
1772641385144422400,7.70542236328125,-0.15506547689437866,0.08785475790500641,0.5045278668403625
1772641385154467300,7.71546728515625,-0.1203346699476242,0.14483362436294556,0.5157315135002136
1772641385164513300,7.72551318359375,-0.0746004655957222,0.1548606902360916,0.4893593192100525
1772641385174558500,7.735558349609375,-0.026628414168953896,0.13186268508434296,0.43056151270866394
1772641385184603100,7.74560302734375,-0.006698382552713156,0.09755824506282806,0.3492160439491272
1772641385194648300,7.7556484375,-0.03227058798074722,0.0713420882821083,0.2502226233482361
1772641385204693200,7.765693359375,-0.12213576585054398,0.06386660039424896,0.1363178938627243
1772641385214739200,7.7757392578125,-0.2416301965713501,0.11447997391223907,0.035712458193302155
1772641385224784400,7.785784423828125,-0.3561890125274658,0.19798818230628967,-0.021919148042798042
1772641385234829300,7.795829345703125,-0.4360627830028534,0.259905070066452,-0.03235634043812752
1772641385244874200,7.805874267578125,-0.4587737023830414,0.298679918050766,0.0060299295000731945
1772641385254919200,7.815919189453125,-0.43029066920280457,0.303131103515625,0.08496548980474472
1772641385264964400,7.82596435546875,-0.3730952739715576,0.2713942229747772,0.1856881082057953
1772641385275010300,7.83601025390625,-0.3003619611263275,0.19049085676670074,0.29051706194877625
1772641385285055500,7.846055419921875,-0.22780093550682068,0.10153621435165405,0.39613428711891174
1772641385295100200,7.85610009765625,-0.17708955705165863,0.02448989637196064,0.4883153438568115
1772641385305145300,7.866145263671875,-0.14056484401226044,-0.034017354249954224,0.5655280947685242
1772641385315190300,7.876190185546875,-0.12059272825717926,-0.07911079376935959,0.6247254014015198
1772641385325236200,7.886236328125,-0.11088363826274872,-0.10776668041944504,0.66424161195755
1772641385335281400,7.896281494140625,-0.11434255540370941,-0.13140302896499634,0.6842816472053528
1772641385345326300,7.906326416015625,-0.12333791702985764,-0.12923042476177216,0.687839925289154
1772641385355371300,7.916371337890625,-0.13493570685386658,-0.09189050644636154,0.6763342618942261
1772641385365416200,7.926416259765625,-0.14701341092586517,-0.03200799971818924,0.6525591611862183
1772641385375461400,7.93646142578125,-0.15853451192378998,0.0199260376393795,0.6065298914909363
1772641385385507300,7.94650732421875,-0.1697498857975006,0.03773539513349533,0.5303093791007996
1772641385395552500,7.956552490234375,-0.17899371683597565,0.04165929555892944,0.43765535950660706
1772641385405597200,7.96659716796875,-0.1957135796546936,0.057023338973522186,0.3492717146873474
1772641385415642400,7.976642333984375,-0.2083822339773178,0.0911240503191948,0.27011457085609436
1772641385425687300,7.986687255859375,-0.2284635305404663,0.06656064838171005,0.2205110639333725
1772641385435733200,7.996733154296875,-0.2447306513786316,-0.08115211129188538,0.16548296809196472
1772641385445778400,8.0067783203125,-0.252321720123291,-0.2395971417427063,0.0875796526670456
1772641385455823400,8.0168232421875,-0.2407609522342682,-0.3404659628868103,0.00027563716867007315
1772641385465868300,8.026868408203125,-0.21993981301784515,-0.32327234745025635,-0.08684009313583374
1772641385475913200,8.036913330078125,-0.2036908119916916,-0.26094159483909607,-0.19516204297542572
1772641385485958400,8.04695849609375,-0.18555521965026855,-0.15498211979866028,-0.30833253264427185
1772641385496004400,8.05700439453125,-0.15773077309131622,-0.035902608186006546,-0.4035024642944336
1772641385506049300,8.06704931640625,-0.13122273981571198,0.05952111631631851,-0.47159841656684875
1772641385516094200,8.07709423828125,-0.11284053325653076,0.09877211600542068,-0.5009645819664001
1772641385526139100,8.08713916015625,-0.10633176565170288,0.052069857716560364,-0.4934275448322296
1772641385536184300,8.097184326171876,-0.11234145611524582,-0.031259916722774506,-0.4440346956253052
