time,seconds_elapsed,z,y,x
1772735093467139800,0.071139892578125,-0.0007787091308273375,0.0007797479629516602,-0.00023127911845222116
1772735093477166600,0.08116650390625,0.0008460854296572506,-0.0006085580680519342,0.00011466551222838461
1772735093487193600,0.091193603515625,0.0005608247010968626,-0.0013499821070581675,-0.0004070497816428542
1772735093497220900,0.101220947265625,0.0008780072093941271,-0.0006519677117466927,0.0011005656560882926
1772735093507247600,0.11124755859375,-0.0017927103908732533,0.0010951687581837177,-0.0008168756030499935
1772735093517274600,0.121274658203125,-0.0001383547787554562,0.0008805179968476295,-0.000651759619358927
1772735093527301600,0.131301513671875,-0.0023132851347327232,0.0009046630002558231,-0.0014070691540837288
1772735093537328600,0.14132861328125,0.0011791842989623547,-0.0011803258676081896,0.0015365227591246367
1772735093547355600,0.151355712890625,-0.0010350391967222095,0.0012180176563560963,0.0014074227074161172
1772735093557383400,0.161383544921875,0.0012880361173301935,-0.001680833287537098,0.0005477543454617262
1772735093567409700,0.17140966796875,-0.00036790187004953623,0.0009219604544341564,0.00041532644536346197
1772735093577437700,0.181437744140625,-0.0008600540459156036,-0.0006367876194417477,-0.0002051900519290939
1772735093587464400,0.19146435546875,-0.000673486792948097,-0.0006768985185772181,0.0011916651856154203
1772735093597491700,0.20149169921875,-0.0014069214230403304,0.0004504173994064331,0.0006041719461791217
1772735093607518700,0.211518798828125,0.0012701328378170729,-0.001457801554352045,0.000007580325473099947
1772735093617545700,0.221545654296875,0.0012898402055725455,0.00029562367126345634,0.0019447635859251022
1772735093627572500,0.231572509765625,0.000986940460279584,0.00042882049456238747,-0.0030313374008983374
1772735093637599700,0.241599853515625,0.0009696300257928669,0.0004748930223286152,-0.0014661976601928473
1772735093647626800,0.251626708984375,0.0011281304759904742,-0.00038775638677179813,0.0007404770003631711
1772735093657653500,0.261653564453125,0.0024964625481516123,0.001091629732400179,-0.0016941848443821073
1772735093667680800,0.2716806640625,0.00002099838457070291,-0.0006745913997292519,0.002072318224236369
1772735093677707800,0.281707763671875,0.0008154193637892604,-0.0006261218804866076,-0.00001932831946760416
1772735093687734500,0.291734619140625,0.00046358691179193556,0.0007050409913063049,0.00022945634555071592
1772735093697761500,0.301761474609375,0.0014604080934077501,0.0002373899333178997,-0.0032526268623769283
1772735093707788800,0.311788818359375,0.0017193229869008064,0.002216664142906666,-0.0012560503091663122
1772735093717815600,0.321815673828125,0.0010221076663583517,0.001050732098519802,-0.0006962538463994861
1772735093727842600,0.331842529296875,0.0018204248044639826,0.0003458322025835514,0.0008670350071042776
1772735093737869800,0.341869873046875,0.002655592281371355,0.00035914801992475986,0.002320588333532214
1772735093747896600,0.351896484375,0.003119922010228038,0.0008006100542843342,0.000549553893506527
1772735093757923600,0.361923583984375,0.0021246985998004675,-0.001784253865480423,0.00039375899359583855
1772735093767950600,0.37195068359375,0.0014784615486860275,0.0003731984179466963,-0.00018999625172000378
1772735093777977600,0.3819775390625,-0.00031171535374596715,-0.0014449416194111109,-0.001694948528893292
1772735093788004600,0.392004638671875,-0.0011606743792071939,0.00007665040902793407,0.00286121666431427
1772735093798032400,0.402032470703125,0.00003055756678804755,0.0019568423740565777,-0.00016280269483104348
1772735093808059100,0.41205908203125,-0.001056585693731904,0.0006692670285701752,-0.0005742677603848279
1772735093818086400,0.42208642578125,-0.002119187032803893,0.0011976384557783604,0.0008822150412015617
1772735093828113400,0.432113525390625,-0.00007184855348896235,0.0009712064638733864,0.0008243866614066064
1772735093838140200,0.44214013671875,-0.0004023468354716897,-0.0008466674480587244,-0.0007942826487123966
1772735093848167200,0.452167236328125,-0.0006662929663434625,0.000022460240870714188,0.0003503008047118783
1772735093858194400,0.4621943359375,-0.0003941179602406919,-0.0016449448885396123,0.00006321203545667231
1772735093868221200,0.47222119140625,0.0007089342689141631,-0.0007806341163814068,-0.001086701755411923
1772735093878248200,0.482248291015625,-0.0008349001873284578,-0.00022563128732144833,-0.0006483454490080476
1772735093888275500,0.492275390625,-0.0014935133513063192,0.000837172381579876,-0.0008401139639317989
1772735093898302200,0.50230224609375,-0.0011132139479741454,0.00021425914019346237,0.000804654264356941
1772735093908329200,0.5123291015625,-0.0013530954020097852,0.0003043506294488907,-0.0010094661265611649
1772735093918356200,0.522356201171875,0.0018576116999611259,0.0013808002695441246,0.0011223943438380957
1772735093928383200,0.53238330078125,0.00046918002772144973,0.00023584370501339436,-0.0011802157387137413
1772735093938410200,0.54241015625,0.0007136581698432565,0.000710685271769762,-0.00036342430394142866
1772735093948437200,0.552437255859375,0.003063359996303916,0.0007846786174923182,0.00003707458381541073
1772735093958464500,0.562464599609375,-0.0011841156519949436,-0.001870493171736598,0.0011990116909146309
1772735093968491300,0.5724912109375,0.001185511238873005,0.00020323344506323338,-0.00014356298197526485
1772735093978518300,0.582518310546875,-0.001545027713291347,-0.0020330226980149746,0.0013768356293439865
1772735093988545300,0.592545166015625,-0.0021718216594308615,-0.000768809113651514,-0.0008220115560106933
1772735093998572300,0.602572265625,-0.0005712618585675955,0.001755068777129054,-0.00018391816411167383
1772735094008599300,0.612599365234375,-0.000505427538882941,0.0014517209492623806,0.0008991539943963289
1772735094018626300,0.622626220703125,0.0008032497717067599,0.0002935121301561594,0.0009356393711641431
1772735094028653300,0.6326533203125,-0.0005492307827807963,-0.00006133364513516426,-0.00011838505452033132
1772735094038680300,0.642680419921875,0.0012241682270541787,-0.0018704188987612724,0.0009442161535844207
1772735094048707300,0.652707275390625,-0.001533000497147441,0.0008870409801602364,-0.0003341936389915645
1772735094058734000,0.662734130859375,-0.0012080948799848557,-0.00002482556737959385,0.00015689324936829507
1772735094068761300,0.67276123046875,-0.00028427326469682157,0.0011718485038727522,-0.002605023328214884
1772735094078788400,0.682788330078125,0.0019671630579978228,0.0018698631320148706,-0.001862001372501254
1772735094088815000,0.692815185546875,0.0007245165761560202,0.00033126724883913994,-0.0027985749766230583
1772735094098843400,0.702843505859375,-0.0007404884090647101,-0.00014677015133202076,-0.0009708473226055503
1772735094108870100,0.7128701171875,-0.00009119656169787049,-0.0007749460637569427,0.00016660612891428173
1772735094118897200,0.722897216796875,-0.0022390359081327915,0.0003624900709837675,0.0029227114282548428
1772735094128924400,0.73292431640625,-0.0004281113506294787,0.002325063804164529,-0.0004752271343022585
1772735094138951400,0.742951416015625,-0.0011895091738551855,-0.0017181473085656762,0.002847066381946206
1772735094148978200,0.752978271484375,0.00006137765012681484,-0.002678749617189169,0.0006038857391104102
1772735094159005200,0.763005126953125,-0.0028696975205093622,0.00069227977655828,-0.0011735078878700733
1772735094169032400,0.773032470703125,-0.0010378342121839523,-0.00101090082898736,-0.000243027534452267
1772735094179059200,0.78305908203125,0.0001802956685423851,0.0006889947690069675,-0.00021719487267546356
1772735094189086200,0.793086181640625,-0.0012636276660487056,-0.0008202700410038233,0.001700795954093337
1772735094199113500,0.803113525390625,-0.005623488686978817,-0.002063966356217861,0.00159054109826684
1772735094209140200,0.81314013671875,-0.006557272747159004,0.00019498844631016254,-0.0003032232925761491
1772735094219167200,0.823167236328125,-0.001240005367435515,0.002443495439365506,0.002081371145322919
1772735094229194200,0.8331943359375,0.004638992249965668,0.002231318037956953,-0.001397490850649774
1772735094239221200,0.84322119140625,0.003445895854383707,-0.00024409033358097076,0.0004994787741452456
1772735094249248300,0.853248291015625,0.0026296796277165413,0.0010754552204161882,-0.0004595421196427196
1772735094259275300,0.863275146484375,-0.0028654870111495256,0.002201173221692443,0.0006605834350921214
1772735094269302300,0.87330224609375,-0.0008613038808107376,0.0000826029572635889,0.0029383765067905188
1772735094279329300,0.883329345703125,0.0005632209940813482,-0.0009645519312471151,0.0009380761184729636
1772735094289356300,0.893356201171875,0.0017851912416517735,-0.00013042427599430084,0.00019799236906692386
1772735094299383000,0.903383056640625,0.00286936410702765,-0.002371208043769002,0.0014137253165245056
1772735094309410300,0.913410400390625,0.0004364384803920984,0.0005437745712697506,0.0022976738400757313
1772735094319437300,0.923437255859375,0.001208755187690258,-0.0007254877127707005,0.0005218781880103052
1772735094329464300,0.93346435546875,-0.0005720711196772754,0.0003915934357792139,-0.0023423845414072275
1772735094339491300,0.9434912109375,-0.0016288134502246976,0.0031897767912596464,-0.001606020494364202
1772735094349518300,0.953518310546875,0.0035531583707779646,-0.00043824734166264534,-0.0008726030355319381
1772735094359545300,0.96354541015625,0.002802147064357996,-0.0002086828462779522,-0.0027932748198509216
1772735094369572000,0.973572021484375,-0.0008531959028914571,0.0019224043935537338,-0.00037991045974195004
1772735094379599400,0.983599365234375,-0.001918460358865559,0.00212507089599967,0.0011580651625990868
1772735094389626400,0.99362646484375,-0.004665257874876261,-0.0007104608230292797,0.0005039726383984089
1772735094399653000,1.003653076171875,-0.002170941326767206,-0.00013628322631120682,-0.0008569026831537485
1772735094409680400,1.013680419921875,-0.0005476172082126141,0.00011762860231101513,-0.0016348690260201693
1772735094419707400,1.023707275390625,0.0019011595286428928,0.00015198346227407455,-0.0006795930676162243
1772735094429734100,1.033734130859375,0.0006224771495908499,0.0007635264191776514,-0.0021696225740015507
1772735094439761200,1.04376123046875,0.0020089189056307077,0.0005105261225253344,-0.0007197977975010872
1772735094449788400,1.053788330078125,-0.0008338802726939321,0.0004988978616893291,-0.0002065762528218329
1772735094459815200,1.063815185546875,-0.0033601548057049513,0.0014834683388471603,0.0014333983417600393
1772735094469842200,1.07384228515625,-0.003113597398623824,0.002228840719908476,-0.00019942392827942967
1772735094479869400,1.083869384765625,0.0000776684028096497,0.0006000511348247528,0.003060551593080163
1772735094489896200,1.093896240234375,0.0009039620636031032,0.0013876501470804214,0.0014168802881613374
1772735094499923200,1.103923095703125,0.002025153022259474,0.0016033658757805824,0.0021937242709100246
1772735094509950200,1.1139501953125,0.0006418938282877207,0.002011298667639494,0.0004749009385704994
1772735094519977200,1.123977294921875,0.001077587017789483,0.0018722815439105034,0.001261865021660924
1772735094530004200,1.134004150390625,0.0012335069477558136,0.0029533475171774626,0.0002943649305962026
1772735094540031200,1.14403125,-0.0019479052862152457,0.0018558588344603777,0.00035588396713137627
1772735094550058200,1.154058349609375,-0.0000424435711465776,-0.00002704467624425888,0.000356367789208889
1772735094560085200,1.164085205078125,-0.0026344982907176018,-0.00005447538569569588,-0.0015472597442567348
1772735094570112300,1.1741123046875,0.0019649085588753223,-0.001455717720091343,0.00005191782838664949
1772735094580139300,1.18413916015625,0.0008775398600846529,-0.0018911446677520871,-0.0014375881291925907
1772735094590167300,1.194167236328125,0.0005635240231640637,-0.0010276325047016144,-0.0016556618502363563
1772735094600194300,1.2041943359375,-0.0029744855128228664,-0.0001647684257477522,-0.0015973387053236365
1772735094610221300,1.21422119140625,-0.0017155399546027184,-0.00045071542263031006,0.00028687005396932364
1772735094620248300,1.224248291015625,-0.0018148759845644236,-0.0007031832356005907,-0.0008537618559785187
1772735094630275300,1.234275390625,0.001549426233395934,-0.00040711602196097374,0.0006248029530979693
1772735094640302000,1.244302001953125,-0.000560063635930419,-0.0007847521919757128,0.0011486466974020004
1772735094650329300,1.254329345703125,0.0013317049015313387,0.0007264143787324429,0.00032149453181773424
1772735094660356400,1.2643564453125,0.0026784653309732676,0.0002497087698429823,0.0018432247452437878
1772735094670383000,1.274383056640625,-0.0016998141072690487,0.0004979660734534264,0.0012954252306371927
1772735094680410400,1.284410400390625,-0.0015975487185642123,0.0020428658463060856,0.0014640033477917314
1772735094690437400,1.294437255859375,-0.0005790279246866703,-0.0005488090682774782,0.0014908588491380215
1772735094700464000,1.304464111328125,-0.003606509417295456,0.0028581731021404266,-0.00003539875615388155
1772735094710491100,1.3144912109375,-0.003297809511423111,-0.0008000205270946026,-0.00006783826393075287
1772735094720518400,1.324518310546875,-0.005474943667650223,0.0005179778672754765,-0.0015725241973996162
1772735094730545400,1.33454541015625,0.001232845475897193,0.0018382712733000517,-0.0014801373472437263
1772735094740572200,1.344572265625,0.0002599928411655128,0.0019069809932261705,-0.0007645459845662117
1772735094750599400,1.354599365234375,0.0010012919083237648,0.0022746743634343147,0.0005206692731007934
1772735094760626400,1.36462646484375,0.00023936148500069976,0.0012019532732665539,-0.0019214494386687875
1772735094770653200,1.374653076171875,-0.0005907593294978142,0.0003640588838607073,0.001026382204145193
1772735094780680200,1.38468017578125,-0.0014514930080622435,-0.00017017126083374023,0.003328418591991067
1772735094790707500,1.39470751953125,-0.0020309968385845423,-0.0036133723333477974,0.0027590347453951836
1772735094800734000,1.40473388671875,-0.0002706473460420966,0.000031430041417479515,0.0010274476371705532
1772735094810761000,1.414760986328125,-0.0001180773542728275,0.0003721630200743675,0.0004836668958887458
1772735094820788000,1.4247880859375,0.0013847444206476212,-0.0005639379378408194,0.0016429407987743616
1772735094830815000,1.43481494140625,0.0024750158190727234,0.001414662692695856,0.000783231167588383
1772735094840842000,1.444842041015625,0.0002099971752613783,0.0018319799564778805,-0.0019214751664549112
1772735094850869000,1.454868896484375,0.0030896307434886694,-0.0010505742393434048,0.00035820825723931193
1772735094860896000,1.46489599609375,0.0028004115447402,-0.0007483053486794233,0.0026772888377308846
1772735094870923000,1.474923095703125,0.000397188268834725,-0.002975975628942251,0.0011896671494469047
1772735094880950000,1.484949951171875,0.0009897416457533836,-0.0007450454868376255,0.00005888901068829
1772735094890977000,1.49497705078125,-0.00008105940651148558,-0.0006989603862166405,0.0016277607064694166
1772735094901004000,1.505004150390625,-0.0033444969449192286,0.0008177098352462053,0.0011308148968964815
1772735094911031000,1.515031005859375,-0.0014590057544410229,0.002280722837895155,-0.00007750248187221587
1772735094921058000,1.52505810546875,0.0012608806136995554,0.0014037438668310642,0.001354479230940342
1772735094931085000,1.5350849609375,0.001772724324837327,-0.00028185825794935226,-0.0012811957858502865
1772735094941112000,1.545112060546875,0.0010960150975733995,-0.001557778799906373,-0.0001056765322573483
1772735094951139000,1.55513916015625,0.0019533424638211727,0.0005133745726197958,-0.0006865087198093534
1772735094961165800,1.565165771484375,-0.0016147607238963246,0.0013823637273162603,0.00017635547555983067
1772735094971193000,1.575193115234375,-0.002669303445145488,0.004255990963429213,-0.005076445639133453
1772735094981220000,1.58522021484375,0.001236222218722105,0.00019387132488191128,0.0027670967392623425
1772735094991246800,1.595246826171875,0.00116311339661479,0.00028053787536919117,0.0014123074943199754
1772735095001274000,1.605274169921875,0.0017343615181744099,-0.0024135159328579903,0.00036701676435768604
1772735095011301000,1.615301025390625,0.0017663193866610527,-0.00012373016215860844,0.0016711667412891984
1772735095021328000,1.625327880859375,0.0007292844820767641,0.0009788183961063623,0.0002527671167626977
1772735095031355000,1.63535498046875,-0.00030328219872899354,-0.0010076710022985935,0.0007713387603871524
1772735095041382100,1.645382080078125,-0.00134164874907583,0.001934323227033019,0.001897056819871068
1772735095051410000,1.655409912109375,0.0011605489999055862,-0.00016158539801836014,0.0014959188411012292
1772735095061437200,1.665437255859375,0.00011099711991846561,0.001385711133480072,-0.0007824154454283416
1772735095071464000,1.6754638671875,-0.0012061067391186953,-0.0007336949929594994,0.0010941014625132084
1772735095081491000,1.685490966796875,-0.0018796202493831515,-0.0011392943561077118,0.00016039732145145535
1772735095091518000,1.69551806640625,0.0012396153761073947,0.000679555581882596,-0.0004976905765943229
1772735095101545200,1.705545166015625,-0.0017268797382712364,-0.0016424544155597687,-0.001078259665518999
1772735095111572000,1.715572021484375,0.0007458946784026921,0.0006719841621816158,-0.0010974673787131906
1772735095121599000,1.725598876953125,0.00028436892898753285,0.0010285815224051476,0.0005142776644788682
1772735095131626200,1.735626220703125,-0.0024736858904361725,0.0010244222357869148,0.000022687832824885845
1772735095141653000,1.745653076171875,-0.003070234088227153,-0.0008144904859364033,0.0000639668432995677
1772735095151680000,1.755679931640625,0.00023708963999524713,0.0005021633114665747,0.0011167110642418265
1772735095161707000,1.76570703125,0.0021303307730704546,0.001490995055064559,-0.00009848937042988837
1772735095171734000,1.775734130859375,-0.0004407562664709985,0.0010643277782946825,-0.000033987656934186816
1772735095181761000,1.785760986328125,0.0016138724749907851,-0.00021558720618486404,0.0008874660707078874
1772735095191788000,1.7957880859375,-0.0007998057408258319,-0.000689338892698288,0.00019450602121651173
1772735095201815000,1.80581494140625,0.0010641406988725066,-0.0003971902187913656,-0.0008925963193178177
1772735095211842000,1.815842041015625,0.00026590912602841854,-0.00023327907547354698,0.0016016868175938725
1772735095221869000,1.825869140625,0.0005817600176669657,-0.0015107975341379642,-0.00018343004921916872
1772735095231895800,1.835895751953125,0.0008737246389500797,-0.0008055935613811016,-0.00005242007318884134
1772735095241923000,1.845923095703125,-0.00009380179108120501,0.0008128094486892223,-0.0008468410233035684
1772735095251950000,1.8559501953125,0.0004985359264537692,0.0009193131700158119,0.0011054975911974907
1772735095261976800,1.865976806640625,0.0017534173093736172,-0.0006354404613375664,-0.000574957171920687
1772735095272004000,1.876004150390625,-0.0005966291064396501,-0.0004827722441405058,-0.0018854979425668716
1772735095282031000,1.886031005859375,-0.0007548208814114332,0.00018967571668326855,-0.00002421467797830701
1772735095292058000,1.89605810546875,-0.0006076204590499401,0.0013334020040929317,-0.0007565486594103277
1772735095302084900,1.9060849609375,-0.0018939272267743945,-0.0029396398458629847,0.0018975576385855675
1772735095312112000,1.916112060546875,-0.0007915453752502799,0.00028139748610556126,0.0014357385225594044
1772735095322139100,1.92613916015625,-0.002237109001725912,0.00020443229004740715,-0.00034751417115330696
1772735095332166000,1.936165771484375,-0.0020874429028481245,0.0005936948582530022,0.0005126406904309988
1772735095342193200,1.946193115234375,-0.0013018102617934346,0.000942569226026535,-0.0010556948836892843
1772735095352220200,1.95622021484375,0.0005020468961447477,-0.0005826510023325682,0.0007299199351109564
1772735095362247000,1.966246826171875,-0.0004854532307945192,0.0005132399965077639,-0.0004426698724273592
1772735095372274000,1.97627392578125,-0.0013376647839322686,0.0002152321394532919,0.000609545037150383
1772735095382301200,1.98630126953125,0.000728948216419667,0.0014405527617782354,0.00041220482671633363
1772735095392328000,1.996327880859375,-0.0010074577294290066,-0.0010361499153077602,0.0008502687560394406
1772735095402355000,2.00635498046875,-0.001446613110601902,0.0006051564123481512,-0.001790255424566567
1772735095412382200,2.01638232421875,-0.00035303644835948944,-0.002244113478809595,0.0002752655709628016
1772735095422409000,2.026408935546875,-0.000595916761085391,0.0007586004212498665,0.0018539873417466879
1772735095432436000,2.03643603515625,0.001165744848549366,0.0003426384646445513,-0.0017543637659400702
1772735095442463000,2.046462890625,0.0010845183860510588,-0.0027663358487188816,-0.0005263801431283355
1772735095452491000,2.056490966796875,0.0006574563449248672,0.0008898123633116484,0.0004812914412468672
1772735095462518000,2.06651806640625,-0.0008541538845747709,0.001526041654869914,-0.0012114137643948197
1772735095472545000,2.076544921875,-0.00033866456942632794,0.0009761368855834007,-0.0018047541379928589
1772735095482572000,2.086572021484375,-0.0014508005697280169,0.00014096987433731556,0.0017702732002362609
1772735095492599000,2.09659912109375,0.00016386076458729804,0.0001950552687048912,0.0007185640861280262
1772735095502626000,2.1066259765625,-0.0006324243731796741,-0.000406286446377635,-0.001352842664346099
1772735095512653000,2.116653076171875,-0.00012547419464681298,0.0005376383196562529,-0.0016575135523453355
1772735095522680000,2.12668017578125,0.0022689737379550934,-0.0002860776148736477,0.0010085769463330507
1772735095532707000,2.13670703125,0.001220241654664278,-0.0000732610933482647,-0.0007355570560321212
1772735095542733800,2.14673388671875,0.001187218469567597,-0.001555043738335371,-0.000413580855820328
1772735095552761000,2.156760986328125,0.00009900461009237915,0.0005335982423275709,-0.0002692987909540534
1772735095562788000,2.1667880859375,-0.0006586647359654307,-0.0011569764465093613,0.001992790261283517
1772735095572814800,2.17681494140625,-0.000738384434953332,0.0009706399869173765,0.001082748407498002
1772735095582842000,2.186842041015625,-0.00021427436149679124,-0.0008397768251597881,0.0021821013651788235
1772735095592869000,2.196869140625,-0.0003174636804033071,-0.000801395159214735,0.0006086688954383135
1772735095602896000,2.206895751953125,-0.0014357250183820724,0.0008950384799391031,0.0003010737709701061
1772735095612923000,2.2169228515625,-0.001564109232276678,-0.0008026594296097755,0.00007058808114379644
1772735095622950100,2.2269501953125,-0.0017507968004792929,-0.0007238299585878849,0.000991509179584682
1772735095632977000,2.236976806640625,-0.0010042994981631637,0.0011138150002807379,-0.001712912693619728
1772735095643004000,2.24700390625,-0.001241054618731141,0.0018765439745038748,0.0008953872602432966
1772735095653031200,2.25703125,0.0012574376305565238,0.0001021816860884428,0.0017271172255277634
1772735095663058000,2.267057861328125,0.00016128059360198677,-0.0006704013794660568,0.0010935512837022543
1772735095673085000,2.2770849609375,0.0016115877078846097,0.000019641360267996788,-0.0004993485054001212
1772735095683112000,2.28711181640625,0.0011798893101513386,0.0026234141550958157,-0.0006756497314199805
1772735095693139200,2.29713916015625,0.00029333849670365453,-0.0002905635628849268,0.0004270594217814505
1772735095703166000,2.307166015625,0.00042037127423100173,-0.0010998982470482588,0.0009469084325246513
1772735095713193000,2.31719287109375,-0.0006971823750063777,-0.0014108475297689438,0.0011805659160017967
1772735095723220200,2.32722021484375,-0.0007147592259570956,0.0006182147189974785,0.0020178640261292458
1772735095733247000,2.3372470703125,-0.0030467051547020674,-0.00037608295679092407,0.0009744093986228108
1772735095743274000,2.34727392578125,0.0005429697339423001,0.0018162312917411327,-0.00021815417858306319
1772735095753301000,2.357301025390625,-0.0008704553474672139,0.00022243079729378223,-0.0007765976479277015
1772735095763328000,2.367327880859375,-0.0014888413716107607,-0.0008747915271669626,0.0008889433229342103
1772735095773355000,2.37735498046875,-0.0014485290739685297,0.00031054322607815266,0.0005134301609359682
1772735095783382000,2.387382080078125,0.0018106475472450256,0.00044236984103918076,0.00032967200968414545
1772735095793409000,2.397408935546875,-0.0002484955475665629,0.0016206158325076103,-0.00007884495425969362
1772735095803435800,2.407435791015625,-0.0006639487110078335,-0.0003019198775291443,-0.0008985659223981202
1772735095813463000,2.417463134765625,-0.0009629492997191846,0.0015855636447668076,-0.001033623469993472
1772735095823489800,2.42748974609375,-0.00109504209831357,0.0006995298899710178,0.0003932981635443866
1772735095833516800,2.437516845703125,-0.0006635967292822897,-0.0015550386160612106,0.0009464520844630897
1772735095843545000,2.447545166015625,0.0013398992596194148,-0.0002522203139960766,-0.0006647604168392718
1772735095853571800,2.45757177734375,-0.0012641528155654669,-0.0019039761973544955,-0.0005430692690424621
1772735095863598800,2.467598876953125,-0.001205030712299049,0.0032359245233237743,-0.00040778066613711417
1772735095873626000,2.477626220703125,0.0005739182233810425,-0.0015478606801480055,0.000714487861841917
1772735095883652900,2.48765283203125,0.00045034755021333694,-0.001428018556907773,-0.001448797876946628
1772735095893679900,2.497679931640625,-0.000025855290004983544,-0.00021669873967766762,0.0011001364327967167
1772735095903707000,2.507706787109375,0.0023315749131143093,0.000920470803976059,0.002020525047555566
1772735095913734000,2.51773388671875,0.0008946309681050479,0.0002116789110004902,-0.00018659589113667607
1772735095923761000,2.527760986328125,-0.00008674387936480343,0.0009320639073848724,-0.0018920842558145523
1772735095933788000,2.537787841796875,0.0021283321548253298,0.0012360194232314825,0.0003455238474998623
1772735095943815000,2.54781494140625,0.0007088672136887908,-0.00014616106636822224,-0.0002872432232834399
1772735095953842000,2.557842041015625,0.0019307943293824792,-0.0019495777087286115,-0.0009463615715503693
1772735095963869000,2.567868896484375,0.0020959102548658848,-0.0005647339858114719,0.001719728927128017
1772735095973895700,2.577895751953125,0.0011643224861472845,0.0002357889898121357,-0.0018879191484302282
1772735095983923000,2.5879228515625,0.0002798867062665522,0.0002291311975568533,0.0011496823281049728
1772735095993950000,2.597949951171875,-0.000858920335303992,0.0006534489803016186,0.0014641620218753815
1772735096003976700,2.607976806640625,0.0011882515391334891,0.0011858148500323296,0.0015754823107272387
1772735096014004000,2.61800390625,0.0013443260686472058,-0.00034943409264087677,0.0025781774893403053
1772735096024031000,2.628031005859375,0.001115826889872551,0.0014724344946444035,0.001310779363848269
1772735096034057700,2.6380576171875,0.0016918815672397614,-0.0018553881673142314,0.002207478741183877
1772735096044084700,2.648084716796875,-0.0008359908824786544,0.0013907391112297773,-0.0010269302874803543
1772735096054112000,2.658112060546875,0.0002192949177697301,0.0019612591713666916,0.0009117312729358673
1772735096064139000,2.668138916015625,-0.0023445303086191416,-0.0003626153338700533,0.00016524724196642637
1772735096074165800,2.678165771484375,-0.0015314114280045033,-0.00016686017625033855,-0.0002496704400982708
1772735096084193000,2.688193115234375,-0.0009654896566644311,0.00020411820150911808,-0.0006550035905092955
1772735096094220000,2.698219970703125,0.0008855750784277916,0.002011111006140709,0.00038017501356080174
1772735096104246800,2.708246826171875,0.0008650686359032989,0.0023290924727916718,-0.0015881673898547888
1772735096114273800,2.718273681640625,0.0033714384771883488,-0.0015758249210193753,-0.0013431429397314787
1772735096124301000,2.728301025390625,0.00022624529083259404,-0.0011140326969325542,0.0008222732576541603
1772735096134327800,2.738327880859375,0.002039299113675952,0.00024138949811458588,-0.000215052132261917
1772735096144354800,2.748354736328125,-0.0023882060777395964,0.00008612731471657753,-0.0013847125228494406
1772735096154382000,2.758382080078125,-0.00331438472494483,0.0007211009506136179,0.0029211018700152636
1772735096164408800,2.768408935546875,-0.0009745311690494418,-0.0006863796152174473,0.005500373430550098
1772735096174435800,2.778435791015625,-0.00038714963011443615,-0.00046243309043347836,0.0006845743046142161
1772735096184462800,2.788462890625,0.0003774439392145723,-0.0023639302235096693,-0.0016883022617548704
1772735096194489900,2.79848974609375,0.0030526581685990095,0.00042633945122361183,-0.0013111850712448359
1772735096204518000,2.808517822265625,0.0005825762054882944,-0.0018112483667209744,-0.0014712410047650337
1772735096214545000,2.818544921875,0.0030327700078487396,-0.0007380954921245575,0.0005069362814538181
1772735096224572000,2.828572021484375,-0.0004863309732172638,-0.0014576816465705633,0.0006906944327056408
1772735096234599000,2.838598876953125,0.000335589429596439,0.00019914680160582066,-0.0007543222745880485
1772735096244626000,2.8486259765625,0.001125749316997826,-0.00009033875539898872,0.001707503804937005
1772735096254653000,2.85865283203125,-0.002937852870672941,0.0006476736161857843,0.000053365452913567424
1772735096264680000,2.868679931640625,-0.0013090637512505054,0.003151577664539218,-0.0011629002401605248
1772735096274707000,2.87870703125,-0.002815462648868561,-0.0017042143736034632,0.0007897785399109125
1772735096284734000,2.88873388671875,0.0014418665086850524,-0.0006450752262026072,-0.002266997704282403
1772735096294761000,2.898760986328125,0.0007897142204456031,-0.0004631688352674246,-0.0005130377248860896
1772735096304788000,2.9087880859375,0.0022129076533019543,-0.0009563863277435303,-0.0012778976233676076
1772735096314814700,2.918814697265625,0.0009035857510752976,-0.0008557438850402832,-0.0003433986857999116
1772735096324842000,2.928842041015625,0.00016668910393491387,-0.0010922325309365988,0.0013801991008222103
1772735096334869000,2.938868896484375,-0.00022549575078301132,-0.0007252872455865145,-0.00013834245328325778
1772735096344895700,2.948895751953125,-0.0004806265642400831,0.00033358577638864517,-0.0014475523494184017
1772735096354923000,2.958923095703125,-0.0028108665719628334,-0.0015014719683676958,0.00022147136041894555
1772735096364950000,2.968949951171875,-0.0008651609532535076,0.0009129499085247517,0.0030984843615442514
1772735096374976800,2.978976806640625,0.0031536477617919445,-0.0013795371633023024,-0.00012021747534163296
1772735096385003800,2.989003662109375,0.0017256606370210648,-0.0003387737087905407,0.0011157556436955929
1772735096395031000,2.999031005859375,0.0023150742053985596,0.002039441606029868,0.000030519237043336034
1772735096405057800,3.009057861328125,0.0011550012277439237,-0.0006386332679539919,-0.0015862858854234219
1772735096415084800,3.019084716796875,-0.00023331769625656307,0.002038579434156418,0.0010963061358779669
1772735096425112000,3.029112060546875,-0.0013768789358437061,-0.00037504336796700954,0.001477670855820179
1772735096435138800,3.039138916015625,0.00013434007996693254,0.00029412005096673965,0.0019002966582775116
1772735096445165800,3.049165771484375,-0.0010845887009054422,0.0003132948186248541,-0.002168747130781412
1772735096455192800,3.05919287109375,-0.0005357410409487784,-0.0008666377980262041,0.0009469072101637721
1772735096465220000,3.06922021484375,-0.0002174933033529669,0.00011447095312178135,-0.0006043841713108122
1772735096475246800,3.079246826171875,0.0021964774932712317,-0.0022689192555844784,-0.0015508540673181415
1772735096485273900,3.08927392578125,-0.000022468128008767962,0.001978023676201701,0.0005253463168628514
1772735096495301000,3.099301025390625,0.0003100230824202299,-0.0005998015403747559,0.0009554271819069982
1772735096505327900,3.109327880859375,-0.0013017220189794898,0.0017597591504454613,-0.0008336844621226192
1772735096515355000,3.11935498046875,0.0017485804855823517,0.0012104760389775038,-0.000245687406277284
1772735096525382000,3.1293818359375,-0.00078488455619663,-0.00022842991165816784,-0.000431576045230031
1772735096535409000,3.139408935546875,0.00007873578579165041,-0.0004976247437298298,0.00022463855566456914
1772735096545437000,3.14943701171875,0.00021429068874567747,-0.0016403872286900878,0.0010310437064617872
1772735096555463700,3.159463623046875,-0.0013119408395141363,0.000407177722081542,0.001089124009013176
1772735096565491000,3.169490966796875,0.0007482805522158742,0.0026663371827453375,-0.0009937342256307602
1772735096575518000,3.17951806640625,0.00024952649255283177,-0.0005113340448588133,0.0011959185358136892
1772735096585544700,3.189544677734375,0.0000394030794268474,0.00022449740208685398,0.0005186766502447426
1772735096595572000,3.199572021484375,-0.0006196140311658382,0.0004261494614183903,0.0001599056413397193
1772735096605599000,3.209598876953125,-0.00021454726811498404,-0.0016436591977253556,0.0009114497224800289
1772735096615626000,3.2196259765625,-0.001783251529559493,-0.0016577617498114705,0.0006531742983497679
1772735096625652700,3.22965283203125,-0.00013155901979189366,0.0009787678718566895,0.0018843535799533129
1772735096635680000,3.239679931640625,-0.0003740740939974785,0.0033441497944295406,0.0012414620723575354
1772735096645707000,3.24970703125,0.003387374570593238,0.00047619128599762917,0.0023006012197583914
1772735096655733800,3.259733642578125,-0.0005511201452463865,0.00022027106024324894,-0.0009264152031391859
1772735096665761000,3.269760986328125,0.0005761958891525865,-0.0010801504831761122,-0.00046941678738221526
1772735096675788000,3.2797880859375,-0.00038864288944751024,0.0015526292845606804,0.0021768207661807537
1772735096685814800,3.289814697265625,-0.0006416431860998273,0.0019044331274926662,0.0015728159341961145
1772735096695841800,3.299841796875,0.0012194985756650567,-0.00044918013736605644,-0.00005515964585356414
1772735096705869000,3.309869140625,0.0007361348834820092,-0.00042574433609843254,0.001487875822931528
1772735096715895800,3.319895751953125,0.0012364311842247844,0.0010554802138358355,0.0013206255389377475
1772735096725922800,3.3299228515625,0.0010372267570346594,0.00006584986113011837,0.000569614174310118
1772735096735950000,3.3399501953125,0.0016124364919960499,-0.00037516350857913494,0.0026522953994572163
1772735096745976800,3.349976806640625,-0.0007204925641417503,-0.0004603846464306116,0.0006932740798220038
1772735096756003800,3.36000390625,0.0011264007771387696,-0.0007133148610591888,0.0009394296794198453
1772735096766030800,3.37003076171875,-0.0010422111954540014,0.003244409104809165,-0.0008297081803902984
1772735096776057900,3.380057861328125,-0.0012944838963449001,0.0018717991188168526,0.0010875383159145713
1772735096786084900,3.3900849609375,0.0008176691480912268,0.0021000318229198456,0.001116300467401743
1772735096796112000,3.40011181640625,0.00028262718115001917,0.0005127249751240015,-0.0018249042332172394
1772735096806139000,3.410138916015625,-0.00041698524728417397,-0.000709133455529809,-0.00021236018801573664
1772735096816166000,3.420165771484375,0.00031428795773535967,-0.000042177969589829445,0.000011382333468645811
1772735096826193000,3.43019287109375,-0.0006087636575102806,-0.0005319332703948021,-0.0019122189842164516
1772735096836220000,3.440219970703125,-0.0004418918979354203,-0.002031926531344652,0.00004521562368609011
1772735096846247000,3.450246826171875,-0.0008235229179263115,0.0007489463314414024,0.0001360294409096241
1772735096856274000,3.46027392578125,0.001890706829726696,-0.0006794482469558716,-0.00032279733568429947
1772735096866302000,3.470302001953125,-0.000378572556655854,0.002181585878133774,0.0008244924247264862
1772735096876329000,3.480328857421875,0.002130670938640833,-0.0017973798094317317,0.001558999065309763
1772735096886356000,3.49035595703125,0.00038736555143259466,-0.0025614406913518906,0.0011073269415646791
1772735096896382700,3.5003828125,0.0003437402774579823,0.002296324586495757,-0.00002191597013734281
1772735096906410000,3.510409912109375,0.0015719900839030743,0.0005194635596126318,0.0005123141454532743
1772735096916437000,3.52043701171875,-0.0016881749033927917,0.0030221794731914997,0.00039453149656765163
1772735096926463700,3.530463623046875,0.00017657055286690593,0.0029888898134231567,0.00397568428888917
1772735096936491000,3.540490966796875,-0.0004193634958937764,0.00040129036642611027,0.0004860353656113148
1772735096946518000,3.55051806640625,-0.0026044873520731926,0.001241783844307065,0.0018455791287124157
1772735096956544800,3.560544677734375,0.0006113796262070537,-0.0005428488366305828,0.0014325855299830437
1772735096966571800,3.57057177734375,-0.002833152888342738,-0.0013242203276604414,0.00023283151676878333
1772735096976599000,3.58059912109375,0.0006761479307897389,0.0014012118335813284,0.0008595249964855611
1772735096986625800,3.590625732421875,0.00127109803725034,-0.0025349403731524944,-0.0006193283479660749
1772735096996652800,3.60065283203125,0.0007402366027235985,0.00020587374456226826,-0.00010717283294070512
1772735097006680000,3.61068017578125,-0.0016068072291091084,-0.00027669104747474194,-0.0000030432420317083597
1772735097016706800,3.620706787109375,-0.0004440884222276509,-0.0017067159060388803,-0.0008764145313762128
1772735097026733800,3.63073388671875,-0.0020228102803230286,0.000989468302577734,0.001617103349417448
1772735097036760800,3.6407607421875,0.0005159153370186687,-0.0007033809088170528,0.0010305228643119335
1772735097046788000,3.6507880859375,0.0008432177128270268,0.0006258029025048018,0.00007551332237198949
1772735097056814800,3.66081494140625,-0.0013617806835100055,-0.00006452645175158978,0.00047578135854564607
1772735097066841900,3.670841796875,0.0013714215019717813,-0.0008112767245620489,-0.000567112525459379
1772735097076869000,3.680869140625,-0.0007671560742892325,-0.00047196471132338047,-0.0001569516462041065
1772735097086895900,3.690895751953125,-0.00200632493942976,-0.0006032583769410849,0.0030827836599200964
1772735097096923000,3.7009228515625,-0.0014251330867409706,-0.001748599810525775,0.00038109582965262234
1772735097106950000,3.710949951171875,0.0010657215025275946,-0.0008729523979127407,0.0008394259493798018
1772735097116977000,3.720976806640625,-0.0005955250235274434,-0.0003040775191038847,-0.0018452922813594341
1772735097127004000,3.73100390625,0.0009861262515187263,0.0007800953462719917,0.0011220017913728952
1772735097137031000,3.741031005859375,-0.0016417655861005187,0.0008717596065253019,0.000895066128578037
1772735097147058000,3.751057861328125,-0.0001607817248441279,0.0013247632887214422,-0.0015489167999476194
1772735097157085000,3.7610849609375,0.0027478933334350586,0.00048678042367100716,0.0012681963853538036
1772735097167112000,3.77111181640625,-0.0007437773165293038,0.001034060027450323,0.00041385425720363855
1772735097177140000,3.781139892578125,-0.000029195478418841958,-0.00036781514063477516,0.002866094931960106
1772735097187167000,3.7911669921875,-0.00042840332025662065,-0.0013931321445852518,0.0030471901409327984
1772735097197194000,3.801194091796875,0.0007613555062562227,0.0007161796092987061,0.0018200164195150137
1772735097207220700,3.811220703125,-0.001653865328989923,0.0014378963969647884,-0.0001427333045285195
1772735097217248000,3.821248046875,0.0018964115297421813,-0.00040785130113363266,0.0009328908054158092
1772735097227275000,3.83127490234375,0.0011613791575655341,-0.0003910735249519348,-0.00013610199675895274
1772735097237301800,3.8413017578125,0.00010972292511723936,-0.002534525003284216,0.00011665269266813993
1772735097247329000,3.8513291015625,-0.0007161233806982636,-0.0011171908117830753,0.00000719679519534111
1772735097257356000,3.86135595703125,-0.000322173087624833,0.0002770496066659689,0.002127081388607621
1772735097267382800,3.8713828125,-0.00048222907935269177,-0.001736566424369812,-0.0004852133570238948
1772735097277409800,3.881409912109375,-0.00009859222336672246,0.001179239945486188,0.00011052575428038836
1772735097287437000,3.89143701171875,0.00023590080672875047,-0.0016202747356146574,-0.0006000056164339185
1772735097297463800,3.9014638671875,-0.0006329340976662934,-0.0017995305825024843,0.002095642499625683
1772735097307490800,3.91149072265625,0.0018174403812736273,-0.0007755451370030642,0.001090565463528037
1772735097317518000,3.92151806640625,-0.0017935525393113494,0.0008702247869223356,0.0015624669613316655
1772735097327544800,3.931544921875,-0.0017938188975676894,0.0020878224167972803,0.00040558987529948354
1772735097337571800,3.94157177734375,0.001317354734055698,-0.0014756775926798582,-0.0007275728275999427
1772735097347598800,3.951598876953125,-0.0015330265741795301,-0.0002237255685031414,-0.0025036348961293697
1772735097357625900,3.9616259765625,-0.000018349412130191922,-0.001436910592019558,-0.0008740309858694673
1772735097367652900,3.97165283203125,-0.00043966149678453803,-0.0007538096979260445,-0.001810664776712656
1772735097377680000,3.981679931640625,0.0009804907022044063,-0.0006265358533710241,0.002073287731036544
1772735097387707000,3.991706787109375,0.00035464781103655696,-0.0016127044800668955,0.0009457051637582481
1772735097397734000,4.00173388671875,-0.0012799145188182592,-0.00037150573916733265,-0.0017140042036771774
1772735097407761000,4.011760986328125,0.00029055154300294816,-0.00032170466147363186,0.0022698184475302696
1772735097417788000,4.021787841796875,0.0005609007785096765,-0.00044988025911152363,-0.00033207485103048384
1772735097427815000,4.03181494140625,-0.0005163478781469166,0.0007501398213207722,0.0021670355927199125
1772735097437842000,4.041842041015625,-0.0003966557269450277,0.0014697785954922438,-0.0011635322589427233
1772735097447869000,4.051868896484375,-0.0022869673557579517,0.0022359697613865137,-0.0012333070626482368
1772735097457896000,4.06189599609375,-0.0020988364703953266,0.0004146592691540718,-0.000858863175380975
1772735097467924000,4.071924072265625,0.002409096108749509,0.0012357118539512157,0.0013438373571261764
1772735097477950700,4.08195068359375,-0.0022707520984113216,0.0016227574087679386,-0.0009035949478857219
1772735097487978000,4.09197802734375,0.0006869543576613069,-0.0015650464920327067,-0.001962201436981559
1772735097498005000,4.1020048828125,0.00016965679242275655,0.0012783855199813843,0.0016879248432815075
1772735097508031700,4.11203173828125,-0.00009878983837552369,-0.0018958362052217126,0.000559277250431478
1772735097518058800,4.122058837890625,-0.0011997276451438665,-0.0013695324305444956,-0.001688425661996007
1772735097528086000,4.1320859375,-0.000017284153727814555,-0.0007117318455129862,0.0009379838593304157
1772735097538112800,4.14211279296875,0.000998475356027484,0.00030042207799851894,0.0005353032611310482
1772735097548139800,4.152139892578125,-0.00238613598048687,0.002946805441752076,0.002069550333544612
1772735097558167000,4.1621669921875,-0.0010558997746556997,0.0020396695472300053,-0.002497247187420726
1772735097568193800,4.17219384765625,0.00019045957014895976,0.0009264680556952953,0.0024333293549716473
1772735097578220800,4.182220703125,0.0005260564503259957,0.0013514317106455564,0.0032522715628147125
1772735097588247800,4.192247802734375,-0.0006555881118401885,0.0021498475689440966,0.001295647001825273
1772735097598275000,4.202275146484375,0.0004974058829247952,-0.0008967837784439325,-0.00019385767518542707
1772735097608301800,4.2123017578125,-0.0015612175920978189,-0.0007814688142389059,-0.00153955293353647
1772735097618328800,4.222328857421875,-0.0006051943055354059,-0.0013031680136919022,0.002270603785291314
1772735097628356000,4.232356201171875,-0.0017647347413003445,0.0016803713515400887,0.002082318300381303
1772735097638382800,4.2423828125,-0.0017341574421152472,0.00010824133642017841,0.0002448632731102407
1772735097648409900,4.252409912109375,-0.0014848855789750814,-0.00021986011415719986,0.0005061193951405585
1772735097658437000,4.26243701171875,-0.0013980367220938206,-0.00017493078485131264,0.000800950510893017
1772735097668463900,4.2724638671875,0.0022824518382549286,-0.0011890626046806574,0.0004952196031808853
1772735097678491000,4.282490966796875,-0.0009093316039070487,-0.00005171028897166252,0.0014792215079069138
1772735097688518000,4.292517822265625,0.000996692688204348,0.0009616222232580185,0.0008203554316423833
1772735097698545000,4.302544921875,0.001175281242467463,0.0014398042112588882,-0.0014514238573610783
1772735097708572000,4.312572021484375,0.003004073863849044,-0.0018856850219890475,-0.000244479306275025
1772735097718599000,4.322598876953125,0.0011399692157283425,-0.0001241194549947977,0.002258781809359789
1772735097728626000,4.3326259765625,-0.00021637880126945674,0.0009739017114043236,-0.0005889363819733262
1772735097738654000,4.342654052734375,0.0004955809563398361,0.00030895904637873173,-0.0001770009403117001
1772735097748680700,4.3526806640625,-0.0014048508601263165,-0.0000878521241247654,0.00043499344610609114
1772735097758708000,4.3627080078125,0.0015765433199703693,-0.0006648416165262461,-0.00008646375499665737
1772735097768735000,4.37273486328125,0.0007064886158332229,-0.000277884304523468,0.001063489238731563
1772735097778762000,4.382761962890625,0.0010109153809025884,-0.000472033629193902,0.0019482339266687632
1772735097788788700,4.392788818359375,-0.001745456364005804,-0.00024513225071132183,-0.0003277036012150347
1772735097798815500,4.4028154296875,-0.0005770577117800713,0.002008490264415741,-0.001177393482066691
1772735097808842500,4.412842529296875,-0.0008654780685901642,0.0006766431033611298,-0.0003467535425443202
1772735097818869200,4.422869140625,-0.0001329595543211326,0.0004411533009260893,0.0017371586291119456
1772735097828896500,4.432896484375,-0.0011007522698491812,0.00011278572492301464,0.0001246145402546972
1772735097838923500,4.442923583984375,0.0006699252990074456,-0.00034577888436615467,-0.0019532758742570877
1772735097848950300,4.4529501953125,0.001973808975890279,-0.0005910559557378292,0.0014236123533919454
1772735097858977300,4.462977294921875,-0.0019263816066086292,-0.0007545268163084984,0.0007864737417548895
1772735097869004500,4.473004638671875,-0.000060038320953026414,0.0011970375198870897,0.0010868783574551344
1772735097879031300,4.48303125,0.0011979287955909967,0.00023841112852096558,-0.0011141697177663445
1772735097889058300,4.493058349609375,-0.0012351351324468851,0.001969998236745596,-0.0006342680426314473
1772735097899085600,4.50308544921875,0.00008429904119111598,-0.0018651295686140656,-0.000002081884304061532
1772735097909112600,4.513112548828125,-0.002333052223548293,-0.0006288902368396521,0.002286372473463416
1772735097919139300,4.523139404296875,0.0011925636790692806,-0.0010783285833895206,0.00035639648558571935
1772735097929166600,4.53316650390625,0.0010458235628902912,0.0007435397710651159,-0.00035067280987277627
1772735097939193600,4.543193603515625,-0.0039213839918375015,-0.000663472106680274,-0.001145566231571138
1772735097949220400,4.553220458984375,0.000979098491370678,-0.00044376146979629993,0.00024247332476079464
1772735097959247400,4.563247314453125,-0.00008713827264728025,-0.00035082059912383556,-0.0004051107098348439
1772735097969274600,4.573274658203125,0.00018690101569518447,0.0020196589175611734,0.000008478178642690182
1772735097979301400,4.58330126953125,0.0002914264041464776,0.00003509595990180969,0.00041592828347347677
1772735097989328400,4.593328369140625,0.0012416422832757235,-0.0012573362328112125,-0.0014426917769014835
1772735097999355600,4.603355712890625,0.0011884584091603756,0.001875034999102354,-0.000530863821040839
1772735098009382400,4.61338232421875,0.00020734991994686425,0.0003370591439306736,-0.0007819999009370804
1772735098019410400,4.623410400390625,-0.00016434211283922195,0.0016304939053952694,0.0020140954293310642
1772735098029437400,4.6334375,0.0045012496411800385,-0.0010331999510526657,0.000022051099222153425
1772735098039464400,4.64346435546875,-0.0013235961087048054,0.0016541443765163422,0.0015490243677049875
1772735098049491500,4.653491455078125,0.0020498300436884165,-0.0003799782134592533,0.0016291853971779346
1772735098059518500,4.6635185546875,-0.00010918756015598774,0.0014487304724752903,-0.002309632021933794
1772735098069545500,4.67354541015625,-0.0009584695799276233,0.0021842955611646175,0.00022516475291922688
1772735098079572500,4.683572509765625,-0.00031058816239237785,-0.002516797510907054,0.00031556945759803057
1772735098089599500,4.693599609375,0.0022577643394470215,0.0016483862418681383,-0.00011825950059574097
1772735098099626500,4.70362646484375,-0.00023867242271080613,0.001166447065770626,-0.0018169855466112494
1772735098109653500,4.713653564453125,0.001647644559852779,-0.000392034649848938,0.0007207406451925635
1772735098119680500,4.723680419921875,-0.0015956969000399113,-0.0007302458398044109,0.0005142335430718958
1772735098129707300,4.733707275390625,-0.0008406908018514514,-0.0001877599861472845,-0.0018059124704450369
1772735098139734500,4.743734619140625,-0.0020267702639102936,0.0006303417030721903,0.0011370745487511158
1772735098149761500,4.753761474609375,0.0009082995820790529,0.0018751032184809446,-0.002009982941672206
1772735098159788300,4.763788330078125,-0.0007235445082187653,0.000058040954172611237,-0.000280722975730896
1772735098169815600,4.773815673828125,0.002581970999017358,0.0007400764152407646,0.0028471597470343113
1772735098179842600,4.783842529296875,-0.00048559659626334906,-0.00036417017690837383,-0.0013128481805324554
1772735098189869300,4.793869384765625,0.0008736808085814118,0.001131194643676281,-0.0007037832983769476
1772735098199896300,4.803896240234375,-0.0026808418333530426,-0.0008773338049650192,0.0008802444208413363
1772735098209923600,4.813923583984375,-0.0013956002658233047,0.0008148390334099531,-0.00010326095798518509
1772735098219950300,4.823950439453125,-0.0006815818487666547,0.0009722071699798107,-0.00028673940687440336
1772735098229977300,4.833977294921875,0.0013727806508541107,-0.0008544549345970154,0.002197457244619727
1772735098240004600,4.844004638671875,-0.002685507293790579,-0.00023885187692940235,-0.00034278430393896997
1772735098250031400,4.85403125,-0.0009139726753346622,0.0016370788216590881,-0.0017593195661902428
1772735098260058400,4.864058349609375,-0.0005775836762040854,-0.0006891398224979639,-0.002436284441500902
1772735098270085400,4.87408544921875,0.0010562656680122018,0.0009662811644375324,0.0007962603121995926
1772735098280113400,4.884113525390625,-0.0002470138715580106,-0.0008402250241488218,0.0001648259931243956
1772735098290140400,4.894140380859375,-0.000620122766122222,-0.00016191788017749786,0.0007240898557938635
1772735098300167400,4.90416748046875,0.0014199577271938324,0.0004859913606196642,0.0022918907925486565
1772735098310194400,4.9141943359375,-0.0017721073236316442,0.0006921200547367334,0.003996047656983137
1772735098320221400,4.924221435546875,-0.0012433328665792942,-0.001289344858378172,-0.0002773845917545259
1772735098330248400,4.93424853515625,0.0012392657808959484,0.0008028342854231596,0.0017301063053309917
1772735098340275500,4.944275390625,0.0024731599260121584,0.0021180077455937862,0.0010200648102909327
1772735098350302500,4.954302490234375,-0.0017394281458109617,0.0009243790991604328,-0.0010598640656098723
1772735098360329500,4.96432958984375,0.0008813365129753947,-0.00007981201633810997,-0.0008061341941356659
1772735098370356200,4.974356201171875,0.0010584366973489523,0.0007391099352389574,-0.0008830995648168027
1772735098380383500,4.984383544921875,0.0003928097721654922,-0.0013992092572152615,-0.0007433131686411798
1772735098390410500,4.994410400390625,0.001167523325420916,0.0015486434567719698,-0.0030075327958911657
1772735098400437200,5.004437255859375,-0.0006257459754124284,0.0009869846981018782,0.0007720683934167027
1772735098410464500,5.014464599609375,0.0013127690181136131,0.0002785839606076479,0.0008831222075968981
1772735098420491500,5.024491455078125,-0.0005142869194969535,-0.0021851041819900274,-0.0008148803026415408
1772735098430518300,5.034518310546875,0.0008338052430190146,0.001142781926319003,-0.0014207494677975774
1772735098440545300,5.044545166015625,0.000928207824472338,0.0007303003221750259,0.0015997951850295067
1772735098450572500,5.054572509765625,0.001249385066330433,0.000734295230358839,-0.00041754916310310364
1772735098460599300,5.064599365234375,-0.00098385417368263,-0.0012693610042333603,0.0018833738286048174
1772735098470626300,5.074626220703125,0.0009780965046957135,0.0012265536934137344,0.0008402136736549437
1772735098480653600,5.084653564453125,-0.0012628163676708937,1.5157274901866913e-7,0.0006601764471270144
1772735098490680600,5.0946806640625,0.00018194844597019255,0.0021384037099778652,0.0001959875226020813
1772735098500707300,5.104707275390625,-0.001454628654755652,0.0009867455810308456,0.001951431157067418
1772735098510734300,5.114734375,-0.0024091056548058987,0.0010962015949189663,0.00036232307320460677
1772735098520761600,5.12476171875,0.00003621849464252591,-0.0005300622433423996,0.0006171644781716168
1772735098530789400,5.134789306640625,0.0005906886653974652,-0.0008203468751162291,-0.0023083179257810116
1772735098540816600,5.144816650390625,-0.0015264119720086455,0.0020121769048273563,0.0011935420334339142
1772735098550843400,5.154843505859375,-0.0013975149486213923,-0.0007005191873759031,-0.0004352472024038434
1772735098560870400,5.164870361328125,0.0011981144780293107,0.0003701867535710335,-0.00031190161826089025
1772735098570897400,5.1748974609375,0.00030808604788035154,-0.0014290448743849993,0.00019756110850721598
1772735098580924400,5.18492431640625,-0.0010799666633829474,-0.00042510288767516613,-0.0022606737911701202
1772735098590951400,5.194951416015625,0.0008092798525467515,0.00025027478113770485,0.0004980947123840451
1772735098600978400,5.204978515625,0.0004306666669435799,0.0004643735010176897,0.0001629393664188683
1772735098611005400,5.21500537109375,0.001085804309695959,-0.001230728579685092,-0.0005198951112106442
1772735098621032400,5.225032470703125,-0.0024950557854026556,-0.000032963231205940247,-0.00025054358411580324
1772735098631059500,5.2350595703125,-0.000252940459176898,0.00023814640007913113,-0.00004388228990137577
1772735098641086500,5.24508642578125,-0.0010819521266967058,-0.002462678123265505,-0.000992771820165217
1772735098651113500,5.255113525390625,-0.0011964680161327124,0.00006253109313547611,0.0005566552863456309
1772735098661140500,5.265140380859375,0.0017469283193349838,0.0007507819682359695,-0.0008161261212080717
1772735098671167500,5.27516748046875,-0.00182250642683357,-0.0007216795347630978,0.001242231111973524
1772735098681194500,5.285194580078125,0.0012274445034563541,0.0019715370144695044,-0.0011578121921047568
1772735098691221500,5.295221435546875,-0.0001347623037872836,0.0002021330874413252,-0.001765012857504189
1772735098701248500,5.30524853515625,0.0009275726042687893,-0.0008056070655584335,-0.0005386272096075118
1772735098711275300,5.315275146484375,0.0020940371323376894,0.00019600777886807919,-0.00006831297650933266
1772735098721302500,5.325302490234375,-0.0002900981344282627,-0.0005385952536016703,0.002964233746752143
1772735098731329500,5.33532958984375,-0.000049348396714776754,-0.0006126309745013714,0.0032973953057080507
1772735098741356300,5.345356201171875,-0.0010321104200556874,-0.00007548416033387184,-0.001039029797539115
1772735098751383600,5.355383544921875,0.001114397426135838,0.00021213735453784466,0.0007884313818067312
1772735098761410600,5.36541064453125,0.0017726062797009945,0.0011217854917049408,0.001095492159947753
1772735098771438300,5.375438232421875,-0.0003555256989784539,-0.00003988528624176979,-0.0023325285874307156
1772735098781465600,5.385465576171875,-0.0004789495433215052,-0.0026940940879285336,0.0010201724944636226
1772735098791492400,5.395492431640625,-0.001515451818704605,0.0013230182230472565,0.0010465377708896995
1772735098801520000,5.40552001953125,0.0011469017481431365,0.00006606685929000378,-0.0008003782713785768
1772735098811547100,5.415547119140625,0.0017192150698974729,-0.0011416766792535782,0.0029757178854197264
1772735098821574000,5.425573974609375,0.0007826340151950717,0.0004296030383557081,0.001083271112293005
1772735098831601000,5.435600830078125,-0.0006493476685136557,-0.00017946213483810425,0.0002736701280809939
1772735098841628200,5.445628173828125,-0.0013602676335722208,-0.0006669226568192244,-0.00030287576373666525
1772735098851655000,5.455655029296875,-0.0028473767451941967,0.0006867621559649706,0.0012244470417499542
1772735098861682000,5.465681884765625,-0.00017515418585389853,0.0007466878741979599,-0.0009099400485865772
1772735098871709200,5.475709228515625,0.002361506689339876,0.0025118310004472733,0.0025164829567074776
1772735098881736000,5.48573583984375,0.0004614479257725179,0.00022630346938967705,0.0023172872606664896
1772735098891763000,5.495762939453125,0.0002822171663865447,0.0004830320831388235,0.0004269754863344133
1772735098901790000,5.5057900390625,-0.0024957512505352497,-0.00040392600931227207,0.0008669302333146334
1772735098911817000,5.51581689453125,-0.0001577623188495636,0.0010498939082026482,-0.0005024672136642039
1772735098921844000,5.525843994140625,0.000010804069461300969,-0.0008046324364840984,0.0007175459759309888
1772735098931871000,5.53587109375,0.0023783540818840265,-0.0008507051970809698,0.0018203610088676214
1772735098941898000,5.54589794921875,0.0004017215105704963,-0.0007250122725963593,-0.0006630191346630454
1772735098951925000,5.555925048828125,0.0012616562889888883,-0.0012219580821692944,-0.00095942901680246
1772735098961952000,5.565951904296875,0.0002736485912464559,-0.0004168068990111351,-0.002013618126511574
1772735098971979000,5.57597900390625,0.0010137410135939717,0.0002420591190457344,-0.0005744457594119012
1772735098982006000,5.586006103515625,0.00015364986029453576,-0.0029313857667148113,-0.0010693196672946215
1772735098992033000,5.596032958984375,0.0005030566244386137,0.0002481623087078333,-0.0008322983048856258
1772735099002061000,5.60606103515625,-0.0014534862712025642,-0.0011495670769363642,-0.000643743434920907
1772735099012088000,5.616088134765625,0.0005097961402498186,0.001982044195756316,0.0001911575673148036
1772735099022115000,5.626114990234375,-0.0005477045197039843,-0.0012059968430548906,-0.00048403709661215544
1772735099032141800,5.636141845703125,-0.003577849129214883,-0.0012560642790049314,0.0003953387204091996
1772735099042169000,5.646169189453125,-0.0015319261001423001,-0.00019204569980502129,-0.00011125937453471124
1772735099052196000,5.656196044921875,0.00011523906141519547,0.0014434016775339842,-0.00045933452202007174
1772735099062222800,5.666222900390625,-0.0015824204310774803,-0.00015192385762929916,0.00047767951036803424
1772735099072250000,5.67625,-0.0003768074093386531,0.0017120225820690393,0.0018329622689634562
1772735099082277000,5.686277099609375,0.0007419398752972484,-0.0008130499627441168,0.0005910723120905459
1772735099092304000,5.696303955078125,-0.0005619438015855849,0.0011001650709658861,0.0006414061062969267
1772735099102331000,5.706330810546875,0.00115813291631639,-0.00019399519078433514,0.0010252224747091532
1772735099112358100,5.716358154296875,-0.0015026313485577703,0.0004137381911277771,0.0006313410704024136
1772735099122385200,5.72638525390625,0.00011173507664352655,-0.001427359413355589,-0.0013986526755616069
1772735099132412000,5.736411865234375,-0.00048800877993926406,0.0008091630879789591,-0.0004297946870792657
1772735099142439200,5.746439208984375,-0.00007177943189162761,0.0010333864483982325,0.0009916970739141107
1772735099152466200,5.756466064453125,-0.0010038858745247126,0.0010024940129369497,-0.00015106532373465598
1772735099162493000,5.766492919921875,0.0006025256589055061,-0.0009660220239311457,0.0001904273231048137
1772735099172520000,5.77652001953125,0.00034792747464962304,0.00007873587310314178,0.0012801928678527474
1772735099182547200,5.786547119140625,0.00007046855171211064,0.00018031103536486626,0.0011582941515371203
1772735099192574000,5.796573974609375,-0.0005231500254012644,0.0017446517013013363,-0.000687010120600462
1772735099202601000,5.80660107421875,-0.0005032960325479507,-0.00014626514166593552,-0.00036578363506123424
1772735099212628200,5.816628173828125,0.0019004731439054012,-0.0008195121772587299,0.0016765946056693792
1772735099222655000,5.826655029296875,-0.0015912665985524654,0.0012742155231535435,0.000053357594879344106
1772735099232682000,5.836681884765625,0.0014367476105690002,0.002153857611119747,0.002907467307522893
1772735099242709000,5.846708984375,-0.0004508907441049814,-0.0016827896470203996,0.00107215391471982
1772735099252737000,5.856737060546875,0.002490570768713951,-0.00008036568760871887,-0.0014109774492681026
1772735099262764000,5.866763916015625,0.0004029778065159917,0.0009939875453710556,0.0037662978284060955
1772735099272790800,5.876790771484375,-0.0017406005645170808,-0.0001541010569781065,-0.0002209871163358912
1772735099282818000,5.886818115234375,-0.0006865902687422931,0.0012432346120476723,0.00041149865137413144
1772735099292845000,5.896844970703125,-0.0008802020456641912,0.0008650654926896095,-0.0009507082286290824
1772735099302872000,5.9068720703125,0.0014678880106657743,-0.0005482106935232878,0.00023693643743172288
1772735099312899000,5.916899169921875,0.0007107512792572379,0.0014078812673687935,0.00019459216855466366
1772735099322926000,5.926926025390625,-0.0009545045904815197,-0.000611310126259923,0.0009438106208108366
1772735099332953000,5.936953125,-0.0018911382649093866,-0.00022328761406242847,0.0013909554108977318
1772735099342979800,5.946979736328125,0.001038579037413001,-0.0003331166226416826,0.0011322139762341976
1772735099353007000,5.957007080078125,-0.0026797265745699406,-0.001289191422984004,0.000014751596609130502
1772735099363034000,5.9670341796875,-0.002803567796945572,0.0015477794222533703,-0.00027258595218881965
1772735099373060900,5.977060791015625,0.0005285793449729681,0.0004217950627207756,0.0021953654941171408
1772735099383088000,5.987088134765625,0.0012672730954363942,0.0002864766865968704,-0.0016134071629494429
1772735099393115100,5.997115234375,-0.0006648502312600613,-0.00194578489754349,0.0007655947119928896
1772735099403142000,6.007141845703125,0.0013714937958866358,-0.000836225925013423,0.0031563150696456432
1772735099413169000,6.0171689453125,-0.0010607712902128696,0.0006338390521705151,0.000269981159362942
1772735099423196200,6.027196044921875,-0.0007470654672943056,0.002405017614364624,-0.0008003903203643858
1772735099433223000,6.037222900390625,0.0007637458620592952,0.001086752861738205,-0.0009857462719082832
1772735099443250000,6.04725,-0.0005399899673648179,0.0005151445511728525,0.000994914211332798
1772735099453277200,6.057277099609375,0.0009018455166369677,-0.0002848692238330841,0.0016670961631461978
1772735099463304000,6.067303955078125,-0.0004918830818496644,-0.0006100269965827465,-0.00014827714767307043
1772735099473332000,6.07733203125,0.001552625559270382,-0.0021695741452276707,-0.0005919598042964935
1772735099483359000,6.08735888671875,-0.0003168899565935135,-0.00032093259505927563,0.00029044694383628666
1772735099493386000,6.097385986328125,-0.001573901972733438,0.00016269763000309467,-0.0008469891035929322
1772735099503413000,6.1074130859375,0.000791648228187114,-0.002159057417884469,0.0017211387166753411
1772735099513440300,6.117440185546875,-0.0014137155376374722,0.0013435317669063807,0.0004891604767180979
1772735099523467000,6.127467041015625,-0.0004643964930437505,-0.0004073872696608305,0.00019563621026463807
1772735099533494000,6.137493896484375,-0.00015919821453280747,0.001000625779852271,0.002437219023704529
1772735099543521000,6.14752099609375,0.0012541069881990552,-0.0005887893494218588,0.00004225695738568902
1772735099553548000,6.157548095703125,0.00003358026151545346,0.00006767967715859413,0.0008097800309769809
1772735099563575000,6.167574951171875,0.0038172744680196047,-0.0012643050868064165,0.002659335732460022
1772735099573602000,6.17760205078125,-0.00002646577195264399,0.0031845057383179665,0.003436179831624031
1772735099583629000,6.187629150390625,-0.0010292399674654007,-0.0007105360273271799,-0.0020177685655653477
1772735099593656000,6.197656005859375,-0.001375717343762517,0.0029012428130954504,-0.0024348197039216757
1772735099603683000,6.20768310546875,-0.0011302767088636756,-0.00021133827976882458,-0.0009105642093345523
1772735099613709800,6.217709716796875,-0.0007052362198010087,-0.00015514553524553776,0.002174974186345935
1772735099623737000,6.227737060546875,0.001890184124931693,-0.0005969277117401361,0.0007838651654310524
1772735099633764000,6.23776416015625,-0.0014574093511328101,0.002345332643017173,0.00014417385682463646
1772735099643790800,6.247790771484375,0.00033265992533415556,0.000808273209258914,0.001069693942554295
1772735099653818000,6.257818115234375,-0.0008865352720022202,-0.0004929474089294672,-0.000557763793040067
1772735099663845000,6.26784521484375,0.0003136610030196607,-0.0010497886687517166,0.0002298517501913011
1772735099673872000,6.277871826171875,-0.0000740952673368156,0.0021239006891846657,-0.0020948215387761593
1772735099683899000,6.28789892578125,0.0007122287061065435,0.0018948640208691359,-0.0019140447257086635
1772735099693927200,6.29792724609375,0.0011109039187431335,-0.0011917399242520332,0.0001946461561601609
1772735099703954000,6.307953857421875,-0.00016593700274825096,0.0006552156992256641,-0.0006336764199659228
1772735099713981000,6.31798095703125,-0.0010144200641661882,-0.0002752926666289568,-0.00037748031900264323
1772735099724008200,6.32800830078125,-0.0009701374219730496,-0.0002521106507629156,0.00056361936731264
1772735099734035000,6.338034912109375,-0.001426869654096663,-0.00040204660035669804,-0.000484867108752951
1772735099744062000,6.34806201171875,0.0002854772610589862,0.001687180483713746,0.0010164569830521941
1772735099754089200,6.358089111328125,-0.0018610304687172174,0.0003436158876866102,-0.000911937968339771
1772735099764116000,6.368115966796875,0.00017400694196112454,-0.00030306470580399036,0.0005063568241894245
1772735099774143000,6.37814306640625,-0.0015147033846005797,-0.0028008436784148216,-0.0005463907727971673
1772735099784170000,6.388169921875,-0.0016844699857756495,0.0022397059947252274,-0.0023929078597575426
1772735099794197000,6.398197021484375,0.00045564622269012034,0.0009555299766361713,-0.0007787658250890672
1772735099804224300,6.408224365234375,0.0004960790975019336,-0.0015757575165480375,-0.0005478787352330983
1772735099814251300,6.418251220703125,-0.0008914277423173189,-0.00026654754765331745,-0.0013036838499829173
1772735099824278300,6.4282783203125,0.0011378778144717216,-0.00038556032814085484,-0.0020938420202583075
1772735099834305300,6.43830517578125,0.0014987362083047628,-0.0005839657969772816,-0.00009487324859946966
1772735099844332300,6.448332275390625,0.0015819314867258072,-0.00007026689127087593,0.0010359201114624739
1772735099854359300,6.458359375,0.0007334483088925481,0.0004698224365711212,0.0008116820245049894
1772735099864386300,6.46838623046875,-0.001238846918568015,0.0010243281722068787,-0.000933549483306706
1772735099874413300,6.478413330078125,0.0003044549375772476,0.00007038400508463383,0.0006867178017273545
1772735099884440000,6.488440185546875,0.0022226611617952585,-0.0008664324413985014,-0.0008751967689022422
1772735099894467300,6.49846728515625,-0.00047831673873588443,-0.0010667021851986647,0.00043907325016334653
1772735099904494300,6.508494384765625,0.001990281278267503,-0.0018862648867070675,0.0010251339990645647
1772735099914522000,6.518522216796875,0.0001236716634593904,0.0003153702709823847,-0.0005272225826047361
1772735099924549400,6.52854931640625,-0.00029348942916840315,-0.00030649383552372456,-0.00015640471247024834
1772735099934576400,6.538576416015625,0.0008484740392304957,-0.001247654901817441,-0.000618196849245578
1772735099944603100,6.54860302734375,0.0007635005749762058,-0.00029593869112432003,-0.0009952347027137876
1772735099954629000,6.558629150390625,-0.00011267939407844096,0.00031232740730047226,0.00034726480953395367
1772735099964656400,6.568656494140625,0.00034336993121542037,0.0007755367550998926,0.0004302452434785664
1772735099974683400,6.578683349609375,0.00010288646444678307,-0.0007208934985101223,-0.0006129149114713073
1772735099984710100,6.588710205078125,-0.0013065533712506294,-0.0008112585637718439,-0.0008359582861885428
1772735099994738400,6.598738525390625,0.0007400857866741717,0.0014353841543197632,-0.0013307735789567232
1772735100004765200,6.60876513671875,0.0009047471103258431,0.0004550295416265726,-0.00007683609146624804
1772735100014792200,6.618792236328125,-0.00042230606777593493,0.0012156281154602766,0.0010882967617362738
1772735100024819500,6.6288193359375,0.0015778928063809872,0.0007801160681992769,0.00040530198020860553
1772735100034846200,6.63884619140625,-0.0005563644226640463,-0.00010272185318171978,-0.0005539686535485089
1772735100044873200,6.648873291015625,-0.00025087373796850443,0.001724280882626772,-0.000051521725254133344
1772735100054900200,6.658900146484375,0.0019217331428080797,0.0006640763022005558,0.0019490448758006096
1772735100064927200,6.66892724609375,0.0017607707995921373,0.0003495379351079464,-0.002753110136836767
1772735100074954200,6.678954345703125,0.0011567659676074982,0.001133572543039918,-0.0019533629529178143
1772735100084981200,6.688981201171875,-0.00123257702216506,0.0005880596581846476,-0.0009800512343645096
1772735100095008300,6.69900830078125,-0.0004378897720016539,0.0005403889808803797,-0.0014865845441818237
1772735100105035300,6.70903515625,-0.00019888795213773847,0.00043946015648543835,-0.0014071009354665875
1772735100115062300,6.719062255859375,-0.0004841124755330384,-0.00025535840541124344,0.000924230320379138
1772735100125089300,6.72908935546875,0.00005072349449619651,0.00007222755812108517,-0.0019077432807534933
1772735100135116300,6.7391162109375,-0.0017048323061317205,0.00043148803524672985,0.0009394421940669417
1772735100145143300,6.749143310546875,-0.001171229174360633,0.0010668989270925522,-0.000847094226628542
1772735100155170300,6.75917041015625,-0.001671637175604701,0.0021364246495068073,-0.0009695996413938701
1772735100165197300,6.769197265625,-0.0007726650801487267,0.0001426928211003542,-0.0004474539600778371
1772735100175224300,6.779224365234375,-0.00034389615757390857,-0.0006900776643306017,-0.0011033904738724232
1772735100185251300,6.789251220703125,-0.0017138469265773892,0.0004851357080042362,-0.00008481854456476867
1772735100195278000,6.799278076171875,-0.0018225039821118116,0.0011738291941583157,0.0012238587951287627
1772735100205306400,6.809306396484375,0.0003953018458560109,-0.0002508014440536499,0.0012427367037162185
1772735100215333000,6.8193330078125,-0.0015717089409008622,0.00021072430536150932,-0.0017386721447110176
1772735100225360100,6.829360107421875,0.0021989711094647646,-0.0005348874256014824,0.0005859695374965668
1772735100235387400,6.839387451171875,0.0021864543668925762,-0.0018118730513378978,0.0014248653315007687
1772735100245414100,6.8494140625,-0.0007165912538766861,0.00014470098540186882,0.00022965064272284508
1772735100255441200,6.859441162109375,0.0003824953455477953,-0.0002252119593322277,0.00012658635387197137
1772735100265468400,6.869468505859375,0.00025757873663678765,0.0011396876070648432,-0.0011513191275298595
1772735100275495200,6.8794951171875,-0.0002849071752279997,0.00016363896429538727,0.0003594922018237412
1772735100285522200,6.889522216796875,0.0006616736645810306,-0.00015152618288993835,0.00021009385818615556
1772735100295549200,6.899549072265625,0.0017594286473467946,-0.0006583256181329489,-0.0026706475764513016
1772735100305576400,6.909576416015625,0.0008431077003479004,-0.0019266242161393166,0.0007604792481288314
1772735100315603200,6.919603271484375,0.0008244655327871442,-0.0005311279091984034,-0.00038814215804450214
1772735100325631500,6.929631591796875,0.001136716571636498,-0.0008818602655082941,0.004297057166695595
1772735100335658200,6.939658203125,-0.00022415876446757466,-0.00288056256249547,0.00253830524161458
1772735100345685200,6.949685302734375,-0.00006892995588714257,-0.0011766054667532444,0.002187208505347371
1772735100355712300,6.959712158203125,0.0014751708367839456,0.0022972216829657555,-0.0000812719517853111
1772735100365739300,6.9697392578125,-0.0009273721370846033,-0.0007208285387605429,-0.0007544104009866714
1772735100375766300,6.979766357421875,-0.0013385642087087035,0.0011724126525223255,-0.000800216686911881
1772735100385793300,6.989793212890625,-0.0006704601692035794,-0.0016094379825517535,0.002043220680207014
1772735100395820300,6.9998203125,-0.0015628854744136333,-0.0006283293478190899,-0.001146980095654726
1772735100405847300,7.009847412109375,0.0015860428102314472,-0.0017679746961221099,-0.0007126746349968016
1772735100415874300,7.019874267578125,-0.0014667387586086988,0.0018161074258387089,0.0010886875679716468
1772735100425901000,7.029901123046875,-0.0011262824991717935,0.0008883061818778515,0.0009253783500753343
1772735100435928300,7.03992822265625,-0.0018080518348142505,0.002617230173200369,-0.000720987853128463
1772735100445955300,7.049955322265625,-0.0005318403127603233,-0.0009487958159297705,0.001096047693863511
1772735100455983000,7.059983154296875,-0.001191238989122212,0.0005348511040210724,-0.0031743310391902924
1772735100466010400,7.07001025390625,-0.0017465208657085896,0.0008729787077754736,-0.0006240796064957976
1772735100476037400,7.080037353515625,-0.00007139256922528148,0.002600305015221238,-0.00011941060074605048
1772735100486064000,7.090064208984375,-0.0006272901082411408,-0.0014834902249276638,0.0002002573455683887
1772735100496091400,7.10009130859375,0.0015421208227053285,0.002130419248715043,-0.0002948243054561317
1772735100506118400,7.110118408203125,-0.00013424376084003597,-0.0016139396466314793,0.00009866361506283283
1772735100516145200,7.120145263671875,-0.0007989687146618962,0.0011496227234601974,-0.001753831165842712
1772735100526172200,7.130172119140625,0.0015575879951938987,-0.00000930926762521267,-0.0016790895024314523
1772735100536199400,7.140199462890625,-0.00018944568000733852,-0.003567825071513653,-0.0007182210101746023
1772735100546226200,7.15022607421875,-0.002512603532522917,0.002028780523687601,-0.0001920829527080059
1772735100556253200,7.160253173828125,0.0006797274108976126,0.0009544612839818001,-0.0007148614968173206
1772735100566280400,7.170280517578125,0.0012297391658648849,-0.00027705985121428967,-0.0007690619677305222
1772735100576307200,7.18030712890625,0.002165041398257017,-0.0005098199471831322,0.0010267074685543776
1772735100586334200,7.190334228515625,-0.000577999628148973,0.0015481989830732346,-0.0000885421468410641
1772735100596361200,7.200361328125,-0.00020648866484407336,-0.0009256112389266491,-0.00015565380454063416
1772735100606388200,7.21038818359375,0.0009860964491963387,-0.00046177790500223637,0.0008520875708200037
1772735100616415200,7.220415283203125,0.0010393596021458507,0.00003969529643654823,-0.0024118826258927584
1772735100626442200,7.230442138671875,-0.0014946158044040203,0.0007317946292459965,0.0014417720958590508
1772735100636469200,7.24046923828125,-0.0004695650713983923,-0.0029273885302245617,0.0017698737792670727
1772735100646497300,7.250497314453125,-0.0015783546259626746,-0.0006736386567354202,-0.002104526851326227
1772735100656524300,7.260524169921875,0.00010130100417882204,-0.0005641828756779432,-0.0012275478802621365
1772735100666551300,7.27055126953125,0.00032451003789901733,-0.0018627241952344775,0.0015579347964376211
1772735100676578300,7.280578369140625,-0.001060067443177104,0.0026830253191292286,-0.0005656698485836387
1772735100686605300,7.290605224609375,-0.0019460193580016494,0.0009275595657527447,-0.00004443025682121515
1772735100696632300,7.30063232421875,-0.000983286532573402,0.0028058872558176517,-0.001376809785142541
1772735100706659300,7.310659423828125,-0.0015722442185506225,0.00030471733771264553,0.000783563416916877
1772735100716686300,7.320686279296875,0.0013915877789258957,0.0029082235414534807,-0.0013216654770076275
1772735100726713000,7.330713134765625,-0.0013236490776762366,-0.00021514645777642727,0.0020327342208474874
1772735100736740400,7.340740234375,-0.0024056914262473583,-0.0012820088304579258,-0.0018964936025440693
1772735100746767400,7.350767333984375,0.0005756160244345665,0.0006507928483188152,0.0008489403408020735
1772735100756794000,7.360794189453125,-0.00001107836578739807,-0.0004956978373229504,-0.0005966234602965415
1772735100766821400,7.3708212890625,0.0013550493167713284,-0.0007498487830162048,0.0002223160699941218
1772735100776848400,7.380848388671875,0.0018013950902968645,-0.0025040728505700827,-0.00023841080837883055
1772735100786875100,7.390875244140625,0.0021817293018102646,-0.00035591074265539646,-0.00009975017746910453
1772735100796902100,7.400902099609375,0.0004567999567370862,0.0007636821828782558,0.00048374844482168555
1772735100806929000,7.410928955078125,-0.0018919589929282665,-0.00013165082782506943,-0.0001974749320652336
1772735100816956000,7.420955810546875,0.001132326782681048,0.0013892804272472858,-0.0030984561890363693
1772735100826982700,7.430982666015625,0.0016383168986067176,-0.0006271037273108959,0.0031769643537700176
1772735100837011000,7.441010986328125,0.00030780164524912834,0.00002643582411110401,-0.00202765129506588
1772735100847037700,7.45103759765625,0.0010923614026978612,0.0006514734122902155,-0.001292636152356863
1772735100857064700,7.461064697265625,-0.00043762463610619307,-0.0007818401791155338,-0.0018239368218928576
1772735100867091700,7.471091796875,0.0004657815443351865,0.0002769727725535631,0.000848640687763691
1772735100877118700,7.48111865234375,0.0003398140543140471,-0.0021851195488125086,0.0009663524106144905
1772735100887145700,7.491145751953125,0.002336043631657958,0.0007975660264492035,0.0015721716918051243
1772735100897172700,7.5011728515625,0.0001895358000183478,0.001987466588616371,-0.0007754048565402627
1772735100907199700,7.51119970703125,-0.00009915072587318718,-0.0007167633157223463,-0.0015399197582155466
1772735100917226800,7.521226806640625,0.000688079628162086,0.0009991112165153027,0.0012476108968257904
1772735100927253800,7.531253662109375,-0.0003619870403781533,0.0001598559319972992,0.0019631837494671345
1772735100937280800,7.54128076171875,-0.0006386894965544343,0.000502072274684906,0.00039937550900503993
1772735100947307800,7.551307861328125,-0.00133058475330472,-0.00007776054553687572,0.0007515815086662769
1772735100957334800,7.561334716796875,-0.00026878248900175095,0.00044821365736424923,0.0005960528505966067
1772735100967361800,7.57136181640625,-0.0007566388230770826,0.0008588458877056837,-0.00131415412761271
1772735100977388800,7.581388916015625,-0.0027761138044297695,0.0013643137644976377,-0.0007639450486749411
1772735100987415800,7.591415771484375,-0.0001631734921829775,-0.0024768756702542305,0.0007664649747312069
1772735100997442800,7.60144287109375,-0.00010857869347091764,-0.0002813655883073807,-0.000717981019988656
1772735101007469600,7.611469482421875,-0.000514912186190486,0.0022967790719121695,-0.0008919988176785409
1772735101017496800,7.621496826171875,-0.0007729724748060107,-0.0004822295159101486,-0.0002523075381759554
1772735101027524600,7.631524658203125,0.0013661736156791449,0.001194395124912262,0.0007270257920026779
1772735101037551900,7.6415517578125,-0.0003499673039186746,0.001966178882867098,-0.0015800705878064036
1772735101047579000,7.651578857421875,-0.0000032205425668507814,0.00023537268862128258,0.000022029475076124072
1772735101057605600,7.661605712890625,0.001954735489562154,0.0015552351251244545,0.0008361577056348324
1772735101067632600,7.671632568359375,-0.001024100580252707,-0.0001263851299881935,-0.0008833405445329845
1772735101077660000,7.681659912109375,0.0010947103146463633,0.0022124028764665127,0.00008844694821164012
1772735101087686700,7.691686767578125,0.0002763951779343188,0.0007560970261693001,-0.0001948684803210199
1772735101097713700,7.701713623046875,-0.00004851048288401216,0.0011233468540012836,-0.0006753027555532753
1772735101107741000,7.711740966796875,0.00010813717381097376,0.00009474903345108032,-0.0014845634577795863
1772735101117768000,7.721767822265625,0.0022192250471562147,-0.0013002147898077965,0.0004616746155079454
1772735101127794700,7.731794677734375,0.0001456585741834715,-0.0007839337922632694,-0.000989271211437881
1772735101137821700,7.74182177734375,-0.0008849847363308072,-0.0015924694016575813,0.0008568320190533996
1772735101147849000,7.751848876953125,0.0015048617497086525,0.000512285390868783,0.0008614276302978396
1772735101157875700,7.761875732421875,0.0009847463807091117,0.0018523877952247858,-0.001815315568819642
1772735101167902700,7.77190283203125,-0.00009250093717128038,0.00088263931684196,0.0018432305660098791
1772735101177930000,7.781929931640625,0.001500335638411343,0.0000421453732997179,0.00311888474971056
1772735101187956700,7.791956787109375,0.001100041437894106,0.0006327207665890455,0.0005974596133455634
1772735101197983700,7.801983642578125,-0.0013876173179596663,0.001068680314347148,0.0013769668294116855
1772735101208011800,7.81201171875,0.002281546825543046,-0.0005046122241765261,-0.0005332156433723867
1772735101218038800,7.822038818359375,-0.0009419433772563934,0.00029327068477869034,0.0019347358029335737
1772735101228065800,7.832065673828125,-0.00048723845975473523,-0.0010642881970852613,0.0015227767871692777
1772735101238092500,7.842092529296875,-0.0005365069373510778,-0.001750052091665566,0.0009432729566469789
1772735101248119800,7.852119873046875,-0.0009848987683653831,0.0010486813262104988,-0.0005642377072945237
1772735101258146800,7.862146728515625,-0.0033417963422834873,0.0006793010979890823,-0.0006161693600006402
1772735101268173600,7.872173583984375,0.002108753426000476,-0.0012850107159465551,-0.0002323073276784271
1772735101278200800,7.882200927734375,-0.0013458989560604095,0.002505199983716011,-0.0026888069696724415
1772735101288227800,7.892227783203125,0.0010470026172697544,-0.0006581794004887342,-0.00014116548118181527
1772735101298254800,7.9022548828125,0.0008938707760535181,0.0017205560579895973,0.0017078673699870706
1772735101308281600,7.912281494140625,-0.002470274455845356,0.001652929000556469,-0.0012411940842866898
1772735101318308900,7.922308837890625,0.0005231187678873539,-0.0007851952686905861,-0.0013527804985642433
1772735101328336000,7.9323359375,-0.0010755343828350306,0.0008470378816127777,0.0020806635729968548
1772735101338362600,7.942362548828125,0.0021910991054028273,-0.00048214569687843323,0.0007610673783347011
1772735101348390000,7.952389892578125,0.00019865405920427293,0.0008236158173531294,0.0004588215670082718
1772735101358417000,7.9624169921875,-0.0007997650536708534,-0.000807836651802063,-0.0015358860837295651
1772735101368443600,7.972443603515625,-0.00022343720775097609,0.0020660243462771177,-0.003036118345335126
1772735101378470700,7.982470703125,0.0014596806140616536,-0.0007286965847015381,-0.0004698963020928204
1772735101388498000,7.992497802734375,-0.0006765559664927423,-0.000033713411539793015,-0.0013117168564349413
1772735101398525700,8.002525634765625,0.0004196011577732861,-0.0003061548341065645,0.0008744720835238695
1772735101408553000,8.012552978515625,-0.001611653482541442,-0.0005694197025150061,0.00034914849675260484
1772735101418579700,8.022579833984375,-0.0003146940434817225,-0.000952382106333971,0.0018319966038689017
1772735101428606700,8.032606689453125,-0.00030329282162711024,-0.0017093089409172535,0.0007435668376274407
1772735101438633700,8.0426337890625,-0.0001919726637424901,0.0017488058656454086,-0.0007688422920182347
1772735101448660700,8.05266064453125,0.0007408620440401137,-0.0003587724640965462,-0.0009589159162715077
1772735101458687700,8.062687744140625,-0.00043412460945546627,-0.002693299436941743,0.0004179383395239711
1772735101468714800,8.07271484375,-0.0014631978701800108,0.0014027876313775778,-0.0010356665588915348
1772735101478741800,8.08274169921875,0.0018042344599962234,-0.0004036347381770611,0.00016541907098144293
1772735101488768800,8.092768798828125,-0.0019332276424393058,-0.00007892795838415623,0.0015505129704251885
1772735101498795800,8.102795654296875,-0.0005973860388621688,0.0008161603473126888,-0.0015877559781074524
1772735101508822800,8.11282275390625,0.001057773595675826,0.00036969990469515324,0.0004170696483924985
1772735101518849800,8.122849853515625,0.0013443296775221825,-0.0000353669747710228,-0.0006228947313502431
1772735101528876800,8.132876708984375,-0.0005266342777758837,0.000921931117773056,0.0006519713206216693
1772735101538903800,8.14290380859375,0.0017911149188876152,0.00222581485286355,0.0021499991416931152
1772735101548930800,8.152930908203125,0.0003822671133093536,0.0007493032608181238,-0.003967760130763054
1772735101558957800,8.162957763671875,-0.0009413239313289523,0.00048591685481369495,-0.001841226126998663
1772735101568984800,8.17298486328125,-0.000538112479262054,-0.00022328412160277367,-0.0013215572107583284
1772735101579012900,8.183012939453125,-0.0023346811067312956,0.0011082962155342102,-0.0011548433685675263
1772735101589039900,8.193039794921875,-0.0012853833613917232,-0.0012081894092261791,-0.0013515506871044636
1772735101599066600,8.203066650390625,-0.0006171962013468146,0.00000994047150015831,0.0019169468432664871
1772735101609093600,8.21309375,0.00009276924538426101,-0.0011600146535784006,0.0019910100381821394
1772735101619121000,8.223120849609375,0.00031194742769002914,0.001094084931537509,-0.0006713520269840956
1772735101629147600,8.233147705078125,0.00023588903422933072,-0.0017301645129919052,-0.0012436588294804096
1772735101639174700,8.243174560546874,0.0006603968795388937,-0.0005967230536043644,-0.0003528314409777522
1772735101649202000,8.253201904296875,-0.0003443185705691576,0.0021143110934644938,0.0019818199798464775
1772735101659229000,8.26322900390625,-0.0003669554425869137,-0.000774153508245945,-0.0008350055431947112
1772735101669255700,8.273255615234374,-0.0005564405582845211,0.0008377730846405029,-0.0009791174670681357
1772735101679282700,8.28328271484375,0.0008401211816817522,0.0007054139859974384,0.00010185965220443904
1772735101689310000,8.29331005859375,0.0013265225570648909,0.0018719048239290714,0.0010369671508669853
1772735101699336700,8.303336669921874,-0.00004766845813719556,-0.0012570430990308523,-0.001028580591082573
1772735101709363700,8.31336376953125,0.0005091388011351228,-0.001324360491707921,0.001840478158555925
1772735101719391000,8.323390869140624,-0.00003095025022048503,-0.001508917659521103,0.0015049198409542441
1772735101729417700,8.333417724609374,0.0002070252230623737,0.0012551136314868927,-0.0019351838855072856
1772735101739444700,8.34344482421875,-0.0012119070161134005,-0.00040190527215600014,-0.0022680789697915316
1772735101749472800,8.35347265625,-0.00012120530300308019,0.0003844974562525749,0.0007143289549276233
1772735101759499800,8.363499755859374,-0.000353432958945632,-0.00042909826152026653,-0.0018401751294732094
1772735101769526800,8.37352685546875,0.0018490494694560766,-0.0010847293306142092,-0.00031885888893157244
1772735101779553500,8.383553466796876,0.002926830668002367,0.0007890705019235611,-0.0010067534167319536
1772735101789580800,8.393580810546876,-0.0010630121687427163,-0.0011271967086941004,0.00039184067281894386
1772735101799607800,8.40360791015625,0.0010605923598632216,-0.0005250561516731977,-0.0012686402769759297
1772735101809635300,8.41363525390625,0.001281421515159309,-0.0007804352790117264,-0.002002555876970291
1772735101819662300,8.423662353515626,0.0007700946880504489,-0.0016981606604531407,0.0032659757416695356
1772735101829689600,8.433689697265624,0.0007790077943354845,0.0015696543268859386,-0.00034347412292845547
1772735101839716400,8.44371630859375,0.0010652976343408227,-0.000035965582355856895,0.002083997242152691
1772735101849743400,8.453743408203126,0.0007452407153323293,-0.001817882526665926,0.0002137038973160088
1772735101859770600,8.4637705078125,0.0009210093412548304,0.0007896183524280787,-0.001410025404766202
1772735101869797400,8.47379736328125,0.0007492983713746071,-0.00039714761078357697,0.00020777658210135996
1772735101879824400,8.483824462890626,-0.00034126610262319446,0.001197819598019123,-0.00007558375364169478
1772735101889851400,8.493851318359376,-0.0006588284741155803,0.000833168625831604,0.0009607591782696545
1772735101899878400,8.50387841796875,0.0010639704996719956,-0.00026458618231117725,-0.0006994555005803704
1772735101909905400,8.513905517578126,0.0009281271486543119,-0.0008299809414893389,-0.0009020919678732753
1772735101919933400,8.523933349609376,-0.0006647094851359725,-0.0015389143954962492,-0.00015880371211096644
1772735101929960400,8.53396044921875,0.002294342964887619,0.002061067381873727,-0.000196294451598078
1772735101939987500,8.543987548828126,-0.00008465864084428176,0.0007137742359191179,0.00006096690776757896
1772735101950014500,8.554014404296876,0.0010584027040749788,0.0006946106441318989,-0.00181135768070817
1772735101960041500,8.56404150390625,0.0030816062353551388,0.000723373144865036,0.0010283709270879626
1772735101970068500,8.574068359375,0.0006846041651442647,0.0007381616160273552,0.0005332287400960922
1772735101980095500,8.584095458984375,-0.0013268813490867615,-0.001198755344375968,0.0010988841531798244
1772735101990122200,8.594122314453125,-0.0006009556818753481,0.0009279623627662659,-0.0009596858872100711
1772735102000149500,8.6041494140625,-0.0004398344608489424,-0.0032883542589843273,0.0007918751798570156
1772735102010176500,8.614176513671875,0.001127154566347599,-0.0022188087459653616,0.00027750676963478327
1772735102020203300,8.624203369140625,0.0004504452517721802,-0.0001777620054781437,0.0021347953006625175
1772735102030230500,8.63423046875,0.0015243686502799392,0.00007707090117037296,0.0019111258443444967
1772735102040257500,8.644257568359375,0.0002742809010669589,0.0017450088635087013,-0.0006441771984100342
1772735102050284300,8.6542841796875,-0.0014574126107618213,-0.0006163944490253925,-0.0018496906850486994
1772735102060311600,8.6643115234375,0.0009956250432878733,-0.0006763155106455088,-0.00027629511896520853
1772735102070338600,8.674338623046875,-0.0014950367622077465,-0.0013975764159113169,0.0005755018210038543
1772735102080365300,8.684365234375,-0.0005544081795960665,0.0008211028762161732,-0.0013606161810457706
1772735102090393600,8.6943935546875,0.001157483085989952,0.00016570556908845901,-0.00009776939987204969
1772735102100420400,8.70442041015625,0.0012099473970010877,0.00003760773688554764,0.0018255654722452164
1772735102110447400,8.714447265625,-0.0005463527631945908,-0.00048445770516991615,-0.00003084057243540883
1772735102120474400,8.724474365234375,-0.0015940404264256358,0.0028785821050405502,-0.001995454542338848
1772735102130501600,8.734501708984375,0.0023881704546511173,-0.0009852901566773653,0.0017560244305059314
1772735102140528400,8.7445283203125,0.000026213005185127258,-0.0004542558453977108,-0.0007904901285655797
1772735102150555400,8.754555419921875,-0.0017186034237965941,0.0001735263504087925,0.0008724486688151956
1772735102160582700,8.764582763671875,-0.00006451406807173043,0.0019362729508429766,0.0001653793442528695
1772735102170609400,8.774609375,0.0008809081045910716,-0.0006142365746200085,-0.0018929778598248959
1772735102180636400,8.784636474609375,-0.0012444243766367435,-0.00018849968910217285,-0.0019714452791959047
1772735102190663400,8.794663330078125,0.00043409503996372223,0.0003654973115772009,0.000322619715007022
1772735102200690400,8.8046904296875,-0.0006383599247783422,0.00033380533568561077,-0.00007898500189185143
1772735102210717400,8.814717529296875,-0.0016737286932766438,-0.00022237561643123627,0.0003777163219638169
1772735102220744400,8.824744384765625,-0.00010512683365959674,-0.0006591340061277151,-0.0008531967177987099
1772735102230771500,8.834771484375,0.0011790056014433503,0.0008955164812505245,0.0003087415243498981
1772735102240798500,8.844798583984375,-0.0014023964758962393,-0.0001311320811510086,-0.001842293655499816
1772735102250825500,8.854825439453125,-0.0010777183342725039,-0.0016173934563994408,-0.0013438593596220016
1772735102260853500,8.864853515625,-0.0012249911669641733,0.0006287165451794863,-0.0019473315915092826
1772735102270880500,8.874880615234375,0.00024156922881957144,-0.0007074177265167236,-0.0009697289206087589
1772735102280907500,8.884907470703125,0.0013297369005158544,-0.0013918501790612936,-0.00019714594236575067
1772735102290934300,8.894934326171875,0.0017892781179398298,0.0011635161936283112,0.001716669648885727
1772735102300961500,8.90496142578125,-0.00039930763887241483,-0.0011140191927552223,0.002880471060052514
1772735102310988500,8.914988525390624,0.00045951991342008114,0.0005200689192861319,-0.0007473128498531878
1772735102321015300,8.925015380859374,0.0012582018971443176,0.000749367056414485,0.0011256884317845106
1772735102331042600,8.93504248046875,-0.0025502273347228765,-0.001462054904550314,-0.0011865748092532158
1772735102341069600,8.945069580078124,0.0031622531823813915,0.0005904436111450195,0.0005580619908869267
1772735102351096300,8.955096435546874,0.0008230907842516899,-0.000957968644797802,0.002731466433033347
1772735102361123300,8.965123291015624,-0.0002272599085699767,-0.0017217632848769426,-0.00011998022091574967
1772735102371150600,8.975150634765624,0.000867339433170855,-0.001876072958111763,0.0009642151417210698
1772735102381177300,8.98517724609375,-0.00039766202098689973,0.0009868252091109753,-0.0009455377003178
1772735102391204400,8.995204345703126,0.002066659973934293,-0.00018069753423333168,-0.0010837330482900143
1772735102401231600,9.005231689453124,0.002123118843883276,-0.0010752533562481403,0.00201112637296319
1772735102411258400,9.01525830078125,-0.0004959342768415809,-0.0014255365822464228,0.0007562331156805158
1772735102421285400,9.025285400390626,-0.0018554780399426818,0.0013585318811237812,0.0011011124588549137
1772735102431313400,9.0353134765625,-0.00037800014251843095,0.00018505961634218693,0.0003904006734956056
1772735102441340400,9.04534033203125,-0.0010078377090394497,0.0002516387030482292,-0.001459963619709015
1772735102451367400,9.055367431640626,0.0001696187973720953,-0.0007176392246037722,0.0014137665275484324
1772735102461394400,9.06539453125,0.0003951885737478733,0.001775878481566906,-0.00008905533468350768
1772735102471421400,9.07542138671875,-0.0016331933438777924,0.001817113719880581,-0.0013968576677143574
1772735102481448400,9.085448486328126,-0.00006911892705829814,-0.0021406100131571293,-0.0014482566621154547
1772735102491475500,9.095475341796876,-0.0014728044625371695,-0.0000788690522313118,0.00103066919837147
1772735102501502500,9.10550244140625,-0.0002693220740184188,0.0006535002030432224,0.0007081603398546576
1772735102511529500,9.115529541015626,-0.000780916481744498,-0.00007820990867912769,0.0024154442362487316
1772735102521556500,9.125556396484376,0.0006039272993803024,0.00025575049221515656,0.0006082230247557163
1772735102531583500,9.13558349609375,0.000263066787738353,0.0001866763923317194,-0.001669536461122334
1772735102541610500,9.145610595703126,-0.002414475427940488,0.00035232468508183956,-0.002278334926813841
1772735102551637500,9.155637451171875,0.0007442303467541933,0.00005102739669382572,0.00009588422835804522
1772735102561664300,9.165664306640625,-0.00022595925838686526,0.000049429479986429214,0.0012016287073493004
1772735102571691500,9.17569140625,0.00026186608010903,0.0005157606210559607,0.0030703749507665634
1772735102581718500,9.185718505859375,0.001115409191697836,-0.000813689548522234,0.0015209477860480547
1772735102591746300,9.195746337890625,-0.0006216837791725993,0.001982292393222451,-0.0006065091583877802
1772735102601773600,9.205773681640625,0.00011760972847696394,0.0006605654489248991,-0.00022487819660454988
1772735102611800300,9.21580029296875,0.0010508333798497915,0.00039839139208197594,0.0004510445287451148
1772735102621827300,9.225827392578125,0.0005568170454353094,0.0007038558833301067,-0.001333273365162313
1772735102631854600,9.2358544921875,0.0012128863018006086,-0.0013313544914126396,-0.0015267245471477509
1772735102641881300,9.24588134765625,0.0006698677898384631,0.0006407161708921194,-0.0007043404621072114
1772735102651908400,9.255908447265625,-0.002659143414348364,0.00016905018128454685,-0.0029102929402142763
1772735102661935400,9.265935302734375,0.000053552561439573765,-0.0018347122240811586,0.00006951790419407189
1772735102671962600,9.275962646484375,-0.0012732032919302583,0.00002377806231379509,-0.000658522651065141
1772735102681989400,9.2859892578125,0.0013803703477606177,0.0017282010521739721,-0.0008412154857069254
1772735102692016400,9.296016357421875,-0.00040421891026198864,-0.0021278318017721176,0.0003459785075392574
1772735102702043600,9.306043701171875,0.0005513232899829745,0.0006940534804016352,0.0010083067463710904
1772735102712070400,9.3160703125,0.0012512996327131987,-0.00025762710720300674,0.0008561528520658612
1772735102722097400,9.326097412109375,-0.0003742939152289182,-0.0017418067436665297,0.0011150120990350842
1772735102732124400,9.33612451171875,-0.0005894317291676998,0.00024989061057567596,0.0019214940257370472
1772735102742151400,9.3461513671875,0.001915537635795772,0.00020834524184465408,0.0010746086481958628
1772735102752179500,9.356179443359375,0.0009117103763855994,-0.0007404268253594637,-0.00037567823892459273
1772735102762206500,9.36620654296875,-0.00031627315911464393,-0.001449360279366374,0.00004190544132143259
1772735102772233500,9.3762333984375,0.0017117597162723541,-0.0007301345467567444,0.0009639077470637858
1772735102782260500,9.386260498046875,-0.000016365433111786842,-0.0005756712052971125,0.0009335476788692176
1772735102792287200,9.396287353515625,-0.0028171460144221783,0.00011312239803373814,-0.000968480424489826
1772735102802314500,9.406314453125,-0.00008021540270419791,-0.00019900011830031872,-0.0004446366219781339
1772735102812340500,9.416340576171875,-0.0023785457015037537,0.0027541927993297577,0.000749825092498213
1772735102822367700,9.42636767578125,0.0003597163304220885,-0.0012538644950836897,-0.000288541370537132
1772735102832394500,9.43639453125,-0.0014133902732282877,-0.0007567869033664465,0.0009032052475959063
1772735102842421500,9.44642138671875,0.0019738844130188227,0.0004328470677137375,-0.0009700622176751494
1772735102852448500,9.456448486328124,0.0013238232349976897,-0.0012759033124893904,0.0007695812964811921
1772735102862475500,9.4664755859375,-0.0012543830089271069,0.0014612935483455658,-0.0027356711216270924
1772735102872502500,9.47650244140625,-0.0005956306122243404,0.0017169492784887552,0.0008067418821156025
1772735102882529500,9.486529541015624,-0.0002811113081406802,0.0011070852633565664,0.0006666596746072173
1772735102892556500,9.496556640625,0.002256792737171054,0.00281347194686532,-0.0016406192444264889
1772735102902583600,9.50658349609375,-0.001455120975151658,-0.0003764622379094362,-0.00008240368333645165
1772735102912611600,9.516611572265624,0.00009731123282108456,-0.00055740587413311,0.0006858612759970129
1772735102922638600,9.526638671875,-0.00025076392921619117,-0.000045812688767910004,-0.0019738376140594482
1772735102932665600,9.53666552734375,0.0005335898022167385,0.00018291990272700787,0.00004102231469005346
1772735102942692600,9.546692626953124,-0.0005649641389027238,0.000010080868378281593,0.0011824531247839332
1772735102952719400,9.55671923828125,0.002137480303645134,-0.0021127620711922646,-0.0014325850643217564
1772735102962746600,9.56674658203125,-0.00035763520281761885,-0.0003596029710024595,-0.000474912318168208
1772735102972773600,9.576773681640624,0.0001370585960103199,-0.0001402141060680151,-0.0020146267488598824
1772735102982800400,9.58680029296875,-0.0006014359532855451,0.0024800701066851616,0.00020751485135406256
1772735102992827600,9.59682763671875,-0.0004520613292697817,0.0009565392974764109,0.000493172905407846
1772735103002854700,9.606854736328126,-0.001209730631671846,0.0004119228105992079,0.00029077267390675843
1772735103012881400,9.61688134765625,-0.0007108472054824233,-0.002796253189444542,0.002016404177993536
1772735103022908400,9.626908447265626,0.0008803915698081255,-0.0009216540493071079,0.000346069602528587
1772735103032935700,9.636935791015626,-0.0006984196370467544,0.0016898238100111485,-0.002177429385483265
1772735103042962400,9.64696240234375,-0.0007311765220947564,0.0006980630569159985,-0.0010855334112420678
1772735103052989400,9.656989501953126,0.0020852191373705864,0.0006588634569197893,-0.0005345238605514169
1772735103063016700,9.6670166015625,0.0009637620532885194,0.0009249134454876184,0.00017254543490707874
1772735103073044500,9.67704443359375,0.002328020753338933,0.0005886135622859001,0.00032574983197264373
1772735103083071500,9.687071533203126,0.001036653877235949,0.0008405488915741444,-0.002790148602798581
1772735103093098800,9.6970986328125,0.002176003996282816,-0.00026826956309378147,0.003159802872687578
1772735103103125500,9.70712548828125,-0.001333775813691318,-0.0008405826520174742,-0.0015997986774891615
1772735103113152500,9.717152587890626,-0.0015155067667365074,0.002004409907385707,-0.0012522288598120213
1772735103123179800,9.7271796875,-0.00014025039854459465,0.00006829202175140381,-0.0005640680901706219
1772735103133206500,9.73720654296875,-0.0022569543216377497,0.0019421586766839027,0.0009293891489505768
1772735103143233500,9.747233642578125,-0.0012071363162249327,0.0014305654913187027,-0.00016357211279682815
1772735103153260500,9.757260498046875,-0.00014833270688541234,-0.000003154156729578972,-0.0015593570424243808
1772735103163287600,9.76728759765625,0.00211322377435863,0.00003759237006306648,-0.0016653508646413684
1772735103173314600,9.777314453125,0.003432319965213537,-0.0000934964045882225,0.00010368780931457877
1772735103183341600,9.787341552734375,-0.0007714797393418849,-0.0000404994934797287,-0.0013216359075158834
1772735103193368600,9.79736865234375,0.0023599686101078987,-0.0011769533157348633,0.0004586424620356411
1772735103203395600,9.8073955078125,-0.002914155600592494,-0.0019780320581048727,0.0009531914256513119
1772735103213422600,9.817422607421875,-0.00043639977229759097,0.0015919976867735386,-0.0003538717282935977
1772735103223449300,9.827449462890625,-0.0008300149929709733,-0.000044248299673199654,-0.0016841207398101687
1772735103233477600,9.8374775390625,0.0018193417927250266,0.0009726386051625013,-0.00020450589363463223
1772735103243504600,9.847504638671875,-0.0007234445074573159,0.002081046113744378,0.0008727427921257913
1772735103253531400,9.857531494140625,0.0014824338722974062,0.0009841211140155792,0.0011309873079881072
1772735103263558700,9.86755859375,0.0008320899796672165,-0.0004172343760728836,0.0017770701088011265
1772735103273585700,9.877585693359375,0.0003649060381576419,0.0016390576492995024,0.0027562850154936314
1772735103283612400,9.8876123046875,-0.00022897886810824275,0.000926928361877799,-0.0005151419900357723
1772735103293639700,9.8976396484375,0.00012499916192609817,0.0009287174325436354,-0.0011979001574218273
1772735103303666700,9.907666748046875,0.000025663262931630015,-0.0024596224538981915,-0.0005068099126219749
1772735103313693400,9.917693359375,-0.00007749760698061436,0.0010279964189976454,0.0001176395162474364
1772735103323720400,9.927720458984375,-0.00034674318158067763,-0.0004191654734313488,-0.0013111464213579893
1772735103333747700,9.937747802734375,0.00136905862018466,-0.001649506390094757,-0.0009269095025956631
1772735103343774500,9.9477744140625,-0.0022272742353379726,0.0008213743567466736,-0.0015213270671665668
1772735103353801500,9.957801513671875,0.0008422087412327528,0.0026875073090195656,-0.0015339171513915062
1772735103363828700,9.967828857421875,-0.0017581017455086112,-0.0016960555221885443,-0.0029387346003204584
1772735103373855500,9.97785546875,-0.0015368014574050903,-0.0013091366272419691,-0.0007517369231209159
1772735103383883500,9.987883544921875,-0.0006153476424515247,-0.0007711781654506922,0.0013596171047538519
1772735103393910500,9.99791064453125,-0.00019989997963421047,0.0007433434948325157,-0.000693437410518527
1772735103403937500,10.0079375,-0.000530398276168853,0.0010394868440926075,-0.00010487876716069877
1772735103413964500,10.017964599609375,-0.001980724511668086,-0.0009842414874583483,-0.00033520994475111365
1772735103423991800,10.02799169921875,0.0010638012317940593,-0.0014004935510456562,-0.0001812792179407552
1772735103434018600,10.0380185546875,0.0016479367623105645,-0.0009960855823010206,0.001406611641868949
1772735103444045600,10.048045654296875,0.000218884481000714,0.00005879253149032593,-0.00036039570113644004
1772735103454072600,10.058072509765625,-0.0005329388659447432,0.0003477283753454685,0.0018341118702664971
1772735103464099600,10.068099609375,-0.0008951287600211799,-0.0012823923025280237,0.002000559587031603
1772735103474126600,10.078126708984374,0.0010491893626749516,0.0016235662624239922,0.0010729136411100626
1772735103484153600,10.088153564453124,-0.000517281994689256,0.0018507339991629124,0.00022389786317944527
1772735103494180600,10.0981806640625,0.0019057641038671136,0.00015685311518609524,0.0005535417585633695
1772735103504207600,10.10820751953125,-0.0002705712104216218,-0.0005736520979553461,0.002435331465676427
1772735103514234600,10.118234619140624,0.0004529287980403751,-0.0007355981506407261,0.0012733391486108303
1772735103524261400,10.128261474609374,0.0006225721444934607,0.0005773401353508234,0.0008147428743541241
1772735103534289700,10.13828955078125,-0.000008660397725179791,0.0013703345321118832,-0.001904702978208661
1772735103544316400,10.14831640625,0.0020046893041580915,-0.000730899628251791,-0.000714269932359457
1772735103554343400,10.158343505859374,0.0001603821583557874,-0.001028233440592885,0.001193198375403881
1772735103564370700,10.16837060546875,-0.0018867898033931851,0.0017169530037790537,-0.0012779487296938896
1772735103574397400,10.1783974609375,0.0003434819809626788,-0.00016790488734841347,-0.0010335883125662804
1772735103584424400,10.188424560546874,-0.00036012521013617516,-0.0013583379331976175,0.0007424737559631467
1772735103594451700,10.19845166015625,0.002309307921677828,-0.0020052737090736628,-0.0005801136721856892
1772735103604478700,10.208478759765624,0.00038437522016465664,-0.00011336407624185085,-0.00005866671563126147
1772735103614505500,10.21850537109375,0.0010000849142670631,0.0003732356708496809,-0.00021161147742532194
1772735103624532500,10.228532470703126,0.0011966262245550752,-0.00004301639273762703,-0.00005741443601436913
1772735103634559700,10.238559814453126,0.00031056071748025715,0.0018788634333759546,0.0002203590120188892
1772735103644586500,10.24858642578125,0.00020403426606208086,-0.0004937467165291309,0.0003857412957586348
1772735103654613500,10.258613525390626,0.0010495122987776995,0.0010462445206940174,0.00010318291606381536
1772735103664640800,10.268640869140626,0.0008239425951614976,-0.00038280757144093513,-0.0006393063813447952
1772735103674667500,10.27866748046875,0.0011201873421669006,0.00007750093936920166,-0.0011155407410115004
1772735103684695600,10.288695556640626,0.0005787666304968297,0.0005235804710537195,-0.00008010378223843873
1772735103694722600,10.29872265625,0.0006216603796929121,0.0011300698388367891,0.0019607567228376865
1772735103704749600,10.30874951171875,-0.000409515603678301,0.00032233283855021,0.0008576754480600357
1772735103714776600,10.318776611328126,-0.0013004048960283399,0.0008682538755238056,0.0007219543913379312
1772735103724803300,10.32880322265625,-0.002208543010056019,-0.001956561114639044,-0.00007619490497745574
1772735103734830600,10.33883056640625,-0.00032229674980044365,-0.0010761115700006485,0.0005497342208400369
1772735103744857600,10.348857666015626,0.0009187362738884985,-0.0004015329759567976,-0.0011925057042390108
1772735103754884600,10.358884521484375,0.0001668078766670078,0.0008488090243190527,0.0003629749407991767
1772735103764911600,10.36891162109375,0.0021551239769905806,0.00046771089546382427,-0.0004338428261689842
1772735103774938600,10.378938720703125,0.0006218241178430617,0.0015519536100327969,0.0007117604254744947
1772735103784965600,10.388965576171875,0.002250613644719124,-0.0005151920486241579,-0.0007316728588193655
1772735103794992400,10.398992431640625,-0.0010767444036900997,0.00008761836215853691,0.000005944108124822378
1772735103805020400,10.4090205078125,0.001031946623697877,0.0020788637921214104,-0.0005959303234703839
1772735103815047200,10.419047119140625,-0.001293654553592205,0.0001715044490993023,-0.0013133375905454159
1772735103825074200,10.42907421875,-0.0004457040340639651,0.0007089301943778992,0.0012353076599538326
1772735103835102200,10.439102294921875,0.0010615678038448095,-0.0007851445116102695,-0.001307435566559434
1772735103845129200,10.449129150390625,0.0011422616662457585,0.0017773490399122238,-0.0018118382431566715
1772735103855156200,10.45915625,0.002303722547367215,-0.0012360108084976673,0.0009650246938690543
1772735103865183200,10.469183349609375,-0.0007591790053993464,0.0012511154636740685,-0.00042115067481063306
1772735103875210200,10.479210205078125,-0.0016283424338325858,-0.0014509465545415878,0.00030478963162750006
1772735103885237200,10.4892373046875,0.002053477568551898,-0.0013231148477643728,-0.0002635289274621755
1772735103895264500,10.499264404296875,-0.0014683457557111979,0.0008765240199863911,0.0003266094718128443
1772735103905291300,10.509291259765625,0.0015844356967136264,-0.0009749054443091154,-0.0006731412140652537
1772735103915318300,10.519318359375,-0.0013533872552216053,0.0016198239754885435,-0.0014001260278746486
1772735103925345300,10.52934521484375,0.0010887314565479755,-0.0001138937659561634,0.0018795568030327559
1772735103935372300,10.539372314453125,-0.0017885452834889293,0.00005344604142010212,-0.0015222735237330198
1772735103945399300,10.5493994140625,0.0008517126552760601,-0.00016679754480719566,0.002291106851771474
1772735103955426300,10.55942626953125,0.0021725809201598167,-0.0005709973629564047,-0.0006802884163334966
1772735103965453300,10.569453369140625,0.0010958650382235646,-0.0019654284697026014,0.001981274923309684
1772735103975480300,10.579480224609375,-0.00028563584783114493,-0.00032479362562298775,-0.0008756318711675704
1772735103985507300,10.58950732421875,0.0013884272193536162,0.001325300894677639,0.0011608873028308153
1772735103995534000,10.5995341796875,0.0011555659584701061,-0.0005786798428744078,-0.00009081093594431877
1772735104005561300,10.609561279296875,0.0009395836386829615,0.0016714248340576887,-0.002468481194227934
1772735104015588400,10.61958837890625,-0.0009646518155932426,0.00027628964744508266,-0.0002598604769445956
1772735104025615000,10.629614990234375,0.00025294540682807565,0.0012446145992726088,-0.0006393609219230711
1772735104035642400,10.639642333984375,-0.0002985952596645802,0.0006115816067904234,-0.0011352414730936289
1772735104045669400,10.64966943359375,-0.00011883188562933356,0.000976701034232974,0.001086900127120316
1772735104055696100,10.659696044921875,-0.0012173422146588564,0.0007273796945810318,0.0013540299842134118
1772735104065723100,10.66972314453125,-0.0007001563208177686,0.0029798815958201885,-0.0006555913714691997
1772735104075750400,10.67975048828125,-0.0011887350119650364,-0.0002622264437377453,-0.000044136919314041734
1772735104085777400,10.68977734375,0.0005164869362488389,-0.0009304136037826538,0.00017876969650387764
1772735104095805200,10.69980517578125,-0.0016296784160658717,0.0009000045247375965,-0.0024746523704379797
1772735104105832400,10.70983251953125,0.003406092757359147,-0.0010230641346424818,0.00030701933428645134
1772735104115859200,10.719859130859374,-0.00048181164311245084,-0.001579491887241602,0.0008701096521690488
1772735104125886200,10.72988623046875,0.00025801447918638587,0.001060499344021082,0.0007292283698916435
1772735104135913500,10.73991357421875,-0.00021341501269489527,-0.0009085105266422033,-0.001078777015209198
1772735104145940200,10.749940185546874,-0.00002220005262643099,-0.0006842722650617361,-0.000909133639652282
1772735104155967200,10.75996728515625,0.00097841233946383,-0.0003021035809069872,-0.0008160404395312071
1772735104165994200,10.769994140625,0.0012857411056756973,0.001897401176393032,0.0005666727665811777
1772735104176021200,10.780021240234374,-0.0002334318560315296,0.0010467525571584702,0.0014494732022285461
1772735104186048300,10.79004833984375,0.0008145220344886184,-0.0008025465067476034,-0.0017154272645711899
1772735104196075300,10.8000751953125,0.0006686425767838955,0.0020505976863205433,0.0002829881850630045
1772735104206102300,10.810102294921874,0.0021711981389671564,-0.0025263107381761074,-0.0004877306637354195
1772735104216129300,10.82012939453125,0.0007558948127552867,-0.001770202536135912,0.0010566243436187506
1772735104226156300,10.83015625,-0.0017053986666724086,-0.0007342328317463398,0.0001242516445927322
1772735104236184300,10.840184326171874,0.0016632098704576492,0.000021449057385325432,0.00043934083078056574
1772735104246211300,10.85021142578125,0.0010565416887402534,-0.0008789657149463892,0.001983707770705223
1772735104256238300,10.86023828125,-0.0006291716126725078,0.000127783278003335,0.001387138501740992
1772735104266265000,10.87026513671875,-0.0006400905549526215,-0.0005763566587120295,0.0008353315060958266
1772735104276292400,10.880292236328126,0.0010100477375090122,-0.001335939159616828,0.0007804850465618074
1772735104286319400,10.8903193359375,0.0015333588235080242,-0.0009045072365552187,0.0027174020651727915
1772735104296346000,10.90034619140625,0.0010516298934817314,0.0013136016204953194,-0.0007180710090324283
1772735104306373400,10.910373291015626,0.000505948206409812,-0.0011149351485073566,-0.002451522508636117
1772735104316400400,10.920400390625,0.002433878369629383,0.0017936257645487785,0.0013637375086545944
1772735104326428200,10.93042822265625,-0.0019531468860805035,-0.000022916588932275772,-0.0029383329674601555
1772735104336455400,10.940455322265626,-0.00019291679200250655,-0.0006842557340860367,-0.001039800001308322
1772735104346482200,10.950482177734376,-0.0003050358791369945,0.0003178918268531561,0.0010297424159944057
1772735104356509200,10.96050927734375,-0.00018887131591327488,-0.0011599534191191196,-0.0007533659809269011
1772735104366536400,10.970536376953126,0.0005213937256485224,0.0000150331761687994,0.00012734136544167995
1772735104376563200,10.980563232421876,0.0007687474135309458,0.0004396708682179451,0.0004372592375148088
1772735104386590200,10.990590087890626,0.000564216636121273,0.00043514370918273926,0.0009541788604110479
1772735104396617200,11.0006171875,0.0007727582706138492,0.0012912799138575792,-0.00007224892033264041
1772735104406644200,11.010644287109375,-0.0007487057009711862,-0.00035934755578637123,0.000869178504217416
1772735104416672300,11.02067236328125,-0.0005128263728693128,0.000981816090643406,-0.00027123611653223634
1772735104426699300,11.03069921875,-0.00035490095615386963,0.0005884673446416855,-0.0002723013749346137
1772735104436726300,11.040726318359376,-0.000273970072157681,0.000150349922478199,0.0016095162136480212
1772735104446753300,11.050753173828125,-0.00006890665827086195,0.001024132827296853,0.0002984421735163778
1772735104456780300,11.0607802734375,-0.000056919110647868365,0.0014544411096721888,-0.0016995472833514214
1772735104466807300,11.070807373046875,0.00020859803771600127,0.001663232920691371,0.004374057985842228
1772735104476834300,11.080834228515625,0.000040017388528212905,0.0025039203464984894,-0.0005892812041565776
1772735104486861300,11.090861328125,-0.0004627874295692891,-0.0002737566828727722,-0.0002867461007554084
1772735104496888000,11.10088818359375,-0.000013826487702317536,-0.00046777003444731236,-0.0006044261390343308
1772735104506915300,11.110915283203125,-0.0007581799873150885,-0.0027799266390502453,-0.0002108109329128638
1772735104516942300,11.1209423828125,-0.0011120763374492526,0.0005955647211521864,-0.0006813810323365033
1772735104526969000,11.130968994140625,0.0011888948502019048,-0.000914447708055377,0.0008299628389067948
1772735104536996400,11.140996337890625,0.0011940887197852135,0.0014970125630497932,-0.0018263988895341754
1772735104547023400,11.1510234375,-0.0006088713998906314,0.0008274940773844719,0.0015771208563819528
1772735104557051100,11.161051025390625,-0.0016576581401750445,0.00025733490474522114,0.0020333132706582546
1772735104567078400,11.171078369140625,-0.00022461116896010935,0.0017974411603063345,0.0007137171924114227
1772735104577105400,11.18110546875,0.0022481270134449005,-0.0009433007799088955,0.0003600415075197816
1772735104587132200,11.191132080078125,-0.0009218335617333651,0.00006790156476199627,0.000846601091325283
1772735104597159400,11.201159423828125,0.00003689908771775663,-0.0025722524151206017,0.0008477948140352964
1772735104607186400,11.2111865234375,-0.0013207803713157773,0.0006978430319577456,0.0008432674221694469
1772735104617213200,11.221213134765625,-0.0005268868990242481,-0.000012654345482587814,0.00024247844703495502
1772735104627240200,11.231240234375,-0.0003721572575159371,0.0004291641525924206,-0.00021798208763357252
1772735104637267500,11.241267333984375,-0.00007716492109466344,0.000497403321787715,-0.0008610988734290004
1772735104647294200,11.251294189453125,0.00012630059791263193,-0.0005161957815289497,0.0005402565002441406
1772735104657321200,11.2613212890625,0.0003232110175304115,-0.001050933264195919,0.000049701950047165155
1772735104667348500,11.271348388671875,-0.0006054332479834557,0.0018543091136962175,-0.001705853850580752
1772735104677375200,11.281375244140625,-0.0010401642648503184,-0.00004974799230694771,0.00011727248784154654
1772735104687402200,11.29140234375,0.0024709473364055157,-0.00046919588930904865,0.00033272220753133297
1772735104697430300,11.30143017578125,-0.00002419436350464821,-0.0008014142513275146,-0.0012497494462877512
1772735104707457300,11.311457275390625,-0.0007392531260848045,0.0015930337831377983,0.0003883608733303845
1772735104717484300,11.321484375,-0.00010456391464686021,-0.00048104720190167427,0.0006454323884099722
1772735104727511000,11.331510986328125,0.0000557583844056353,0.0003328148741275072,0.0002488877216819674
1772735104737538300,11.341538330078125,-0.0005727476673200727,-0.001851776149123907,-0.00023101390979718417
1772735104747565300,11.3515654296875,0.0000017131242202594876,0.00033299438655376434,0.00017701636534184217
1772735104757592300,11.36159228515625,0.0007076294859871268,0.0011195049155503511,0.001476919511333108
1772735104767619300,11.371619384765625,-0.0024780435487627983,0.0008041865658015013,0.0018058198038488626
1772735104777646300,11.381646240234375,0.0009792326018214226,-0.0008993919473141432,0.002356991171836853
1772735104787673300,11.39167333984375,0.0007693755906075239,-0.0015140494797378778,-0.0017203083261847496
1772735104797700000,11.4017001953125,0.0007542417733930051,0.001951779006049037,-0.0008119560079649091
1772735104807727000,11.41172705078125,-0.00041009229607880116,-0.0011859575752168894,0.001100992551073432
1772735104817754000,11.421754150390624,-0.0020798516925424337,0.0011036277282983065,-0.00022638523660134524
1772735104827780900,11.43178076171875,0.0006956947036087513,0.0005787189584225416,0.0013020029291510582
1772735104837809200,11.44180908203125,0.00024368363665416837,0.0020597041584551334,0.0017524674767628312
1772735104847836000,11.4518359375,-0.003074082313105464,0.00013956520706415176,-0.0006747375009581447
1772735104857863000,11.46186279296875,0.000799163244664669,0.001139303669333458,0.0003580405027605593
1772735104867890200,11.47189013671875,0.0003235227195546031,-0.002112416084855795,-0.0005708700628019869
1772735104877917000,11.4819169921875,-0.0006083729094825685,0.0011225135531276464,-0.0009136148146353662
1772735104887944000,11.49194384765625,-0.0001942513627000153,-0.00026712403632700443,0.0009695063927210867
1772735104897971000,11.501970947265624,-0.0008385813562199473,-0.0006141583435237408,0.0015655297320336103
1772735104907998200,11.511998291015624,-0.0007027600659057498,0.0008417917415499687,-0.0015809950418770313
1772735104918025000,11.52202490234375,0.00123470404651016,0.0010958777274936438,-0.0005466435686685145
1772735104928052000,11.532052001953126,-0.0014124780427664518,0.0017339710611850023,0.0010153003968298435
