time,seconds_elapsed,z,y,x
1772639556081310000,0.05631005859375,0.0030977888964116573,-0.010578608140349388,-0.0481981560587883
1772639556091355100,0.066355224609375,0.009436644613742828,-0.018796591088175774,-0.07523190230131149
1772639556101399800,0.07639990234375,0.014155499637126923,-0.03002314642071724,-0.08911363035440445
1772639556111444700,0.08644482421875,0.018006697297096252,-0.030606377869844437,-0.08270766586065292
1772639556121489700,0.09648974609375,0.02129463665187359,-0.018279138952493668,-0.06853831559419632
1772639556131534800,0.106534912109375,0.021944180130958557,-0.026517095044255257,-0.06187082454562187
1772639556141579500,0.11657958984375,0.019599534571170807,-0.02852565050125122,-0.03900465741753578
1772639556151623700,0.126623779296875,0.001891909632831812,-0.01990872621536255,-0.011952533386647701
1772639556161668900,0.1366689453125,-0.016390424221754074,-0.02798396348953247,0.01082761399447918
1772639556171713800,0.1467138671875,-0.02564144693315029,-0.02755040116608143,0.02395300380885601
1772639556181758700,0.1567587890625,-0.021413147449493408,-0.024451013654470444,0.02568885125219822
1772639556191803600,0.1668037109375,-0.008743157610297203,-0.02311357483267784,0.017705228179693222
1772639556201848800,0.176848876953125,-0.00009667274571256712,-0.02611868642270565,0.007429420482367277
1772639556211893800,0.186893798828125,0.0026059031952172518,-0.028540564700961113,-0.00017683389887679368
1772639556221939000,0.19693896484375,0.005005944054573774,-0.03304583579301834,-0.0013108078856021166
1772639556231983600,0.206983642578125,0.004763862583786249,-0.03143062815070152,-0.002862365450710058
1772639556242028800,0.21702880859375,0.0008705873624421656,-0.022156434133648872,-0.007283479440957308
1772639556252073700,0.22707373046875,-0.0031212246976792812,-0.024168185889720917,-0.014783207327127457
1772639556262119000,0.237118896484375,-0.010130930691957474,-0.020387830212712288,-0.02508644387125969
1772639556272162600,0.24716259765625,-0.0100774010643363,-0.009030246175825596,-0.02864948846399784
1772639556282207700,0.257207763671875,-0.008309595286846161,-0.00507065886631608,-0.02869343012571335
1772639556292252700,0.267252685546875,-0.004372644238173962,-0.0034581145737320185,-0.023917317390441895
1772639556302297900,0.2772978515625,0.00003435477628954686,-0.004950284026563168,-0.015660185366868973
1772639556312342500,0.287342529296875,0.0023281353060156107,-0.0057066213339567184,-0.008983108215034008
1772639556322387700,0.2973876953125,0.004722849931567907,-0.004749215207993984,-0.002232261700555682
1772639556332432600,0.3074326171875,0.002502838848158717,-0.008665659464895725,0.0004498079069890082
1772639556342477800,0.317477783203125,0.0016101471846923232,-0.007965248078107834,-0.0012154667638242245
1772639556352522800,0.327522705078125,0.0031667647417634726,-0.0076869479380548,-0.010787666775286198
1772639556362567700,0.337567626953125,0.006600378546863794,-0.007721569389104843,-0.020833909511566162
1772639556372612600,0.347612548828125,0.010881409980356693,-0.005001949146389961,-0.0264824740588665
1772639556382657800,0.35765771484375,0.010651845484972,-0.005621133837848902,-0.03111504204571247
1772639556392701700,0.36770166015625,0.00914556160569191,-0.005101018585264683,-0.03579021990299225
1772639556402746600,0.37774658203125,0.005678392015397549,-0.011362376622855663,-0.037341780960559845
1772639556412791800,0.387791748046875,0.004367584362626076,-0.013586116023361683,-0.03838413953781128
1772639556422836700,0.397836669921875,0.005507949739694595,-0.006391586735844612,-0.032405078411102295
1772639556432882000,0.4078818359375,0.01188116054981947,0.0006378270918503404,-0.025678997859358788
1772639556442926600,0.417926513671875,0.011456119827926159,0.0004942826926708221,-0.015969112515449524
1772639556452971800,0.4279716796875,0.010558368638157845,-0.005452822428196669,-0.008561796508729458
1772639556463016700,0.4380166015625,0.0051505533047020435,-0.016172578558325768,-0.004030427895486355
1772639556473062000,0.448061767578125,0.0021465078461915255,-0.022285597398877144,-0.0056925066746771336
1772639556483106800,0.45810693359375,-0.0022008363157510757,-0.01817101426422596,-0.007529022637754679
1772639556493151700,0.46815185546875,-0.00433109886944294,-0.013045228086411953,-0.01005290076136589
1772639556503196700,0.47819677734375,-0.0009041432058438659,-0.00926487147808075,-0.009546101093292236
1772639556513240800,0.48824072265625,0.003944141324609518,-0.005137504078447819,-0.009936786256730556
1772639556523285500,0.498285400390625,0.006203567609190941,-0.003459712490439415,-0.01022653840482235
1772639556533330700,0.50833056640625,0.007773234508931637,-0.0012956279097124934,-0.01179087907075882
1772639556543375600,0.518375732421875,0.008218514733016491,-0.00044048685231246054,-0.01278956513851881
1772639556553420800,0.5284208984375,0.00469541922211647,0.001208009896799922,-0.015031147748231888
1772639556563465700,0.5384658203125,0.003969441633671522,0.0032799490727484226,-0.014325941912829876
1772639556573510700,0.5485107421875,0.004917793441563845,0.007729026023298502,-0.014151238836348057
1772639556583555600,0.5585556640625,0.004224039614200592,0.0034298852551728487,-0.010924020782113075
1772639556593600800,0.568600830078125,0.004354534670710564,-0.005742840468883514,-0.009692042134702206
1772639556603645700,0.578645751953125,0.003757187630981207,-0.011107245460152626,-0.00759879732504487
1772639556613691000,0.58869091796875,0.007211840245872736,-0.010791927576065063,-0.004816060420125723
1772639556623735600,0.598735595703125,0.009456885047256947,-0.0092321140691638,-0.00580915343016386
1772639556633779700,0.60877978515625,0.00794341042637825,-0.00942199770361185,-0.006199839059263468
1772639556643825000,0.618824951171875,0.009778594598174095,-0.0055228634737432,-0.008983640931546688
1772639556653869600,0.62886962890625,0.006910370197147131,-0.008888832293450832,-0.0148662980645895
1772639556663914800,0.638914794921875,0.003920173272490501,-0.006870955694466829,-0.022235531359910965
1772639556673959700,0.648959716796875,0.006108758971095085,-0.004566788673400879,-0.024264592677354813
1772639556684004900,0.6590048828125,0.0016144082183018327,-0.003973968792706728,-0.02756211906671524
1772639556694049800,0.6690498046875,0.0020759340841323137,-0.00860094465315342,-0.026643861085176468
1772639556704094700,0.6790947265625,0.0022160164080560207,-0.011639345437288284,-0.025424133986234665
1772639556714139600,0.6891396484375,0.0024738102219998837,-0.011789281852543354,-0.025653697550296783
1772639556724184800,0.699184814453125,0.0031246868893504143,-0.0089993542060256,-0.02943378873169422
1772639556734229800,0.709229736328125,0.0022533005103468895,-0.006050968077033758,-0.028614867478609085
1772639556744274700,0.719274658203125,-0.0005917543894611299,-0.003308444982394576,-0.029203426092863083
1772639556754319600,0.729319580078125,-0.0019478360190987587,-0.004751345608383417,-0.02876400388777256
1772639556764363800,0.73936376953125,-0.0007195860962383449,-0.005630454979836941,-0.02665824256837368
1772639556774408700,0.74940869140625,-0.000728907180018723,-0.00893756840378046,-0.02793229930102825
1772639556784453600,0.75945361328125,0.002347576431930065,-0.010522415861487389,-0.024776453152298927
1772639556794498600,0.76949853515625,0.000218645524000749,-0.012647085823118687,-0.020671457052230835
1772639556804543700,0.779543701171875,0.00036458674003370106,-0.015476161614060402,-0.018860505893826485
1772639556814588700,0.789588623046875,-0.002514823107048869,-0.012426842004060745,-0.013030314818024635
1772639556824633900,0.7996337890625,-0.005080512259155512,-0.010245447047054768,-0.009357016533613205
1772639556834678500,0.809678466796875,-0.006127400789409876,-0.009209210984408855,-0.010240120813250542
1772639556844723700,0.8197236328125,-0.007081345189362764,-0.0076392777264118195,-0.008467786945402622
1772639556854768600,0.8297685546875,-0.0064981128089129925,-0.010360228829085827,-0.00711862975731492
1772639556864813800,0.839813720703125,-0.006727677304297686,-0.010719222947955132,-0.0054762582294642925
1772639556874858500,0.8498583984375,-0.007312507834285498,-0.008522648364305496,-0.001910285442136228
1772639556884902700,0.859902587890625,-0.005825664848089218,-0.00692155584692955,-0.00418355967849493
1772639556894947800,0.86994775390625,-0.009731722995638847,-0.006569485645741224,-0.005428321193903685
1772639556904992800,0.87999267578125,-0.009544502943754196,-0.005256547126919031,-0.013612748123705387
1772639556915037700,0.89003759765625,-0.011438276618719101,0.00022663500567432493,-0.01660720631480217
1772639556925082600,0.90008251953125,-0.007538077421486378,0.0062307314947247505,-0.01871243491768837
1772639556935127800,0.9101279296875,-0.005642172880470753,0.008392419666051865,-0.020556673407554626
1772639556945172700,0.9201728515625,-0.006640325766056776,0.00509808911010623,-0.018395785242319107
1772639556955218000,0.930218017578125,-0.00893703568726778,-0.0030474551022052765,-0.01798485964536667
1772639556965262600,0.9402626953125,-0.015586149878799915,-0.011215902864933014,-0.020235231146216393
1772639556975307800,0.950307861328125,-0.020649084821343422,-0.01588176190853119,-0.022237129509449005
1772639556985352700,0.960352783203125,-0.022107699885964394,-0.010526943020522594,-0.02220543660223484
1772639556995398000,0.97039794921875,-0.021039504557847977,-0.005543369799852371,-0.02635437622666359
1772639557005441800,0.98044189453125,-0.019104186445474625,-0.0018764632986858487,-0.028239892795681953
1772639557015486700,0.99048681640625,-0.015849003568291664,0.0006937534781172872,-0.02823003940284252
1772639557025531600,1.00053173828125,-0.013235644437372684,0.0010048106778413057,-0.03067641891539097
1772639557035576800,1.010576904296875,-0.012251073494553566,0.0036184368655085564,-0.03375130519270897
1772639557045621800,1.020621826171875,-0.007476824801415205,0.009210276417434216,-0.03387993574142456
1772639557055666700,1.030666748046875,-0.00640756543725729,0.011958925053477287,-0.0324263833463192
1772639557065711600,1.040711669921875,-0.009733054786920547,0.012895026244223118,-0.025905100628733635
1772639557075756800,1.0507568359375,-0.008176437579095364,0.011413242667913437,-0.01974520832300186
1772639557085801700,1.0608017578125,-0.007676295470446348,0.008581770583987236,-0.009692308492958546
1772639557095846700,1.0708466796875,-0.004098072182387114,0.004179831128567457,-0.0005270395777188241
1772639557105891600,1.0808916015625,0.003689276985824108,-0.0029792783316224813,0.004553738981485367
1772639557115937000,1.09093701171875,0.004893292207270861,-0.005629123654216528,0.0062696137465536594
1772639557125981200,1.100981201171875,0.0067990501411259174,-0.005946306046098471,0.0025188177824020386
1772639557136025900,1.11102587890625,0.004628307651728392,-0.0029696908313781023,-0.004142014309763908
1772639557146071000,1.121071044921875,0.0041558630764484406,-0.0023763386998325586,-0.010433199815452099
1772639557156116000,1.131115966796875,0.0018138790037482977,-0.0006420881254598498,-0.013701431453227997
1772639557166161200,1.1411611328125,0.0026961842086166143,-0.00004820321555598639,-0.013125921599566936
1772639557176205800,1.151205810546875,0.0034112429711967707,-0.0015161376213654876,-0.011069162748754025
1772639557186251000,1.1612509765625,0.005318066570907831,-0.007507717236876488,-0.010499246418476105
1772639557196296000,1.1712958984375,0.001898034941405058,-0.011486746370792389,-0.014918495900928974
1772639557206341000,1.181341064453125,0.0008785768295638263,-0.009034774266183376,-0.016713732853531837
1772639557216386000,1.191385986328125,0.002719087526202202,-0.0022471752017736435,-0.015929697081446648
1772639557226431000,1.201430908203125,0.004006725735962391,0.0006924218614585698,-0.013226322829723358
1772639557236476000,1.211475830078125,0.003040530951693654,-0.0007504787645302713,-0.010607902891933918
1772639557246520000,1.22152001953125,0.0038011297583580017,-0.00634844321757555,-0.005169994663447142
1772639557256565000,1.23156494140625,0.007475759368389845,-0.012345615774393082,-0.002569417702034116
1772639557266610000,1.24160986328125,0.007273092865943909,-0.017915084958076477,-0.0030799456872045994
1772639557276654800,1.25165478515625,0.004845355171710253,-0.023553796112537384,-0.007384679280221462
1772639557286700000,1.261699951171875,0.006954578682780266,-0.036787841469049454,-0.011855593882501125
1772639557296745000,1.271744873046875,0.006798251066356897,-0.04062945023179054,-0.02148052491247654
1772639557306790000,1.281789794921875,-0.003439472522586584,-0.06000341475009918,-0.04499303922057152
1772639557316834800,1.291834716796875,-0.0073386067524552345,-0.059656139463186264,-0.0650746077299118
1772639557326880000,1.3018798828125,0.0010021475609391928,-0.05247492715716362,-0.073166623711586
1772639557336925000,1.311925048828125,0.0070491209626197815,-0.03304929658770561,-0.07114661484956741
1772639557346970000,1.32197021484375,0.0031132353469729424,-0.01890205219388008,-0.064480721950531
1772639557357014800,1.332014892578125,-0.006897054612636566,-0.012284629046916962,-0.04560050740838051
1772639557367059000,1.342058837890625,-0.014348579570651054,-0.00615136930719018,-0.022960443049669266
1772639557377104100,1.352104248046875,-0.012957077473402023,-0.007410778198391199,-0.0004093278548680246
1772639557387149000,1.362149169921875,-0.010008691810071468,-0.012712599709630013,0.012711800634860992
1772639557397194000,1.372194091796875,-0.006457632873207331,-0.011990349739789963,0.021393438801169395
1772639557407239000,1.382239013671875,-0.0031015174463391304,-0.008929046802222729,0.019273029640316963
1772639557417284000,1.3922841796875,0.002004827605560422,-0.0023214775137603283,0.010627610608935356
1772639557427329000,1.4023291015625,0.003862382611259818,0.004435760900378227,-0.0021899172570556402
1772639557437374000,1.4123740234375,-0.003908189013600349,0.004053863696753979,-0.014968030154705048
1772639557447419000,1.4224189453125,-0.015074556693434715,-0.0012591425329446793,-0.028782378882169724
1772639557457464000,1.432464111328125,-0.02857864834368229,-0.0011012171162292361,-0.04187314957380295
1772639557467509000,1.442509033203125,-0.03014165721833706,-0.0005318332696333528,-0.04972095042467117
1772639557477554200,1.45255419921875,-0.03021010011434555,0.0003067961661145091,-0.049018409103155136
1772639557487597800,1.462597900390625,-0.022761505097150803,0.006400907412171364,-0.042456381022930145
1772639557497643000,1.47264306640625,-0.013611416332423687,-0.0026519757229834795,-0.03389298543334007
1772639557507688000,1.48268798828125,-0.007755657657980919,-0.007758320774883032,-0.02046559378504753
1772639557517733000,1.492733154296875,-0.0018663433147594333,-0.007867510430514812,-0.008199873380362988
1772639557527777800,1.50277783203125,-0.0023787354584783316,-0.0005803027888759971,0.0008309062686748803
1772639557537823000,1.512822998046875,-0.005175320897251368,0.009211608208715916,0.0032921996898949146
1772639557547868000,1.522867919921875,-0.006646184716373682,0.011953066103160381,0.0000021305288555595325
1772639557557913000,1.5329130859375,-0.00884728692471981,0.011259579099714756,-0.0013720606220886111
1772639557567957800,1.542957763671875,-0.012790363281965256,0.012841496616601944,-0.0029198897536844015
1772639557578003000,1.5530029296875,-0.014855644665658474,0.009515740908682346,-0.004080228973180056
1772639557588048000,1.5630478515625,-0.012507270090281963,0.0007462177309207618,-0.002266616327688098
1772639557598093000,1.573093017578125,-0.006302637048065662,-0.007416104432195425,-0.0036850159522145987
1772639557608138000,1.583137939453125,-0.0017568873008713126,-0.013256949372589588,-0.0030245520174503326
1772639557618182000,1.593181884765625,0.0009076052810996771,-0.012769058346748352,-0.005884520709514618
1772639557628227000,1.60322705078125,0.000005060006060375599,-0.012467055581510067,-0.008191350847482681
1772639557638272000,1.61327197265625,-0.004428304266184568,-0.011800733394920826,-0.011196994222700596
1772639557648317200,1.623317138671875,-0.005400890484452248,-0.0006026733317412436,-0.010596717707812786
1772639557658361900,1.63336181640625,-0.0023086944129318,0.007769772317260504,-0.0036341496743261814
1772639557668407000,1.643406982421875,-0.0017936390358954668,0.003733219113200903,0.005875732284039259
1772639557678452000,1.653451904296875,-0.001017593895085156,-0.003907123580574989,0.018246116116642952
1772639557688497200,1.6634970703125,0.004337756894528866,-0.009222527034580708,0.023623304441571236
1772639557698541800,1.673541748046875,0.000580036488827318,-0.009473396465182304,0.027780499309301376
1772639557708587000,1.6835869140625,0.0013230583863332868,-0.0001030643325066194,0.025773273780941963
1772639557718632000,1.6936318359375,-0.0005635248962789774,0.006780407857149839,0.023137809708714485
1772639557728677000,1.703677001953125,0.0006894923863001168,0.007468302734196186,0.0252198688685894
1772639557738720800,1.713720703125,-0.0005632585380226374,0.004019242711365223,0.025647573173046112
1772639557748766000,1.723765869140625,-0.0019984361715614796,0.00038722361205145717,0.02496393956243992
1772639557758811000,1.733810791015625,-0.004303934518247843,-0.002320145955309272,0.02413409762084484
1772639557768856000,1.74385595703125,-0.004318848252296448,-0.00563977612182498,0.01907622255384922
1772639557778901000,1.75390087890625,-0.004712729714810848,-0.002775546396151185,0.011771705001592636
1772639557788946000,1.76394580078125,-0.0019678096286952496,0.0016295883106067777,0.0022330605424940586
1772639557798990800,1.773990966796875,-0.002261023735627532,0.0049127331003546715,-0.006376406643539667
1772639557809036000,1.7840361328125,-0.00005672533006872982,0.0016591493040323257,-0.01028779149055481
1772639557819081000,1.7940810546875,0.0017235978739336133,-0.0064834654331207275,-0.012605007737874985
1772639557829126000,1.8041259765625,0.00033635724685154855,-0.015732090920209885,-0.01070990227162838
1772639557839170800,1.8141708984375,0.005091697443276644,-0.020185163244605064,-0.014738199301064014
1772639557849216000,1.824216064453125,0.0023904533591121435,-0.01763571798801422,-0.0158253014087677
1772639557859260200,1.83426025390625,0.0006351639167405665,-0.010102435015141964,-0.019411249086260796
1772639557869304800,1.844304931640625,-0.0007619303651154041,-0.002519616624340415,-0.01866289973258972
1772639557879350000,1.85435009765625,-0.001169394003227353,0.00498091010376811,-0.01587590202689171
1772639557889395000,1.86439501953125,0.0014389059506356716,0.0011310444679111242,-0.008676312863826752
1772639557899440000,1.874440185546875,0.005284776911139488,-0.0019254654180258512,0.002020007697865367
1772639557909485000,1.884485107421875,0.011781558394432068,0.0008261125767603517,0.013351491652429104
1772639557919530000,1.894530029296875,0.011721104383468628,0.002229332225397229,0.02256336621940136
1772639557929575000,1.904574951171875,0.009517605416476727,0.0016847157385200262,0.02153458632528782
1772639557939620000,1.9146201171875,0.0017531589837744832,-0.004296744242310524,0.01901869848370552
1772639557949665000,1.9246650390625,-0.004346811678260565,-0.011931227520108223,0.007874967530369759
1772639557959710000,1.9347099609375,-0.007255249656736851,-0.014652978628873825,-0.006481867749243975
1772639557969755000,1.9447548828125,-0.009195628575980663,-0.012828180566430092,-0.021095165982842445
1772639557979800000,1.954800048828125,-0.005883455276489258,-0.007303985767066479,-0.029169071465730667
1772639557989844000,1.964843994140625,-0.0023550332989543676,-0.006137787364423275,-0.03313398361206055
1772639557999889000,1.974888916015625,-0.0003251719754189253,-0.006926083005964756,-0.03303331881761551
1772639558009933800,1.984933837890625,0.004369981121271849,-0.003973170183598995,-0.02845427766442299
1772639558019979000,1.99497900390625,0.007742607966065407,0.0007374293054454029,-0.021521536633372307
1772639558030024000,2.00502392578125,0.011212707497179508,-0.0004932174342684448,-0.017789382487535477
1772639558040069000,2.015069091796875,0.010838532820343971,-0.0006362291751429439,-0.013568006455898285
1772639558050113800,2.02511376953125,0.011872904375195503,0.003067961661145091,-0.012106730602681637
1772639558060159000,2.035158935546875,0.009191900491714478,0.0044264402240514755,-0.01209927350282669
1772639558070204000,2.045203857421875,0.008933041244745255,0.0015001586871221662,-0.011294466443359852
1772639558080249000,2.0552490234375,0.007148723118007183,-0.0012186624808236957,-0.007755391299724579
1772639558090293800,2.065293701171875,0.008582036942243576,-0.001642637769691646,-0.0065103634260594845
1772639558100339000,2.0753388671875,0.010998322628438473,0.0006697850185446441,-0.004746285732835531
1772639558110383000,2.085383056640625,0.01392779964953661,-0.0005989448982290924,-0.00038216362008824944
1772639558120428000,2.095427978515625,0.011579157784581184,-0.0025542378425598145,-0.0008295746520161629
1772639558130473200,2.10547314453125,0.00817963294684887,-0.005277319811284542,-0.0031649006996303797
1772639558140518100,2.11551806640625,0.008172442205250263,-0.0059684100560843945,-0.006954578682780266
1772639558150563000,2.12556298828125,0.004462392535060644,-0.00133877107873559,-0.012003932148218155
1772639558160608000,2.13560791015625,0.002695651724934578,0.0027023095171898603,-0.017415741458535194
1772639558170653200,2.145653076171875,0.003326288191601634,0.0008703210623934865,-0.018330005928874016
1772639558180698000,2.155697998046875,0.003996073268353939,-0.0030067088082432747,-0.018449846655130386
1772639558190743300,2.165743408203125,0.006729808170348406,-0.003632019041106105,-0.016443155705928802
1772639558200788000,2.1757880859375,0.00805979035794735,-0.006304234731942415,-0.012950419448316097
1772639558210833200,2.185833251953125,0.009098690003156662,-0.005561479367315769,-0.011298194527626038
1772639558220878000,2.195878173828125,0.010436927899718285,-0.004086620640009642,-0.009012935683131218
1772639558230922200,2.205922119140625,0.00839588139206171,-0.002683667466044426,-0.0075881448574364185
1772639558240967000,2.215966796875,0.007653925102204084,0.0008247809601016343,-0.010512827895581722
1772639558251012000,2.22601220703125,0.005676261615008116,-0.0026431872975081205,-0.00857138354331255
1772639558261057000,2.23605712890625,0.006055229343473911,0.0033683660440146923,-0.00785339530557394
1772639558271102200,2.246102294921875,0.0065535069443285465,0.010510697960853577,-0.003912449814379215
1772639558281147000,2.25614697265625,0.006776147056370974,0.007257912773638964,0.0027686222456395626
1772639558291192000,2.266192138671875,0.006130330264568329,0.0002798982313834131,0.010128800757229328
1772639558301237000,2.276237060546875,0.003245328087359667,-0.006057892460376024,0.013479589484632015
1772639558311282200,2.2862822265625,0.001731320982798934,-0.008836634457111359,0.012352007441222668
1772639558321327000,2.2963271484375,0.0008769789128564298,-0.007321828510612249,0.00794154591858387
1772639558331372000,2.3063720703125,-0.0018988338997587562,-0.0034437335561960936,0.003567304229363799
1772639558341417000,2.3164169921875,-0.006352438125759363,0.005364671815186739,-0.0014588796766474843
1772639558351461000,2.326461181640625,-0.008489358238875866,0.008626777678728104,-0.004369981121271849
1772639558361506300,2.33650634765625,-0.009351423941552639,0.009583917446434498,-0.004365986213088036
1772639558371551000,2.346551025390625,-0.010665427893400192,0.007847269997000694,-0.003638677066192031
1772639558381596200,2.35659619140625,-0.009848102927207947,0.004254133440554142,-0.0014484933344647288
1772639558391641000,2.36664111328125,-0.005774798337370157,0.004220843780785799,0.0036615801509469748
1772639558401686300,2.376686279296875,-0.0014231932582333684,0.0065801385790109634,0.006703442893922329
1772639558411731000,2.38673095703125,-0.0006106628570705652,0.004516721237450838,0.008138620294630527
1772639558421776100,2.396776123046875,-0.003477822057902813,0.0016559535870328546,0.010466222651302814
1772639558431821000,2.406821044921875,-0.007425159215927124,-0.006299441214650869,0.0034882084000855684
1772639558441866200,2.4168662109375,-0.01088620349764824,-0.013136308640241623,-0.004337490536272526
1772639558451911200,2.4269111328125,-0.011855860240757465,-0.013769607990980148,-0.011681423522531986
1772639558461956000,2.4369560546875,-0.009513077326118946,-0.008816927671432495,-0.019044797867536545
1772639558472001000,2.4470009765625,-0.004203266929835081,-0.0036506610922515392,-0.024160729721188545
1772639558482045200,2.457045166015625,-0.0018367822049185634,0.005568936001509428,-0.021891983225941658
1772639558492090000,2.467090087890625,0.006675479467958212,0.007769505959004164,-0.0138431116938591
1772639558502135000,2.477135009765625,0.010669422335922718,0.0034906051587313414,-0.004612861201167107
1772639558512180000,2.487179931640625,0.012967197224497795,-0.0006133259739726782,0.002429601736366749
1772639558522225200,2.49722509765625,0.01275680772960186,-0.004801413044333458,0.00424188282340765
1772639558532270000,2.50727001953125,0.009316536597907543,-0.006085323169827461,-0.0003914846747647971
1772639558542315000,2.51731494140625,0.0028517129831016064,-0.0011720572365447879,-0.006508765742182732
1772639558552360000,2.52735986328125,-0.0034405377227813005,0.008077899925410748,-0.01404737588018179
1772639558562405000,2.537405029296875,-0.006079464219510555,0.009279784746468067,-0.01751720905303955
1772639558572450000,2.547449951171875,-0.004244812298566103,0.0067748152650892735,-0.018391789868474007
1772639558582495200,2.5574951171875,0.00043116576853208244,0.006641923915594816,-0.012954148463904858
1772639558592540000,2.567539794921875,0.0065314024686813354,0.003612311789765954,-0.004769188817590475
1772639558602584000,2.577583984375,0.013732057064771652,-0.002382996492087841,0.003210174385458231
1772639558612629200,2.587629150390625,0.016578709706664085,-0.006252569612115622,0.011035340838134289
1772639558622674200,2.597674072265625,0.015672968700528145,-0.0025150892324745655,0.016262060031294823
1772639558632719000,2.607718994140625,0.01236159447580576,0.0012580773327499628,0.017431188374757767
1772639558642764000,2.617763916015625,0.006865629460662603,0.0009262474486604333,0.008725580759346485
1772639558652809200,2.627809326171875,0.007730624172836542,0.00023808660625945777,0.0024165522772818804
1772639558662854100,2.637854248046875,0.009840380400419235,0.0016900419723242521,-0.002892192918807268
1772639558672899000,2.647899169921875,0.009829727932810783,0.0005406216951087117,-0.004898884799331427
1772639558682944000,2.657944091796875,0.01269875094294548,0.002007490722462535,-0.0010908307740464807
1772639558692989200,2.6679892578125,0.013539777137339115,0.0002109223569277674,0.003349723992869258
1772639558703034000,2.6780341796875,0.014120878651738167,-0.0033723609521985054,0.0076331524178385735
1772639558713079300,2.688079345703125,0.009064069017767906,-0.002484729280695319,0.009724000468850136
1772639558723124000,2.6981240234375,0.006412891671061516,-0.006342317909002304,0.008256864733994007
1772639558733168000,2.708168212890625,-0.00022743394947610795,-0.008506136015057564,0.0035212314687669277
1772639558743213000,2.718213134765625,-0.0023790018167346716,-0.006494917441159487,-0.0023185480386018753
1772639558753258200,2.72825830078125,-0.0019504991360008717,-0.0009882990270853043,-0.0051630702801048756
1772639558763303200,2.73830322265625,-0.0007896272582001984,0.004585164599120617,-0.006072273477911949
1772639558773348000,2.74834814453125,-0.00004340952364145778,0.008493087254464626,-0.0021654162555933
1772639558783393000,2.75839306640625,0.0009867012267932296,0.003540672594681382,0.0013217268278822303
1772639558793438200,2.768438232421875,0.0036629117093980312,-0.0036479979753494263,0.0035081820096820593
1772639558803483100,2.778483154296875,0.0023470439482480288,-0.009459281340241432,0.005503954831510782
1772639558813528000,2.788528076171875,-0.000032490566809428856,-0.015908392146229744,0.003940413240343332
1772639558823573000,2.798572998046875,-0.0025569009594619274,-0.010565558448433876,0.005185707006603479
1772639558833618200,2.8086181640625,-0.0018548916559666395,-0.0008982842555269599,0.004080495331436396
1772639558843663000,2.8186630859375,-0.0012010856298729777,0.0027302727103233337,0.00261788722127676
1772639558853708000,2.8287080078125,-0.001651159836910665,0.001344896387308836,0.001160339335910976
1772639558863752200,2.838752197265625,0.00018269284919369966,-0.004231763072311878,0.000017843178284238093
1772639558873797000,2.848797119140625,-0.001008805469609797,-0.007228618022054434,-0.0038418760523200035
1772639558883842000,2.858842041015625,0.002922286745160818,-0.005697567015886307,-0.00824088603258133
1772639558893887000,2.868886962890625,0.0054911719635128975,0.0025742114521563053,-0.010264622047543526
1772639558903932200,2.87893212890625,0.003288205014541745,0.007102117873728275,-0.009611614979803562
1772639558913977000,2.88897705078125,-0.0016993631143122911,0.0005523395957425237,-0.01010909304022789
1772639558924022300,2.899022216796875,-0.007424892857670784,-0.008549545891582966,-0.010528541170060635
1772639558934067000,2.90906689453125,-0.008715194649994373,-0.013451360166072845,-0.011695272289216518
1772639558944112000,2.919112060546875,-0.0034823494497686625,-0.007800398860126734,-0.010629741474986076
1772639558954157000,2.929156982421875,-0.00008415588672505692,-0.00720651401206851,-0.00866193138062954
1772639558964202200,2.9392021484375,0.004670385736972094,-0.0046240463852882385,-0.004313788376748562
1772639558974247200,2.9492470703125,0.0094507597386837,-0.00749067310243845,-0.002028796123340726
1772639558984291000,2.959291015625,0.010624947026371956,-0.003695935010910034,-0.0005984122981317341
1772639558994336300,2.969336181640625,0.010930944234132767,0.0029459886718541384,0.0012892362428829074
1772639559004381200,2.979381103515625,0.011818576604127884,0.007779359817504883,0.0017891116440296173
1772639559014426000,2.989426025390625,0.011149856261909008,0.007639011368155479,0.0033390712924301624
1772639559024471000,2.999470947265625,0.011351191438734531,0.006593454163521528,0.007463508751243353
1772639559034516200,3.00951611328125,0.010912036523222923,0.002207494108006358,0.008793758228421211
1772639559044561200,3.01956103515625,0.010430004447698593,-0.0013052152935415506,0.007564176339656115
1772639559054606000,3.029606201171875,0.010643589310348034,-0.0026133600622415543,0.004689826630055904
1772639559064651000,3.039651123046875,0.009535448625683784,-0.004591023549437523,0.001395230065099895
1772639559074696000,3.049696044921875,0.009660882875323296,-0.005497563164681196,-0.0038780951872467995
1772639559084741000,3.0597412109375,0.008836101740598679,-0.006804642733186483,-0.008321313187479973
1772639559094786000,3.0697861328125,0.011342668905854225,-0.007661914452910423,-0.01088780164718628
1772639559104831200,3.079831298828125,0.013454821892082691,-0.005723133217543364,-0.010104832239449024
1772639559114875400,3.08987548828125,0.014890000224113464,-0.004196343012154102,-0.007541539613157511
1772639559124920000,3.099920166015625,0.01769031397998333,-0.0020961740519851446,-0.005341236013919115
1772639559134965200,3.10996533203125,0.017010143026709557,0.00018429075134918094,-0.004602208733558655
1772639559145010200,3.12001025390625,0.018158230930566788,0.0001001348573481664,-0.004734301473945379
1772639559155055400,3.130055419921875,0.017166735604405403,-0.0034179009962826967,-0.006843258626759052
1772639559165100300,3.140100341796875,0.015340073965489864,-0.00577746145427227,-0.006277070846408606
1772639559175145200,3.150145263671875,0.01281619630753994,-0.003879693103954196,-0.009634251706302166
1772639559185190100,3.160190185546875,0.01423619408160448,-0.004464789759367704,-0.012011389248073101
1772639559195235300,3.1702353515625,0.014562430791556835,-0.0014178669080138206,-0.014052702113986015
1772639559205280300,3.1802802734375,0.01266945619136095,0.0006261091912165284,-0.014878548681735992
1772639559215325200,3.1903251953125,0.013526727445423603,0.0006207828409969807,-0.012898487970232964
1772639559225370000,3.2003701171875,0.012884372845292091,-0.0008705873624421656,-0.011549330316483974
1772639559235414300,3.210414306640625,0.011328021995723248,-0.0037031255196779966,-0.010232130996882915
1772639559245459200,3.220459228515625,0.012284096330404282,-0.004907939583063126,-0.0065385932102799416
1772639559255504100,3.230504150390625,0.01004783995449543,-0.0046179210767149925,-0.004679972771555185
1772639559265549000,3.240549072265625,0.009530654177069664,-0.0001531317684566602,-0.0037025928031653166
1772639559275594200,3.25059423828125,0.009633186273276806,-0.00013981595111545175,-0.002888730727136135
1772639559285639200,3.26063916015625,0.011062238365411758,0.00018136126163881272,-0.0018346516881138086
1772639559295684400,3.270684326171875,0.01121989730745554,-0.0003787015157286078,0.0015459649730473757
1772639559305729000,3.28072900390625,0.01443779468536377,-0.0017339842161163688,0.0005113269435241818
1772639559315774200,3.290774169921875,0.015844210982322693,0.002329467097297311,0.0017504957504570484
1772639559325819100,3.300819091796875,0.014963236637413502,0.0062941149808466434,0.0027422569692134857
1772639559335864300,3.3108642578125,0.011326956562697887,0.002034388715401292,0.0014751249691471457
1772639559345909000,3.320908935546875,0.010483001358807087,-0.002763562137261033,-0.0015190670965239406
1772639559355954200,3.3309541015625,0.008519452065229416,-0.0073287528939545155,-0.00569996377453208
1772639559365999000,3.3409990234375,0.011052651330828667,-0.0017417073249816895,-0.009855027310550213
1772639559376043300,3.351043212890625,0.015472699888050556,0.008565524592995644,-0.01161511056125164
1772639559386088200,3.361088134765625,0.016650348901748657,0.01655261218547821,-0.009354885667562485
1772639559396133000,3.371133056640625,0.013745373114943504,0.015321964398026466,-0.005364938173443079
1772639559406178300,3.38117822265625,0.010781275108456612,0.005687446799129248,-0.002683401107788086
1772639559416223200,3.39122314453125,0.009014001116156578,-0.004414722323417664,0.001371527905575931
1772639559426268400,3.401268310546875,0.012679043225944042,-0.0033153691329061985,0.005635515321046114
1772639559436313000,3.41131298828125,0.014391722157597542,0.000529436394572258,0.006665625609457493
1772639559446358300,3.421358154296875,0.016948623582720757,0.005429386626929045,0.01248383428901434
1772639559456403200,3.4314033203125,0.020593957975506783,0.01133654359728098,0.012192750349640846
1772639559466448400,3.441448486328125,0.01973402313888073,0.01594647578895092,0.00965608935803175
1772639559476493000,3.4514931640625,0.02070314809679985,0.020428042858839035,0.005762814078480005
1772639559486538200,3.461538330078125,0.020295418798923492,0.017137708142399788,0.00007323692989302799
1772639559496583200,3.471583251953125,0.02261769399046898,0.01284708920866251,-0.00018322547839488834
1772639559506627300,3.48162744140625,0.021694110706448555,0.008626511320471764,-0.00358807691372931
1772639559516672300,3.49167236328125,0.020594490692019463,0.005271460860967636,-0.0073471288196742535
1772639559526717200,3.50171728515625,0.01853426918387413,0.0026325348298996687,-0.010928015224635601
1772639559536762000,3.51176220703125,0.014809838496148586,0.0033425334841012955,-0.014663631096482277
1772639559546807300,3.521807373046875,0.013719274662435055,0.003495398908853531,-0.016834907233715057
1772639559556852200,3.531852294921875,0.014213290996849537,0.0063124909065663815,-0.019876236096024513
1772639559566897200,3.541897216796875,0.017538780346512794,0.007340204436331987,-0.018400046974420547
1772639559576942000,3.551942138671875,0.021990252658724785,-0.00006578007742064074,-0.015186143107712269
1772639559586987300,3.5619873046875,0.022646456956863403,-0.002835201332345605,-0.012296080589294434
1772639559597032200,3.5720322265625,0.022699719294905663,-0.001487109111621976,-0.009847304783761501
1772639559607077000,3.5820771484375,0.02028796076774597,0.005381982307881117,-0.007483748719096184
1772639559617122000,3.5921220703125,0.01859871856868267,0.00893863383680582,-0.007948203943669796
1772639559627166200,3.602166259765625,0.015480688773095608,0.007639543619006872,-0.011563711799681187
1772639559637211400,3.61221142578125,0.01643143780529499,0.004532167688012123,-0.010366886854171753
1772639559647256000,3.622256103515625,0.01575659215450287,0.0013014868600293994,-0.012383433058857918
1772639559657301200,3.63230126953125,0.017002951353788376,-0.002055161399766803,-0.0173808541148901
1772639559667346200,3.64234619140625,0.014919827692210674,-0.0013462279457598925,-0.021314876154065132
1772639559677391400,3.652391357421875,0.017313743010163307,0.003174487967044115,-0.020081566646695137
1772639559687436300,3.662436279296875,0.015442606061697006,0.003406981937587261,-0.021154554560780525
1772639559697481200,3.672481201171875,0.011740013025701046,0.002025333931669593,-0.01901896484196186
1772639559707526100,3.682526123046875,0.008606537245213985,0.0014144048327580094,-0.012909939512610435
1772639559717571300,3.6925712890625,0.010578075423836708,-0.004031493328511715,-0.008766060695052147
1772639559727616300,3.7026162109375,0.010179933160543442,-0.007198790553957224,-0.00603365758433938
1772639559737661200,3.7126611328125,0.014956844970583916,-0.007044327445328236,-0.005254683084785938
1772639559747706000,3.7227060546875,0.01435443852096796,-0.003597131697461009,-0.00472444761544466
1772639559757750300,3.732750244140625,0.009585781954228878,0.002772883279249072,-0.0019864519126713276
1772639559767795200,3.742795166015625,0.004405933897942305,0.005879460833966732,0.0009619337506592274
1772639559777840000,3.752840087890625,0.0025009745731949806,0.0008695221040397882,0.00358807691372931
1772639559787885300,3.76288525390625,-0.0003534014686010778,-0.0020445086993277073,0.0021489046048372984
1772639559797930200,3.77293017578125,0.0000697748182574287,-0.004304999951273203,0.0012599414912983775
1772639559807975200,3.78297509765625,-0.004543352872133255,0.0006588660762645304,-0.002800047630444169
1772639559818020400,3.793020263671875,-0.007645402569323778,0.001169127761386335,-0.010936270467936993
1772639559828065300,3.803065185546875,-0.011503257788717747,-0.001980859087780118,-0.018381137400865555
1772639559838110200,3.813110107421875,-0.010897388681769371,-0.0020271982066333294,-0.0225556418299675
1772639559848155100,3.823155029296875,-0.010494719259440899,0.003746002446860075,-0.023151125758886337
1772639559858200300,3.833200439453125,-0.008320247754454613,0.004742823541164398,-0.0192506592720747
1772639559868245200,3.843245361328125,-0.004318848252296448,0.00649731419980526,-0.01531557273119688
1772639559878290200,3.853290283203125,-0.007364705670624971,-0.001885784324258566,-0.011431085877120495
1772639559888334300,3.863334228515625,-0.012802081182599068,-0.008504538796842098,-0.016565393656492233
1772639559898379300,3.873379150390625,-0.016513995826244354,-0.007797735743224621,-0.020616861060261726
1772639559908424200,3.883424072265625,-0.015240471810102463,-0.004199538845568895,-0.027000991627573967
1772639559918469000,3.89346923828125,-0.014660702086985111,-0.0015076154377311468,-0.028846029192209244
1772639559928514300,3.903514404296875,-0.010811635293066502,-0.00007616640505148098,-0.021616078913211823
1772639559938559200,3.913559326171875,-0.007011836860328913,0.0029196233954280615,-0.014911571517586708
1772639559948604400,3.9236044921875,-0.006155097857117653,0.005322327371686697,-0.0026554379146546125
1772639559958649000,3.933649169921875,-0.0016234630020335317,0.003879426745697856,0.007507717236876488
1772639559968694300,3.9436943359375,0.0006428870838135481,0.00058323226403445,0.011547733098268509
1772639559978739200,3.9537392578125,0.002490321872755885,0.0019742012955248356,0.010430536232888699
1772639559988784400,3.963784423828125,0.0019054916920140386,0.0033534523099660873,0.007216900121420622
1772639559998829000,3.9738291015625,0.0016889767721295357,0.0028993834275752306,-0.0019371833186596632
1772639560008874200,3.983874267578125,-0.004865595139563084,-0.0002777676854748279,-0.008402805775403976
1772639560018918400,3.99391845703125,-0.007102117873728275,-0.001207743538543582,-0.011024687439203262
1772639560028963300,4.00396337890625,-0.005608084611594677,-0.007273092865943909,-0.013277988880872726
1772639560039008300,4.01400830078125,-0.0034072482958436012,-0.00714792450889945,-0.013940582983195782
1772639560049053200,4.02405322265625,-0.0012258529895916581,-0.003457848448306322,-0.015126488171517849
1772639560059098400,4.034098388671875,-0.0021840583067387342,-0.002861832967028022,-0.013597567565739155
1772639560069143300,4.044143310546875,-0.0002884203568100929,-0.004530036821961403,-0.013105149380862713
1772639560079188200,4.054188232421875,0.0027105652261525393,-0.004174771253019571,-0.013098224997520447
1772639560089233200,4.064233154296875,0.006970824208110571,-0.0028455876745283604,-0.012299276888370514
1772639560099278300,4.0742783203125,0.010993529111146927,-0.0003510046226438135,-0.014730210416018963
1772639560109323300,4.0843232421875,0.009693906642496586,-0.002700711600482464,-0.015527560375630856
1772639560119368200,4.0943681640625,0.010455037467181683,-0.0004013383586425334,-0.02208080142736435
1772639560129413400,4.104413330078125,0.0068089039996266365,0.005401689559221268,-0.023750336840748787
1772639560139458300,4.114458251953125,0.0059601543471217155,0.009637180715799332,-0.025730397552251816
1772639560149503200,4.124503173828125,0.00746244378387928,0.00824008695781231,-0.023000657558441162
1772639560159547400,4.13454736328125,0.010249974206089973,0.005054413340985775,-0.019761454313993454
1772639560169592300,4.14459228515625,0.01284362655133009,-0.00049108691746369,-0.013859889470040798
1772639560179637200,4.15463720703125,0.015205051749944687,-0.004314321093261242,-0.005376123357564211
1772639560189682200,4.16468212890625,0.01727006770670414,-0.004736964590847492,0.0006815029191784561
1772639560199727400,4.174727294921875,0.01792467199265957,-0.005407015793025494,0.0027233485598117113
1772639560209772300,4.184772216796875,0.018638398498296738,-0.005245894659310579,0.0024264061357825994
1772639560219817200,4.194817138671875,0.017665013670921326,-0.0059937103651463985,-0.0032466596458107233
1772639560229862100,4.204862060546875,0.01762400008738041,-0.001440237509086728,-0.011688614264130592
1772639560239907300,4.2149072265625,0.016692161560058594,0.0015728629659861326,-0.019278889521956444
1772639560249952300,4.2249521484375,0.016714265570044518,-0.0008996158139780164,-0.029764020815491676
1772639560259997400,4.23499755859375,0.014721687883138657,-0.0030985879711806774,-0.03308897837996483
1772639560270042000,4.2450419921875,0.01369530614465475,-0.006423544604331255,-0.035415247082710266
1772639560280087300,4.25508740234375,0.012178368866443634,-0.0028549085836857557,-0.03123674914240837
1772639560290131500,4.26513134765625,0.011056912131607533,-0.0020540961995720863,-0.025849174708127975
1772639560300176400,4.27517626953125,0.010357299819588661,-0.0029973878990858793,-0.023601200431585312
1772639560310221300,4.28522119140625,0.007543936371803284,-0.00253532943315804,-0.018814699724316597
1772639560320266200,4.295266357421875,0.00872345082461834,0.000972852751147002,-0.014158695936203003
1772639560330311400,4.3053115234375,0.015429023653268814,0.0027084348257631063,-0.008554339408874512
1772639560340356400,4.3153564453125,0.02100914530456066,0.0037494644057005644,-0.003611512714996934
1772639560350401300,4.3254013671875,0.022578811272978783,0.004884237423539162,-0.0005784385721199214
1772639560360446200,4.3354462890625,0.018914302811026573,0.00016218650853261352,-0.004072505980730057
1772639560370491400,4.345491455078125,0.0121879568323493,-0.008476841263473034,-0.013070528395473957
1772639560380536300,4.355536376953125,0.004833637271076441,-0.0159456767141819,-0.02383635751903057
1772639560390581200,4.365581298828125,-0.0014085458824411035,-0.019458919763565063,-0.03513588383793831
1772639560400626200,4.375626220703125,-0.0032653016969561577,-0.015389609150588512,-0.04380686953663826
1772639560410671400,4.38567138671875,0.0003685815026983619,-0.007268565706908703,-0.041599374264478683
1772639560420715300,4.39571533203125,0.0036645096261054277,-0.0032168321777135134,-0.033189643174409866
1772639560430760400,4.405760498046875,0.006671485025435686,-0.0020503676496446133,-0.0223870649933815
1772639560440805000,4.41580517578125,0.01133814174681902,-0.0018703379901126027,-0.008046741597354412
1772639560450850300,4.425850341796875,0.01697632111608982,-0.005811816547065973,0.0016026903176680207
1772639560460895200,4.435895263671875,0.016174176707863808,-0.0068089039996266365,0.00624165078625083
1772639560470940400,4.4459404296875,0.012348012998700142,-0.0001400822657160461,0.009409747086465359
1772639560480985000,4.455985107421875,0.010068346746265888,-0.0012069445801898837,0.00971467886120081
1772639560491030300,4.4660302734375,0.003138801548629999,-0.004367584362626076,0.00714792450889945
1772639560501075200,4.4760751953125,0.0005435511702671647,-0.011623899452388287,0.0057532270438969135
1772639560511120400,4.486120361328125,0.002398176584392786,-0.013830594718456268,0.0017840516520664096
1772639560521165300,4.496165283203125,0.00839481595903635,-0.010060623288154602,-0.0024461133871227503
1772639560531210200,4.506210205078125,0.011889948509633541,-0.006287456955760717,-0.006943127140402794
1772639560541255200,4.516255126953125,0.011958392336964607,-0.0028104339726269245,-0.011493670754134655
1772639560551300400,4.52630029296875,0.01350355800241232,-0.002614957746118307,-0.015206383541226387
1772639560561344500,4.536344482421875,0.011274226009845734,-0.0025249430909752846,-0.013878797180950642
1772639560571389200,4.54638916015625,0.010836136527359486,-0.00467651104554534,-0.011285677552223206
1772639560581434400,4.556434326171875,0.009817477315664291,-0.0067724185064435005,-0.00884808599948883
1772639560591479300,4.566479248046875,0.009435047395527363,-0.005829659756273031,-0.003950799349695444
1772639560601524500,4.5765244140625,0.005970008205622435,-0.007947138510644436,-0.0035808864049613476
1772639560611569200,4.586569091796875,0.0030597057193517685,-0.005831257440149784,-0.005774531979113817
1772639560621614300,4.5966142578125,0.0009917612187564373,-0.0010359697043895721,-0.005047223065048456
1772639560631659300,4.6066591796875,0.0008876316132955253,0.0038067223504185677,-0.005538576282560825
1772639560641704400,4.616704345703125,0.0030146983917802572,0.0026341325137764215,-0.006176136899739504
1772639560651749400,4.626749267578125,0.00407596817240119,-0.002168079372495413,-0.004042145796120167
1772639560661794300,4.636794189453125,0.004480768460780382,-0.005931925028562546,-0.00373082235455513
1772639560671839200,4.646839111328125,0.0006844323943369091,-0.007351922336965799,-0.0072928001172840595
1772639560681884400,4.656884521484375,-0.0025305356830358505,-0.0027614317368716,-0.01016714982688427
1772639560691928300,4.66692822265625,-0.006612895056605339,0.003373958868905902,-0.013715012930333614
1772639560701973200,4.67697314453125,-0.010999388061463833,0.007656321860849857,-0.015866581350564957
1772639560712018200,4.68701806640625,-0.009524528868496418,0.00720544857904315,-0.015006646513938904
1772639560722063400,4.6970634765625,-0.007157511543482542,0.00624085171148181,-0.015172295272350311
1772639560732108300,4.7071083984375,-0.00213638786226511,0.0044288369826972485,-0.013365074060857296
1772639560742153200,4.7171533203125,-0.0012863067677244544,0.0017555557424202561,-0.013071061111986637
1772639560752198100,4.7271982421875,-0.0031939290929585695,0.0027113643009215593,-0.013051886111497879
1772639560762243300,4.737243408203125,-0.0016825852217152715,0.0036464000586420298,-0.013829529285430908
1772639560772288300,4.747288330078125,-0.0029526466969400644,0.006423011887818575,-0.015314241871237755
1772639560782333400,4.75733349609375,-0.0064773401245474815,0.005589175969362259,-0.017252756282687187
1772639560792378000,4.767378173828125,-0.007954329252243042,0.004188885912299156,-0.017056215554475784
1772639560802423300,4.77742333984375,-0.004031759686768055,0.006295979022979736,-0.012622850947082043
1772639560812468200,4.78746826171875,0.002855441300198436,0.010581271722912788,-0.005481051746755838
1772639560822513400,4.797513427734375,0.009881126694381237,0.011797803454101086,0.000731836655177176
1772639560832557300,4.807557373046875,0.014063088223338127,0.00812210887670517,0.00279125920496881
1772639560842602200,4.817602294921875,0.01107741892337799,0.001580053474754095,-0.0004814995336346328
1772639560852647400,4.8276474609375,0.003931358456611633,-0.0019172097090631723,-0.007254716940224171
1772639560862692400,4.8376923828125,-0.005691175349056721,-0.006659234408289194,-0.02100887894630432
1772639560872737300,4.8477373046875,-0.006316751707345247,-0.00708640506491065,-0.029470274224877357
1772639560882782200,4.8577822265625,-0.0054855793714523315,-0.0049257827922701836,-0.035416048020124435
1772639560892827400,4.867827392578125,-0.002701244316995144,0.0003888215287588537,-0.03104553371667862
1772639560902872300,4.877872314453125,0.001284975209273398,0.00452923821285367,-0.023309849202632904
1772639560912917200,4.887917236328125,0.007594802882522345,0.006062420085072517,-0.011417770758271217
1772639560922962200,4.897962158203125,0.012693424709141254,0.0033446638844907284,0.0044136568903923035
1772639560933007400,4.90800732421875,0.015201057307422161,-0.0000774979853304103,0.014741395600140095
1772639560943052300,4.91805224609375,0.013629259541630745,-0.004539091605693102,0.01738112047314644
1772639560953097200,4.92809716796875,0.008737831376492977,-0.004148405976593494,0.013264140114188194
1772639560963142400,4.938142333984375,0.0012359730899333954,-0.0028935244772583246,0.004418184049427509
1772639560973186300,4.948186279296875,-0.005015264730900526,-0.0008442220860160887,-0.0054610781371593475
1772639560983231200,4.958231201171875,-0.00896686315536499,0.003653324441984296,-0.014568556100130081
1772639560993276400,4.9682763671875,-0.009512544609606266,0.001904160133562982,-0.015534751117229462
1772639561003321000,4.978321044921875,-0.0059718722477555275,-0.0005033374181948602,-0.012479838915169239
1772639561013366300,4.9883662109375,-0.001695900922641158,-0.004836300387978554,-0.0044320328161120415
1772639561023411200,4.9984111328125,0.001139300293289125,-0.010676346719264984,0.003963049966841936
1772639561033456400,5.008456298828125,0.004513791762292385,-0.014762966893613338,0.008299209177494049
1772639561043501300,5.018501220703125,0.001020257011987269,-0.016768326982855797,0.007399060297757387
1772639561053546200,5.028546142578125,-0.001579787116497755,-0.011707788333296776,0.005321528296917677
1772639561063591200,5.038591064453125,-0.0013968279818072915,-0.008812665939331055,-0.003403253620490432
1772639561073636400,5.04863623046875,-0.005688245873898268,-0.007440605666488409,-0.012783439829945564
1772639561083681300,5.058681396484375,-0.005671733990311623,-0.010734669864177704,-0.018671687692403793
1772639561093726200,5.068726318359375,-0.007928763516247272,-0.009453422389924526,-0.021269602701067924
1772639561103771100,5.078771240234375,-0.007102384231984615,-0.007795604877173901,-0.025247033685445786
1772639561113815300,5.088815185546875,-0.01167449913918972,-0.006098106037825346,-0.02593652531504631
1772639561123860500,5.098860595703125,-0.011697934940457344,-0.012177570722997189,-0.02262435294687748
1772639561133905400,5.108905517578125,-0.01583382487297058,-0.011423896066844463,-0.02321956865489483
1772639561143950300,5.118950439453125,-0.016992565244436264,-0.010867561213672161,-0.015061241574585438
1772639561153995500,5.12899560546875,-0.01600906066596508,-0.006186523009091616,-0.007815845310688019
1772639561164040400,5.13904052734375,-0.012957343831658363,-0.00009800432599149644,0.0027318706270307302
1772639561174085400,5.14908544921875,-0.015269766561686993,-0.00045912896166555583,0.012083028443157673
1772639561184130300,5.15913037109375,-0.01359543763101101,0.0016335829859599471,0.01798752322793007
1772639561194175500,5.169175537109375,-0.014220480807125568,0.0015843145083636045,0.018157165497541428
1772639561204220400,5.179220458984375,-0.01387107465416193,-0.007299724500626326,0.012355469167232513
1772639561214265300,5.189265380859375,-0.01561171654611826,-0.013729128055274487,0.0026098978705704212
1772639561224310300,5.199310302734375,-0.015108644962310791,-0.01733265072107315,-0.008124771527945995
1772639561234355500,5.20935546875,-0.018687134608626366,-0.01769404299557209,-0.02358628623187542
1772639561244399400,5.2193994140625,-0.019659722223877907,-0.012601811438798904,-0.030292658135294914
1772639561254444300,5.2294443359375,-0.021388113498687744,-0.006931409239768982,-0.033962760120630264
1772639561264489500,5.239489501953125,-0.023361515253782272,-0.00503870053216815,-0.028684908524155617
1772639561274534400,5.249534423828125,-0.0213625468313694,-0.009095760062336922,-0.017314275726675987
1772639561284579600,5.25957958984375,-0.016262592747807503,-0.011574097909033298,-0.005007541738450527
1772639561294624300,5.269624267578125,-0.007062170654535294,-0.01629561558365822,0.006759635638445616
1772639561304669400,5.27966943359375,0.0015643407823517919,-0.017527328804135323,0.012484898790717125
1772639561314714400,5.28971435546875,0.0040855552069842815,-0.01255094539374113,0.012748019769787788
1772639561324759600,5.299759521484375,-0.002520682057365775,-0.012029232457280159,0.006116748321801424
1772639561334804200,5.30980419921875,-0.011264905333518982,-0.014246580190956593,-0.002549177734181285
1772639561344849400,5.319849365234375,-0.01500904280692339,-0.019877301529049873,-0.007698133587837219
1772639561354894300,5.329894287109375,-0.015898805111646652,-0.022704513743519783,-0.010777014307677746
1772639561364939500,5.339939453125,-0.009033708833158016,-0.01841922104358673,-0.009208145551383495
1772639561374984400,5.349984375,-0.0025771409273147583,-0.016326775774359703,-0.006059756502509117
1772639561385028400,5.3600283203125,0.004071440547704697,-0.016880713403224945,-0.0014346449170261621
1772639561395073500,5.370073486328125,0.008114918135106564,-0.013856959529221058,0.0016383767360821366
1772639561405118500,5.380118408203125,0.007513309828937054,-0.011631089262664318,0.002871153876185417
1772639561415163400,5.390163330078125,0.007032609544694424,-0.008231564424932003,0.0027081684675067663
1772639561425208300,5.400208251953125,0.007249390706419945,-0.004447745159268379,0.0016650082543492317
1772639561435253500,5.41025341796875,0.0059686764143407345,-0.00014034859486855567,-0.002064482541754842
1772639561445298400,5.42029833984375,0.0014820491196587682,-0.0028663603588938713,-0.0018583538476377726
1772639561455343400,5.43034326171875,0.0022245384752750397,-0.006030994467437267,-0.0021052288357168436
1772639561465388300,5.44038818359375,-0.00006817692337790504,-0.010794324800372124,-0.0007880293414928019
1772639561475433500,5.45043359375,0.0031079088803380728,-0.017238641157746315,0.00022157499915920198
1772639561485478400,5.460478515625,0.007508516311645508,-0.01215812936425209,-0.0019478360190987587
1772639561495523300,5.4705234375,0.011238006874918938,-0.0085466168820858,-0.0034088462125509977
1772639561505568500,5.480568603515625,0.010493121109902859,-0.0036157737486064434,-0.008316519670188427
1772639561515613400,5.490613525390625,0.010625213384628296,-0.0021646174136549234,-0.007330616936087608
1772639561525657300,5.5006572265625,0.009844641201198101,-0.002552373567596078,-0.006292250473052263
1772639561535702500,5.51070263671875,0.008423046208918095,-0.007694671396166086,-0.004056793171912432
1772639561545747500,5.52074755859375,0.009105348028242588,-0.011049455031752586,0.0004040015337523073
1772639561555792400,5.53079248046875,0.010076602920889854,-0.015895608812570572,0.003358778776600957
1772639561565837300,5.54083740234375,0.008352206088602543,-0.01714702881872654,0.00043223105603829026
1772639561575882500,5.550882568359375,0.006869357544928789,-0.013321397826075554,-0.00683100800961256
1772639561585927400,5.560927490234375,0.006022206041961908,-0.006074936594814062,-0.016732107847929
1772639561595972400,5.570972412109375,0.0032466596458107233,-0.0008860336965881288,-0.02225603722035885
1772639561606017300,5.581017333984375,0.0015326491557061672,0.0016101471846923232,-0.027352795004844666
1772639561616062500,5.5910625,0.003078880487009883,-0.0011672634864225984,-0.024529311805963516
1772639561626107400,5.601107421875,0.0032290827948600054,-0.006579605862498283,-0.017957428470253944
1772639561636152600,5.611152587890625,0.003442934714257717,-0.015323562547564507,-0.008915997110307217
1772639561646197200,5.621197265625,0.0022269352339208126,-0.017361413687467575,-0.002796052722260356
1772639561656242400,5.631242431640625,-0.0007219829712994397,-0.01483593787997961,0.001740375766530633
1772639561666286600,5.64128662109375,-0.004216050263494253,-0.01125105656683445,-0.00010626012954162434
1772639561676331300,5.651331298828125,-0.006469350773841143,-0.009281116537749767,-0.009207612834870815
1772639561686376400,5.66137646484375,-0.009013734757900238,-0.00689199473708868,-0.017553161829710007
1772639561696421400,5.67142138671875,-0.00897005945444107,-0.005347094964236021,-0.022242721170186996
1772639561706466600,5.681466552734375,-0.010393518954515457,-0.006582535337656736,-0.025777269154787064
1772639561716511500,5.691511474609375,-0.008765527978539467,-0.008624380454421043,-0.023015836253762245
1772639561726556400,5.701556396484375,-0.007340204436331987,-0.008129033260047436,-0.014851650223135948
1772639561736601300,5.711601318359375,-0.008378038182854652,-0.002721750643104315,-0.0074030552059412
1772639561746646500,5.721646484375,-0.012988236732780933,-0.0013627394801005721,-0.0003371562052052468
1772639561756691500,5.73169140625,-0.01836169697344303,0.00035659727291204035,0.0008199872681871057
1772639561766736400,5.741736328125,-0.018139056861400604,-0.0022005699574947357,0.0011377023765817285
1772639561776781300,5.75178125,-0.014473214745521545,-0.002380599733442068,0.0024088292848318815
1772639561786826500,5.761826416015625,-0.0098052266985178,-0.001371527905575931,0.0013076120521873236
1772639561796870400,5.771870361328125,-0.008113852702081203,0.003914047963917255,0.005927930120378733
1772639561806915300,5.781915283203125,-0.01119166798889637,-0.0016588830621913075,0.007120760157704353
1772639561816960300,5.791960205078125,-0.016231700778007507,-0.012946158647537231,0.008590292185544968
1772639561827005400,5.80200537109375,-0.02232581190764904,-0.022227540612220764,0.007407050114125013
1772639561837050400,5.81205029296875,-0.023379623889923096,-0.024652615189552307,0.0034940673504024744
1772639561847095600,5.822095458984375,-0.01980246603488922,-0.021882662549614906,-0.0007297061383724213
1772639561857140200,5.83214013671875,-0.018077271059155464,-0.01552250050008297,-0.0012628709664568305
1772639561867185400,5.842185302734375,-0.0145874647423625,-0.009939183481037617,-0.004232295788824558
1772639561877230300,5.852230224609375,-0.01275494322180748,-0.006625678390264511,-0.002441852353513241
1772639561887275500,5.862275634765625,-0.010519752278923988,-0.0065439194440841675,0.0014751249691471457
1772639561897320400,5.872320556640625,-0.009044361300766468,-0.005323392804712057,0.007048055995255709
1772639561907365400,5.882365478515625,-0.008070177398622036,-0.00515827676281333,0.00971601065248251
1772639561917410300,5.892410400390625,-0.012461729347705841,-0.0062400526367127895,0.008410529233515263
1772639561927455500,5.90245556640625,-0.019240006804466248,-0.010060889646410942,0.0030368026345968246
1772639561937499400,5.91249951171875,-0.025019066408276558,-0.011232946999371052,-0.001915878034196794
1772639561947544300,5.92254443359375,-0.0252198688685894,-0.012614328414201736,-0.007670969236642122
1772639561957589500,5.932589599609375,-0.01890072040259838,-0.01690574735403061,-0.010565558448433876
1772639561967634400,5.942634521484375,-0.01137010008096695,-0.018809907138347626,-0.008265919052064419
1772639561977679600,5.9526796875,-0.009242233820259571,-0.023618243634700775,-0.004677309654653072
1772639561987724300,5.962724365234375,-0.005574528593569994,-0.029523802921175957,-0.003626959165558219
1772639561997769500,5.97276953125,-0.008702677674591541,-0.034564901143312454,-0.005573996342718601
1772639562007814400,5.982814453125,-0.0145286088809371,-0.0337345264852047,-0.006167082116007805
1772639562017859600,5.992859619140625,-0.02124776504933834,-0.026683542877435684,-0.008448079228401184
1772639562027904500,6.002904541015625,-0.02666276879608631,-0.02191248908638954,-0.012198342941701412
1772639562037949400,6.012949462890625,-0.027280889451503754,-0.017918812111020088,-0.01167423278093338
1772639562047994400,6.022994384765625,-0.026268089190125465,-0.015381885692477226,-0.008957276120781898
1772639562058039600,6.03303955078125,-0.023959128186106682,-0.01449771597981453,-0.0054397727362811565
1772639562068084500,6.04308447265625,-0.023637685924768448,-0.012375443242490292,-0.004325506277382374
1772639562078128400,6.05312841796875,-0.024229438975453377,-0.00854475237429142,-0.0043838294222950935
1772639562088173300,6.06317333984375,-0.021747106686234474,-0.004543885588645935,-0.002514823107048869
1772639562098218500,6.073218505859375,-0.018369153141975403,-0.00552126532420516,0.0012455604737624526
1772639562108263400,6.083263427734375,-0.019885290414094925,-0.006070409435778856,0.006587861571460962
1772639562118307600,6.0933076171875,-0.0194887463003397,-0.008962602354586124,0.01002014335244894
1772639562128352500,6.1033525390625,-0.020072776824235916,-0.010394318029284477,0.013348562642931938
1772639562138397400,6.1133974609375,-0.019540945068001747,-0.011712849140167236,0.012928581796586514
1772639562148442600,6.123442626953125,-0.018187792971730232,-0.006779609248042107,0.009631588123738766
1772639562158487600,6.133487548828125,-0.01564047858119011,-0.00823955424129963,0.0041364217177033424
1772639562168532500,6.143532470703125,-0.015979498624801636,-0.006587062496691942,-0.004312989301979542
1772639562178577400,6.153577392578125,-0.015116634778678417,-0.004497013986110687,-0.007395598106086254
1772639562188622600,6.16362255859375,-0.01378398947417736,-0.004260791465640068,-0.009551160968840122
1772639562198667500,6.17366748046875,-0.01001934427767992,-0.007306116167455912,-0.01040576957166195
1772639562208712700,6.183712646484375,-0.009884055703878403,-0.005148955620825291,-0.006934605073183775
1772639562218756400,6.19375634765625,-0.006684267893433571,-0.003291134489700198,-0.0046935551799833775
1772639562228801500,6.203801513671875,-0.008766060695052147,-0.004573978949338198,-0.006343383342027664
1772639562238846500,6.213846435546875,-0.009453422389924526,-0.009548763744533062,-0.007174023427069187
1772639562248891600,6.2238916015625,-0.009559150785207748,-0.010538128204643726,-0.012582903727889061
1772639562258936300,6.233936279296875,-0.009706422686576843,-0.0049462891183793545,-0.013596502132713795
1772639562268981500,6.2439814453125,-0.0034474621061235666,0.0023097596131265163,-0.009014533832669258
1772639562279026400,6.2540263671875,0.0009614011505618691,0.0035198999103158712,-0.005081577692180872
1772639562289071600,6.264071533203125,0.0005757753970101476,-0.0013129384024068713,-0.0009531453251838684
1772639562299116300,6.2741162109375,-0.0018730012234300375,-0.009208411909639835,0.000059921123465755954
1772639562309161500,6.284161376953125,-0.004516721237450838,-0.014831144362688065,-0.003296993440017104
1772639562319206400,6.294206298828125,-0.008084824308753014,-0.017135044559836388,-0.0073290192522108555
1772639562329251600,6.30425146484375,-0.008055263198912144,-0.012632437981665134,-0.010892861522734165
1772639562339296500,6.314296630859375,-0.0029814087320119143,-0.005323392804712057,-0.011064102873206139
1772639562349341400,6.324341552734375,0.0024796691723167896,0.0019771307706832886,-0.011199657805263996
1772639562359385600,6.334385498046875,0.003962517250329256,0.004998220596462488,-0.00839907769113779
1772639562369430500,6.344430419921875,0.005320996046066284,0.002572879893705249,-0.009396963752806187
1772639562379475700,6.354475830078125,0.007720770314335823,0.00333241350017488,-0.00911253783851862
1772639562389520400,6.364520263671875,0.010309629142284393,0.0022181468084454536,-0.012544820085167885
1772639562399565600,6.374565673828125,0.011240670457482338,0.0028072381392121315,-0.012977850623428822
1772639562409610500,6.384610595703125,0.011628959327936172,0.0009137305896729231,-0.013763749040663242
1772639562419655700,6.39465576171875,0.008358864113688469,-0.0012934972764924169,-0.011808455921709538
1772639562429700400,6.404700439453125,0.006958839949220419,-0.003959055058658123,-0.013884656131267548
1772639562439745500,6.41474560546875,0.010539459995925426,-0.005065598525106907,-0.014675615355372429
1772639562449790500,6.42479052734375,0.01600240170955658,-0.0010511496802791953,-0.011843076907098293
1772639562459835600,6.434835693359375,0.021258417516946793,-0.0015475628897547722,-0.007386011071503162
1772639562469880600,6.444880615234375,0.02383129671216011,-0.0029907298739999533,-0.006672017276287079
1772639562479925500,6.454925537109375,0.024766333401203156,-0.008128766901791096,-0.005850964691489935
1772639562489970400,6.464970458984375,0.020901553332805634,-0.007832090370357037,-0.008586031384766102
1772639562500014600,6.4750146484375,0.0141373910009861,-0.002835467690601945,-0.01050190906971693
1772639562510059500,6.4850595703125,0.01230353768914938,-0.0018500980222597718,-0.010223609395325184
1772639562520104400,6.4951044921875,0.014005564153194427,-0.001702026231214404,-0.008302404545247555
1772639562530149400,6.5051494140625,0.014813301153481007,-0.005672533065080643,-0.008595884777605534
1772639562540194600,6.515194580078125,0.016707606613636017,-0.009838249534368515,-0.00947765726596117
1772639562550239500,6.525239501953125,0.01636406034231186,-0.00672315014526248,-0.01276027038693428
1772639562560284400,6.535284423828125,0.011641476303339005,-0.0032083101104944944,-0.017064737156033516
1772639562570329300,6.545329345703125,0.00672181835398078,0.0011717908782884479,-0.0215926431119442
1772639562580374500,6.55537451171875,0.009380452334880829,0.003864779369905591,-0.024213461205363274
1772639562590419500,6.56541943359375,0.005726861767470837,0.00443869037553668,-0.01745462417602539
1772639562600464600,6.575464599609375,0.0054360441863536835,-0.00021598236344289035,-0.009504289366304874
1772639562610509300,6.58550927734375,0.007955394685268402,-0.004230164922773838,-0.0009097357979044318
1772639562620554500,6.595554443359375,0.009829195216298103,-0.006579872220754623,0.007360710762441158
1772639562630598700,6.6055986328125,0.009107744321227074,-0.008915198035538197,0.01281566359102726
1772639562640643600,6.6156435546875,0.006043245084583759,-0.007209443487226963,0.01588229276239872
1772639562650688500,6.6256884765625,0.00421285443007946,-0.006435262504965067,0.009455819614231586
1772639562660733400,6.6357333984375,0.0022572954185307026,-0.004737230949103832,0.004078364931046963
1772639562670778600,6.645778564453125,0.0016279903938993812,-0.005875998642295599,-0.002094309777021408
1772639562680823600,6.655823486328125,-0.00030652983696199954,-0.005960953421890736,-0.005678392015397549
1772639562690868500,6.665868408203125,-0.002853044541552663,-0.008146077394485474,-0.007909854874014854
1772639562700913400,6.675913330078125,-0.0037984666414558887,-0.006357231643050909,-0.00878124125301838
1772639562710958600,6.68595849609375,-0.006776679772883654,-0.006235525477677584,-0.006958307232707739
1772639562721003500,6.69600341796875,-0.009839314967393875,-0.006761499680578709,-0.0030916635878384113
1772639562731048700,6.706048583984375,-0.01258077286183834,-0.0123631926253438,-0.004609399009495974
1772639562741093400,6.71609326171875,-0.011036405339837074,-0.012387427501380444,-0.0054850466549396515
1772639562751138600,6.726138671875,-0.007570834364742041,-0.008383630774915218,-0.009109076112508774
1772639562761183500,6.73618359375,-0.004166249185800552,-0.00024154871061909944,-0.008274175226688385
1772639562771227600,6.7462275390625,-0.0028602350503206253,0.0015712650492787361,-0.005811816547065973
1772639562781272300,6.756272216796875,-0.005372927524149418,0.0021608888637274504,-0.003478088416159153
1772639562791317500,6.7663173828125,-0.01284336019307375,-0.00490314606577158,-0.004732969682663679
1772639562801362400,6.776362548828125,-0.01841975376009941,-0.01509852521121502,-0.008275240659713745
1772639562811407600,6.78640771484375,-0.019712451845407486,-0.017303623259067535,-0.006612895056605339
1772639562821452300,6.796452392578125,-0.019121762365102768,-0.013561348430812359,-0.012975986115634441
1772639562831497500,6.80649755859375,-0.0137253999710083,-0.006564425770193338,-0.011708054691553116
1772639562841542400,6.81654248046875,-0.006265618838369846,-0.007203051820397377,-0.011589543893933296
1772639562851587600,6.826587646484375,-0.0026312030386179686,-0.0038400120101869106,-0.014942464418709278
1772639562861632500,6.836632568359375,-0.0035952674224972725,-0.0012351741315796971,-0.016882842406630516
1772639562871677400,6.846677490234375,-0.0017305220244452357,0.0002402171230642125,-0.015532886609435081
1772639562881722400,6.856722412109375,-0.0029619678389281034,0.0007843009079806507,-0.01338478084653616
1772639562891767600,6.866767578125,-0.003937217406928539,-0.0015994944842532277,-0.013381851837038994
1772639562901812500,6.8768125,-0.0016562198288738728,-0.0035723643377423286,-0.009534915909171104
1772639562911856400,6.8868564453125,0.0011627360945567489,-0.006602242588996887,-0.004099403973668814
1772639562921901600,6.896901611328125,0.004827245604246855,-0.011100854724645615,-0.004131894558668137
1772639562931946500,6.906946533203125,0.005300489254295826,-0.010616958141326904,-0.0024138891603797674
1772639562941991700,6.91699169921875,0.007390271872282028,-0.004739894066005945,-0.0010290454374626279
1772639562952036400,6.927036376953125,0.010537329129874706,-0.0022714100778102875,-0.0033832797780632973
1772639562962081500,6.93708154296875,0.01056449394673109,-0.004102866165339947,-0.007653126027435064
1772639562972126500,6.94712646484375,0.01164413895457983,-0.006976416800171137,-0.012571984902024269
1772639562982171600,6.957171630859375,0.010352506302297115,-0.008702944032847881,-0.016018647700548172
1772639562992216600,6.967216552734375,0.011828962713479996,-0.005154548212885857,-0.017770741134881973
1772639563002261500,6.977261474609375,0.012855610810220242,-0.000984570593573153,-0.014855644665658474
1772639563012306400,6.987306396484375,0.014181865379214287,-0.003820038167759776,-0.014028999954462051
1772639563022351600,6.9973515625,0.01679043099284172,-0.006493585649877787,-0.008095210418105125
1772639563032396500,7.007396484375,0.01504100114107132,-0.010540259070694447,-0.00833675917237997
1772639563042441500,7.01744140625,0.01607590541243553,-0.011685151606798172,-0.01019537914544344
1772639563052486400,7.027486328125,0.014062555506825447,-0.009817743673920631,-0.014475611969828606
1772639563062530600,7.037530517578125,0.011541874147951603,-0.0049734534695744514,-0.019569173455238342
1772639563072575500,7.047575439453125,0.005456816870719194,-0.0008950884221121669,-0.019422167912125587
1772639563082620400,7.057620361328125,0.008559132926166058,-0.0010154632618650794,-0.019364643841981888
1772639563092665300,7.067665283203125,0.010616691783070564,-0.0019196064677089453,-0.011095527559518814
1772639563102710500,7.07771044921875,0.01142948865890503,-0.003677559085190296,-0.0021949773654341698
1772639563112755500,7.08775537109375,0.011935222893953323,-0.007964715361595154,0.005059206858277321
1772639563122801000,7.09780078125,0.010853978805243969,-0.00749227125197649,0.006533799227327108
1772639563132845800,7.107845703125,0.009982326999306679,-0.004764395300298929,0.003141997382044792
1772639563142891000,7.11789111328125,0.0060208747163414955,0.0018466358305886388,-0.0032661007717251778
1772639563152935700,7.127935791015625,0.006728210020810366,0.00407437002286315,-0.010641459375619888
1772639563162980900,7.13798095703125,0.0060355220921337605,0.002701244316995144,-0.01780696026980877
1772639563173025800,7.14802587890625,0.006980677600950003,-0.00022077605535741895,-0.01757180318236351
1772639563183071000,7.158071044921875,0.0056802560575306416,-0.0033984598703682423,-0.016802947968244553
1772639563193115000,7.168114990234375,0.00560941593721509,-0.006836334243416786,-0.015307583846151829
1772639563203159800,7.178159912109375,0.004126301966607571,-0.002829076023772359,-0.014340589754283428
1772639563213204700,7.188204833984375,0.0012855078093707561,0.0004889564006589353,-0.00971308071166277
1772639563223250000,7.19825,-0.001050617080181837,-0.0011094729416072369,-0.010745855048298836
1772639563233294800,7.208294921875,-0.0015227955300360918,0.0025965820532292128,-0.009411345236003399
1772639563243339800,7.21833984375,-0.0005060005933046341,0.004008590243756771,-0.006734068971127272
1772639563253384700,7.228384765625,0.0028823392931371927,0.009349293075501919,-0.008923985995352268
1772639563263430000,7.238429931640625,0.005145227070897818,0.013954431749880314,-0.008461927995085716
1772639563273474800,7.248474853515625,0.0015345134306699038,0.013345632702112198,-0.009483516216278076
1772639563283519700,7.258519775390625,-0.005246960092335939,0.005064533557742834,-0.012233496643602848
1772639563293564700,7.268564697265625,-0.010185792110860348,-0.002529470482841134,-0.010174340568482876
1772639563303609900,7.27860986328125,-0.013558952137827873,-0.0070219566114246845,-0.008244347758591175
1772639563313654800,7.28865478515625,-0.009131446480751038,-0.007375624496489763,-0.0007677893154323101
1772639563323700000,7.298699951171875,-0.005913016386330128,-0.007270962465554476,0.0046631949953734875
1772639563333743900,7.308743896484375,0.0005166532355360687,-0.007216900121420622,0.008868326433002949
1772639563343788800,7.318788818359375,0.0011707255616784096,-0.005130846053361893,0.010815629735589027
1772639563353834000,7.328833984375,0.0015443670563399792,-0.0017124125733971596,0.010161290876567364
1772639563363879000,7.33887890625,0.0029643645975738764,0.003314037574455142,0.006551109720021486
1772639563373923800,7.348923828125,0.001511876587755978,0.005709550809115171,0.004875715356320143
1772639563383968800,7.35896875,-0.0017467673169448972,0.004715392831712961,0.0032226911280304193
1772639563394014000,7.369013916015625,-0.0057252636179327965,0.0017635452095419168,0.0029792783316224813
1772639563404059000,7.379058837890625,-0.008413191884756088,0.0013840447645634413,0.0008346347021870315
1772639563414103800,7.389103759765625,-0.006057892460376024,0.0020570256747305393,-0.0019148128340020776
1772639563424148700,7.399148681640625,-0.005467736162245274,0.0010066748363897204,-0.0025387913919985294
1772639563434194000,7.40919384765625,0.0007693872321397066,-0.0015994944842532277,-0.006295446306467056
1772639563444238800,7.41923876953125,0.0038962047547101974,-0.00017097493400797248,-0.010065416805446148
1772639563454284000,7.429283935546875,0.005958290304988623,-0.0022027005907148123,-0.012744557112455368
1772639563464328700,7.43932861328125,0.005182245280593634,-0.0023273364640772343,-0.017523599788546562
1772639563474372900,7.449372802734375,0.005003014579415321,-0.0038128476589918137,-0.018618958070874214
1772639563484417800,7.459417724609375,0.0035800873301923275,-0.006077599711716175,-0.019087674096226692
1772639563494463000,7.469462890625,0.004225904121994972,-0.009367136284708977,-0.019589412957429886
1772639563504508000,7.4795078125,0.005903162993490696,-0.012811402790248394,-0.018220815807580948
1772639563514552800,7.489552734375,0.008346613496541977,-0.015295066870748997,-0.017934525385499
1772639563524597800,7.49959765625,0.01200766023248434,-0.013365873135626316,-0.017234381288290024
1772639563534643000,7.509642822265625,0.015963520854711533,-0.009588977321982384,-0.013158146291971207
1772639563544687900,7.51968798828125,0.01679549179971218,-0.010278736241161823,-0.009869675152003765
1772639563554732800,7.52973291015625,0.014042848721146584,-0.011805526912212372,-0.006661631166934967
1772639563564777700,7.53977783203125,0.009580988436937332,-0.010270214639604092,-0.004488491453230381
1772639563574823000,7.549822998046875,0.0032115059439092875,-0.008923187851905823,-0.005596633069217205
1772639563584867800,7.559867919921875,0.0014940333785489202,-0.004723382648080587,-0.006724481470882893
1772639563594912800,7.569912841796875,-0.0008226504432968795,-0.003662645351141691,-0.010323211550712585
1772639563604957700,7.579957763671875,-0.0004623247659765184,-0.004113784991204739,-0.012198342941701412
1772639563615003000,7.5900029296875,-0.0004625910660251975,-0.0038506644777953625,-0.009591907262802124
1772639563625047000,7.600047119140625,0.00037284253630787134,-0.0033153691329061985,-0.006298109423369169
1772639563635091700,7.610091796875,-0.0006103964988142252,-0.004834969062358141,-0.005344697739928961
1772639563645137000,7.620136962890625,-0.0005573995877057314,-0.0036573191173374653,-0.004306331276893616
1772639563655181800,7.630181884765625,-0.0006175870657898486,-0.00130894361063838,-0.0054669370874762535
1772639563665227000,7.64022705078125,0.001924932817928493,-0.0018663433147594333,-0.005218197591602802
1772639563675271700,7.650271728515625,0.005648298189043999,-0.005062669049948454,-0.004875448998063803
1772639563685316900,7.66031689453125,0.006397977937012911,-0.00437956815585494,-0.00720411678776145
1772639563695361800,7.67036181640625,0.008068046532571316,-0.002120675053447485,-0.009336776100099087
1772639563705407000,7.680406982421875,0.00032916670897975564,-0.006088252644985914,-0.010922955349087715
1772639563715452000,7.690451904296875,-0.0025070998817682266,-0.011550395749509335,-0.013496100902557373
1772639563725496800,7.700496826171875,-0.000871652620844543,-0.007639011368155479,-0.014513429254293442
1772639563735541800,7.710541748046875,0.005681587848812342,-0.0023012375459074974,-0.014222878031432629
1772639563745587000,7.7205869140625,0.010966097936034203,0.0041675809770822525,-0.0036187032237648964
1772639563755630800,7.730630859375,0.010352239944040775,0.009376989677548409,0.0005970807396806777
1772639563765675800,7.74067578125,0.0039007319137454033,0.0026788737159222364,0.0062911855056881905
1772639563775721000,7.750720947265625,-0.0019803266040980816,-0.00692022405564785,0.00555295730009675
1772639563785766000,7.760765869140625,-0.007613977417349815,-0.016984310001134872,0.004107659682631493
1772639563795810800,7.770810791015625,-0.00896659679710865,-0.022166820243000984,-0.007787881884723902
1772639563805855700,7.780855712890625,-0.00869415607303381,-0.01931457594037056,-0.016887370496988297
1772639563815901000,7.79090087890625,-0.00941986683756113,-0.012320848181843758,-0.02641722559928894
1772639563825945900,7.80094580078125,-0.0063034361228346825,-0.001157143502496183,-0.027066770941019058
1772639563835990800,7.81099072265625,-0.0021169467363506556,0.00401498144492507,-0.02142220176756382
1772639563846036000,7.821035888671875,0.0017174725653603673,0.006512760184705257,-0.010264888405799866
1772639563856081000,7.831080810546875,0.0030895331874489784,0.005309011787176132,0.005411809775978327
1772639563866125800,7.841125732421875,0.0035177695099264383,0.004954278469085693,0.01516723446547985
1772639563876170800,7.851170654296875,0.0009467537747696042,0.0022098910994827747,0.022352710366249084
1772639563886216000,7.8612158203125,-0.0028549085836857557,0.0007243797881528735,0.024211863055825233
1772639563896259800,7.871259765625,-0.008165251463651657,-0.0021646174136549234,0.017546769231557846
1772639563906304800,7.8813046875,-0.011359979398548603,-0.008945291861891747,0.007952465675771236
1772639563916350000,7.891349853515625,-0.008624380454421043,-0.008800415322184563,-0.0031065773218870163
1772639563926395000,7.901394775390625,-0.007511179428547621,-0.007049920037388802,-0.012137622572481632
1772639563936439800,7.911439697265625,-0.004509796854108572,-0.004274373408406973,-0.01882508583366871
1772639563946484700,7.921484619140625,-0.004840561654418707,-0.0046482812613248825,-0.023212645202875137
1772639563956530000,7.931530029296875,-0.0076302229426801205,-0.009468869306147099,-0.021928202360868454
1772639563966574800,7.941574951171875,-0.007889614440500736,-0.007795338984578848,-0.02147386595606804
1772639563976620000,7.9516201171875,-0.012880644761025906,-0.005844839382916689,-0.016887104138731956
1772639563986664700,7.961664794921875,-0.011424960568547249,-0.004513791762292385,-0.01708710752427578
1772639563996710000,7.9717099609375,-0.011667042039334774,-0.0006412891671061516,-0.012018047273159027
1772639564006754800,7.9817548828125,-0.007961253635585308,0.00005512743518920615,-0.008481635712087154
1772639564016800000,7.991800048828125,-0.008681905455887318,-0.0006543386843986809,-0.003950532991439104
1772639564026845000,8.001844970703125,-0.008159126155078411,0.0010950918076559901,-0.0011893677292391658
1772639564036888800,8.011888916015625,-0.010351440869271755,0.00010679275874281302,0.001279382617212832
1772639564046934000,8.02193408203125,-0.008330367505550385,-0.001704955706372857,0.0012958941515535116
1772639564056979000,8.03197900390625,-0.007676828186959028,-0.0005145227187313139,0.00180881901178509
1772639564067024000,8.04202392578125,-0.00959536898881197,-0.003242931328713894,0.0033593112602829933
1772639564077068800,8.05206884765625,-0.0067758806981146336,-0.009335977025330067,0.0019291938515380025
1772639564087114000,8.062114013671875,-0.011083543300628662,-0.010557036846876144,0.00032144354190677404
1772639564097159000,8.072158935546875,-0.009081113152205944,-0.011665444821119308,-0.0009504822082817554
1772639564107203800,8.082203857421876,-0.008353004232048988,-0.012851083651185036,-0.0060235378332436085
1772639564117248800,8.092248779296876,-0.011320032179355621,-0.009032643400132656,-0.014577611349523067
1772639564127294200,8.102294189453126,-0.010702445171773434,-0.003035204717889428,-0.017167801037430763
1772639564137339100,8.112339111328126,-0.010103234089910984,-0.005428054835647345,-0.02502732165157795
1772639564147384000,8.122384033203126,-0.011097924783825874,-0.0012942962348461151,-0.027402596548199654
1772639564157429200,8.13242919921875,-0.006372944451868534,-0.006261890754103661,-0.025424933061003685
1772639564167474200,8.14247412109375,-0.005370530765503645,-0.009280317462980747,-0.02370506338775158
1772639564177518000,8.15251806640625,-0.0028035095892846584,-0.010260093957185745,-0.018513496965169907
1772639564187563300,8.162563232421874,-0.0018631474813446403,-0.009493104182183743,-0.013567207381129265
1772639564197608200,8.172608154296874,-0.0036338833160698414,-0.007662979885935783,-0.011117366142570972
1772639564207653400,8.1826533203125,-0.003462375607341528,-0.007784153334796429,-0.009073123335838318
1772639564217698300,8.1926982421875,-0.0021198762115091085,-0.004674113821238279,-0.008962868712842464
1772639564227743200,8.2027431640625,0.0028913940768688917,0.0016841830220073462,-0.00827816966921091
1772639564237788200,8.2127880859375,0.008142348378896713,0.004534031730145216,-0.0024557008873671293
1772639564247833300,8.222833251953125,0.011770106852054596,0.00007590009045088664,-0.0009105347562581301
1772639564257878300,8.232878173828125,0.009751430712640285,-0.008162056095898151,-0.0041071269661188126
1772639564267923200,8.242923095703125,0.0034786208998411894,-0.011037204414606094,-0.008476043120026588
1772639564277968100,8.252968017578125,-0.006071208510547876,-0.01519040483981371,-0.012447082437574863
1772639564288013300,8.263013427734375,-0.012024970725178719,-0.01750655472278595,-0.014477210119366646
1772639564298058200,8.273058349609375,-0.012885438278317451,-0.01884585991501808,-0.01503833755850792
1772639564308103400,8.283103515625,-0.005940979812294245,-0.011406851932406425,-0.009044627659022808
1772639564318147000,8.29314697265625,-0.0031318773981183767,0.001163002452813089,0.0020631509833037853
1772639564328192300,8.303192138671875,0.00009134642459684983,0.004510595928877592,0.005116198677569628
1772639564338237200,8.3132373046875,0.004336691461503506,-0.0028871328104287386,0.010158095508813858
1772639564348282400,8.323282470703125,0.008930377662181854,-0.006816094275563955,0.010660899803042412
1772639564358327000,8.3333271484375,0.01239435188472271,-0.01212697010487318,0.01321327406913042
1772639564368372200,8.343372314453125,0.009313606657087803,-0.013736585155129433,0.01549533661454916
1772639564378417200,8.353417236328125,0.006851247977465391,-0.0067423246800899506,0.02376152202486992
1772639564388462300,8.36346240234375,-0.0023643544409424067,-0.0018210695125162601,0.023961791768670082
1772639564398507000,8.373507080078125,-0.007194796111434698,-0.007063768338412046,0.020362796261906624
1772639564408552200,8.38355224609375,-0.00407383730635047,-0.007442203816026449,0.012219381518661976
1772639564418597000,8.39359716796875,0.0010253170039504766,-0.0070640346966683865,0.002326537622138858
1772639564428642300,8.403642333984376,0.002192846732214093,-0.011481153778731823,-0.008988967165350914
1772639564438687200,8.413687255859376,0.00202320353128016,-0.00812317430973053,-0.015303322114050388
1772639564448732200,8.423732177734376,0.0004165183927398175,-0.0068206219002604485,-0.019346533343195915
1772639564458776300,8.4337763671875,-0.002901247702538967,-0.008217183873057365,-0.020862670615315437
1772639564468821200,8.4438212890625,-0.001669003046117723,-0.0044205812737345695,-0.019934825599193573
1772639564478866400,8.453866455078124,0.001284708851017058,0.0059716058894991875,-0.01600506529211998
1772639564488911000,8.4639111328125,-0.001148355077020824,0.0005840312223881483,-0.01136876828968525
1772639564498956300,8.473956298828124,-0.0041494714096188545,-0.006709301844239235,-0.006819556467235088
1772639564509001200,8.484001220703124,-0.0051995557732880116,-0.008808405138552189,-0.00586614478379488
1772639564519046400,8.49404638671875,-0.003982224967330694,-0.004965463653206825,-0.0041089910082519054
1772639564529091000,8.504091064453124,-0.004791559185832739,-0.009342901408672333,-0.004987035412341356
1772639564539136300,8.51413623046875,-0.005015531089156866,-0.007283479440957308,-0.005348692648112774
1772639564549181200,8.52418115234375,-0.0079721724614501,-0.008350874297320843,-0.007743407040834427
1772639564559226400,8.534226318359375,-0.011580223217606544,-0.009922405704855919,-0.007927431724965572
1772639564569271300,8.544271240234375,-0.012703810818493366,-0.008931443095207214,-0.0067628310061991215
1772639564579316200,8.554316162109375,-0.012630574405193329,-0.007270696107298136,-0.004538026638329029
1772639564589361200,8.564361083984375,-0.011814581230282784,-0.007892011664807796,-0.0028613002505153418
1772639564599405300,8.5744052734375,-0.009187906049191952,-0.0019014970166608691,-0.0029443909879773855
1772639564609450200,8.5844501953125,-0.00675377668812871,0.002029062481597066,0.0005283711361698806
1772639564619495200,8.5944951171875,-0.011817777529358864,0.0037318875547498465,0.000517718493938446
1772639564629540000,8.6045400390625,-0.01335601881146431,0.0028306739404797554,0.000179230744834058
1772639564639585300,8.614585205078125,-0.01623809151351452,0.001079645473510027,0.000434361572843045
1772639564649630200,8.624630126953125,-0.014793060719966888,-0.010814830660820007,-0.0024285365361720324
1772639564659675100,8.634675048828125,-0.013207148760557175,-0.010609501041471958,-0.004177168011665344
1772639564669720000,8.644719970703125,-0.014730743132531643,-0.009755425155162811,-0.004904477391391993
1772639564679765200,8.65476513671875,-0.01727033406496048,-0.01188142690807581,-0.005623797420412302
1772639564689810200,8.66481005859375,-0.01751800812780857,-0.009608152322471142,-0.00860360823571682
1772639564699855400,8.67485546875,-0.01925092563033104,-0.011181814596056938,-0.012800750322639942
1772639564709900000,8.684900146484376,-0.01841096580028534,-0.010715761221945286,-0.012058260850608349
1772639564719945200,8.6949453125,-0.017189372330904007,-0.008922388777136803,-0.01110271830111742
1772639564729990100,8.704990234375,-0.014602910727262497,-0.0049281795509159565,-0.003213370218873024
1772639564740034300,8.715034423828126,-0.012948023155331612,-0.0037233654875308275,0.0010428938549011946
1772639564750079200,8.725079345703126,-0.015111574903130531,-0.004554538056254387,0.004488757811486721
1772639564760124200,8.735124267578126,-0.022528745234012604,-0.0118502676486969,-0.00018429075134918094
1772639564770169300,8.74516943359375,-0.026032932102680206,-0.010851848870515823,-0.004941761493682861
1772639564780214300,8.75521435546875,-0.029135780408978462,-0.007741276640444994,-0.009761284105479717
1772639564790259200,8.76525927734375,-0.03173316270112991,-0.0020932445768266916,-0.01525938045233488
1772639564800304000,8.77530419921875,-0.03117016889154911,0.02593599259853363,-0.013112340122461319
1772639564810349300,8.785349365234374,-0.029755765572190285,0.010102701373398304,-0.010399644263088703
1772639564820394200,8.795394287109374,-0.024829715490341187,-0.0032735576387494802,-0.0016229304019361734
1772639564830439400,8.805439453125,-0.019108712673187256,-0.0021406488958746195,0.007938084192574024
1772639564840484000,8.815484130859375,-0.018576880916953087,-0.0031614385079592466,0.010771953500807285
1772639564850529300,8.825529296875,-0.02052365057170391,-0.004193679895251989,0.009637979790568352
1772639564860574200,8.83557421875,-0.023544207215309143,-0.00040266994619742036,0.0070760189555585384
1772639564870619400,8.845619384765625,-0.02509043924510479,-0.0014245248166844249,-0.001088966615498066
1772639564880663000,8.8556630859375,-0.025056883692741394,0.002109756227582693,-0.009380185976624489
1772639564890708200,8.865708251953125,-0.02664918825030327,0.015185077674686909,-0.01672038994729519
1772639564900753200,8.875753173828125,-0.028243621811270714,0.03278297930955887,-0.02497272752225399
1772639564910798300,8.88579833984375,-0.02622894011437893,0.025768479332327843,-0.02689339965581894
1772639564920843000,8.895843017578125,-0.021517809480428696,0.02563958242535591,-0.02022191509604454
1772639564930888200,8.90588818359375,-0.015340073965489864,0.023749005049467087,-0.0046152579598128796
1772639564940933000,8.91593310546875,-0.013651097193360329,0.012678510509431362,0.00443895673379302
1772639564950978300,8.925978271484375,-0.012496083974838257,-0.00478543434292078,0.01637471280992031
1772639564961023200,8.936023193359375,-0.012347213923931122,-0.006430468522012234,0.022648854181170464
1772639564971068200,8.946068115234375,-0.014615427702665329,-0.006194246467202902,0.022103171795606613
1772639564981113000,8.956113037109375,-0.012013252824544907,-0.005105013493448496,0.019567308947443962
1772639564991158300,8.966158203125,-0.00980309583246708,-0.0076155755668878555,0.01461889035999775
1772639565001203200,8.976203125,-0.012546151876449585,-0.03212597966194153,0.011241203173995018
1772639565011248400,8.986248291015626,-0.013647635467350483,-0.007144728675484657,0.015278289094567299
1772639565021292300,8.996292236328125,-0.010263290256261826,-0.02538498491048813,0.016748087480664253
1772639565031337200,9.006337158203126,-0.01031442265957594,-0.04265185445547104,0.053038451820611954
1772639565041382400,9.01638232421875,-0.008088020607829094,-0.06674174219369888,0.0928250104188919
1772639565051427000,9.026427001953126,0.0023188143968582153,-0.11226315796375275,0.10868652909994125
1772639565061472300,9.03647216796875,0.013743508607149124,-0.10809184610843658,0.09719845652580261
1772639565071517200,9.04651708984375,0.019837087020277977,-0.06148626282811165,0.04770387336611748
1772639565081562400,9.056562255859374,0.011059309355914593,-0.0004338289436418563,-0.022248048335313797
1772639565091607300,9.066607177734374,-0.0025190841406583786,0.059726446866989136,-0.08914585411548615
1772639565101652200,9.07665234375,-0.01278636883944273,0.11160988360643387,-0.13468164205551147
1772639565111697200,9.086697265625,-0.021824872121214867,0.1400604397058487,-0.15247556567192078
1772639565121741800,9.096741943359374,-0.024515196681022644,0.14077602326869965,-0.13815361261367798
1772639565131786800,9.106786865234374,-0.022793995216488838,0.10945059359073639,-0.09792496263980865
1772639565141831700,9.116831787109374,-0.012181032449007034,0.050633881241083145,-0.04338955134153366
