time,seconds_elapsed,z,y,x
1772642754178843000,0.0588427734375,1.3728361671686171,0.121363403172791,0.4292007238650694
1772642754188887000,0.068886962890625,1.4733786083698273,0.27419454227685924,0.2544091338980943
1772642754198932200,0.07893212890625,1.559475175589323,0.39413405012637376,0.1018500166684389
1772642754208977200,0.08897705078125,1.4929086537480354,0.4976347566112876,-0.00706014764457941
1772642754219022000,0.09902197265625,1.42581547768414,0.5969964635953307,-0.12895243352968244
1772642754229067000,0.10906689453125,1.3100029866367577,0.718150315670669,-0.21438293805588035
1772642754239112200,0.1191123046875,1.1711346141725778,0.8480725806131958,-0.22743691928777843
1772642754249157000,0.1291572265625,1.3125251985907553,1.0143117750838397,-0.2225098746817559
1772642754259202000,0.1392021484375,1.633306719997525,1.1659186330899596,-0.2399689955374226
1772642754269247000,0.1492470703125,2.035685743638873,1.3219710723280906,-0.26829744706228376
1772642754279292200,0.159292236328125,2.474967387741804,1.5515286004990338,-0.3094379608219489
1772642754289337000,0.169337158203125,2.7324451884955168,1.7937891045071184,-0.31591698411032554
1772642754299382300,0.17938232421875,2.4981787519812584,1.816903876504302,-0.2746722427912056
1772642754309427000,0.189427001953125,2.6290888589173553,1.8156781341016293,-0.32145196801424025
1772642754319472000,0.19947216796875,2.565827808362245,1.8051394966915248,-0.20282522326372562
1772642754329517000,0.20951708984375,2.361929037582874,1.6847935999982058,-0.2667400067535229
1772642754339562200,0.219562255859375,2.4516093085080386,1.4846971441112458,-0.4004525490907952
1772642754349607000,0.22960693359375,2.454713704264164,1.503525032569468,-0.33211927330531177
1772642754359652000,0.239652099609375,2.0579636264204977,1.5403823525846003,0.02706241364441812
1772642754369697000,0.249697021484375,1.1628326497733592,0.974146645694971,0.06016100218053907
1772642754379742200,0.2597421875,-0.3144283529877662,0.021913433383405206,0.1392032304417342
1772642754389787100,0.269787109375,-1.7789724975168704,-0.9916899011701344,0.35980098789185283
1772642754399832000,0.27983203125,-2.812157023113966,-1.1542679427847264,0.7589959746696054
1772642754409877000,0.289876953125,-3.621909809944033,-0.827616944822669,0.9391038277558982
1772642754419922200,0.299922119140625,-5.121751477825641,-0.8677943491712212,0.6709656629085541
1772642754429967000,0.309967041015625,-6.069186057683825,-0.6252402690440416,-0.31534583315886555
1772642754440012300,0.32001220703125,-7.099771798959374,0.1762143527790904,-0.8571857883300632
1772642754450057000,0.330056884765625,-8.696686186105012,0.3153124423459172,-1.15530123135522
1772642754460102100,0.34010205078125,-9.791823017746209,0.40367929258495566,-1.4685055955059825
1772642754470147000,0.35014697265625,-9.449208434715867,0.5210132941111922,-1.3502832668378948
1772642754480192300,0.360192138671875,-7.936495010301471,-0.07114771215170622,-0.6603727380279452
1772642754490237000,0.37023681640625,-5.997098142072558,-1.341260002426803,-0.2095913563977927
1772642754500282000,0.3802822265625,-3.958939286318421,-2.6223317858725785,-0.16827764149568974
1772642754510327000,0.3903271484375,-3.2316508476853367,-3.1530989967569707,0.2989921527944505
1772642754520372200,0.400372314453125,-3.055164984488487,-2.0826172984227536,0.6166551768545061
1772642754530417200,0.410417236328125,-3.1356133166879414,-3.045172582784295,1.9965213157251476
1772642754540462000,0.420462158203125,-4.057004523751139,-4.554206734164059,3.273851866815984
1772642754550507000,0.430507080078125,-4.0719367199450724,-4.999496971032023,3.401273254853487
1772642754560552200,0.44055224609375,-2.815433268305659,-4.224817835670709,2.2851636316798625
1772642754570597000,0.45059716796875,-1.536155090278387,-3.7046281329020854,0.8846398316405713
1772642754580642000,0.46064208984375,0.5773895535886288,-2.4240569924548265,-0.060589054866880175
1772642754590687000,0.47068701171875,-0.35622049905657766,-2.8253637106895444,0.20468568337336182
1772642754600732200,0.480732177734375,-0.7750836245089769,-3.5712244555845856,1.179631955013424
1772642754610777000,0.490777099609375,-0.6178904908031225,-3.274478766542673,1.2677815092399716
1772642754620822300,0.500822265625,-1.714867397353053,-3.4733065176680684,1.2475599744662642
1772642754630867000,0.510866943359375,-2.5767753188341853,-3.07741860961169,0.5150719213634729
1772642754640912100,0.520912109375,-2.2720763327002524,-0.9142971571490168,-1.742376166525483
1772642754650957000,0.53095703125,-2.586947753280401,0.13401917886734008,-3.038441813224554
1772642754661002200,0.541002197265625,-2.3688977075517177,0.7744587706089019,-2.820510717700422
1772642754671047200,0.551047119140625,-1.3295932377696036,1.448958452862501,-1.931152479235828
1772642754681092000,0.561092041015625,0.2769172452390194,2.0410415715835986,-1.129786997000873
1772642754691137000,0.571136962890625,2.0611936943829057,2.3696958721920844,-0.6481459283351898
1772642754701182200,0.58118212890625,3.4414158801496026,2.1682126381218434,-0.024794687908142803
1772642754711227100,0.59122705078125,4.552920493745804,2.638051040790975,0.43859877640530465
1772642754721272000,0.60127197265625,4.897787824138999,2.972508036328852,1.1636191239759326
1772642754731317000,0.61131689453125,5.465372023028135,3.2200682541802523,1.6103249267302453
1772642754741362200,0.621362060546875,6.035877662321925,3.2472751177966592,1.5183325794704257
1772642754751407000,0.631406982421875,6.5937436002731316,3.0555449237167833,1.603995431447774
1772642754761452300,0.641452392578125,7.720390253421664,2.7072119630396365,1.4803209748536348
1772642754771496000,0.651495849609375,8.594838507524132,2.3618514423020183,1.3355854639217257
1772642754781541000,0.661541015625,8.961323210963606,2.2966911339968443,0.9722476802058517
1772642754791586000,0.6715859375,9.337902607437968,2.2766000937350093,0.7046769399829208
1772642754801631200,0.68163134765625,9.66156699080467,2.095438786073029,0.5825146415174007
1772642754811676000,0.691676025390625,9.638044660919904,1.9597040354594588,0.5070182326368987
1772642754821721000,0.70172119140625,9.324280324798822,1.9076406707450746,0.484588228033483
1772642754831766000,0.71176611328125,8.901611377322673,2.229416463886201,0.3719156424470246
1772642754841811200,0.721811279296875,8.558168526774644,2.553569215291738,0.17614070302098989
1772642754851856000,0.73185595703125,8.271262386962771,2.728568639323115,0.015510142212361097
1772642754861901000,0.741901123046875,7.945276282650232,2.7715456112623214,-0.177555099863559
1772642754871946000,0.751946044921875,7.665756745958328,2.685802387525141,-0.5047165315657853
1772642754881991200,0.7619912109375,7.27324211372733,3.091204266119003,-0.5182106577806175
1772642754892036000,0.7720361328125,6.731971921268105,3.447070252649486,-0.060527095546573394
1772642754902081000,0.7820810546875,6.76342504415214,3.1031340656265614,0.16824863459691405
1772642754912126000,0.7921259765625,7.458956408518552,2.9226792987987396,0.1345329736083746
1772642754922171100,0.802171142578125,7.699144636297225,2.507856388647854,-0.04363967363163829
1772642754932216000,0.812216064453125,7.339144034180045,1.6142273409962653,-0.2474586571730673
1772642754942261200,0.82226123046875,6.885083338618278,0.43540421814769503,-0.18997560549750922
1772642754952306000,0.832305908203125,6.905549788063764,-0.7105676054567098,-0.05401829817444086
1772642754962351000,0.84235107421875,7.23182172358036,-1.6772580899268388,-0.229327664937824
1772642754972396000,0.85239599609375,7.044674181115627,-2.2062299418270586,-0.8666117152579128
1772642754982441200,0.862441162109375,4.882667996418475,-2.5339868552044034,-1.3987453921899198
1772642754992486000,0.87248583984375,1.5509727201819419,-2.5906734958052633,-1.4386093466751277
1772642755002531000,0.882531005859375,-0.595455371633172,-1.7624913183152675,-0.9440357312001287
1772642755012576000,0.892575927734375,-1.7855033605903385,-0.8953133474767208,-0.7664509668506682
1772642755022621200,0.90262109375,-2.555343239226937,-0.14610650702416897,-1.3352014330402016
1772642755032666000,0.912666015625,-3.4934950269550082,-0.06617138504385948,-2.612020819738507
1772642755042711000,0.9227109375,-4.697364620515704,-0.9695467506840825,-4.061510602998733
1772642755052756000,0.932755859375,-7.160806990158558,-1.5647618838205932,-4.735130579808354
1772642755062801200,0.94280126953125,-10.336907215535641,-1.6613368826955557,-4.197113836187124
1772642755072846000,0.95284619140625,-12.84645725635886,-1.8829460822105406,-3.2139228832930327
1772642755082891000,0.96289111328125,-14.65745687725544,-1.7121467402175068,-2.4089584997832776
1772642755092936000,0.97293603515625,-15.647030224663018,-1.2034529755838215,-2.0516575120136142
1772642755102981000,0.982981201171875,-16.415190187388657,-0.6754521606728434,-1.79299327795431
1772642755113026000,0.993026123046875,-17.359274872297046,-0.24250965646356343,-1.101998534104228
1772642755123071200,1.0030712890625,-17.925505903011558,-0.25759733548015357,-0.08834639197289944
1772642755133116000,1.013115966796875,-17.726421254515646,-0.7182391629979014,0.6891324571095406
1772642755143161000,1.0231611328125,-16.26788248788118,-0.9724122231177985,0.7045718721732497
1772642755153206000,1.0332060546875,-14.092930312371253,-0.9101317080326378,0.2576367907077074
1772642755163251200,1.043251220703125,-12.242661341881751,-0.9222438783697784,-0.003359539560973644
1772642755173296000,1.053296142578125,-10.914914024239778,-0.615659809141606,-0.0340521994665265
1772642755183340500,1.063340576171875,-10.108318240135908,-0.36724195154756306,0.1925784814722836
1772642755193385700,1.0733857421875,-9.068673578613996,-0.32334625732824207,0.480440460704267
1772642755203430700,1.0834306640625,-7.4982701817750925,-0.28466245253831146,0.9118366122543812
1772642755213475600,1.0934755859375,-5.342344193774461,-0.48687896931916474,1.4570860836081205
1772642755223520500,1.1035205078125,-3.165422764018178,-0.959467255218327,1.8737182351380586
1772642755233565700,1.113565673828125,-1.4356167407304048,-1.3705471794486046,1.9718641365915535
1772642755243610600,1.123610595703125,-0.3103478056758642,-1.6445210647121071,1.8626411069370805
1772642755253655600,1.133655517578125,0.20562544844150543,-1.7607674171321093,1.8100686236567793
1772642755263700500,1.143700439453125,0.3586199614137411,-1.6715731761582195,1.9300477328643202
1772642755273745700,1.15374560546875,0.6501350563257933,-1.2054890114560723,2.021565448349714
1772642755283790600,1.16379052734375,1.2955249639511108,-0.5335374062500894,1.737758443596959
1772642755293835500,1.17383544921875,1.9513532634824513,0.15706629245579243,1.2153139476388692
1772642755303880700,1.183880615234375,2.4310551807790994,0.6698078711755573,0.8406509061798453
1772642755313925600,1.193925537109375,2.866462029275298,1.0278931411907075,0.5534709178626537
1772642755323970600,1.203970458984375,3.137446961855888,1.273129592269659,0.27684344935044647
1772642755334015500,1.214015380859375,3.224094148695469,1.524832609014213,0.18965324167534708
1772642755344060700,1.224060791015625,3.337172246342897,1.6448175634406506,0.2834130369991064
1772642755354105600,1.234105712890625,3.6270869203209877,1.3375646550402045,0.5475776220403611
1772642755364150500,1.244150634765625,4.128625406372547,0.8447774845905601,0.6915969475269317
1772642755374195500,1.254195556640625,4.786616436895728,0.4848555006675422,0.6805917155183852
1772642755384240600,1.26424072265625,5.479220515638589,0.20403701020628212,0.6942252502039075
1772642755394284500,1.274284423828125,6.033593935298919,-0.07426146025806665,0.9267283303074538
1772642755404329500,1.28432958984375,6.720000328445434,-0.21844722835272548,1.198467734517157
1772642755414374700,1.294374755859375,7.649380196174978,-0.1566752473115921,1.5011194327324628
1772642755424419600,1.304419677734375,8.48083628076911,0.0013556523926556109,1.6697893614813684
1772642755434464800,1.31446484375,9.060055972394347,0.10522329249382019,1.549783364266902
1772642755444509400,1.324509521484375,9.286280556750297,0.2757536082871258,1.3101172606661915
1772642755454554600,1.3345546875,9.192477652937173,0.5859940080657601,1.239597471154481
1772642755464599600,1.344599609375,8.882253765901922,0.8308158869944512,1.402548729995638
1772642755474644700,1.354644775390625,8.374356850734353,1.0845096391648053,1.6628594160877168
1772642755484689700,1.364689697265625,7.727587471449374,1.347285546326637,1.7785199314437805
1772642755494734600,1.374734619140625,7.12684042314887,1.5661882633619009,1.5532875729955733
1772642755504779500,1.384779541015625,6.670435210287571,1.8532083849422634,1.0868100250616668
1772642755514824700,1.39482470703125,6.390124815478921,2.20677734657675,0.6464629436843097
1772642755524869600,1.40486962890625,6.222564601537585,2.542073423287272,0.33474604161232707
1772642755534914600,1.41491455078125,5.998246143063903,2.8207082860991357,0.10626637180596589
1772642755544959500,1.42495947265625,5.6177638939321035,3.079531363981962,0.015747019708156586
1772642755555004700,1.435004638671875,5.206151177999377,3.376011387825012,-0.008711568113416434
1772642755565049600,1.445049560546875,4.607750985085964,3.689130704040825,-0.10839943831190466
1772642755575094800,1.4550947265625,3.9981355706751343,3.9538936933666466,-0.21309936451874673
1772642755585139500,1.465139404296875,3.3079742089092727,3.9794697409108277,-0.21390322824753819
1772642755595184600,1.4751845703125,2.5011188970863816,3.6029908822014924,-0.2705992942638695
1772642755605229600,1.4852294921875,1.869642364001274,2.7879163158267737,-0.23979594052545725
1772642755615274800,1.495274658203125,1.713254116937518,1.7685440424829721,-0.0915474530365318
1772642755625319700,1.505319580078125,2.230209367829561,0.854724731978774,0.04418780903369188
1772642755635364600,1.515364501953125,2.917626399323344,0.351585240471363,-0.009293313524127007
1772642755645409500,1.525409423828125,2.533238959446549,0.03679652973860502,-0.018858429726958274
1772642755655454700,1.535454833984375,0.3104857528418302,-0.6640937313124537,0.4772798047162592
1772642755665499600,1.545499755859375,-2.2037772879779336,-1.1343161648631095,1.0368813342884182
1772642755675544600,1.555544677734375,-3.97421576590538,-1.0553183237329125,1.0559644396167247
1772642755685589500,1.565589599609375,-5.170126509416103,-0.9635157999567687,0.5485630528811365
1772642755695634700,1.575634765625,-6.658793872332573,-1.2996661554090678,0.035579472965886816
1772642755705679600,1.5856796875,-8.260380342942476,-1.9344692025683818,-0.5277056313566864
1772642755715724800,1.595724853515625,-9.168561355298756,-2.550856449201703,-1.1805647058188915
1772642755725769500,1.60576953125,-9.360570366320013,-2.890156793117523,-1.4466285486102104
1772642755735814700,1.615814697265625,-9.451946919769048,-3.0112989547550675,-1.007115287708491
1772642755745859600,1.625859619140625,-9.823474878072737,-3.1664915622934697,0.11099650560040027
1772642755755904800,1.63590478515625,-9.993809232902526,-3.232114665804803,1.0609836560182273
1772642755765949400,1.645949462890625,-9.993091440021992,-3.1970793005198237,1.7234404337786138
1772642755775994600,1.65599462890625,-9.791099964168668,-3.2369767188832164,2.2155710400156674
1772642755786039600,1.66603955078125,-9.651392802792786,-3.520109477636218,2.377629003278911
1772642755796084700,1.676084716796875,-9.819154092264174,-3.3988898668482896,1.7415286097854374
1772642755806129700,1.686129638671875,-10.304089818561076,-2.993516629827022,0.3493221543775871
1772642755816174600,1.696174560546875,-10.800481004852056,-2.5188152972966433,-1.2198860778599976
1772642755826219500,1.706219482421875,-10.817131695401669,-2.1614821608230472,-2.5259897189706564
1772642755836264700,1.7162646484375,-10.824350540739298,-1.7752504082538187,-2.9783281207844614
1772642755846309600,1.7263095703125,-11.06556518895626,-1.5341152550138533,-2.3456153239026665
1772642755856354800,1.736354736328125,-11.154328345036506,-1.5469696220204234,-0.9456453583538532
1772642755866399500,1.7463994140625,-10.535237830793857,-1.7705862158350645,0.4425771054517478
1772642755876444700,1.756444580078125,-8.930084023091197,-2.212967433388531,1.2158932088315486
1772642755886489600,1.766489501953125,-6.44532998535037,-2.809092667107284,1.1812396094057709
1772642755896534800,1.77653466796875,-3.556629820781946,-3.228357359097898,1.2247031227529048
1772642755906579500,1.786579345703125,-0.6657832918345927,-3.2993624479085204,1.7775019865728914
1772642755916624600,1.796624755859375,1.6093524284362792,-3.059176558217406,2.721625396056473
1772642755926669600,1.806669677734375,2.85515679140687,-2.438591567633301,3.661251347990334
1772642755936714800,1.81671484375,3.4883582485884426,-1.3934459706075488,3.879291164585948
1772642755946759700,1.826759765625,3.4094933861881493,0.17579451993182302,3.6885873909443614
1772642755956804600,1.8368046875,2.7835797479271887,1.4613126152619718,3.8504830032527444
1772642755966849500,1.846849609375,2.247494849151373,2.053186913537979,3.9312820485860107
1772642755976893700,1.856893798828125,2.3931658873677253,2.314810728055239,3.5013448636725544
1772642755986938600,1.866938720703125,3.321525179877877,2.4292766267992554,2.796287253808975
1772642755996983600,1.876983642578125,4.56549823576808,2.330345566317439,2.1006892539471385
1772642756007028500,1.887028564453125,6.219408767855167,2.0558438577875493,1.1415071723457426
1772642756017073700,1.89707373046875,8.187491047820448,1.6187706835143267,-0.11273089164495467
1772642756027118600,1.90711865234375,10.21111109061241,1.5425376309223473,-1.0593218602858483
1772642756037163500,1.91716357421875,11.664124956345557,1.9903280140429733,-0.9891532222993671
1772642756047208400,1.92720849609375,11.836283019471168,2.348822303250432,-0.12624518386498093
1772642756057253600,1.937253662109375,10.820528936624527,2.5185329732239246,1.0071040356621146
1772642756067298600,1.947298583984375,9.636316814213991,2.7073434804648158,1.8124711547538637
1772642756077343700,1.95734375,8.866515514022112,2.892989386194944,1.9383086346007883
1772642756087388400,1.967388427734375,8.239343400132656,2.734839097894728,1.4294393672697245
1772642756097433600,1.97743359375,7.703513352900743,2.4109572723850605,0.36298823962584137
1772642756107478500,1.987478515625,7.36350924462974,2.347210191878676,-0.6408461267158388
1772642756117523700,1.997523681640625,7.059208902424573,2.307238246974349,-1.0127524168126285
1772642756127568600,2.007568603515625,6.871556333047151,2.319645454735309,-0.9624493397690356
1772642756137613600,2.017613525390625,6.809232271081209,2.581011933490634,-0.734175421667844
1772642756147658500,2.027658447265625,6.734117701125145,2.911289305256307,-0.2491117581423372
1772642756157703700,2.03770361328125,6.784969936484098,3.131426970914006,0.44620640186481175
1772642756167748600,2.04774853515625,6.753247933530807,3.188598764683306,0.8680614026095718
1772642756177793500,2.05779345703125,6.459286029988527,3.2714053504467007,0.9444291144318878
1772642756187839500,2.067839599609375,6.0178130133211605,3.1580577882081267,0.7764204260706901
1772642756197884400,2.077884521484375,5.789283074632286,3.002967764261365,0.4509658713515848
1772642756207929300,2.087929443359375,5.779307624062896,2.873486813345551,0.10760660743378102
1772642756217974500,2.097974609375,5.879218781623244,2.781673622044921,-0.18779161252193152
1772642756228019500,2.10801953125,5.718385830110311,2.7884008844733237,-0.2779275913253426
1772642756238064400,2.118064453125,5.127026203358173,2.727764921724796,-0.0021581278819590806
1772642756248109300,2.128109375,4.363898389580846,2.351416119135916,0.6515007917210459
1772642756258154500,2.138154541015625,3.753984869006276,1.559851899947226,1.4101520446062088
1772642756268199400,2.148199462890625,3.859282980301976,0.5076870718091726,1.9437495104804634
1772642756278244600,2.15824462890625,4.831923313087224,-0.7730754995569586,1.8576041356831787
1772642756288289300,2.168289306640625,5.859583522304892,-1.7124311101168392,0.9421184263367205
1772642756298334500,2.17833447265625,5.035904501453042,-2.046662772466242,-0.3262023043464869
1772642756308379400,2.18837939453125,1.6862480365902184,-2.2293431063890456,-0.7859447718717157
1772642756318424600,2.198424560546875,-1.965086020758748,-1.8386939757689833,-0.25949038268513974
1772642756328469200,2.20846923828125,-4.911489601755142,-0.7019261799700558,0.35915925592221315
1772642756338514400,2.218514404296875,-6.695149964827299,0.28706849076673385,0.37885530551709234
1772642756348559400,2.228559326171875,-7.428799170663952,0.1495316591672599,-0.3344160059403628
1772642756358604500,2.2386044921875,-7.580038364401459,-0.8126064226955175,-1.2951707436859607
1772642756368649500,2.2486494140625,-7.394968212732672,-1.5071804863370954,-1.747299156010896
1772642756378694400,2.2586943359375,-7.6720532157540315,-1.7489555449157952,-1.4003988584853708
1772642756388739300,2.2687392578125,-8.627080734959245,-1.8340395740918813,-0.550154304127954
1772642756398784500,2.278784423828125,-9.712381816762685,-1.7791545760855079,0.3667274992194027
1772642756408829400,2.288829345703125,-10.789195056205987,-1.6565167690627276,0.9086530868474394
1772642756418874600,2.29887451171875,-11.513792940580844,-1.6150976940900086,0.9073995796550065
1772642756428919300,2.308919189453125,-11.91662204607725,-1.7050995981849728,0.3711305564839393
1772642756438964500,2.318964599609375,-12.341966934764384,-1.6992380126751958,-0.5674250628046691
1772642756449009400,2.329009521484375,-12.72387366374135,-1.5696579852990806,-1.6469173121988772
1772642756459054600,2.3390546875,-13.099357666194438,-1.460784791995585,-2.46515531104058
1772642756469099300,2.349099365234375,-13.266840723246336,-1.2904802477821706,-2.72770120883882
1772642756479144400,2.35914453125,-12.85225922063589,-1.084730296178162,-2.3629082578785714
1772642756489189400,2.369189453125,-11.696914296269416,-0.9751346338190138,-1.6331190884709357
1772642756499234600,2.379234619140625,-10.207722032696008,-0.9599519699953496,-0.8687013079483061
1772642756509279500,2.389279541015625,-8.660670285350085,-1.0004995228305458,-0.24820954860560596
1772642756519324400,2.399324462890625,-7.330921564757824,-1.0884214057810604,0.20481245155818759
1772642756529369300,2.409369384765625,-6.350282049912214,-1.3063615613944828,0.49863092804178594
1772642756539413500,2.41941357421875,-5.45475067577064,-1.4624923265658318,0.5477053400732577
1772642756549459500,2.42945947265625,-4.580130572232604,-1.504279211937636,0.6234265706855804
1772642756559503400,2.43950341796875,-3.548906533053517,-1.5450155653432012,0.8082036576919257
1772642756569548300,2.44954833984375,-2.300071424084902,-1.671116226170957,0.92090948796086
1772642756579593500,2.459593505859375,-0.9327636649489403,-1.6951491359263657,0.8416179976463317
1772642756589638400,2.469638427734375,0.2802221320033073,-1.5259119286835192,0.6531304387494922
1772642756599683300,2.479683349609375,1.0977227564811707,-1.22421767732352,0.47770957443565126
1772642756609728300,2.489728271484375,1.5255220525830984,-0.8594219498842954,0.41895233810581267
1772642756619773400,2.4997734375,1.8297949222594498,-0.4749081071488559,0.5477794282227755
1772642756629818400,2.509818359375,2.078840410232544,-0.17322861496657133,0.8389041355777531
1772642756639863600,2.519863525390625,2.456070964092016,0.04358823570534587,1.1407986587502061
1772642756649908200,2.529908203125,3.002726941242814,0.3222381499558687,1.192876563446596
1772642756659953400,2.539953369140625,3.4074937368035316,0.5851148140784352,1.1547440358638763
1772642756669998300,2.549998291015625,3.707136024069786,0.7778164104737341,1.271812664452195
1772642756680043500,2.56004345703125,4.030653107920289,0.9055730218149721,1.4156715386800467
1772642756690088400,2.57008837890625,4.378087658452987,1.0524188028991222,1.5174121036246417
1772642756700133400,2.58013330078125,4.668308037379384,1.1826944113239646,1.5837595758877694
1772642756710178300,2.59017822265625,4.755471941569447,1.2851231046631932,1.6000579458683728
1772642756720223500,2.600223388671875,4.870231124171615,1.3229014850459992,1.407124513478577
1772642756730268400,2.610268310546875,4.99731962699294,1.2048042440623044,0.8831749467197805
1772642756740313300,2.620313232421875,5.471669077345728,1.0890126496724784,0.42116197697930036
1772642756750358300,2.630358154296875,6.066328914687037,0.960586322376132,0.3692991032730788
1772642756760403500,2.640403564453125,6.568054447743296,0.8428492930069565,0.44074024541340767
1772642756770448400,2.650448486328125,7.161285713586211,0.7662662579335272,0.3093947427347302
1772642756780493600,2.66049365234375,7.784011369460821,0.7517689460255205,0.06179441206865012
1772642756790538200,2.670538330078125,8.258011860245466,0.6915156989842652,-0.12136574126034974
1772642756800583400,2.68058349609375,8.394212474805116,0.636083588489145,-0.2642169728156179
1772642756810628400,2.69062841796875,8.375632862019538,0.6951614350754767,-0.3130439128920436
1772642756820673500,2.700673583984375,8.201974915724993,0.8046202462472021,-0.29909627075605094
1772642756830718200,2.71071826171875,7.8469696376770735,0.9322549847744405,-0.2842765950258821
1772642756840763400,2.720763427734375,7.4804703211903565,1.036674705800414,-0.24951982748657464
1772642756850808300,2.730808349609375,7.249508186918496,1.121276212156564,-0.23589725258648395
1772642756860853500,2.740853515625,7.1340762196213,1.307218032093346,-0.31106421031691134
1772642756870898400,2.7508984375,6.975519396346807,1.5379150856882333,-0.3173435097821057
1772642756880943400,2.760943359375,6.6791650447100395,1.593979210476577,-0.23916706803739068
1772642756890988300,2.77098828125,6.405151119697093,1.6459500746019184,-0.2333903843320906
1772642756901033500,2.781033447265625,6.038434361067414,1.7464697194494305,-0.12753613699097185
1772642756911078400,2.791078369140625,5.4645390793353315,1.5065417500421403,0.36972668103538453
1772642756921123600,2.80112353515625,5.021706464752555,0.9861457110464572,0.7987472625605762
1772642756931168300,2.811168212890625,5.128357744222879,0.46645080605745315,0.790928916959837
1772642756941213400,2.82121337890625,5.576524705570936,-0.014581629190593958,0.5239284509055316
1772642756951258400,2.83125830078125,5.7584314247727395,-0.6296801511876284,0.22510617478527128
1772642756961303600,2.841303466796875,5.41403755711019,-0.721611854301393,-0.27393611053638156
1772642756971348200,2.85134814453125,3.919717282998562,-0.19203093059211968,-0.6784366563763469
1772642756981393400,2.861393310546875,1.4179507356584071,-0.015382716440409422,-0.33480529751889404
1772642756991438300,2.871438232421875,-1.2356886271476746,-0.14476502928733825,0.6504530362337827
1772642757001483500,2.8814833984375,-2.9666449895143505,-0.09753069216459989,1.2136283326394854
1772642757011528400,2.891528564453125,-3.3884991134762763,-0.019925474436581134,0.987992873283103
1772642757021573400,2.901573486328125,-2.7777058874577283,-0.0675352207429707,-0.1880635978637263
1772642757031618300,2.911618408203125,-2.089074803999066,-0.37700726649761196,-1.747943445263803
1772642757041663500,2.92166357421875,-1.7880565522044896,-0.996307770229131,-2.9095716876834627
1772642757051708400,2.93170849609375,-2.2628999235540626,-1.312914636299759,-3.084016692702472
1772642757061753600,2.941753662109375,-3.4458792892992496,-1.2060470837302506,-2.4408926841825247
1772642757071798300,2.95179833984375,-4.627154773736,-0.9247339416198432,-1.7045114230334757
1772642757081843500,2.961843505859375,-5.6539609964728355,-0.4713324406191706,-1.1104700829166918
1772642757091888400,2.971888427734375,-6.788373607447743,0.08762282693870366,-0.34661505084335803
1772642757101933600,2.98193359375,-7.93194450739026,0.49000459052640943,0.6834027543511241
1772642757111978200,2.991978271484375,-9.079811058700084,0.45434985123407096,1.6029956067554652
1772642757122022400,3.0020224609375,-10.002055667722225,0.09249710017787292,1.6864099491536617
1772642757132067300,3.0120673828125,-10.85804472054839,-0.1720257602491416,0.827436035297811
1772642757142112500,3.022112548828125,-11.437120035266876,-0.16650305130491033,-0.21825471972161903
1772642757152157200,3.0321572265625,-11.60567042928934,0.003150746515346691,-0.9282976254507899
1772642757162202400,3.042202392578125,-11.543877113199233,0.4344460771726444,-1.1430074208408594
1772642757172247300,3.052247314453125,-11.436837126672268,0.7690100767489523,-0.8032428204141556
1772642757182292000,3.0622919921875,-11.286439644455909,1.061602153242752,-0.3374093060048297
1772642757192337200,3.072337158203125,-11.07177398046851,1.1313296963982284,0.13515069451476447
1772642757202382000,3.082382080078125,-10.597204165363312,0.8229237455051391,0.48962333612386133
1772642757212427000,3.092427001953125,-9.747947051140665,0.3399627898799255,0.5436929260941222
1772642757222472000,3.102471923828125,-8.7520252114892,-0.06530841153897345,0.3824865016262978
1772642757232517000,3.11251708984375,-7.516237215620279,-0.4831555648818612,0.32680662691518664
1772642757242562000,3.12256201171875,-6.123479957929253,-0.7989280259549617,0.2958578368240967
1772642757252607000,3.13260693359375,-4.835615153342485,-1.0681355735994875,0.36345465156119316
1772642757262652000,3.14265185546875,-3.5984032621502875,-1.3348136027663946,0.5327997396253049
1772642757272697000,3.152697021484375,-2.3892174420028924,-1.5228019799694419,0.849361524445191
1772642757282742000,3.162741943359375,-1.0627332761645316,-1.3247785309642552,1.200714198269695
1772642757292787200,3.172787109375,0.32072599182724953,-0.7692880169074982,1.4191840768456458
1772642757302831900,3.182831787109375,1.7066525267153978,-0.09691365624479949,1.5012597179859877
1772642757312877000,3.192876953125,2.946977581492066,0.2405347031287849,1.4207564407289028
1772642757322922000,3.202921875,3.9069863962411877,0.2230162898339331,1.0253743633028118
1772642757332967200,3.21296728515625,4.22393929927051,0.17319171702228486,0.316639051307179
1772642757343012000,3.22301220703125,3.957199164652824,0.289363177575171,-0.14603442816864698
1772642757353057000,3.23305712890625,3.7007320022463794,0.5882219132483005,-0.20843086125105617
1772642757363102000,3.24310205078125,3.7965100055247545,1.0871324619490652,-0.09129406279735267
1772642757373147100,3.253147216796875,3.965286024996638,1.8542315905101596,0.2493197018045932
1772642757383192000,3.263192138671875,4.012339452594518,2.484949268051982,0.9415401149921119
1772642757393237000,3.273237060546875,3.8888387451320883,2.856601729518175,1.7612728824362158
1772642757403282000,3.283281982421875,3.661842007359862,2.982530248649418,2.462024319538474
1772642757413327000,3.2933271484375,3.6338200279682873,2.8258935797825453,2.7417405478462573
1772642757423372000,3.3033720703125,4.087600153023004,2.497297000710666,2.765373352368176
1772642757433417000,3.3134169921875,4.734024079871177,1.952752608886361,2.5513024394035337
1772642757443462000,3.3234619140625,5.532514298930764,1.4434090020418167,2.259808241149038
1772642757453507000,3.333507080078125,6.444870551145076,1.0186791034478693,2.012362151196599
1772642757463552000,3.343552001953125,7.224649639993905,0.5512279612414539,1.7996183951824902
1772642757473597000,3.353596923828125,7.8755720473051065,0.2767452496729791,1.4338611292347312
1772642757483641900,3.363641845703125,8.258363157901167,0.006231076409295201,1.032747741615027
1772642757493687000,3.37368701171875,8.364329962238669,-0.2721249694611877,0.6783169024541974
1772642757503732000,3.38373193359375,8.285885371077061,-0.4014497069019824,0.28593875608444214
1772642757513777000,3.39377685546875,8.15459006421566,-0.41424036102257666,-0.08808774103671312
1772642757523822000,3.403822021484375,8.011556388765573,-0.385525650126487,-0.40042518615983425
1772642757533867000,3.413866943359375,7.7878890876770015,-0.22669446689002215,-0.6567050823658704
1772642757543912000,3.423911865234375,7.334193718296289,0.07728365762345492,-0.7860697134256363
1772642757553956900,3.433956787109375,6.830515882128477,0.4619358128510415,-0.7589220326505601
1772642757564002000,3.444001953125,6.348055606034397,0.8714015068177133,-0.6891833105139434
1772642757574047000,3.454046875,5.865067506673932,1.2472624528244136,-0.6570810760714113
1772642757584092000,3.464091796875,5.370413519439101,1.3978482972197235,-0.49448023810312147
1772642757594136800,3.47413671875,5.168273575025797,1.2645413582749665,-0.39919644808247684
1772642757604182000,3.48418212890625,5.332864417767524,0.9922545493155718,-0.541546890508756
1772642757614227000,3.49422705078125,5.26610617274642,0.6173292036585509,-0.6184422064017504
1772642757624272000,3.50427197265625,4.921964818540215,0.07167918867990374,-0.42380240848548706
1772642757634316800,3.51431689453125,4.746499530562758,-0.60716670608446,0.021285382879246025
1772642757644362000,3.524362060546875,5.088446005073189,-1.260329293537885,0.3199669901534915
1772642757654407000,3.534406982421875,5.451825728234648,-1.6225665686659514,0.19091884116437285
1772642757664452000,3.5444521484375,5.178852836707234,-1.685568237632513,-0.5062629572901874
1772642757674496800,3.554496826171875,3.4913346340507267,-1.3327991942040622,-1.1054840381324291
1772642757684542000,3.5645419921875,0.7801958529561758,-0.8174252211540937,-1.1665541545145213
1772642757694586000,3.574586181640625,-1.208370996633172,-0.6861892432644963,-0.5442631637301296
1772642757704631000,3.584631103515625,-1.6050713901162146,-0.480702472641319,-0.33605350748170165
1772642757714676000,3.594676025390625,-0.6462672749817371,-0.1714461154639721,-1.5185663882263003
1772642757724721000,3.604720947265625,-0.16402677911818025,-0.6618114655941725,-2.7500486497253176
1772642757734766000,3.61476611328125,-1.391973413836956,-1.3096148641020058,-2.7195862914443016
1772642757744811000,3.62481103515625,-3.073951518023014,-1.6594529686450958,-1.8033444299682975
1772642757754856000,3.63485595703125,-4.462607185614109,-1.0959268129751085,-0.9053189009234308
1772642757764900900,3.64490087890625,-5.818984385412931,-0.6060945468083023,-0.15198226718977093
1772642757774946000,3.654946044921875,-7.088192420324683,-0.6488008851125836,0.39311826067995276
1772642757784991000,3.664990966796875,-8.02819714244306,-0.6613575843468308,0.6032058396294713
1772642757795036200,3.6750361328125,-9.069284988510608,-0.45416021041348575,0.4641284275244921
1772642757805080800,3.685080810546875,-10.446768104702233,-0.24235928820744154,0.19286054981667547
1772642757815126000,3.6951259765625,-12.34014556455612,-0.12608487873673438,-0.00044964346364140506
1772642757825171000,3.7051708984375,-14.453376904690264,-0.0876913621302694,-0.23120503964964298
1772642757835216100,3.715216064453125,-15.989729563367366,-0.10923486622273922,-0.5761764514718204
1772642757845261000,3.725260986328125,-16.381085673213004,-0.09105309364832938,-0.9101481477107852
1772642757855306000,3.735305908203125,-15.842176364666223,-0.013241905019432305,-1.0359422268074006
1772642757865351000,3.745350830078125,-15.018027388215064,0.1629812886532396,-1.163019404517114
1772642757875396000,3.75539599609375,-14.588714764940738,0.4747128768377006,-1.236577392680943
1772642757885441000,3.76544091796875,-14.33564718184471,0.6883399915575981,-0.8289408869028091
1772642757895486000,3.77548583984375,-13.58882460618019,0.7106836330518126,-0.028731077509000894
1772642757905531000,3.78553076171875,-11.946263151103258,0.3984954602062702,0.4518043680023402
1772642757915576000,3.795576171875,-9.667403441873192,-0.20133754198923706,0.601601801966317
1772642757925621000,3.80562109375,-7.247773325949907,-0.8015691881135105,0.5958038197446615
1772642757935666200,3.815666259765625,-4.898498018234968,-1.3524115110382438,0.37754780311509967
1772642757945710800,3.8257109375,-2.779853420880437,-1.9796300944179295,-0.09229962311070412
1772642757955756000,3.835756103515625,-1.1615338421344756,-2.3366544572032986,-0.19422471430934965
1772642757965801000,3.845801025390625,0.10096855765879154,-2.4662106653124094,0.6503811400413513
1772642757975846100,3.85584619140625,1.0540122095704079,-2.4650875065013764,2.155701385464519
1772642757985890800,3.865890869140625,1.7908973285883665,-2.2151734190002084,3.372247943638265
1772642757995936000,3.87593603515625,2.2669284484177825,-1.7667171193167566,3.6786245075955986
1772642758005981000,3.88598095703125,2.411202479317784,-1.2313579044669867,3.3686326757505536
1772642758016026000,3.896026123046875,2.487956633174419,-0.7505740371525287,2.9923040391668674
1772642758026071000,3.906071044921875,2.664844062909484,-0.38427316584736104,2.575278942796588
1772642758036116000,3.916115966796875,3.312056509786844,0.05836582585945725,2.099172419643402
1772642758046161000,3.926160888671875,4.167638150855899,0.49434302158951754,1.7642971986934541
1772642758056206000,3.9362060546875,4.842143678328394,0.9065982732094824,1.2355287604108451
1772642758066251000,3.9462509765625,5.196245285534858,1.5666985509715974,0.5119887145258486
1772642758076296200,3.956296142578125,5.0930502839982505,2.410849574226886,0.15227131326422094
1772642758086340900,3.9663408203125,4.828267128667235,3.135436791077256,0.4464538738198578
1772642758096386000,3.976385986328125,4.718171846222877,3.5432603438600894,0.7544739672005176
1772642758106431000,3.986430908203125,4.820142274400592,3.92502678758353,0.9446297515705228
1772642758116476200,3.99647607421875,5.148035673639178,4.030910589812696,1.0275483463410287
1772642758126520800,4.006520751953125,5.7486570497334,3.6953023784130807,0.9906282632879913
1772642758136566000,4.01656591796875,6.750914522147179,3.175596367508173,0.7814904958765954
1772642758146611000,4.02661083984375,7.956112733963131,2.6622002704024315,0.5048829741738736
1772642758156656000,4.03665625,9.116975544968247,1.91639622413069,0.16956092277187854
1772642758166701000,4.046701171875,10.045953261637687,1.225333237349987,-0.2984954187860712
1772642758176746000,4.05674609375,10.441545986139774,0.6929851870149374,-0.8771969682887196
1772642758186792000,4.0667919921875,10.316875650376081,0.34502895069569345,-1.2606538493171333
1772642758196836900,4.0768369140625,9.926000017523766,0.2647141817480326,-1.1952545446243137
1772642758206881800,4.0868818359375,9.371348365443945,0.2838572736352682,-1.0187667817313224
1772642758216926700,4.0969267578125,8.87007759041786,0.5398243775650858,-0.9018544396832585
1772642758226971000,4.106970947265625,8.598285433107614,0.8225166990742087,-0.8088331877671182
1772642758237016000,4.11701611328125,8.46546686220169,0.9602432080268859,-0.7882252109590917
1772642758247060700,4.127060791015625,8.253599304500222,1.1392767098799348,-0.7970370976418256
1772642758257106000,4.13710595703125,7.863470106101036,1.4186352107912301,-0.9859376212537289
1772642758267150800,4.14715087890625,7.309481886366009,1.933885995852947,-1.3209440673679114
1772642758277196000,4.157196044921875,6.526788955897093,2.5349118610948325,-1.583717928703129
1772642758287240700,4.16724072265625,5.789539679741859,3.1325612356409427,-1.674922632716596
1772642758297286000,4.177285888671875,5.208936424803733,3.6894697267368435,-1.5160348239220678
1772642758307330800,4.187330810546875,4.817036125078797,4.140200985614955,-1.1307995350442825
1772642758317376000,4.1973759765625,4.603554117918014,4.248048196871578,-0.5234746792560443
1772642758327421000,4.2074208984375,4.54759374576509,3.697909346041083,0.01406642794376239
1772642758337465900,4.2174658203125,4.8978784250319,2.909854596278071,-0.006179748080857098
1772642758347510800,4.2275107421875,5.408697365126013,1.8208225112527607,-0.3008105455943383
1772642758357556000,4.237555908203125,5.78955663087666,0.49149084702879187,-0.43239524559006093
1772642758367601000,4.247600830078125,5.916099774774909,-0.39453035596758124,-0.7833218760222196
1772642758377646000,4.25764599609375,4.894499888509512,-0.6612927024170756,-0.9838329040594398
1772642758387690800,4.267690673828125,2.950004820358753,-1.4698013344049452,-0.010245737144444137
1772642758397736000,4.27773583984375,2.5882056443870067,-1.1865890806749462,0.4834805590525269
1772642758407780900,4.28778076171875,2.307773669025302,0.3973632413059473,0.2918490761067718
1772642758417826000,4.297825927734375,0.24722528680860995,0.8750280998170376,0.9982911260660737
1772642758427870700,4.30787060546875,-2.5877619922727346,-0.2132350466623902,1.8105222126431761
1772642758437916000,4.317916015625,-4.298153120994567,-0.7829115416556597,0.9008265579402446
1772642758447960800,4.3279609375,-5.333204024985433,-0.7607970327422022,-0.7226524493955075
1772642758458006000,4.338006103515625,-6.354850088480115,-0.7962132140383124,-1.1346006808929145
1772642758468051000,4.348051025390625,-7.296278121399879,-0.8372212239921093,-0.46213097009696064
1772642758478096000,4.358095947265625,-7.7665248126089566,-1.0213771834254264,0.22349077547788618
1772642758488140800,4.368140869140625,-8.049394244250655,-0.9413106901504099,0.334266003010422
1772642758498186000,4.37818603515625,-8.745933908876776,-0.5841868125133216,0.2383215753902681
1772642758508231000,4.38823095703125,-9.89346319105625,-0.5621878928035497,0.40173020434379575
1772642758518275800,4.39827587890625,-10.997966401457786,-0.7418455179043114,0.6117508920695632
1772642758528320800,4.40832080078125,-11.798321829867362,-0.9404029276557266,0.3847208730822429
1772642758538366000,4.418365966796875,-12.400571099424361,-1.1442419310718774,-0.30978761450983583
1772642758548411000,4.428410888671875,-13.11382575200796,-1.3915762312129139,-0.986275913297385
1772642758558456000,4.4384560546875,-13.411950620448588,-1.6038606991522013,-1.4514704356834291
1772642758568500700,4.448500732421875,-13.348532333505153,-1.6976693020537494,-1.801048281855136
1772642758578546000,4.4585458984375,-12.993208491027355,-1.6193747868873178,-1.8730678084053098
1772642758588590800,4.4685908203125,-12.38884559031725,-1.3922460932984948,-1.404557439469546
1772642758598636000,4.478635986328125,-11.517165631884335,-1.1615382260486482,-0.7003481169983744
1772642758608681000,4.488680908203125,-10.360510209441184,-0.9955535908609628,-0.045459107611142094
1772642758618726000,4.498725830078125,-9.082569417497515,-0.936626477856934,0.40927590701561417
1772642758628770800,4.508770751953125,-7.937248459017276,-0.8389452713057398,0.6079866806978359
1772642758638816000,4.51881591796875,-6.938651262676715,-0.7161011280559003,0.7261258976597339
1772642758648861000,4.52886083984375,-5.84308130031526,-0.5569212044470012,0.9053600366514175
1772642758658905900,4.53890576171875,-4.681832704862952,-0.40273894299492236,1.097266464081034
1772642758668950800,4.54895068359375,-3.572166997131705,-0.3208313518978655,1.342485160307586
1772642758678996000,4.558995849609375,-2.621674198746681,-0.32297990823388095,1.7171683677718041
1772642758689041000,4.569041015625,-1.5907167015492916,-0.3527661208190024,2.1051351274400947
1772642758699085800,4.5790859375,-0.5848515600323677,-0.4130921408355236,2.254180318264663
1772642758709130800,4.589130859375,0.28815701665580273,-0.44885684330835934,2.3127280765622853
1772642758719176000,4.599176025390625,1.097992221072316,-0.4244267509289086,2.420677286888659
1772642758729220900,4.609220947265625,2.013046041807532,-0.45219154068902134,2.429071605746448
1772642758739265800,4.619265869140625,2.9414111795365807,-0.6354375456705689,2.07755665403232
1772642758749311000,4.62931103515625,3.7469489790201185,-0.8704149069331586,1.6441687441430985
1772642758759356000,4.63935595703125,4.3167245504736895,-0.9380611868351697,1.1654274155069142
1772642758769399800,4.64939990234375,4.505502909010649,-0.8217696800991893,0.5309150949224829
1772642758779445000,4.659445068359375,4.461039497905969,-0.5253764577567577,-0.10961560916863382
1772642758789489700,4.66948974609375,4.293004652190208,-0.03577390869259834,-0.4781663052272051
1772642758799534800,4.679534912109375,4.22394105283618,0.3849734230712056,-0.6222957400247454
1772642758809579800,4.689579833984375,4.384460116094351,0.8845568295322358,-0.5135681657370179
1772642758819625000,4.699625,4.629216382440925,1.4161822646811604,0.06654562518373132
1772642758829670000,4.709669921875,4.981111419513821,1.865358695332706,0.8857611638206988
1772642758839714800,4.71971484375,5.3510933174192905,2.217835623946786,1.5756871824607253
1772642758849759700,4.729759765625,5.791075218746066,2.435946898343414,1.9083055643945932
1772642758859805000,4.739804931640625,6.397057829612493,2.441421676492691,1.7886024956494568
1772642758869849900,4.749849853515625,7.039996836954355,2.3758824518725277,1.311875210249424
1772642758879895000,4.75989501953125,7.45549311632216,2.159850906359404,0.6962441157456487
1772642758889939700,4.769939697265625,7.888633188930154,1.928750094269216,0.017585779442638158
1772642758899985000,4.77998486328125,8.193590533739329,1.7275022763900458,-0.4406168382294476
1772642758910029800,4.79002978515625,8.371885492184758,1.6804983870223165,-0.6502949961278587
1772642758920075000,4.800074951171875,8.426984863594173,1.7370780601173639,-0.6931953226342797
1772642758930119700,4.81011962890625,8.440930971360206,1.7566314863711594,-0.5810714569717645
1772642758940164900,4.820164794921875,8.473067400333285,1.741876108048856,-0.5258949286729097
1772642758950209800,4.830209716796875,8.466448858976364,1.7660286986611782,-0.672216758948192
1772642758960255000,4.8402548828125,8.24599116758406,1.8056793026566504,-0.7814245910335331
1772642758970300000,4.8502998046875,7.838608636566996,1.7109461322560906,-0.6883616188675165
1772642758980344800,4.8603447265625,7.357013452869653,1.5123818543724714,-0.49154126204177734
1772642758990389800,4.8703896484375,7.061196861371397,1.4275640749171374,-0.3731795614356175
1772642759000435000,4.88043505859375,6.754060418957471,1.466032629521191,-0.36439478195551783
1772642759010479900,4.89047998046875,6.310092078343033,1.5760542622074485,-0.4405144738335162
1772642759020524800,4.90052490234375,5.720443347162008,1.6235060414731501,-0.4740433800783008
1772642759030569700,4.91056982421875,5.085078574466705,1.4958888386026024,-0.39400322682093825
1772642759040615000,4.920614990234375,4.5099388456314795,1.0457418093532322,-0.10833081178879364
1772642759050659800,4.930659912109375,4.297985947734118,0.11708864846304058,0.342427426427789
1772642759060705000,4.940705078125,4.878399817579984,-0.8480230423830449,0.7676230063047259
1772642759070749700,4.950749755859375,5.597688489630818,-1.4707896147899329,0.7988581755891442
1772642759080795000,4.960794921875,5.1900177893221375,-1.4300047460675238,0.3202509947266429
1772642759090839800,4.97083984375,3.015710925978422,-0.8768041695788502,-0.09633324427464976
1772642759100885000,4.980885009765625,-0.25760464200377464,-0.9570220540232955,0.27110987413451076
1772642759110930000,4.990929931640625,-2.5760236236840486,-1.4427251114308832,0.8137164297640324
1772642759120974800,5.000974853515625,-2.348198033872247,-0.5684544058524071,0.33134273597486313
1772642759131019800,5.011019775390625,-1.7354057429909706,0.5276106465496122,-0.5866812596775591
1772642759141065000,5.02106494140625,-2.343265838167071,0.3617956688404083,-0.6707168757792562
1772642759151110000,5.03110986328125,-2.995268441930413,-0.5021553027756512,-0.33509361294098194
1772642759161154800,5.04115478515625,-2.812837406593561,-1.0134187717668712,-0.1662418978843838
1772642759171199700,5.05119970703125,-2.6115035178661343,-1.2135951610222457,-0.034241114201326854
1772642759181245000,5.061244873046875,-3.099891430443525,-1.2896119405150412,-0.014059395414777099
1772642759191290000,5.0712900390625,-4.348247231462597,-1.2836970173828304,-0.19569416580740362
1772642759201335300,5.081335205078125,-5.59956889654994,-1.305644937557727,-0.4945782551174983
1772642759211380000,5.0913798828125,-6.652562284466624,-1.1003080967992545,-0.7354359431229531
1772642759221425200,5.101425048828125,-7.556381009960174,-0.8229258643969893,-0.6930001653883606
1772642759231470000,5.111469970703125,-8.028393541797994,-0.8385521803349256,-0.19551435226108876
1772642759241515300,5.121515380859375,-8.163156232509017,-0.846549097372964,0.3901628449404612
1772642759251559000,5.131558837890625,-8.280569729012251,-0.9745612909104674,0.8246309878144413
1772642759261604000,5.14160400390625,-8.528614515510201,-1.0941120917033405,0.7827157268226146
1772642759271649000,5.15164892578125,-9.013844256317615,-1.0020143113076687,0.23451927876416592
1772642759281694200,5.161694091796875,-9.777564190769194,-0.7756290564972906,-0.1394477067220956
1772642759291739000,5.17173876953125,-10.491307503652571,-0.42612131641972806,-0.24192440392151474
1772642759301784000,5.1817841796875,-10.782577099370956,-0.44066243093684315,-0.00374620079100132
1772642759311829000,5.1918291015625,-10.459188025814294,-0.6441987250793725,0.26162834456190465
1772642759321874200,5.201874267578125,-9.558326981082558,-0.9314357773460448,0.3361711790446192
1772642759331919000,5.211919189453125,-8.814887618115543,-1.2584338351801037,0.3547355942610651
1772642759341964000,5.221964111328125,-8.336487431067228,-1.5639467680454253,0.4210015987858176
1772642759352009000,5.232009033203125,-7.973836606702208,-1.627822881758958,0.4737276651926338
1772642759362054100,5.24205419921875,-7.821202743735909,-1.3901608114570378,0.6027632834937423
1772642759372099000,5.25209912109375,-7.914405928090214,-1.0059582266278564,0.8098729791436344
1772642759382144300,5.262144287109375,-7.946057788416743,-0.5347433114411309,1.0682049855738878
1772642759392189000,5.27218896484375,-7.699446834114194,-0.12339969477336853,1.194894259944558
1772642759402234000,5.282234130859375,-7.311300333964824,0.14361472674105316,1.2681642249472438
1772642759412279000,5.292279052734375,-6.912713103821873,0.27662202515210954,1.372814978250116
1772642759422324200,5.30232421875,-6.504025919947027,0.3099007194954902,1.4886669245250521
1772642759432369000,5.312368896484375,-6.152743461814523,0.3341201647989452,1.4900991492852569
1772642759442414000,5.3224140625,-5.5948652489036315,0.3499080279741436,1.4320499881595372
1772642759452459000,5.332458984375,-4.615903311881422,0.16549422132223843,1.5071211573652923
1772642759462504200,5.342504150390625,-3.3881817180901765,-0.2601122409105301,1.4350573532819748
1772642759472549000,5.352549072265625,-2.031483615773916,-0.8200976552337408,1.4156351521924138
1772642759482594000,5.362593994140625,-0.5944476558953523,-1.3902750854864716,1.509048326035589
1772642759492639000,5.372638916015625,0.9582055647194385,-1.7017071792677043,1.338163059324771
1772642759502684200,5.38268408203125,2.473764441692829,-1.680487865628302,0.9299037454731762
1772642759512729000,5.39272900390625,3.975627386268973,-1.6137921644493936,0.5161098861090838
1772642759522774300,5.402774169921875,5.271267501032352,-1.4323120000965892,0.1798361965380609
1772642759532819000,5.41281884765625,5.9191924800932405,-1.0355341574631631,-0.20303981586247682
1772642759542864100,5.422864013671875,6.045894029423594,-0.36615196435377,-0.31966508459746834
1772642759552909000,5.432908935546875,5.972075344496965,0.292969969895482,-0.03349412719234824
1772642759562954200,5.442954345703125,6.1201277248919,0.8000554225496948,0.37902635123506184
1772642759572999000,5.4529990234375,6.6224032930463546,1.3479083544000983,0.6778272192411124
1772642759583044000,5.463044189453125,7.143620293036103,1.794938566803187,0.7801211802847683
1772642759593089000,5.473089111328125,7.468627323183417,2.0867482607476413,0.7392153155311941
1772642759603134200,5.48313427734375,7.639177366590499,2.376952857583016,0.6490737107045949
1772642759613179100,5.49317919921875,8.014225900235772,2.612359257912636,0.49399055489003657
1772642759623224000,5.50322412109375,8.678107157841325,2.6353122634768487,0.3264957343351096
1772642759633269000,5.51326904296875,9.307356078004837,2.596063956671953,0.3275566415648907
1772642759643314200,5.523314208984375,9.806551800322532,2.508369306606054,0.4344391725078225
1772642759653359000,5.533359130859375,10.05885249069929,2.3806439671859145,0.38249008182287214
1772642759663404000,5.543404052734375,9.945483301150798,2.3605023657806217,0.19498137789554892
1772642759673449000,5.553448974609375,9.555554009237884,2.3679640799634156,0.10992504044398665
1772642759683494100,5.563494140625,9.066636519828439,2.3074250017181037,-0.05192687885314226
1772642759693539000,5.5735390625,8.45094149324298,2.346030626705289,-0.31840193279385565
1772642759703584300,5.583584228515625,7.665572621563077,2.521086749359965,-0.5258430523552
1772642759713629000,5.59362890625,6.894884601664542,2.7297558032810687,-0.6021713820151985
1772642759723674000,5.603674072265625,6.200679517465829,2.925228106498718,-0.634413828646019
1772642759733718300,5.61371826171875,5.695145824298263,3.1222023387119173,-0.5944342118918895
1772642759743763200,5.62376318359375,5.373266570782661,3.27777576226145,-0.4429373170662671
1772642759753808100,5.63380810546875,5.256782464084029,3.2461487441152332,-0.291110605764389
1772642759763853000,5.64385302734375,5.210964131239057,3.1275992293193933,-0.05061068168804049
1772642759773898200,5.653898193359375,4.903725982016325,2.811466702762246,0.280756092749536
1772642759783943200,5.663943115234375,4.584703871497512,2.29579360063523,0.5245924677722156
1772642759793988000,5.673988037109375,4.535784650027751,1.7947753390654921,0.6346482949890196
1772642759804033000,5.684032958984375,5.129595761585235,1.217889643345773,0.603623042128235
1772642759814078200,5.694078125,5.79155277312994,0.6737579239755869,0.535211915333569
1772642759824123100,5.704123046875,5.732810076782107,0.17207389197349549,0.6228951672226191
1772642759834168300,5.714168212890625,4.684547809040546,-0.4031196128755808,0.790625330903381
1772642759844213000,5.724212890625,3.569520866537094,-0.5494806791827083,0.5436361178729683
1772642759854258200,5.734258056640625,1.6774334464937448,-0.036919571596384045,-0.19285170892309397
1772642759864303000,5.74430322265625,-1.5230004251509903,0.22447890973240137,-0.13338687231317162
1772642759874348300,5.754348388671875,-4.448482214149832,-0.02166881097257137,0.5908844835210592
1772642759884393200,5.764393310546875,-5.2345928441077465,-0.09013707478195428,0.7350887371204793
1772642759894438100,5.774438232421875,-4.229402240851521,0.1775125758960843,0.05193086090851575
1772642759904483000,5.784483154296875,-3.7409658129572865,-0.3391667806640267,-0.2741919484609738
1772642759914528300,5.7945283203125,-4.093158371672034,-0.9108765350505709,-0.2091702449088916
1772642759924573200,5.8045732421875,-4.931834470647573,-0.8677741831660271,-0.30220629253536463
1772642759934618000,5.8146181640625,-6.1207058170408,-0.5854910269796848,-0.270491340377368
1772642759944663000,5.8246630859375,-7.1636623795896766,-0.2964659953176975,-0.2292256658680737
1772642759954708200,5.834708251953125,-7.925348177865147,-0.2986220043078065,-0.09082732206843792
1772642759964753200,5.844753173828125,-8.43158037469089,-0.7518522403948008,0.07713913458622991
1772642759974798000,5.854798095703125,-8.38476835463345,-1.2821600170738994,-0.021267828956246376
1772642759984843000,5.864843017578125,-8.366409691122174,-1.390737880692631,-0.38795769957900045
1772642759994888200,5.87488818359375,-8.721126215356588,-1.4066374606139957,-0.7607855615001171
1772642760004933000,5.88493310546875,-9.62182768561244,-1.1687713921725749,-1.0312705086693168
1772642760014978000,5.89497802734375,-10.790765082001686,-0.8353519229888916,-1.2239485049933194
1772642760025023200,5.905023193359375,-11.800082409799098,-0.7043659743376076,-1.1742342606883496
1772642760035068200,5.915068115234375,-12.116548406094312,-0.9421624846741556,-1.0206175972297786
1772642760045113000,5.925113037109375,-10.94292431319356,-1.3520505687713622,-1.143668588163331
1772642760055158000,5.935157958984375,-8.810182801425457,-1.7344119096480308,-1.3873469230800866
1772642760065203200,5.945203125,-7.098972757536172,-1.856514586880803,-1.3497016675576567
1772642760075248000,5.955248046875,-6.116807640558481,-1.7257951802112161,-1.0198089111953974
1772642760085293000,5.96529296875,-5.929085513076186,-1.3648811165109276,-0.31562896094918247
1772642760095338000,5.975337890625,-6.000438684672117,-0.8986281711131334,0.27024996936954554
1772642760105383200,5.985383056640625,-5.994262626385688,-0.579021977096051,0.5235543568961322
1772642760115428000,5.995427978515625,-5.921940317496657,-0.4885432492695749,0.596509629926458
1772642760125473000,6.00547314453125,-5.4868035181134935,-0.5265976701147854,0.5311218695409595
1772642760135518000,6.01551806640625,-4.8319256511747835,-0.612379472296685,0.48142296893559394
1772642760145563100,6.025563232421875,-4.006106111162901,-0.6994473687663674,0.5276288397934288
1772642760155608000,6.035608154296875,-3.058786682116985,-0.7999996007092297,0.6600782851260155
1772642760165653000,6.045653076171875,-1.978702458178997,-0.9805258253380655,0.8548887634340673
1772642760175698000,6.055697998046875,-0.7043722579479217,-1.0108123886607587,1.1080072729997337
1772642760185740500,6.065740478515625,0.609836363685131,-0.8698017434708774,1.3688820227153597
1772642760195785500,6.075785400390625,1.6599211706787347,-0.6112440385259688,1.5794856979608536
1772642760205830700,6.08583056640625,2.3102567180126905,-0.26270971005782484,1.7228696481533348
1772642760215875300,6.095875244140625,2.7353081767112015,-0.04704202942103147,1.8439308535091579
1772642760225920500,6.10592041015625,3.1103111176490783,0.20436273502931,1.8833407806165516
1772642760235965400,6.11596533203125,3.230690478220582,0.5259555728189647,1.681187246069312
1772642760246010600,6.1260107421875,3.023521891990304,1.0058196949400007,1.3721611905165016
1772642760256055600,6.1360556640625,2.597110250854492,1.4872738627314566,1.1370578647866845
1772642760266100500,6.1461005859375,2.380072012516856,1.9030721937857566,0.9687870183579623
1772642760276145400,6.1561455078125,2.4687147570878265,2.0656525734879074,0.7255559157520532
1772642760286190600,6.166190673828125,2.8745827918887135,2.0476269413232804,0.39091552647128697
1772642760296235500,6.176235595703125,3.5779251222670077,1.9415420635640621,0.08901866521127522
1772642760306280400,6.186280517578125,4.541303121188283,1.6913498897738755,0.03796615803986787
1772642760316325400,6.196325439453125,5.660305981585383,1.3617803740166128,0.15219159909151495
1772642760326370600,6.20637060546875,6.618063218015432,1.1268174796707928,0.4096482839919626
1772642760336415500,6.21641552734375,7.315106155988573,1.0059313386209308,0.7519860228423029
1772642760346460700,6.226460693359375,7.64148856614232,0.9976520244449376,0.9325576209828257
1772642760356505300,6.23650537109375,7.64326025198996,0.994055753518641,1.115553304465115
1772642760366550500,6.246550537109375,7.573883933424949,0.8672785086035728,1.0805452655784784
1772642760376595500,6.256595458984375,7.583610377669334,0.6690282651051879,0.7974741738848388
1772642760386640600,6.266640625,7.706607811784743,0.5662802766837179,0.5598769855126738
1772642760396685300,6.276685302734375,7.872353669780492,0.608537409915775,0.5335828528270125
1772642760406730500,6.28673046875,7.82983671656847,0.6755486067846417,0.7904298083312808
1772642760416775400,6.296775390625,7.6208233792543405,0.8448194240361452,1.0933710640776901
1772642760426820600,6.306820556640625,7.227642392069101,1.1599883662581443,1.28093266723603
1772642760436865500,6.316865478515625,6.698795627853274,1.5220165286801755,1.2758876588061452
1772642760446910500,6.326910400390625,6.229059224253892,1.7888183303572236,1.1016782161086798
1772642760456955400,6.336955322265625,6.10166618552804,2.046202753739059,0.9151295893851668
1772642760467000600,6.34700048828125,6.224745452708006,2.1939671109728516,0.7102383735023439
1772642760477045500,6.35704541015625,6.453489326408505,2.328199348068982,0.5132047392521053
1772642760487090700,6.367090576171875,6.495019022148847,2.4617870036512612,0.4204345394875854
1772642760497135400,6.37713525390625,6.407350091046094,2.433573885601759,0.3449942447084933
1772642760507180500,6.3871806640625,6.19273352689743,2.3484935096874833,0.2471939418222755
1772642760517225500,6.3972255859375,5.833089483132958,2.1599033671990036,0.3042627136085182
1772642760527270700,6.407270751953125,5.729829599666595,1.5468196921557187,0.4764598666355014
1772642760537315300,6.4173154296875,6.302333134779333,0.8232146182104945,0.3771311120729893
1772642760547360500,6.427360595703125,7.145676056522131,0.19509645564258096,-0.10374167563393712
1772642760557405400,6.437405517578125,7.429924959823489,-0.3669444299057126,-0.7317354081045836
1772642760567450600,6.44745068359375,6.398441392925381,-0.7583528544604777,-1.1737499843027441
1772642760577495600,6.45749560546875,4.431118406894803,-1.1172305900275707,-1.016132706900686
1772642760587540500,6.46754052734375,2.8219921884298325,-1.5978779714807867,-0.255693766881153
1772642760597585400,6.47758544921875,2.834527844876051,-1.7783984970211981,0.06270334360711276
1772642760607630600,6.487630615234375,2.4392969394236803,-1.3877116647392511,-0.1179339401807636
1772642760617675500,6.497675537109375,0.7250520578831434,-1.4103542891800402,0.3419150564588606
1772642760627719400,6.507719482421875,-1.0079004467368124,-1.6508011678948997,0.7087061954990029
1772642760637764400,6.517764404296875,-2.6733886038929224,-1.4059656988322733,0.27801088569462296
1772642760647809500,6.5278095703125,-4.325336311474442,-1.1947549976043403,-0.3252039774915203
1772642760657854500,6.5378544921875,-5.656397868230939,-1.2429141944870352,-0.714486678596586
1772642760667899400,6.5478994140625,-6.7388961675733325,-1.1180937827281654,-0.8942704873602837
1772642760677944300,6.5579443359375,-7.664027730208635,-0.9482998183853923,-0.8133866132877766
1772642760687989500,6.567989501953125,-8.37432177942097,-0.5916426814772189,-0.45910789594873785
1772642760698034400,6.578034423828125,-8.727921282324195,-0.4601448377810418,-0.12428170177228748
1772642760708079600,6.58807958984375,-8.659171571224928,-0.6267923207916319,0.003484627245366573
1772642760718124300,6.598124267578125,-8.648730256709456,-0.8651860663689672,0.22797961132973432
1772642760728169500,6.60816943359375,-8.672327405396103,-1.000586908853054,0.32390827512517567
1772642760738214400,6.61821435546875,-9.077414518952368,-0.7501796310074627,-0.03853387492522597
1772642760748259600,6.628259521484375,-10.469589008319378,-0.3753486856356263,-0.5289070430357009
1772642760758304500,6.638304443359375,-12.17045184571743,0.09169906340166926,-1.0289761871870606
1772642760768349400,6.648349365234375,-13.31905138747692,0.24733137753158807,-1.3526849211521446
1772642760778394400,6.658394287109375,-13.411860604077576,0.10347608350031078,-1.5433334574751556
1772642760788439600,6.668439453125,-12.342860084211825,-0.5325598664548248,-1.5318154536388813
1772642760798484500,6.678484375,-10.593539213114976,-1.1740475059445947,-1.1528161365412175
1772642760808529400,6.688529296875,-8.97390329107344,-1.6255940997935832,-0.7297871966462582
1772642760818574300,6.69857421875,-7.8437962683379645,-1.8956304994776845,-0.4932149674076587
1772642760828619500,6.70861962890625,-7.530358095431327,-1.9257105804428456,-0.25985483208335936
1772642760838664400,6.71866455078125,-7.46336078095734,-1.8268135683611035,-0.07834989861547946
1772642760848709600,6.728709716796875,-7.228938861620426,-1.668637268836796,0.06102240478284657
1772642760858754300,6.73875439453125,-6.892414412158727,-1.5840043444290757,0.26044497999623417
1772642760868799500,6.748799560546875,-6.5541884194761515,-1.4040795928247272,0.4683318705637008
1772642760878844400,6.758844482421875,-6.2642375051409,-1.1678515739139168,0.6701141606457531
1772642760888889600,6.7688896484375,-6.123991999104619,-0.9706778736058622,0.7158898233927786
1772642760898934300,6.778934326171875,-5.912136716362833,-0.7723324991699307,0.4845058835122734
1772642760908979500,6.7889794921875,-5.356323619288206,-0.6928742009211332,0.19930464792214334
1772642760919024400,6.7990244140625,-4.581339948022365,-0.5218260717988014,-0.08921141130439937
1772642760929069600,6.809069580078125,-3.6951106552332638,-0.4732995759736746,-0.10638166874870657
1772642760939114500,6.819114501953125,-2.4538281536012887,-0.43068676117174326,0.17897336916364728
1772642760949159400,6.829159423828125,-0.7565069343328475,-0.33475846270248294,0.5132582960702479
1772642760959204400,6.839204345703125,0.9335089303582906,-0.5510887719664722,0.7975166978523135
1772642760969249500,6.84924951171875,2.5485779828757047,-0.7717943006400019,1.0134205253325401
1772642760979294500,6.85929443359375,3.8334254854679104,-0.8052681156966834,1.061578626236692
1772642760989339600,6.869339599609375,4.592965503886342,-0.6600955285217612,1.0987341254808007
1772642760999384300,6.87938427734375,5.181380893880129,-0.7175704699561,1.2394639079026877
1772642761009429500,6.889429443359375,5.81478985633254,-0.9352082816220819,1.312951315048337
1772642761019474400,6.899474365234375,6.268045665252209,-1.4776318819001315,0.9537367487423122
1772642761029519600,6.90951953125,6.410503586640954,-1.7710305986016988,-0.1306936877064407
1772642761039563500,6.9195634765625,6.1492749089211225,-1.6052996459141373,-1.0736572596304117
1772642761049608400,6.9296083984375,5.854139285424352,-1.3840364833578467,-1.3432669583350418
1772642761059653600,6.939653564453125,5.872672720980644,-1.1418762248538434,-1.2032632982306182
1772642761069698600,6.949698486328125,6.36435207631886,-0.6540377628527582,-0.8895429473817348
1772642761079743500,6.959743408203125,7.2313985297322265,-0.21900427771359682,-0.5396838000506162
1772642761089788400,6.969788330078125,8.07726717056036,0.13158990589380262,-0.03592471534013748
1772642761099833600,6.97983349609375,8.866852198630571,0.4643612133670598,0.6213977682717144
1772642761109878500,6.98987841796875,9.628963528841734,0.7165582241736352,1.2962782665364443
1772642761119923700,6.999923828125,10.347101277291774,0.9002128099560737,1.8622760730169712
1772642761129968400,7.009968505859375,10.830343059152364,0.9097497229777276,2.0930760024644433
1772642761140013600,7.020013671875,10.993016670095919,0.9805693722188472,2.0579358616307375
1772642761150058500,7.03005859375,10.669967788279056,1.1182102487146854,1.9541434787228702
1772642761160103700,7.040103759765625,9.864634571456909,1.2801755652584135,1.7975848435282706
1772642761170148400,7.0501484375,8.622001239737868,1.5815360546194015,1.6476099706381557
1772642761180193500,7.060193603515625,7.4976488350063555,1.8894148398332298,1.4314460309170185
1772642761190239200,7.0702392578125,6.665445146915316,2.1242169906593857,1.2610310120664536
1772642761200284000,7.080283935546875,5.959901507100462,2.3560021317519246,1.1547523653008043
1772642761210329000,7.0903291015625,5.361591915079951,2.6636756036520004,1.1258354828961192
1772642761220374000,7.1003740234375,4.965377259287238,2.928694905826449,1.2226201789990068
1772642761230419200,7.110419189453125,4.816126024496555,3.0888363679438826,1.3537256623767315
1772642761240464100,7.120464111328125,4.657729360219836,3.1322599146068093,1.3868360509485005
1772642761250509000,7.130509033203125,4.3641316138148305,3.166051125049591,1.3279865332253276
1772642761260554000,7.140553955078125,3.91429291986227,3.2167326800167557,1.356015965270996
1772642761270599200,7.15059912109375,3.3058138160049912,3.236697609680891,1.5011195788629352
1772642761280644000,7.16064404296875,2.844607340341806,3.090833386979997,1.6378712514340876
1772642761290689000,7.17068896484375,2.964993715175986,2.7568466393023727,1.6018876455135642
1772642761300734000,7.18073388671875,3.414486956691742,2.3072695188954473,1.4175124903716145
1772642761310779100,7.190779052734375,3.6415725417912004,1.6460288389265536,1.1839673538692295
1772642761320824000,7.200823974609375,3.5953649173676965,0.6874047565340995,1.0494874256223439
1772642761330869200,7.210869140625,3.888597337591648,-0.35607802184596654,0.9909851139016449
1772642761340914000,7.220913818359375,3.7855695093154904,-1.1419019438169895,0.8167902842514216
1772642761350959000,7.230958984375,1.763066487854719,-1.062676869802177,-0.021729455118626353
1772642761361004000,7.241004150390625,-1.9101549916535614,-0.5666350814707577,-0.6433047719143331
1772642761371049200,7.25104931640625,-5.544118227484822,0.7621310578249394,-0.9430204166777432
1772642761381094100,7.26109423828125,-8.080988821431994,2.4616525636166333,-1.4927033404342829
1772642761391139000,7.27113916015625,-9.806530173012614,2.693609261883795,-1.5048187256418168
1772642761401184000,7.28118408203125,-10.973016669118405,2.124275588978827,-1.1164042222060262
1772642761411228200,7.291228271484375,-11.1549011764884,1.5823853649251163,-1.2362623353824018
1772642761421273000,7.301273193359375,-10.893992816764115,1.1838610439505428,-2.00605574452877
1772642761431318000,7.311318115234375,-11.132115344184637,0.8235822094138712,-2.5958465145289895
1772642761441363200,7.32136328125,-11.766002445542812,0.7764153845693915,-2.737286491046846
1772642761451408100,7.331408203125,-12.123914550948141,0.5936331246420741,-2.3579078192427754
1772642761461453300,7.341453369140625,-11.822625080996751,0.36374957938715813,-1.839246348954737
1772642761471498000,7.351498046875,-11.198889955818652,-0.22245010731853543,-1.3659531296566128
1772642761481543200,7.361543212890625,-10.239325962227582,-0.9984192824903875,-1.093463856927678
1772642761491588000,7.371588134765625,-9.683646720665692,-1.6952976044863461,-1.2040282912537454
1772642761501633300,7.38163330078125,-9.986916550779343,-1.9138415712118149,-1.4726483943991362
1772642761511678200,7.39167822265625,-10.731835923171042,-1.836109219972789,-1.7831731640771031
1772642761521723100,7.40172314453125,-11.47603399555087,-1.5430021796941755,-2.126492388245463
1772642761531768000,7.41176806640625,-11.913388470983504,-1.244410278263688,-2.279560697106272
1772642761541813200,7.421813232421875,-11.542200704419612,-1.1120103711612521,-2.016287800207734
1772642761551858200,7.431858154296875,-10.125291586768627,-1.1980970745738595,-1.474583892506361
1772642761561903000,7.441903076171875,-8.140633435055612,-1.3092208963483571,-0.749500124310702
1772642761571948000,7.451947998046875,-6.49115357889235,-1.3097137944318353,0.032444179747998715
1772642761581993200,7.4619931640625,-5.269416320207715,-1.4325013851888477,0.7923815269209444
1772642761592038100,7.4720380859375,-4.263147858586907,-1.27621864432618,1.3875357236504553
1772642761602083300,7.482083251953125,-3.4799025549322367,-0.99148385720402,1.7803370638683438
1772642761612128000,7.4921279296875,-2.695888604992628,-0.7959685916274786,2.158760919165611
1772642761622173200,7.502173095703125,-1.654493300411105,-0.6258702375106513,2.4012127079620957
1772642761632218000,7.512218017578125,-0.16397651023566723,-0.4363470519557595,2.5327181504428387
1772642761642263300,7.52226318359375,1.413247088012099,-0.3274276814229786,2.6441043494805694
1772642761652308000,7.532307861328125,2.6664947527259586,-0.2501959731824696,2.557989369821548
1772642761662353200,7.542353271484375,3.4617408752977847,-0.11092208865731953,2.390952302971482
1772642761672398000,7.552398193359375,4.022441744413972,0.02252791201993823,2.0776158368736506
1772642761682443300,7.562443359375,4.461752614611387,0.17475187901109457,1.5822892110742628
1772642761692488200,7.57248828125,4.718469367864728,0.4213690438587218,0.9337297335021197
1772642761702533000,7.582533203125,4.6543058155119414,0.6488293074894697,0.397149306294322
1772642761712578000,7.592578125,4.466530496537685,0.819035505894944,0.003205956434458494
1772642761722623200,7.602623291015625,4.320837246489525,0.9918604354314505,-0.05261982955336571
1772642761732668200,7.612668212890625,4.420184924948215,1.1203878850147126,0.17747516649514436
1772642761742713000,7.622713134765625,4.759869884267449,1.2383708519689738,0.5238404803611337
1772642761752758000,7.632758056640625,5.336511249837279,1.3997915402419865,0.9496313592500985
1772642761762803200,7.64280322265625,6.053931789928674,1.3659028607740997,1.2800875947140156
1772642761772848000,7.65284814453125,6.708712041711807,1.1899698822196572,1.2632896046482025
1772642761782893000,7.66289306640625,7.21693979626894,1.071911365811154,1.0081912463769316
1772642761792937000,7.67293701171875,7.652296375882625,0.9791391202200204,0.6644711863227188
1772642761802982100,7.682982177734375,7.952138569635152,0.9208157452628016,0.4397079066909849
1772642761813027000,7.693027099609375,7.99574565617144,0.9765341253533959,0.49594431930631394
1772642761823072300,7.703072265625,7.939127696892618,1.063276150869578,0.6626373950242996
1772642761833117000,7.713116943359375,7.854479574915766,1.2266054492428897,0.7854979048870503
1772642761843162000,7.723162109375,7.414146960455179,1.427476542764157,0.8321100184582173
1772642761853207000,7.73320703125,6.747626001995801,1.6796126902289688,0.7898603378802538
1772642761863252200,7.743252197265625,6.19978344540894,1.9016100122787056,0.7410670808777212
1772642761873297200,7.753297119140625,5.788270682719349,1.9555320104718208,0.5039429168447852
1772642761883342000,7.763342041015625,5.332454667922854,2.059004367645085,0.2244799326457083
1772642761893387000,7.773386962890625,4.8001574709922075,2.259429763225466,0.051490387132018804
1772642761903432200,7.78343212890625,4.138829989522695,2.447612640087306,0.021242109993100167
1772642761913477000,7.79347705078125,3.5436861680567264,2.5296950032293797,-0.03354994903281331
1772642761923522000,7.80352197265625,3.2323236323803664,2.657090380042791,-0.08069120104461908
1772642761933567000,7.81356689453125,3.1977088305950163,2.6518644620880485,0.0480379816558212
1772642761943612200,7.823612060546875,3.332614729169011,2.567601832297444,0.26550072901584204
1772642761953657000,7.833656982421875,3.282040141707659,2.4798005069866775,0.21865188407935202
1772642761963702300,7.843702392578125,2.6238234857350586,2.4559113896161318,0.10982859433218836
1772642761973747000,7.853746826171875,1.4105845908045769,2.104647490053624,0.1478862300477922
1772642761983792000,7.863792236328125,0.4742424828469753,1.5384252271674572,0.15795345055386423
1772642761993837000,7.873837158203125,0.3577794189363718,1.0096049125671387,-0.0882698926705867
1772642762003882200,7.88388232421875,-0.21088906805813312,-0.2253670907437801,-0.24457535682171583
1772642762013927200,7.89392724609375,0.15800328104496,-2.184674235840142,0.12866868468485773
1772642762023972000,7.90397216796875,2.6109885540813207,-1.435619955600798,-1.4371633856505155
1772642762034017000,7.91401708984375,1.3703040183424948,-0.4278250150650739,-1.932383920726925
1772642762044062200,7.924062255859375,-1.0057441454857587,-1.3614032112672925,0.3190705527704209
1772642762054107100,7.934107177734375,-1.5598428398579358,-1.5262855843015015,1.6903770992189644
1772642762064152000,7.944152099609375,-1.8342770361095666,-0.40253889037817714,1.3042887006431818
1772642762074197000,7.954197021484375,-2.7207284472167492,-0.13584844012111424,1.1708100583933294
1772642762084242200,7.9642421875,-4.206561463490128,-0.9771643860809505,1.8732884654186666
1772642762094287000,7.974287109375,-5.1024914815604685,-1.4468816465884446,2.4419410241916775
1772642762104332300,7.984332275390625,-4.859692779022455,-1.4106690542176366,2.0226525129340587
1772642762114377000,7.994376953125,-4.3796331343293184,-1.0588847840428353,0.9651937431063502
1772642762124422100,8.004422119140624,-4.9026300034731625,-0.9858316766612231,0.5115727176034823
1772642762134467000,8.014467041015624,-5.558191176500916,-1.0637139577649533,0.42643710437063126
1772642762144512300,8.02451220703125,-5.624342687800526,-1.1908017299339175,0.028527015437418594
1772642762154557000,8.034556884765625,-5.334501663580537,-1.2907758697278797,-0.7859370269566774
1772642762164601000,8.04460107421875,-5.174316946843266,-1.0673827094055712,-1.3705059706553815
1772642762174646000,8.05464599609375,-5.270855997622013,-0.8323379819951952,-1.4097902255564927
1772642762184691200,8.064691162109375,-5.631577899751067,-0.6697676852956413,-1.0789392916865645
1772642762194735600,8.074735595703125,-6.063742989847063,-0.4799569149710238,-0.7173743628621101
1772642762204780500,8.084780517578125,-6.261267549419403,-0.47780134437233207,-0.4455526506638154
1772642762214825700,8.09482568359375,-5.9168532234907145,-0.6791837484166026,-0.46240251704733815
1772642762224870700,8.10487060546875,-5.024985632553697,-0.9255243613451719,-0.6847035347513855
1772642762234915800,8.114915771484375,-3.9851141765385862,-1.1725929962873458,-0.8705344416595995
1772642762244960500,8.12496044921875,-3.2336627720296383,-1.2753797092840076,-0.898467573723942
1772642762255005700,8.135005615234375,-2.7082956666231155,-1.4572333831243216,-0.8491242816232144
1772642762265050600,8.145050537109375,-2.1994453962534664,-1.5258077376566825,-0.874491070330888
1772642762275095800,8.155095703125,-1.876727353826165,-1.4310580545127392,-0.6719111270651221
1772642762285140700,8.165140625,-1.5246265650480986,-1.2785700297579168,-0.186747218035534
1772642762295185700,8.175185546875,-0.971162661448121,-1.2636179598197341,0.40500502476338296
1772642762305230600,8.185230712890625,-0.31174948916733264,-1.0623179733619093,0.8608691530179232
1772642762315275800,8.19527587890625,0.18233458922505377,-0.9385643140517175,1.2109433313392102
1772642762325320700,8.20532080078125,0.44294718087315554,-0.8297356905423104,1.2833275995485485
1772642762335365600,8.21536572265625,0.5608142663627863,-0.6881672653391957,1.0400029003750533
1772642762345410600,8.22541064453125,0.4696884728044271,-0.5270170645706356,0.793241212490201
1772642762355455700,8.235455810546876,0.4088409131318331,-0.38320568274632094,0.6185468358200044
1772642762365500700,8.245500732421876,0.5679471869826317,-0.2982470335155725,0.5516901353931054
1772642762375545900,8.2555458984375,0.8216419620662927,-0.21139774823263285,0.5596759830478578
1772642762385590500,8.265590576171874,1.215215163439512,0.038778205075114966,0.5716338030735031
1772642762395635700,8.2756357421875,0.8266103981286287,0.4527699250988662,0.44626985902246086
1772642762405680600,8.2856806640625,-0.31581542343199254,0.7881498807005584,0.5079054638002067
1772642762415725800,8.295725830078124,-0.224688460829854,0.9110226655229926,0.6730046213902533
1772642762425770800,8.305770751953125,0.4579524423032999,1.0060679706126452,0.6028734658699483
1772642762435815700,8.315815673828125,0.9583931962460279,0.8378415478475392,0.40542752449177205
1772642762445860600,8.325860595703125,1.2812211287885904,0.6204656019881367,0.017171097694523633
1772642762455905800,8.33590576171875,1.545107043018937,0.5875222405463457,-0.31042580281551924
1772642762465950700,8.34595068359375,1.58710143366158,0.6488241198576986,-0.29870628505777563
1772642762475995600,8.35599560546875,1.471363176894188,0.7118664130955934,-0.13305281805321573
