time,seconds_elapsed,z,y,x
1772642754167542800,0.047542724609375,-0.82647705078125,-0.322265625,0.0142822265625
1772642754177587700,0.057587646484375,-0.810211181640625,-0.3074493408203125,-0.0048828125
1772642754187632000,0.067632080078125,-0.8008270263671875,-0.28778076171875,-0.0231781005859375
1772642754197677000,0.077677001953125,-0.7923736572265625,-0.26837158203125,-0.0398101806640625
1772642754207722200,0.08772216796875,-0.7989959716796875,-0.250091552734375,-0.0519866943359375
1772642754217767000,0.097766845703125,-0.8073272705078125,-0.232177734375,-0.06280517578125
1772642754227812000,0.10781201171875,-0.820159912109375,-0.21282958984375,-0.0714111328125
1772642754237857000,0.11785693359375,-0.8394317626953125,-0.1914215087890625,-0.0716705322265625
1772642754247902200,0.127902099609375,-0.8349609375,-0.169036865234375,-0.0667877197265625
1772642754257947100,0.137947021484375,-0.806976318359375,-0.146575927734375,-0.0638580322265625
1772642754267992000,0.147991943359375,-0.769439697265625,-0.1260986328125,-0.063262939453125
1772642754278037000,0.158037109375,-0.7256622314453125,-0.10211181640625,-0.064727783203125
1772642754288082200,0.168082275390625,-0.6896514892578125,-0.0704193115234375,-0.0660400390625
1772642754298127000,0.178127197265625,-0.708465576171875,-0.0605926513671875,-0.0603179931640625
1772642754308172000,0.188172119140625,-0.7073974609375,-0.060577392578125,-0.0655517578125
1772642754318217000,0.198217041015625,-0.7007293701171875,-0.05877685546875,-0.055145263671875
1772642754328262100,0.20826220703125,-0.7269287109375,-0.0683135986328125,-0.054229736328125
1772642754338307000,0.21830712890625,-0.7224884033203125,-0.0890655517578125,-0.064544677734375
1772642754348352300,0.228352294921875,-0.714263916015625,-0.097259521484375,-0.0654296875
1772642754358397000,0.23839697265625,-0.7442169189453125,-0.0876007080078125,-0.0326080322265625
1772642754368442000,0.248442138671875,-0.820098876953125,-0.13067626953125,-0.0235443115234375
1772642754378487000,0.258487060546875,-0.9578857421875,-0.2231292724609375,-0.0257720947265625
1772642754388532200,0.2685322265625,-1.115264892578125,-0.3349151611328125,-0.010162353515625
1772642754398577200,0.2785771484375,-1.225982666015625,-0.3791351318359375,0.023193359375
1772642754408622000,0.2886220703125,-1.313720703125,-0.3513031005859375,0.0475311279296875
1772642754418667000,0.2986669921875,-1.442474365234375,-0.34698486328125,0.0263824462890625
1772642754428712200,0.308712158203125,-1.5638427734375,-0.344482421875,-0.0715484619140625
1772642754438757000,0.318757080078125,-1.6501312255859375,-0.266754150390625,-0.1488189697265625
1772642754448802000,0.328802001953125,-1.8050994873046875,-0.2397918701171875,-0.1901092529296875
1772642754458847000,0.338846923828125,-1.938720703125,-0.244873046875,-0.2266845703125
1772642754468892200,0.34889208984375,-1.9375762939453125,-0.2367401123046875,-0.2356109619140625
1772642754478937000,0.35893701171875,-1.8042449951171875,-0.28790283203125,-0.17303466796875
1772642754488982300,0.368982177734375,-1.6069183349609375,-0.4178924560546875,-0.1179656982421875
1772642754499027000,0.37902685546875,-1.39068603515625,-0.5670623779296875,-0.109405517578125
1772642754509072100,0.389072021484375,-1.2701568603515625,-0.6551361083984375,-0.08245849609375
1772642754519117000,0.399116943359375,-1.248687744140625,-0.5812225341796875,-0.041259765625
1772642754529162200,0.409162353515625,-1.255096435546875,-0.6127777099609375,0.051361083984375
1772642754539207200,0.419207275390625,-1.3070526123046875,-0.7774200439453125,0.1904754638671875
1772642754549252000,0.429252197265625,-1.3669586181640625,-0.8676300048828125,0.2174835205078125
1772642754559297000,0.439297119140625,-1.238037109375,-0.803863525390625,0.1155548095703125
1772642754569342200,0.44934228515625,-1.1182861328125,-0.7471160888671875,-0.051239013671875
1772642754579387100,0.45938720703125,-0.8980560302734375,-0.629302978515625,-0.1749114990234375
1772642754589432000,0.46943212890625,-0.9095306396484375,-0.596221923828125,-0.207000732421875
1772642754599477000,0.47947705078125,-1.0053863525390625,-0.6932830810546875,-0.1190185546875
1772642754609522200,0.489522216796875,-0.97698974609375,-0.6583099365234375,-0.101654052734375
1772642754619567000,0.499567138671875,-1.0574798583984375,-0.6416168212890625,-0.11846923828125
1772642754629612300,0.5096123046875,-1.1828765869140625,-0.63275146484375,-0.1705169677734375
1772642754639657000,0.519656982421875,-1.1623382568359375,-0.4097137451171875,-0.381805419921875
1772642754649702100,0.5297021484375,-1.1868438720703125,-0.252105712890625,-0.561920166015625
1772642754659747000,0.5397470703125,-1.193023681640625,-0.1717376708984375,-0.567474365234375
1772642754669792300,0.549792236328125,-1.1082305908203125,-0.0895538330078125,-0.4802703857421875
1772642754679837000,0.5598369140625,-0.961517333984375,-0.0187530517578125,-0.384490966796875
1772642754689882000,0.569882080078125,-0.777191162109375,0.034393310546875,-0.3275146484375
1772642754699927000,0.579927001953125,-0.63165283203125,0.01861572265625,-0.2603302001953125
1772642754709972200,0.58997216796875,-0.5074615478515625,0.049102783203125,-0.2066497802734375
1772642754720017200,0.60001708984375,-0.452239990234375,0.0966033935546875,-0.138671875
1772642754730062000,0.61006201171875,-0.4149932861328125,0.1069183349609375,-0.075592041015625
1772642754740107000,0.62010693359375,-0.336822509765625,0.1240386962890625,-0.08001708984375
1772642754750152200,0.630152099609375,-0.3025970458984375,0.0900115966796875,-0.0683441162109375
1772642754760197000,0.640197021484375,-0.1833953857421875,0.0616607666015625,-0.075042724609375
1772642754770241000,0.650240966796875,-0.086212158203125,0.009002685546875,-0.080963134765625
1772642754780286000,0.660285888671875,-0.0403289794921875,-0.0086517333984375,-0.1090240478515625
1772642754790331100,0.6703310546875,-0.003021240234375,-0.01287841796875,-0.132904052734375
1772642754800376000,0.6803759765625,0.03265380859375,-0.03497314453125,-0.13897705078125
1772642754810421000,0.6904208984375,0.0400238037109375,-0.05267333984375,-0.13885498046875
1772642754820466000,0.7004658203125,0.01190185546875,-0.0647125244140625,-0.1322479248046875
1772642754830511000,0.710510986328125,-0.0316925048828125,-0.0412139892578125,-0.1327667236328125
1772642754840556000,0.72055615234375,-0.0704803466796875,-0.0071868896484375,-0.142822265625
1772642754850601200,0.730601318359375,-0.101226806640625,0.0121002197265625,-0.154052734375
1772642754860646000,0.74064599609375,-0.131072998046875,0.0142669677734375,-0.1662750244140625
1772642754870691000,0.750691162109375,-0.1634368896484375,0.0035247802734375,-0.1918792724609375
1772642754880736000,0.760736083984375,-0.192718505859375,0.01397705078125,-0.2089080810546875
1772642754890781200,0.77078125,-0.246795654296875,0.061767578125,-0.163360595703125
1772642754900826000,0.780826171875,-0.2627410888671875,0.0214385986328125,-0.129638671875
1772642754910871000,0.79087109375,-0.194671630859375,-0.0146636962890625,-0.1243133544921875
1772642754920916000,0.800916015625,-0.1475372314453125,-0.058746337890625,-0.137939453125
1772642754930961200,0.810961181640625,-0.1673126220703125,-0.152374267578125,-0.16046142578125
1772642754941006000,0.821006103515625,-0.2134246826171875,-0.28106689453125,-0.1623687744140625
1772642754951051000,0.831051025390625,-0.220062255859375,-0.4154510498046875,-0.1473846435546875
1772642754961096000,0.841095947265625,-0.1838226318359375,-0.5308990478515625,-0.158050537109375
1772642754971141000,0.85114111328125,-0.1721954345703125,-0.60565185546875,-0.2212677001953125
1772642754981186000,0.86118603515625,-0.330657958984375,-0.6407470703125,-0.292633056640625
1772642754991231200,0.871231201171875,-0.6677703857421875,-0.66339111328125,-0.320892333984375
1772642755001276000,0.88127587890625,-0.923583984375,-0.5929107666015625,-0.285858154296875
1772642755011321000,0.891321044921875,-1.063262939453125,-0.49420166015625,-0.2573699951171875
1772642755021366000,0.901365966796875,-1.1488189697265625,-0.406768798828125,-0.30352783203125
1772642755031411200,0.9114111328125,-1.241973876953125,-0.3603057861328125,-0.4264984130859375
1772642755041456000,0.9214560546875,-1.3540802001953125,-0.4225311279296875,-0.5877227783203125
1772642755051501000,0.9315009765625,-1.571624755859375,-0.483062744140625,-0.6951141357421875
1772642755061546000,0.9415458984375,-1.9001007080078125,-0.4747314453125,-0.6733551025390625
1772642755071591200,0.951591064453125,-2.18316650390625,-0.4776763916015625,-0.5818939208984375
1772642755081636000,0.961635986328125,-2.3898773193359375,-0.45404052734375,-0.4947967529296875
1772642755091681000,0.971680908203125,-2.516143798828125,-0.3865814208984375,-0.4493255615234375
1772642755101726000,0.981725830078125,-2.595001220703125,-0.3179931640625,-0.427459716796875
1772642755111771100,0.991771240234375,-2.692962646484375,-0.254364013671875,-0.3706512451171875
1772642755121816000,1.001816162109375,-2.7675628662109375,-0.233154296875,-0.27093505859375
1772642755131861200,1.011861328125,-2.7708282470703125,-0.2701416015625,-0.1803436279296875
1772642755141906000,1.021906005859375,-2.656951904296875,-0.3101654052734375,-0.15936279296875
1772642755151951000,1.031951171875,-2.437042236328125,-0.3097381591796875,-0.2046356201171875
1772642755161996000,1.04199609375,-2.23553466796875,-0.3197021484375,-0.2409210205078125
1772642755172041200,1.052041259765625,-2.08056640625,-0.30291748046875,-0.252777099609375
1772642755182085600,1.062085693359375,-1.9892578125,-0.2767333984375,-0.23834228515625
1772642755192130600,1.072130615234375,-1.8939056396484375,-0.2748260498046875,-0.2070159912109375
1772642755202175700,1.08217578125,-1.74945068359375,-0.2756500244140625,-0.1634521484375
1772642755212220700,1.092220703125,-1.54241943359375,-0.29058837890625,-0.1005096435546875
1772642755222265600,1.102265625,-1.3163299560546875,-0.3374481201171875,-0.04547119140625
1772642755232310500,1.112310546875,-1.1257476806640625,-0.3838348388671875,-0.0222930908203125
1772642755242355700,1.122355712890625,-0.9963836669921875,-0.413970947265625,-0.0296478271484375
1772642755252400600,1.132400634765625,-0.9284820556640625,-0.4265594482421875,-0.039703369140625
1772642755262445600,1.142445556640625,-0.91046142578125,-0.4188079833984375,-0.0325927734375
1772642755272490500,1.152490478515625,-0.8889923095703125,-0.373016357421875,-0.021759033203125
1772642755282535700,1.16253564453125,-0.832275390625,-0.298004150390625,-0.042633056640625
1772642755292580600,1.17258056640625,-0.763824462890625,-0.215728759765625,-0.0967559814453125
1772642755302625500,1.18262548828125,-0.7137908935546875,-0.146148681640625,-0.1421966552734375
1772642755312670700,1.192670654296875,-0.6708831787109375,-0.092071533203125,-0.172637939453125
1772642755322715600,1.202715576171875,-0.6395263671875,-0.051666259765625,-0.2021331787109375
1772642755332760600,1.212760498046875,-0.632110595703125,-0.0150146484375,-0.21380615234375
1772642755342805500,1.222805419921875,-0.6241607666015625,0.016265869140625,-0.2048492431640625
1772642755352850700,1.2328505859375,-0.60406494140625,0.0032958984375,-0.176300048828125
1772642755362895600,1.2428955078125,-0.55865478515625,-0.040740966796875,-0.151123046875
1772642755372940500,1.2529404296875,-0.4970550537109375,-0.0811004638671875,-0.1461639404296875
1772642755382985500,1.2629853515625,-0.4243621826171875,-0.111328125,-0.14459228515625
1772642755393029600,1.273029541015625,-0.3649444580078125,-0.1464996337890625,-0.1247406005859375
1772642755403074600,1.283074462890625,-0.3007049560546875,-0.1743316650390625,-0.095916748046875
1772642755413119500,1.293119384765625,-0.20770263671875,-0.182769775390625,-0.0648345947265625
1772642755423164700,1.30316455078125,-0.1156005859375,-0.1786651611328125,-0.043670654296875
1772642755433209600,1.313209716796875,-0.0477294921875,-0.176971435546875,-0.04888916015625
1772642755443254800,1.3232548828125,-0.0128631591796875,-0.17291259765625,-0.072784423828125
1772642755453299500,1.333299560546875,-0.0142364501953125,-0.150970458984375,-0.08355712890625
1772642755463344600,1.3433447265625,-0.0400848388671875,-0.1298675537109375,-0.0679931640625
1772642755473389600,1.3533896484375,-0.0879058837890625,-0.1082611083984375,-0.03662109375
1772642755483434800,1.363434814453125,-0.1530609130859375,-0.08416748046875,-0.011016845703125
1772642755493479400,1.3734794921875,-0.2176361083984375,-0.063568115234375,-0.01812744140625
1772642755503524600,1.383524658203125,-0.26922607421875,-0.03778076171875,-0.0540924072265625
1772642755513569500,1.393569580078125,-0.3033447265625,-0.005584716796875,-0.0931854248046875
1772642755523614700,1.40361474609375,-0.3229217529296875,0.0269012451171875,-0.1190338134765625
1772642755533659600,1.41365966796875,-0.343017578125,0.054473876953125,-0.1368255615234375
1772642755543704600,1.42370458984375,-0.3799591064453125,0.0778961181640625,-0.1415557861328125
1772642755553749500,1.43374951171875,-0.420013427734375,0.103179931640625,-0.1356201171875
1772642755563794700,1.443794677734375,-0.4777374267578125,0.1303863525390625,-0.13665771484375
1772642755573839600,1.453839599609375,-0.53778076171875,0.1549835205078125,-0.14263916015625
1772642755583884800,1.463884765625,-0.606109619140625,0.159393310546875,-0.1365814208984375
1772642755593929500,1.473929443359375,-0.684600830078125,0.126068115234375,-0.1349945068359375
1772642755603974700,1.483974609375,-0.75592041015625,0.04302978515625,-0.1269073486328125
1772642755614019600,1.49401953125,-0.7850189208984375,-0.066925048828125,-0.10467529296875
1772642755624064800,1.504064697265625,-0.7465362548828125,-0.1762847900390625,-0.07977294921875
1772642755634109400,1.514109375,-0.6705169677734375,-0.2440032958984375,-0.0697174072265625
1772642755644154600,1.524154541015625,-0.6681976318359375,-0.27508544921875,-0.0714263916015625
1772642755654199600,1.534199462890625,-0.8577880859375,-0.332275390625,-0.02716064453125
1772642755664244700,1.54424462890625,-1.1258697509765625,-0.3849945068359375,0.045318603515625
1772642755674289700,1.55428955078125,-1.332916259765625,-0.3754119873046875,0.074676513671875
1772642755684334600,1.56433447265625,-1.4650421142578125,-0.3472137451171875,0.0437164306640625
1772642755694379500,1.574379638671875,-1.6065521240234375,-0.3557586669921875,-0.000152587890625
1772642755704424700,1.5844248046875,-1.78131103515625,-0.4059295654296875,-0.042083740234375
1772642755714469600,1.5944697265625,-1.894989013671875,-0.462005615234375,-0.1005401611328125
1772642755724514800,1.604514892578125,-1.931640625,-0.5025482177734375,-0.130950927734375
1772642755734559500,1.6145595703125,-1.9364013671875,-0.5144500732421875,-0.1006317138671875
1772642755744604700,1.624604736328125,-1.9697418212890625,-0.5319366455078125,0.0062408447265625
1772642755754649600,1.634649658203125,-1.9930267333984375,-0.543548583984375,0.1098785400390625
1772642755764694800,1.64469482421875,-1.9953155517578125,-0.54913330078125,0.17828369140625
1772642755774739500,1.654739501953125,-1.9785003662109375,-0.550750732421875,0.22125244140625
1772642755784784600,1.66478466796875,-1.9575653076171875,-0.5846710205078125,0.239166259765625
1772642755794829600,1.67482958984375,-1.966888427734375,-0.5864715576171875,0.1857147216796875
1772642755804874800,1.684874755859375,-2.0073699951171875,-0.549468994140625,0.0467071533203125
1772642755814919700,1.694919677734375,-2.0650482177734375,-0.4983673095703125,-0.1208343505859375
1772642755824964600,1.704964599609375,-2.079132080078125,-0.4552154541015625,-0.2726287841796875
1772642755835009500,1.715009521484375,-2.075469970703125,-0.411651611328125,-0.348785400390625
1772642755845054700,1.7250546875,-2.095458984375,-0.37457275390625,-0.3163909912109375
1772642755855099600,1.735099609375,-2.1166534423828125,-0.369354248046875,-0.19134521484375
1772642755865144600,1.74514453125,-2.07244873046875,-0.38616943359375,-0.050384521484375
1772642755875189500,1.755189453125,-1.93505859375,-0.4320068359375,0.0422515869140625
1772642755885234700,1.765234619140625,-1.6965179443359375,-0.4983367919921875,0.041778564453125
1772642755895279600,1.775279541015625,-1.4048309326171875,-0.55731201171875,0.025238037109375
1772642755905324800,1.78532470703125,-1.103607177734375,-0.5798187255859375,0.0597991943359375
1772642755915369500,1.795369384765625,-0.8470458984375,-0.564300537109375,0.138214111328125
1772642755925414700,1.80541455078125,-0.69598388671875,-0.5081939697265625,0.237213134765625
1772642755935459600,1.81545947265625,-0.6214599609375,-0.405914306640625,0.2793426513671875
1772642755945504800,1.8255048828125,-0.61181640625,-0.2430267333984375,0.2646026611328125
1772642755955549700,1.8355498046875,-0.67205810546875,-0.082244873046875,0.2768707275390625
1772642755965594600,1.8455947265625,-0.7368927001953125,0.0062408447265625,0.3003997802734375
1772642755975638500,1.855638427734375,-0.745880126953125,0.044097900390625,0.2719879150390625
1772642755985683700,1.86568359375,-0.66571044921875,0.0611419677734375,0.20086669921875
1772642755995728400,1.875728271484375,-0.54583740234375,0.0508270263671875,0.1229248046875
1772642756005773600,1.885773681640625,-0.384185791015625,0.017578125,0.024627685546875
1772642756015818500,1.895818603515625,-0.1852264404296875,-0.0376434326171875,-0.108489990234375
1772642756025863700,1.90586376953125,0.0264434814453125,-0.071746826171875,-0.2291107177734375
1772642756035908600,1.91590869140625,0.200836181640625,-0.041595458984375,-0.2551116943359375
1772642756045953500,1.92595361328125,0.255615234375,-0.0036163330078125,-0.1846771240234375
1772642756055998500,1.93599853515625,0.175079345703125,0.016510009765625,-0.071014404296875
1772642756066043600,1.946043701171875,0.0464324951171875,0.035980224609375,0.027587890625
1772642756076088600,1.956088623046875,-0.04083251953125,0.0623779296875,0.0606842041015625
1772642756086133800,1.9661337890625,-0.10821533203125,0.061309814453125,0.026611328125
1772642756096178400,1.976178466796875,-0.168853759765625,0.0306854248046875,-0.067108154296875
1772642756106223600,1.9862236328125,-0.2079010009765625,0.01910400390625,-0.1760711669921875
1772642756116268500,1.9962685546875,-0.2400665283203125,0.019378662109375,-0.2283172607421875
1772642756126313700,2.006313720703125,-0.264495849609375,0.015655517578125,-0.2268829345703125
1772642756136358400,2.0163583984375,-0.270660400390625,0.0359344482421875,-0.2056427001953125
1772642756146403600,2.026403564453125,-0.280853271484375,0.068511962890625,-0.1619720458984375
1772642756156448500,2.036448486328125,-0.2772979736328125,0.0933074951171875,-0.08837890625
1772642756166493700,2.04649365234375,-0.2754058837890625,0.098785400390625,-0.033843994140625
1772642756176538600,2.05653857421875,-0.29766845703125,0.1038665771484375,-0.0170440673828125
1772642756186584600,2.06658447265625,-0.34259033203125,0.09588623046875,-0.0255584716796875
1772642756196629200,2.076629150390625,-0.371978759765625,0.0733642578125,-0.0527801513671875
1772642756206674400,2.08667431640625,-0.3777618408203125,0.05694580078125,-0.0838165283203125
1772642756216719400,2.09671923828125,-0.3666229248046875,0.0397796630859375,-0.112274169921875
1772642756226764500,2.1067646484375,-0.370147705078125,0.0327301025390625,-0.1242218017578125
1772642756236809500,2.1168095703125,-0.4226531982421875,0.02496337890625,-0.103668212890625
1772642756246854400,2.1268544921875,-0.4953155517578125,-0.009552001953125,-0.0422821044921875
1772642756256899300,2.1368994140625,-0.56591796875,-0.0879669189453125,0.0402069091796875
1772642756266944500,2.146944580078125,-0.573883056640625,-0.196868896484375,0.1063995361328125
1772642756276989400,2.156989501953125,-0.493896484375,-0.329986572265625,0.1207275390625
1772642756287034600,2.16703466796875,-0.374664306640625,-0.4422607421875,0.048095703125
1772642756297079300,2.177079345703125,-0.393646240234375,-0.4858245849609375,-0.082550048828125
1772642756307124500,2.18712451171875,-0.68896484375,-0.4981689453125,-0.162078857421875
1772642756317169400,2.19716943359375,-1.074798583984375,-0.4652557373046875,-0.1231231689453125
1772642756327214600,2.207214599609375,-1.4018402099609375,-0.3502655029296875,-0.051177978515625
1772642756337259300,2.21725927734375,-1.6188201904296875,-0.2197113037109375,-0.0237884521484375
1772642756347304400,2.227304443359375,-1.718994140625,-0.191680908203125,-0.0761260986328125
1772642756357349400,2.237349365234375,-1.7484130859375,-0.270355224609375,-0.1708984375
1772642756367394600,2.24739453125,-1.7347869873046875,-0.349334716796875,-0.2340087890625
1772642756377439500,2.257439453125,-1.743988037109375,-0.375152587890625,-0.2174530029296875
1772642756387484400,2.267484375,-1.8313140869140625,-0.3804168701171875,-0.1424102783203125
1772642756397529300,2.277529296875,-1.9420166015625,-0.37213134765625,-0.048431396484375
1772642756407574500,2.287574462890625,-2.0568695068359375,-0.350860595703125,0.01531982421875
1772642756417619500,2.297619384765625,-2.1428070068359375,-0.3349761962890625,0.0263824462890625
1772642756427664400,2.307664306640625,-2.1898193359375,-0.3341827392578125,-0.0186767578125
1772642756437709300,2.317709228515625,-2.2328948974609375,-0.329437255859375,-0.10723876953125
1772642756447754500,2.32775439453125,-2.2740936279296875,-0.310638427734375,-0.2205352783203125
1772642756457799400,2.33779931640625,-2.313385009765625,-0.2935943603515625,-0.3171539306640625
1772642756467844600,2.3478447265625,-2.3394012451171875,-0.2747650146484375,-0.3629150390625
1772642756477889300,2.35788916015625,-2.3154754638671875,-0.2537689208984375,-0.343292236328125
1772642756487934500,2.3679345703125,-2.2131500244140625,-0.241729736328125,-0.2769012451171875
1772642756497979400,2.3779794921875,-2.0652923583984375,-0.2412872314453125,-0.199951171875
1772642756508024600,2.388024658203125,-1.90692138671875,-0.25018310546875,-0.136077880859375
1772642756518069500,2.398069580078125,-1.761505126953125,-0.260498046875,-0.0870361328125
1772642756528114400,2.408114501953125,-1.6525421142578125,-0.285888671875,-0.0548095703125
1772642756538158300,2.418158447265625,-1.5604705810546875,-0.30694580078125,-0.0475006103515625
1772642756548204500,2.42820458984375,-1.470489501953125,-0.3163299560546875,-0.045196533203125
1772642756558248200,2.438248291015625,-1.371307373046875,-0.3201446533203125,-0.028228759765625
1772642756568293400,2.44829345703125,-1.248626708984375,-0.3318023681640625,-0.01251220703125
1772642756578338300,2.45833837890625,-1.1110687255859375,-0.3377532958984375,-0.016143798828125
1772642756588383500,2.468383544921875,-0.98065185546875,-0.3217620849609375,-0.0361175537109375
1772642756598428400,2.478428466796875,-0.88641357421875,-0.2885894775390625,-0.0560302734375
1772642756608473300,2.488473388671875,-0.83636474609375,-0.2457733154296875,-0.0704498291015625
1772642756618518300,2.498518310546875,-0.8035430908203125,-0.19732666015625,-0.0635986328125
1772642756628563500,2.5085634765625,-0.7791290283203125,-0.152099609375,-0.04095458984375
1772642756638608400,2.5186083984375,-0.7476806640625,-0.1189422607421875,-0.007843017578125
1772642756648653600,2.528653564453125,-0.6946258544921875,-0.0804290771484375,0.0031890869140625
1772642756658698200,2.5386982421875,-0.6495361328125,-0.03887939453125,-0.0005340576171875
1772642756668743400,2.548743408203125,-0.620391845703125,-0.0040740966796875,0.0102386474609375
1772642756678788400,2.558788330078125,-0.5882720947265625,0.0218048095703125,0.02813720703125
1772642756688833500,2.56883349609375,-0.5546722412109375,0.0477447509765625,0.0426483154296875
1772642756698878200,2.578878173828125,-0.5227508544921875,0.070159912109375,0.05108642578125
1772642756708923400,2.58892333984375,-0.50958251953125,0.089080810546875,0.057281494140625
1772642756718968300,2.59896826171875,-0.5007476806640625,0.0988006591796875,0.04339599609375
1772642756729013500,2.609013427734375,-0.4893341064453125,0.0926666259765625,-0.001556396484375
1772642756739058400,2.619058349609375,-0.45159912109375,0.078125,-0.056610107421875
1772642756749103400,2.629103271484375,-0.388946533203125,0.0628204345703125,-0.0698699951171875
1772642756759148300,2.639148193359375,-0.3368988037109375,0.042510986328125,-0.0626678466796875
1772642756769193500,2.649193359375,-0.278106689453125,0.026824951171875,-0.0688629150390625
1772642756779238400,2.65923828125,-0.2140350341796875,0.0162353515625,-0.0935516357421875
1772642756789283600,2.66928369140625,-0.1585540771484375,0.0045166015625,-0.1137237548828125
1772642756799328300,2.679328369140625,-0.136383056640625,-0.009735107421875,-0.126678466796875
1772642756809373400,2.68937353515625,-0.1363067626953125,-0.0123748779296875,-0.1312408447265625
1772642756819418400,2.69941845703125,-0.14910888671875,-0.0077362060546875,-0.1262969970703125
1772642756829463600,2.709463623046875,-0.1814422607421875,0.0004425048828125,-0.11981201171875
1772642756839508200,2.71950830078125,-0.22076416015625,0.0081024169921875,-0.1112060546875
1772642756849553400,2.729553466796875,-0.2475738525390625,0.0114288330078125,-0.1026458740234375
1772642756859598300,2.739598388671875,-0.261993408203125,0.020782470703125,-0.1034698486328125
1772642756869643500,2.7496435546875,-0.2748565673828125,0.0393524169921875,-0.1033477783203125
1772642756879688400,2.7596884765625,-0.301544189453125,0.043212890625,-0.0919952392578125
1772642756889733400,2.7697333984375,-0.3296966552734375,0.0370330810546875,-0.087249755859375
1772642756899778300,2.7797783203125,-0.3612823486328125,0.0408477783203125,-0.0817413330078125
1772642756909823500,2.789823486328125,-0.4156494140625,0.018035888671875,-0.0392303466796875
1772642756919868400,2.799868408203125,-0.4654388427734375,-0.040374755859375,0.0117645263671875
1772642756929913300,2.809913330078125,-0.469879150390625,-0.1073455810546875,0.0221405029296875
1772642756939958300,2.819958251953125,-0.4237213134765625,-0.1639251708984375,-0.003082275390625
1772642756950003500,2.83000341796875,-0.394805908203125,-0.234954833984375,-0.03369140625
1772642756960048400,2.84004833984375,-0.40966796875,-0.2682952880859375,-0.0817413330078125
1772642756970093600,2.850093505859375,-0.530364990234375,-0.2225341796875,-0.134918212890625
1772642756980138200,2.86013818359375,-0.76519775390625,-0.18536376953125,-0.123626708984375
1772642756990183400,2.870183349609375,-1.0452117919921875,-0.193450927734375,-0.02838134765625
1772642757000228400,2.880228271484375,-1.252655029296875,-0.1848602294921875,0.050628662109375
1772642757010273500,2.8902734375,-1.331573486328125,-0.1713409423828125,0.0567474365234375
1772642757020318500,2.900318359375,-1.2881927490234375,-0.1673126220703125,-0.0319366455078125
1772642757030363400,2.91036328125,-1.2151947021484375,-0.1824951171875,-0.1812286376953125
1772642757040408300,2.920408203125,-1.1722869873046875,-0.2352142333984375,-0.3098602294921875
1772642757050453500,2.93045361328125,-1.2001800537109375,-0.2693328857421875,-0.34619140625
1772642757060498400,2.94049853515625,-1.3100128173828125,-0.2539215087890625,-0.2893829345703125
1772642757070543400,2.95054345703125,-1.438812255859375,-0.21337890625,-0.2017974853515625
1772642757080588300,2.96058837890625,-1.54425048828125,-0.15582275390625,-0.13214111328125
1772642757090633500,2.970633544921875,-1.660308837890625,-0.082061767578125,-0.0532989501953125
1772642757100678400,2.980678466796875,-1.776885986328125,-0.016998291015625,0.0553436279296875
1772642757110723600,2.9907236328125,-1.8977813720703125,0.0052032470703125,0.1628570556640625
1772642757120767200,3.000767333984375,-1.997161865234375,-0.012847900390625,0.2022552490234375
1772642757130812400,3.0108125,-2.0870513916015625,-0.0368499755859375,0.1345062255859375
1772642757140857300,3.020857421875,-2.1545257568359375,-0.0309600830078125,0.0253448486328125
1772642757150902500,3.030902587890625,-2.1826171875,-0.013916015625,-0.057464599609375
1772642757160947200,3.040947265625,-2.1779937744140625,0.029815673828125,-0.0946044921875
1772642757170992400,3.050992431640625,-2.16961669921875,0.0697021484375,-0.074127197265625
1772642757181037300,3.061037353515625,-2.15399169921875,0.0994415283203125,-0.028656005859375
1772642757191082000,3.07108203125,-2.1365814208984375,0.111328125,0.01617431640625
1772642757201127200,3.081127197265625,-2.096038818359375,0.08477783203125,0.0551605224609375
1772642757211171800,3.091171875,-2.0177001953125,0.02886962890625,0.0670318603515625
1772642757221217000,3.101217041015625,-1.9183197021484375,-0.0233917236328125,0.050689697265625
1772642757231262000,3.111261962890625,-1.79962158203125,-0.07525634765625,0.03955078125
1772642757241307100,3.12130712890625,-1.65765380859375,-0.1212005615234375,0.034942626953125
1772642757251352000,3.13135205078125,-1.5236053466796875,-0.1596527099609375,0.0354461669921875
1772642757261397000,3.14139697265625,-1.3952178955078125,-0.195648193359375,0.0487060546875
1772642757271442000,3.15144189453125,-1.2728118896484375,-0.2294464111328125,0.073944091796875
1772642757281487000,3.161487060546875,-1.1390228271484375,-0.2293701171875,0.1059112548828125
1772642757291532000,3.171531982421875,-0.99951171875,-0.1868438720703125,0.1273193359375
1772642757301577200,3.1815771484375,-0.856048583984375,-0.1235809326171875,0.131805419921875
1772642757311622000,3.191621826171875,-0.7236480712890625,-0.0817718505859375,0.1219635009765625
1772642757321667000,3.2016669921875,-0.61492919921875,-0.078521728515625,0.0823822021484375
1772642757331712000,3.2117119140625,-0.5640869140625,-0.083465576171875,0.00396728515625
1772642757341757200,3.221757080078125,-0.5802764892578125,-0.0733642578125,-0.0654449462890625
1772642757351801900,3.2318017578125,-0.6132049560546875,-0.042816162109375,-0.09014892578125
1772642757361847000,3.241846923828125,-0.6110687255859375,0.00689697265625,-0.09124755859375
1772642757371892000,3.25189208984375,-0.592132568359375,0.0849761962890625,-0.0735626220703125
1772642757381937200,3.261937255859375,-0.58270263671875,0.1626434326171875,-0.019500732421875
1772642757391982000,3.271982177734375,-0.5906524658203125,0.2103729248046875,0.0562591552734375
1772642757402027000,3.282027099609375,-0.6124114990234375,0.234527587890625,0.1282806396484375
1772642757412072000,3.292072021484375,-0.624420166015625,0.22467041015625,0.163787841796875
1772642757422117000,3.3021171875,-0.5892181396484375,0.1960296630859375,0.170318603515625
1772642757432162000,3.312162109375,-0.5263519287109375,0.1436614990234375,0.1550750732421875
1772642757442207000,3.32220703125,-0.449554443359375,0.0850830078125,0.12628173828125
1772642757452252000,3.332251953125,-0.35626220703125,0.037750244140625,0.1038818359375
1772642757462297000,3.342297119140625,-0.2730255126953125,-0.0163421630859375,0.0864410400390625
1772642757472342000,3.352342041015625,-0.202728271484375,-0.052825927734375,0.05804443359375
1772642757482387000,3.362386962890625,-0.156005859375,-0.08331298828125,0.0199127197265625
1772642757492432000,3.372431884765625,-0.1395721435546875,-0.11676025390625,-0.0123443603515625
1772642757502477000,3.38247705078125,-0.14337158203125,-0.1363983154296875,-0.0459136962890625
1772642757512522000,3.39252197265625,-0.156768798828125,-0.1407318115234375,-0.0802001953125
1772642757522567000,3.40256689453125,-0.1711578369140625,-0.1413726806640625,-0.107513427734375
1772642757532612000,3.412612060546875,-0.189849853515625,-0.130523681640625,-0.128997802734375
1772642757542657000,3.422656982421875,-0.2325592041015625,-0.104400634765625,-0.1406707763671875
1772642757552702000,3.432701904296875,-0.283966064453125,-0.067657470703125,-0.1344451904296875
1772642757562747000,3.442746826171875,-0.333160400390625,-0.0305023193359375,-0.1205596923828125
1772642757572792000,3.4527919921875,-0.3824310302734375,0.0062408447265625,-0.11187744140625
1772642757582837000,3.4628369140625,-0.4328155517578125,0.0223846435546875,-0.092559814453125
1772642757592882000,3.4728818359375,-0.4641571044921875,0.0064239501953125,-0.07159423828125
1772642757602926800,3.4829267578125,-0.451080322265625,-0.0302581787109375,-0.0771942138671875
1772642757612972000,3.492971923828125,-0.4456787109375,-0.0762939453125,-0.0880889892578125
1772642757623017000,3.503016845703125,-0.4743804931640625,-0.14056396484375,-0.076324462890625
1772642757633062000,3.513061767578125,-0.50042724609375,-0.221588134765625,-0.03448486328125
1772642757643106800,3.52310693359375,-0.473297119140625,-0.3052978515625,-0.0001068115234375
1772642757653152000,3.533152099609375,-0.4292449951171875,-0.36163330078125,-0.0038604736328125
1772642757663197000,3.543197021484375,-0.431549072265625,-0.383331298828125,-0.0697784423828125
1772642757673242000,3.5532421875,-0.5613861083984375,-0.3620452880859375,-0.14739990234375
1772642757683286800,3.563286865234375,-0.8271331787109375,-0.30859375,-0.17095947265625
1772642757693331000,3.5733310546875,-1.06182861328125,-0.2822265625,-0.1221923828125
1772642757703376100,3.583376220703125,-1.145477294921875,-0.27618408203125,-0.069061279296875
1772642757713420800,3.5934208984375,-1.0706634521484375,-0.233734130859375,-0.1585845947265625
1772642757723466000,3.603466064453125,-0.9874725341796875,-0.26959228515625,-0.301483154296875
1772642757733511000,3.613510986328125,-1.0744171142578125,-0.3327178955078125,-0.33587646484375
1772642757743556000,3.62355615234375,-1.250762939453125,-0.3792877197265625,-0.257537841796875
1772642757753601000,3.63360107421875,-1.398040771484375,-0.336395263671875,-0.1638946533203125
1772642757763646000,3.64364599609375,-1.5378570556640625,-0.2634735107421875,-0.086334228515625
1772642757773691000,3.65369091796875,-1.6748504638671875,-0.248809814453125,-0.024261474609375
1772642757783736000,3.663736083984375,-1.7796783447265625,-0.242095947265625,0.0064239501953125
1772642757793781000,3.673781005859375,-1.8819122314453125,-0.2104034423828125,0.0043487548828125
1772642757803826200,3.683826171875,-2.01446533203125,-0.1704864501953125,-0.020050048828125
1772642757813870800,3.693870849609375,-2.196044921875,-0.1415557861328125,-0.03875732421875
1772642757823916000,3.703916015625,-2.4139251708984375,-0.1234893798828125,-0.0592803955078125
1772642757833961000,3.7139609375,-2.5951080322265625,-0.1186065673828125,-0.0922393798828125
1772642757844006100,3.724006103515625,-2.663970947265625,-0.1166839599609375,-0.131561279296875
1772642757854050800,3.73405078125,-2.6292266845703125,-0.1151123046875,-0.151153564453125
1772642757864096000,3.744095947265625,-2.541229248046875,-0.107574462890625,-0.1651611328125
1772642757874141000,3.754140869140625,-2.48486328125,-0.0873260498046875,-0.18157958984375
1772642757884186000,3.76418603515625,-2.4584808349609375,-0.0739288330078125,-0.15814208984375
1772642757894231000,3.77423095703125,-2.400604248046875,-0.0818634033203125,-0.0782012939453125
1772642757904276000,3.78427587890625,-2.2505340576171875,-0.1175384521484375,-0.0186309814453125
1772642757914321000,3.79432080078125,-2.028350830078125,-0.19219970703125,0.0076751708984375
1772642757924366000,3.804365966796875,-1.7778472900390625,-0.272613525390625,0.014923095703125
1772642757934411000,3.814410888671875,-1.5329437255859375,-0.3417816162109375,0.0042266845703125
1772642757944456000,3.8244560546875,-1.305419921875,-0.420196533203125,-0.0373992919921875
1772642757954500900,3.8345009765625,-1.1246490478515625,-0.477142333984375,-0.06195068359375
1772642757964546000,3.844546142578125,-0.9858245849609375,-0.5012054443359375,0.0021820068359375
1772642757974591000,3.854591064453125,-0.879608154296875,-0.5127105712890625,0.1467742919921875
1772642757984636200,3.86463623046875,-0.79864501953125,-0.497161865234375,0.28765869140625
1772642757994680800,3.874680908203125,-0.7405242919921875,-0.458282470703125,0.340484619140625
1772642758004726000,3.88472607421875,-0.71923828125,-0.4026336669921875,0.316680908203125
1772642758014771000,3.89477099609375,-0.712615966796875,-0.348114013671875,0.27606201171875
1772642758024816000,3.904816162109375,-0.70184326171875,-0.30523681640625,0.236846923828125
1772642758034861000,3.914861083984375,-0.6501922607421875,-0.2571563720703125,0.1896209716796875
1772642758044906000,3.924906005859375,-0.565277099609375,-0.2056121826171875,0.1547698974609375
1772642758054951000,3.934950927734375,-0.49053955078125,-0.159637451171875,0.10821533203125
1772642758064996000,3.94499609375,-0.4466094970703125,-0.095367431640625,0.0361175537109375
1772642758075041000,3.955041015625,-0.4473114013671875,-0.0055694580078125,-0.0200347900390625
1772642758085086000,3.9650859375,-0.47576904296875,0.07977294921875,-0.00311279296875
1772642758095131000,3.975130859375,-0.4929656982421875,0.130615234375,0.0331268310546875
1772642758105176000,3.985176025390625,-0.4883880615234375,0.173065185546875,0.057281494140625
1772642758115221000,3.995220947265625,-0.4618988037109375,0.1943206787109375,0.0720672607421875
1772642758125266200,4.00526611328125,-0.407562255859375,0.1692352294921875,0.0757904052734375
1772642758135310800,4.015310791015625,-0.3145751953125,0.110565185546875,0.0642547607421875
1772642758145356000,4.02535595703125,-0.1927490234375,0.0561065673828125,0.042572021484375
1772642758155401000,4.03540087890625,-0.070465087890625,-0.0238189697265625,0.0146331787109375
1772642758165446100,4.045446044921875,0.0357818603515625,-0.105682373046875,-0.0257415771484375
1772642758175491000,4.055490966796875,0.0928955078125,-0.1712646484375,-0.083648681640625
1772642758185536800,4.065536865234375,0.0931243896484375,-0.220001220703125,-0.1334228515625
1772642758195582000,4.07558203125,0.06036376953125,-0.2405853271484375,-0.1390228271484375
1772642758205627000,4.085626953125,0.0083465576171875,-0.2480010986328125,-0.12286376953125
1772642758215671800,4.095671875,-0.044189453125,-0.2339019775390625,-0.1099395751953125
1772642758225716000,4.105716064453125,-0.0774383544921875,-0.2054290771484375,-0.0977783203125
1772642758235761000,4.115760986328125,-0.091033935546875,-0.1933746337890625,-0.0909576416015625
1772642758245805800,4.125805908203125,-0.107940673828125,-0.1793365478515625,-0.0872039794921875
1772642758255850800,4.135850830078125,-0.1438751220703125,-0.1561279296875,-0.0977325439453125
1772642758265896000,4.14589599609375,-0.19464111328125,-0.1109771728515625,-0.1259765625
1772642758275940900,4.15594091796875,-0.2685089111328125,-0.052825927734375,-0.153045654296875
1772642758285986000,4.165986083984375,-0.346527099609375,0.0059967041015625,-0.1639556884765625
1772642758296030700,4.17603076171875,-0.40972900390625,0.0600128173828125,-0.1497802734375
1772642758306076000,4.186075927734375,-0.4522705078125,0.10546875,-0.1110382080078125
1772642758316120800,4.196120849609375,-0.4754638671875,0.122283935546875,-0.0505828857421875
1772642758326166000,4.206166015625,-0.48480224609375,0.0726470947265625,0.016845703125
1772642758336211000,4.2162109375,-0.456787109375,-0.012420654296875,0.032470703125
1772642758346256000,4.226255859375,-0.4002227783203125,-0.122589111328125,0.0020751953125
1772642758356300800,4.23630078125,-0.3553924560546875,-0.266632080078125,-0.013916015625
1772642758366346000,4.246345947265625,-0.3279571533203125,-0.3811492919921875,-0.049774169921875
1772642758376391000,4.256390869140625,-0.3904571533203125,-0.418670654296875,-0.0916748046875
1772642758386435800,4.266435791015625,-0.5934295654296875,-0.488067626953125,-0.023284912109375
1772642758396480800,4.276480712890625,-0.673614501953125,-0.499237060546875,0.057586669921875
1772642758406526000,4.28652587890625,-0.6837158203125,-0.342071533203125,0.0440521240234375
1772642758416571000,4.29657080078125,-0.851287841796875,-0.2260894775390625,0.0966796875
1772642758426616000,4.306615966796875,-1.149810791015625,-0.2977142333984375,0.2088165283203125
1772642758436660700,4.31666064453125,-1.363067626953125,-0.361572265625,0.1713409423828125
1772642758446706000,4.326705810546875,-1.480712890625,-0.3515625,0.003814697265625
1772642758456750800,4.336750732421875,-1.5862274169921875,-0.3387451171875,-0.080718994140625
1772642758466796000,4.346796142578125,-1.691253662109375,-0.3324127197265625,-0.0349273681640625
1772642758476841000,4.356841064453125,-1.755828857421875,-0.3400726318359375,0.0334930419921875
1772642758486886000,4.366885986328125,-1.7839508056640625,-0.331451416015625,0.052215576171875
1772642758496930800,4.376930908203125,-1.8448944091796875,-0.2850799560546875,0.036102294921875
1772642758506976000,4.38697607421875,-1.9563751220703125,-0.2564544677734375,0.0412445068359375
1772642758517021000,4.39702099609375,-2.0777740478515625,-0.2609100341796875,0.0661468505859375
1772642758527065900,4.40706591796875,-2.1712493896484375,-0.2658538818359375,0.055084228515625
1772642758537110800,4.41711083984375,-2.233245849609375,-0.2767791748046875,-0.0123748779296875
1772642758547156000,4.427156005859375,-2.3091583251953125,-0.293914794921875,-0.09271240234375
1772642758557201000,4.437200927734375,-2.352142333984375,-0.31317138671875,-0.15447998046875
1772642758567246000,4.44724609375,-2.353729248046875,-0.32635498046875,-0.201324462890625
1772642758577290800,4.457290771484375,-2.3235626220703125,-0.3250579833984375,-0.226898193359375
1772642758587336000,4.4673359375,-2.2668609619140625,-0.3069000244140625,-0.1974334716796875
1772642758597380900,4.477380859375,-2.185943603515625,-0.2870941162109375,-0.13092041015625
1772642758607426000,4.487426025390625,-2.0728759765625,-0.271514892578125,-0.062744140625
1772642758617470700,4.497470703125,-1.9429473876953125,-0.267120361328125,-0.0089263916015625
1772642758627516000,4.507515869140625,-1.8198089599609375,-0.2653350830078125,0.0188446044921875
1772642758637560800,4.517560791015625,-1.71533203125,-0.255645751953125,0.0318145751953125
1772642758647606000,4.52760595703125,-1.6073455810546875,-0.2445526123046875,0.049835205078125
1772642758657651000,4.53765087890625,-1.4887237548828125,-0.2310333251953125,0.0682220458984375
1772642758667695900,4.54769580078125,-1.3722381591796875,-0.2245025634765625,0.0902099609375
1772642758677740800,4.55774072265625,-1.2711944580078125,-0.2262115478515625,0.120208740234375
1772642758687786000,4.567785888671875,-1.1689910888671875,-0.231048583984375,0.1584014892578125
1772642758697831000,4.577830810546875,-1.0623779296875,-0.237396240234375,0.173004150390625
1772642758707875800,4.587875732421875,-0.969696044921875,-0.2425994873046875,0.1715850830078125
1772642758717920800,4.597920654296875,-0.8871917724609375,-0.23919677734375,0.174468994140625
1772642758727966000,4.607966064453125,-0.7970733642578125,-0.23699951171875,0.1749267578125
1772642758738011000,4.618010986328125,-0.70111083984375,-0.246124267578125,0.141357421875
1772642758748055800,4.628055908203125,-0.6160736083984375,-0.26519775390625,0.092315673828125
1772642758758100700,4.638100830078125,-0.55230712890625,-0.270721435546875,0.0399627685546875
1772642758768145000,4.648144775390625,-0.5227203369140625,-0.2535400390625,-0.026275634765625
1772642758778189800,4.65818994140625,-0.525238037109375,-0.2214202880859375,-0.101165771484375
1772642758788235000,4.668235107421875,-0.5395050048828125,-0.1662445068359375,-0.1517181396484375
1772642758798279700,4.67827978515625,-0.55328369140625,-0.1145172119140625,-0.1747589111328125
1772642758808324900,4.688324951171875,-0.5420989990234375,-0.0620574951171875,-0.17596435546875
1772642758818369800,4.698369873046875,-0.5186614990234375,-0.0014801025390625,-0.127532958984375
1772642758828415000,4.7084150390625,-0.486663818359375,0.0473480224609375,-0.0457916259765625
1772642758838460000,4.7184599609375,-0.448944091796875,0.08746337890625,0.0338287353515625
1772642758848504800,4.7285048828125,-0.408447265625,0.11346435546875,0.081024169921875
1772642758858549800,4.7385498046875,-0.3499755859375,0.1174774169921875,0.0844268798828125
1772642758868595000,4.748594970703125,-0.2826385498046875,0.1077880859375,0.0455169677734375
1772642758878639900,4.758639892578125,-0.234527587890625,0.0855712890625,-0.0109710693359375
1772642758888684800,4.768684814453125,-0.190948486328125,0.0541229248046875,-0.0768280029296875
1772642758898729700,4.778729736328125,-0.153167724609375,0.026519775390625,-0.12982177734375
1772642758908775000,4.78877490234375,-0.13250732421875,0.00921630859375,-0.1525726318359375
1772642758918819800,4.79881982421875,-0.1231231689453125,0.0072479248046875,-0.1588897705078125
1772642758928865000,4.808864990234375,-0.120880126953125,0.002593994140625,-0.14703369140625
1772642758938909700,4.81890966796875,-0.11737060546875,-0.0045623779296875,-0.134490966796875
1772642758948955000,4.828954833984375,-0.1143951416015625,-0.0103912353515625,-0.1402587890625
1772642758958999800,4.838999755859375,-0.1292877197265625,-0.01019287109375,-0.1496734619140625
1772642758969045000,4.849044921875,-0.1673583984375,-0.0193634033203125,-0.1392822265625
1772642758979089700,4.859089599609375,-0.21630859375,-0.0417327880859375,-0.1126251220703125
1772642758989134800,4.869134765625,-0.2516632080078125,-0.0580291748046875,-0.089874267578125
1772642758999179800,4.8791796875,-0.2794952392578125,-0.06085205078125,-0.0819244384765625
1772642759009225000,4.889224853515625,-0.319549560546875,-0.0537872314453125,-0.0835113525390625
1772642759019270000,4.899269775390625,-0.3758087158203125,-0.04998779296875,-0.0848388671875
1772642759029314800,4.909314697265625,-0.44000244140625,-0.0637359619140625,-0.0752105712890625
1772642759039359700,4.91935986328125,-0.500640869140625,-0.10321044921875,-0.04742431640625
1772642759049405000,4.929405029296875,-0.53509521484375,-0.1953277587890625,0.0019378662109375
1772642759059449900,4.939449951171875,-0.4938201904296875,-0.30419921875,0.0533294677734375
1772642759069495000,4.9494951171875,-0.410552978515625,-0.38336181640625,0.0709075927734375
1772642759079539700,4.959539794921875,-0.41302490234375,-0.4005889892578125,0.0290374755859375
1772642759089585000,4.9695849609375,-0.5912017822265625,-0.344207763671875,-0.0296478271484375
1772642759099629800,4.9796298828125,-0.9120330810546875,-0.32379150390625,-0.0168609619140625
1772642759109675000,4.989675048828125,-1.2009124755859375,-0.3712310791015625,0.049041748046875
1772642759119719700,4.9997197265625,-1.2369537353515625,-0.3163909912109375,0.03271484375
1772642759129764900,5.009764892578125,-1.1581878662109375,-0.1748809814453125,-0.059722900390625
1772642759139809800,5.019809814453125,-1.195526123046875,-0.151885986328125,-0.0879364013671875
1772642759149855000,5.02985498046875,-1.27801513671875,-0.223419189453125,-0.048828125
1772642759159900000,5.03989990234375,-1.2788848876953125,-0.280120849609375,-0.02484130859375
1772642759169944800,5.04994482421875,-1.2514801025390625,-0.29632568359375,-0.010772705078125
1772642759179989800,5.05998974609375,-1.2802581787109375,-0.2953033447265625,-0.00555419921875
1772642759190035200,5.07003515625,-1.3966064453125,-0.287017822265625,-0.0266571044921875
1772642759200080100,5.080080078125,-1.531005859375,-0.27459716796875,-0.061614990234375
1772642759210125300,5.090125244140625,-1.6439208984375,-0.25390625,-0.0967254638671875
1772642759220170000,5.100169921875,-1.7429351806640625,-0.207122802734375,-0.108673095703125
1772642759230215200,5.110215087890625,-1.8050384521484375,-0.19378662109375,-0.071624755859375
1772642759240260000,5.120260009765625,-1.8247222900390625,-0.1829833984375,-0.012481689453125
1772642759250304300,5.13030419921875,-1.8359527587890625,-0.1825408935546875,0.033477783203125
1772642759260349000,5.140348876953125,-1.8571014404296875,-0.1872711181640625,0.0401153564453125
1772642759270394000,5.15039404296875,-1.8993072509765625,-0.17474365234375,-0.0147705078125
1772642759280439000,5.16043896484375,-1.9735260009765625,-0.149566650390625,-0.0672454833984375
1772642759290484200,5.170484130859375,-2.0498504638671875,-0.1025238037109375,-0.0908660888671875
1772642759300529000,5.18052880859375,-2.09454345703125,-0.093231201171875,-0.0760498046875
1772642759310574000,5.190573974609375,-2.078216552734375,-0.10595703125,-0.0490570068359375
1772642759320619000,5.200618896484375,-1.995758056640625,-0.1344146728515625,-0.0360260009765625
1772642759330664200,5.210664306640625,-1.911346435546875,-0.1674346923828125,-0.036468505859375
1772642759340709000,5.220709228515625,-1.857269287109375,-0.2025909423828125,-0.0306243896484375
1772642759350754000,5.230754150390625,-1.8171234130859375,-0.2193450927734375,-0.02874755859375
1772642759360799000,5.240799072265625,-1.794403076171875,-0.202789306640625,-0.0214080810546875
1772642759370844200,5.25084423828125,-1.798065185546875,-0.1679840087890625,-0.0062255859375
1772642759380889000,5.26088916015625,-1.8059234619140625,-0.1236724853515625,0.0156097412109375
1772642759390934000,5.27093408203125,-1.788726806640625,-0.0817718505859375,0.02880859375
1772642759400979000,5.28097900390625,-1.7480621337890625,-0.0506591796875,0.0333251953125
1772642759411024100,5.291024169921875,-1.708984375,-0.0354461669921875,0.042724609375
1772642759421069000,5.301069091796875,-1.6661529541015625,-0.032684326171875,0.0521087646484375
1772642759431114200,5.3111142578125,-1.630462646484375,-0.0333709716796875,0.053741455078125
1772642759441159000,5.321158935546875,-1.5799407958984375,-0.033355712890625,0.0406341552734375
1772642759451204000,5.3312041015625,-1.48974609375,-0.05267333984375,0.0394134521484375
1772642759461249000,5.3412490234375,-1.3673858642578125,-0.0973052978515625,0.0289459228515625
1772642759471294200,5.351294189453125,-1.230133056640625,-0.1627044677734375,0.0163726806640625
1772642759481339100,5.361339111328125,-1.084716796875,-0.228759765625,0.0200042724609375
1772642759491384000,5.371384033203125,-0.9270172119140625,-0.2808685302734375,0.0075836181640625
1772642759501429000,5.381428955078125,-0.7688751220703125,-0.291168212890625,-0.033416748046875
1772642759511474200,5.39147412109375,-0.6140594482421875,-0.2923431396484375,-0.079498291015625
1772642759521519000,5.40151904296875,-0.4713134765625,-0.2827301025390625,-0.116790771484375
1772642759531564000,5.41156396484375,-0.386566162109375,-0.25360107421875,-0.15802001953125
1772642759541609000,5.42160888671875,-0.362152099609375,-0.19244384765625,-0.1814422607421875
1772642759551654100,5.431654052734375,-0.36846923828125,-0.1261138916015625,-0.160400390625
1772642759561699000,5.441698974609375,-0.363311767578125,-0.0746002197265625,-0.11309814453125
1772642759571744300,5.451744140625,-0.318634033203125,-0.023834228515625,-0.0749664306640625
1772642759581789000,5.461788818359375,-0.2624053955078125,0.0214080810546875,-0.0533905029296875
1772642759591834000,5.471834228515625,-0.2227325439453125,0.0470428466796875,-0.0518035888671875
1772642759601879000,5.481879150390625,-0.2046356201171875,0.068572998046875,-0.0568695068359375
1772642759611924200,5.49192431640625,-0.171630859375,0.08514404296875,-0.0693359375
1772642759621969200,5.50196923828125,-0.10675048828125,0.0809173583984375,-0.083892822265625
1772642759632014000,5.51201416015625,-0.0379638671875,0.06475830078125,-0.0892486572265625
1772642759642059000,5.52205908203125,0.0191497802734375,0.0466766357421875,-0.0773162841796875
1772642759652104200,5.532104248046875,0.055908203125,0.021942138671875,-0.0774993896484375
1772642759662149000,5.542149169921875,0.0557403564453125,0.006561279296875,-0.098236083984375
1772642759672194000,5.552194091796875,0.0237884521484375,-0.0002288818359375,-0.1118316650390625
1772642759682239000,5.562239013671875,-0.0226898193359375,-0.0121307373046875,-0.1253509521484375
1772642759692284200,5.5722841796875,-0.0798187255859375,-0.016876220703125,-0.1531219482421875
1772642759702329000,5.5823291015625,-0.156158447265625,-0.0063934326171875,-0.176544189453125
1772642759712374300,5.592374267578125,-0.2352294921875,0.0122833251953125,-0.184844970703125
1772642759722419000,5.6024189453125,-0.308990478515625,0.0299835205078125,-0.1857147216796875
1772642759732463000,5.612463134765625,-0.3649139404296875,0.0478668212890625,-0.1796875
1772642759742508300,5.62250830078125,-0.4022979736328125,0.062408447265625,-0.161163330078125
1772642759752553000,5.632552978515625,-0.4197540283203125,0.0594329833984375,-0.137908935546875
1772642759762598100,5.64259814453125,-0.4202423095703125,0.043914794921875,-0.111602783203125
1772642759772643000,5.65264306640625,-0.444244384765625,0.0119781494140625,-0.0732574462890625
1772642759782688300,5.662688232421875,-0.4781646728515625,-0.0437774658203125,-0.03997802734375
1772642759792733200,5.672733154296875,-0.4924163818359375,-0.1024322509765625,-0.0202484130859375
1772642759802778000,5.682778076171875,-0.446441650390625,-0.165374755859375,-0.013519287109375
1772642759812823000,5.692822998046875,-0.3701019287109375,-0.2265472412109375,-0.01470947265625
1772642759822868200,5.7028681640625,-0.353179931640625,-0.2767791748046875,-0.00445556640625
1772642759832913200,5.7129130859375,-0.4412689208984375,-0.3311920166015625,0.0188446044921875
1772642759842958300,5.722958251953125,-0.560516357421875,-0.3582763671875,0.0177764892578125
1772642759853003000,5.7330029296875,-0.7223968505859375,-0.3051300048828125,-0.0527801513671875
1772642759863048200,5.743048095703125,-1.0277557373046875,-0.25445556640625,-0.0703887939453125
1772642759873093000,5.753093017578125,-1.3566131591796875,-0.26055908203125,0.004180908203125
1772642759883138300,5.76313818359375,-1.502685546875,-0.273651123046875,0.047576904296875
1772642759893183000,5.773182861328125,-1.426513671875,-0.2410125732421875,-0.0067138671875
1772642759903228200,5.783228271484375,-1.3488311767578125,-0.269744873046875,-0.059783935546875
1772642759913273000,5.793273193359375,-1.37115478515625,-0.33734130859375,-0.058929443359375
1772642759923318300,5.803318359375,-1.4445343017578125,-0.3438262939453125,-0.0754547119140625
1772642759933363200,5.81336328125,-1.56103515625,-0.3145904541015625,-0.0851898193359375
1772642759943408000,5.823408203125,-1.6761474609375,-0.277679443359375,-0.0863494873046875
1772642759953453000,5.833453125,-1.7601318359375,-0.26171875,-0.080963134765625
1772642759963498200,5.843498291015625,-1.8246307373046875,-0.2869110107421875,-0.0622711181640625
1772642759973543200,5.853543212890625,-1.832611083984375,-0.33795166015625,-0.0621337890625
1772642759983588000,5.863588134765625,-1.8267974853515625,-0.3475341796875,-0.094757080078125
1772642759993633000,5.873633056640625,-1.8531341552734375,-0.340118408203125,-0.1401824951171875
1772642760003678200,5.88367822265625,-1.9330291748046875,-0.316436767578125,-0.1732330322265625
1772642760013723100,5.89372314453125,-2.050933837890625,-0.2714996337890625,-0.205230712890625
1772642760023768000,5.90376806640625,-2.1607208251953125,-0.245758056640625,-0.2122802734375
1772642760033813000,5.91381298828125,-2.220367431640625,-0.25848388671875,-0.19793701171875
1772642760043858200,5.923858154296875,-2.141448974609375,-0.2975921630859375,-0.2026214599609375
1772642760053903000,5.933903076171875,-1.93280029296875,-0.34356689453125,-0.2300567626953125
1772642760063948000,5.943947998046875,-1.7408294677734375,-0.36474609375,-0.2356719970703125
1772642760073993200,5.9539931640625,-1.619720458984375,-0.3612213134765625,-0.2115325927734375
1772642760084038100,5.9640380859375,-1.5828094482421875,-0.32916259765625,-0.149566650390625
1772642760094083000,5.9740830078125,-1.5895233154296875,-0.2824859619140625,-0.0839996337890625
1772642760104128000,5.9841279296875,-1.590484619140625,-0.243988037109375,-0.0547637939453125
1772642760114173200,5.994173095703125,-1.5856781005859375,-0.2282867431640625,-0.044158935546875
1772642760124218000,6.004218017578125,-1.553009033203125,-0.229888916015625,-0.0505218505859375
1772642760134263000,6.014262939453125,-1.4880218505859375,-0.23785400390625,-0.05999755859375
1772642760144308000,6.024307861328125,-1.409088134765625,-0.248138427734375,-0.0591278076171875
1772642760154353200,6.034353271484375,-1.3131256103515625,-0.2588653564453125,-0.0495452880859375
1772642760164398000,6.044398193359375,-1.2081298828125,-0.27789306640625,-0.033660888671875
1772642760174443000,6.054443115234375,-1.0808258056640625,-0.2880706787109375,-0.0114898681640625
1772642760184487200,6.064487060546875,-0.9455413818359375,-0.27752685546875,0.010833740234375
1772642760194530600,6.074530517578125,-0.8283538818359375,-0.2536773681640625,0.0318756103515625
1772642760204575500,6.084575439453125,-0.7534942626953125,-0.213836669921875,0.0457305908203125
1772642760214620700,6.09462060546875,-0.708343505859375,-0.1817169189453125,0.0584869384765625
1772642760224665300,6.104665283203125,-0.6686553955078125,-0.1499786376953125,0.064727783203125
1772642760234710500,6.11471044921875,-0.651123046875,-0.1115570068359375,0.0508270263671875
1772642760244755500,6.12475537109375,-0.664276123046875,-0.05633544921875,0.01763916015625
1772642760254800600,6.134800537109375,-0.7062530517578125,0.001129150390625,-0.011138916015625
1772642760264845300,6.14484521484375,-0.7378387451171875,0.0535736083984375,-0.029266357421875
1772642760274890500,6.154890380859375,-0.7362518310546875,0.080902099609375,-0.049530029296875
1772642760284935400,6.164935302734375,-0.705841064453125,0.085693359375,-0.07696533203125
1772642760294980600,6.174980712890625,-0.6399688720703125,0.0763092041015625,-0.1042633056640625
1772642760305025500,6.185025634765625,-0.5501861572265625,0.0533447265625,-0.1095428466796875
1772642760315070500,6.195070556640625,-0.4350738525390625,0.0152587890625,-0.0953521728515625
1772642760325115400,6.205115478515625,-0.3335113525390625,-0.0183258056640625,-0.06988525390625
1772642760335160600,6.21516064453125,-0.252166748046875,-0.042694091796875,-0.033966064453125
1772642760345205500,6.22520556640625,-0.207122802734375,-0.051788330078125,-0.013824462890625
1772642760355250700,6.235250732421875,-0.2009124755859375,-0.0600738525390625,0.0033721923828125
1772642760365295400,6.24529541015625,-0.2059478759765625,-0.07574462890625,0.0067901611328125
1772642760375340500,6.255340576171875,-0.20635986328125,-0.1039581298828125,-0.019134521484375
1772642760385385500,6.265385498046875,-0.19580078125,-0.1237640380859375,-0.0443572998046875
1772642760395430700,6.2754306640625,-0.1765289306640625,-0.1287689208984375,-0.05059814453125
1772642760405475300,6.285475341796875,-0.1747894287109375,-0.1266021728515625,-0.0269775390625
1772642760415520500,6.2955205078125,-0.1903076171875,-0.1197357177734375,0.0065460205078125
1772642760425565400,6.3055654296875,-0.22479248046875,-0.0966033935546875,0.02911376953125
1772642760435610600,6.315610595703125,-0.27484130859375,-0.06591796875,0.0333404541015625
1772642760445655600,6.325655517578125,-0.325531005859375,-0.043487548828125,0.0177459716796875
1772642760455700500,6.335700439453125,-0.346038818359375,-0.0245513916015625,-0.0020294189453125
1772642760465745400,6.345745361328125,-0.3367919921875,-0.016204833984375,-0.0205841064453125
1772642760475790600,6.35579052734375,-0.31048583984375,-0.0116119384765625,-0.04052734375
1772642760485835500,6.36583544921875,-0.2990570068359375,-0.004974365234375,-0.0505218505859375
1772642760495880400,6.37588037109375,-0.3040313720703125,-0.011749267578125,-0.053436279296875
1772642760505925400,6.38592529296875,-0.31976318359375,-0.0309600830078125,-0.060821533203125
1772642760515970600,6.395970458984375,-0.3521881103515625,-0.050140380859375,-0.055938720703125
1772642760526015500,6.406015380859375,-0.3733367919921875,-0.11236572265625,-0.0341644287109375
1772642760536060700,6.416060791015625,-0.3283538818359375,-0.19573974609375,-0.031219482421875
1772642760546105300,6.426105224609375,-0.2407073974609375,-0.271453857421875,-0.070953369140625
1772642760556150500,6.436150634765625,-0.184844970703125,-0.3376312255859375,-0.136627197265625
1772642760566195500,6.446195556640625,-0.2546844482421875,-0.3841400146484375,-0.191558837890625
1772642760576240600,6.45624072265625,-0.440155029296875,-0.4185333251953125,-0.1956634521484375
1772642760586285600,6.46628564453125,-0.6338348388671875,-0.46014404296875,-0.1225433349609375
1772642760596330500,6.47633056640625,-0.67071533203125,-0.484954833984375,-0.060882568359375
1772642760606375400,6.48637548828125,-0.680206298828125,-0.440399169921875,-0.06915283203125
1772642760616420600,6.496420654296875,-0.8391265869140625,-0.40966796875,-0.03118896484375
1772642760626464300,6.50646435546875,-1.0258636474609375,-0.42352294921875,0.026519775390625
1772642760636509400,6.516509521484375,-1.1983642578125,-0.3933258056640625,0.001678466796875
1772642760646554400,6.526554443359375,-1.3731689453125,-0.352020263671875,-0.0662078857421875
1772642760656599600,6.536599609375,-1.521087646484375,-0.342620849609375,-0.1182861328125
1772642760666644500,6.54664453125,-1.6373748779296875,-0.32366943359375,-0.15081787109375
1772642760676689400,6.556689453125,-1.738006591796875,-0.298614501953125,-0.1572265625
1772642760686734300,6.566734375,-1.81781005859375,-0.256439208984375,-0.1307830810546875
1772642760696779500,6.576779541015625,-1.86749267578125,-0.222930908203125,-0.0925445556640625
1772642760706824400,6.586824462890625,-1.8692169189453125,-0.2266998291015625,-0.073638916015625
1772642760716869600,6.59686962890625,-1.8659515380859375,-0.2383270263671875,-0.052215576171875
1772642760726914300,6.606914306640625,-1.871337890625,-0.248931884765625,-0.033416748046875
1772642760736959500,6.61695947265625,-1.8939971923828125,-0.2205657958984375,-0.063720703125
1772642760747004400,6.62700439453125,-2.0147705078125,-0.174468994140625,-0.119110107421875
1772642760757049600,6.637049560546875,-2.1887969970703125,-0.115325927734375,-0.1764678955078125
1772642760767094300,6.64709423828125,-2.32989501953125,-0.0846099853515625,-0.2199249267578125
1772642760777139500,6.657139404296875,-2.36627197265625,-0.081756591796875,-0.241455078125
1772642760787184400,6.667184326171875,-2.288787841796875,-0.136932373046875,-0.2447509765625
1772642760797229600,6.6772294921875,-2.116180419921875,-0.2033843994140625,-0.211883544921875
1772642760807274500,6.6872744140625,-1.9470977783203125,-0.2564697265625,-0.1614837646484375
1772642760817319400,6.6973193359375,-1.8113250732421875,-0.289337158203125,-0.13427734375
1772642760827364400,6.7073642578125,-1.7631378173828125,-0.299468994140625,-0.1100006103515625
1772642760837409500,6.717409423828125,-1.75482177734375,-0.2905731201171875,-0.0900115966796875
1772642760847454500,6.727454345703125,-1.73724365234375,-0.274322509765625,-0.074066162109375
1772642760857499400,6.73749951171875,-1.703857421875,-0.263214111328125,-0.0548858642578125
1772642760867544300,6.74754443359375,-1.669403076171875,-0.248291015625,-0.0330047607421875
1772642760877589500,6.757589599609375,-1.6373443603515625,-0.220367431640625,-0.0118560791015625
1772642760887634400,6.767634521484375,-1.62005615234375,-0.1988372802734375,-0.0015106201171875
1772642760897679600,6.7776796875,-1.6030731201171875,-0.1744842529296875,-0.0216522216796875
1772642760907724300,6.787724365234375,-1.555938720703125,-0.1659698486328125,-0.0558013916015625
1772642760917769500,6.79776953125,-1.4791717529296875,-0.150360107421875,-0.093902587890625
1772642760927814400,6.807814453125,-1.392547607421875,-0.1444244384765625,-0.1144256591796875
1772642760937859600,6.817859619140625,-1.27655029296875,-0.14337158203125,-0.0974578857421875
1772642760947904500,6.827904541015625,-1.110748291015625,-0.1326446533203125,-0.065673828125
1772642760957949400,6.837949462890625,-0.9359893798828125,-0.1454010009765625,-0.039581298828125
1772642760967994400,6.847994384765625,-0.7683258056640625,-0.16925048828125,-0.0172271728515625
1772642760978039600,6.85803955078125,-0.6249847412109375,-0.1754302978515625,-0.01385498046875
1772642760988084500,6.86808447265625,-0.5349578857421875,-0.1598052978515625,-0.0201568603515625
1772642760998129400,6.87812939453125,-0.474395751953125,-0.159149169921875,-0.017547607421875
1772642761008174300,6.88817431640625,-0.4066162109375,-0.1741943359375,-0.0190887451171875
1772642761018219500,6.898219482421875,-0.3525238037109375,-0.2247161865234375,-0.05169677734375
1772642761028264400,6.908264404296875,-0.32513427734375,-0.265625,-0.1610107421875
1772642761038308400,6.918308349609375,-0.3422698974609375,-0.2583770751953125,-0.280517578125
1772642761048353500,6.928353515625,-0.3729400634765625,-0.2342681884765625,-0.3329315185546875
1772642761058398500,6.9383984375,-0.3809814453125,-0.2166290283203125,-0.3313751220703125
1772642761068443600,6.948443603515625,-0.3422088623046875,-0.174224853515625,-0.3048553466796875
1772642761078488600,6.958488525390625,-0.258941650390625,-0.133209228515625,-0.27264404296875
1772642761088533500,6.968533447265625,-0.1690826416015625,-0.1032867431640625,-0.2259674072265625
1772642761098578400,6.978578369140625,-0.08734130859375,-0.0767364501953125,-0.16241455078125
1772642761108623600,6.98862353515625,-0.007232666015625,-0.0563812255859375,-0.09161376953125
1772642761118668500,6.99866845703125,0.0692901611328125,-0.0418853759765625,-0.0287017822265625
1772642761128713500,7.00871337890625,0.1254119873046875,-0.0454254150390625,0.0039520263671875
1772642761138758400,7.01875830078125,0.1544647216796875,-0.04547119140625,0.0041351318359375
1772642761148803600,7.028803466796875,0.1344146728515625,-0.0365753173828125,-0.0074615478515625
1772642761158848500,7.0388486328125,0.06597900390625,-0.0227203369140625,-0.0263824462890625
1772642761168893700,7.048893798828125,-0.052215576171875,0.0040283203125,-0.0440673828125
1772642761178938400,7.0589384765625,-0.1742401123046875,0.0367584228515625,-0.067474365234375
1772642761188984000,7.068984130859375,-0.265289306640625,0.06365966796875,-0.0887451171875
1772642761199029200,7.079029296875,-0.3386383056640625,0.0858917236328125,-0.1011962890625
1772642761209074000,7.089073974609375,-0.4034423828125,0.1161041259765625,-0.1054534912109375
1772642761219119000,7.099119140625,-0.450836181640625,0.1425018310546875,-0.097747802734375
1772642761229164000,7.1091640625,-0.4710540771484375,0.1611175537109375,-0.0802154541015625
1772642761239209200,7.119209228515625,-0.484100341796875,0.1640167236328125,-0.0717926025390625
1772642761249254000,7.12925390625,-0.51123046875,0.163726806640625,-0.0730133056640625
1772642761259299000,7.139299072265625,-0.552734375,0.1641693115234375,-0.0700531005859375
1772642761269344000,7.149343994140625,-0.6118927001953125,0.1612091064453125,-0.053070068359375
1772642761279389200,7.15938916015625,-0.6682891845703125,0.146087646484375,-0.0310821533203125
1772642761289434000,7.16943408203125,-0.6700592041015625,0.1071319580078125,-0.02264404296875
1772642761299479000,7.17947900390625,-0.628143310546875,0.0563201904296875,-0.031463623046875
1772642761309524000,7.18952392578125,-0.59375,-0.01446533203125,-0.0491790771484375
1772642761319569200,7.199569091796875,-0.5975341796875,-0.1115570068359375,-0.05975341796875
1772642761329614000,7.209614013671875,-0.576019287109375,-0.2236328125,-0.0634307861328125
1772642761339659300,7.2196591796875,-0.562530517578125,-0.3205108642578125,-0.0701141357421875
1772642761349704000,7.229703857421875,-0.7074432373046875,-0.3299560546875,-0.1468048095703125
1772642761359749000,7.2397490234375,-1.060760498046875,-0.2796478271484375,-0.22784423828125
1772642761369794000,7.2497939453125,-1.4461669921875,-0.1610107421875,-0.257171630859375
1772642761379839200,7.259839111328125,-1.740966796875,0.037933349609375,-0.3056640625
1772642761389884000,7.2698837890625,-1.93389892578125,0.11810302734375,-0.3116455078125
1772642761399929000,7.27992919921875,-2.076751708984375,0.0830535888671875,-0.2581634521484375
1772642761409973200,7.28997314453125,-2.1240386962890625,0.038360595703125,-0.2359771728515625
1772642761420018200,7.30001806640625,-2.1014251708984375,0.002899169921875,-0.29327392578125
1772642761430063000,7.31006298828125,-2.1103515625,-0.0286712646484375,-0.361328125
1772642761440108000,7.32010791015625,-2.1708831787109375,-0.0359954833984375,-0.3844757080078125
1772642761450153200,7.3301533203125,-2.2226715087890625,-0.0499267578125,-0.3589935302734375
1772642761460198100,7.3401982421875,-2.20343017578125,-0.068939208984375,-0.30694580078125
1772642761470243300,7.350243408203125,-2.1504058837890625,-0.123260498046875,-0.257354736328125
1772642761480288000,7.3602880859375,-2.0550994873046875,-0.1988677978515625,-0.22283935546875
1772642761490333200,7.370333251953125,-1.9806671142578125,-0.277313232421875,-0.226318359375
1772642761500378000,7.380378173828125,-1.9901275634765625,-0.3079986572265625,-0.255828857421875
1772642761510423300,7.39042333984375,-2.0630950927734375,-0.3062744140625,-0.2907562255859375
1772642761520468000,7.400468017578125,-2.1363067626953125,-0.2777099609375,-0.3331756591796875
1772642761530513200,7.41051318359375,-2.1947784423828125,-0.246337890625,-0.3614654541015625
1772642761540558000,7.42055810546875,-2.1791839599609375,-0.229461669921875,-0.3510894775390625
1772642761550603300,7.430603271484375,-2.0610504150390625,-0.241119384765625,-0.3034210205078125
1772642761560648200,7.440648193359375,-1.862518310546875,-0.25714111328125,-0.2361297607421875
1772642761570693000,7.450693115234375,-1.680389404296875,-0.266387939453125,-0.1569976806640625
1772642761580738000,7.460738037109375,-1.546295166015625,-0.2804107666015625,-0.082183837890625
1772642761590783200,7.470783203125,-1.4363555908203125,-0.2802276611328125,-0.0183258056640625
1772642761600828200,7.480828125,-1.3520965576171875,-0.2522125244140625,0.019073486328125
1772642761610873300,7.490873291015625,-1.2730255126953125,-0.2334442138671875,0.0540771484375
1772642761620918000,7.50091796875,-1.1748046875,-0.21771240234375,0.0800628662109375
1772642761630963200,7.510963134765625,-1.0330352783203125,-0.19818115234375,0.0904998779296875
1772642761641008000,7.521008056640625,-0.8683624267578125,-0.18499755859375,0.101318359375
1772642761651053300,7.53105322265625,-0.7293243408203125,-0.175506591796875,0.0915374755859375
1772642761661098000,7.541097900390625,-0.6369171142578125,-0.1584930419921875,0.0708160400390625
1772642761671143200,7.55114306640625,-0.5757598876953125,-0.1392364501953125,0.037628173828125
1772642761681188000,7.56118798828125,-0.5284576416015625,-0.11798095703125,-0.0126190185546875
1772642761691233300,7.5712333984375,-0.496734619140625,-0.085845947265625,-0.079437255859375
1772642761701278200,7.5812783203125,-0.495941162109375,-0.051300048828125,-0.138885498046875
1772642761711323100,7.5913232421875,-0.5172576904296875,-0.0238189697265625,-0.180572509765625
1772642761721368000,7.6013681640625,-0.5363616943359375,0.0053863525390625,-0.1889190673828125
1772642761731413200,7.611413330078125,-0.5357208251953125,0.0249786376953125,-0.1640472412109375
1772642761741458200,7.621458251953125,-0.507781982421875,0.0428314208984375,-0.12139892578125
1772642761751503000,7.631503173828125,-0.4566497802734375,0.0605621337890625,-0.072418212890625
1772642761761548000,7.641548095703125,-0.38604736328125,0.060577392578125,-0.027923583984375
1772642761771593200,7.65159326171875,-0.316253662109375,0.039276123046875,-0.018341064453125
1772642761781638100,7.66163818359375,-0.2602691650390625,0.0174560546875,-0.0413055419921875
1772642761791682000,7.67168212890625,-0.2129669189453125,-0.00146484375,-0.079803466796875
1772642761801727000,7.68172705078125,-0.174407958984375,-0.0200042724609375,-0.1133575439453125
1772642761811772200,7.691772216796875,-0.1617431640625,-0.026763916015625,-0.119720458984375
1772642761821817000,7.701817138671875,-0.1656494140625,-0.0276641845703125,-0.1060333251953125
1772642761831862300,7.7118623046875,-0.170440673828125,-0.0194091796875,-0.0941314697265625
1772642761841907000,7.721906982421875,-0.2030181884765625,-0.004364013671875,-0.0852508544921875
1772642761851952000,7.7319521484375,-0.2701263427734375,0.017242431640625,-0.08551025390625
1772642761861997000,7.7419970703125,-0.3317718505859375,0.040191650390625,-0.0832366943359375
1772642761872042200,7.752042236328125,-0.375823974609375,0.048095703125,-0.096466064453125
1772642761882087000,7.7620869140625,-0.4207305908203125,0.05291748046875,-0.119598388671875
1772642761892132000,7.772132080078125,-0.473114013671875,0.0680999755859375,-0.13348388671875
1772642761902177000,7.782177001953125,-0.5376434326171875,0.085784912109375,-0.134857177734375
1772642761912222200,7.79222216796875,-0.60308837890625,0.0891265869140625,-0.1347503662109375
1772642761922267100,7.80226708984375,-0.6430206298828125,0.0947418212890625,-0.1351776123046875
1772642761932312000,7.81231201171875,-0.6508941650390625,0.0889739990234375,-0.1226654052734375
1772642761942357000,7.82235693359375,-0.6387939453125,0.0726470947265625,-0.0935211181640625
1772642761952402200,7.832402099609375,-0.6328887939453125,0.053955078125,-0.0856475830078125
1772642761962447000,7.842447021484375,-0.68035888671875,0.043548583984375,-0.094757080078125
1772642761972492300,7.8524921875,-0.7956390380859375,0.0112152099609375,-0.0899658203125
1772642761982537000,7.862536865234375,-0.9049072265625,-0.0529632568359375,-0.0806121826171875
1772642761992582100,7.87258203125,-0.933013916015625,-0.1164398193359375,-0.0929107666015625
1772642762002627000,7.882626953125,-0.9632568359375,-0.21685791015625,-0.11700439453125
1772642762012672300,7.89267236328125,-0.9951934814453125,-0.440032958984375,-0.0625
1772642762022717000,7.902717041015625,-0.7399139404296875,-0.442138671875,-0.168304443359375
1772642762032762000,7.91276220703125,-0.75738525390625,-0.3033294677734375,-0.2872772216796875
1772642762042807000,7.92280712890625,-1.0258026123046875,-0.3625946044921875,-0.0906524658203125
1772642762052852200,7.932852294921875,-1.12249755859375,-0.414581298828125,0.109771728515625
1772642762062897200,7.942897216796875,-1.147705078125,-0.308929443359375,0.1094970703125
1772642762072942000,7.952942138671875,-1.219329833984375,-0.2318267822265625,0.0834197998046875
1772642762082987000,7.962987060546875,-1.3684844970703125,-0.2945404052734375,0.1509857177734375
1772642762093032200,7.9730322265625,-1.4858856201171875,-0.3449554443359375,0.23077392578125
1772642762103077000,7.9830771484375,-1.4921875,-0.3450927734375,0.225433349609375
1772642762113122000,7.9931220703125,-1.4332122802734375,-0.3021087646484375,0.1222991943359375
1772642762123167000,8.0031669921875,-1.46368408203125,-0.2772369384765625,0.0576629638671875
1772642762133212200,8.013212158203125,-1.5405120849609375,-0.2791748046875,0.04315185546875
1772642762143257000,8.023257080078125,-1.5619354248046875,-0.2848358154296875,0.00848388671875
1772642762153302300,8.03330224609375,-1.5382232666015625,-0.297607421875,-0.0802459716796875
1772642762163346200,8.04334619140625,-1.515625,-0.2799224853515625,-0.16033935546875
1772642762173391000,8.05339111328125,-1.5186309814453125,-0.250518798828125,-0.190673828125
1772642762183436000,8.06343603515625,-1.54986572265625,-0.2298431396484375,-0.1702423095703125
1772642762193480700,8.073480712890625,-1.5955047607421875,-0.2059478759765625,-0.138275146484375
1772642762203525600,8.083525634765625,-1.6246490478515625,-0.1940155029296875,-0.1078338623046875
1772642762213570600,8.093570556640625,-1.6063232421875,-0.20648193359375,-0.0993804931640625
1772642762223615700,8.10361572265625,-1.5271453857421875,-0.22625732421875,-0.11395263671875
1772642762233660700,8.11366064453125,-1.42156982421875,-0.2507476806640625,-0.131927490234375
1772642762243705900,8.123705810546875,-1.334869384765625,-0.2615203857421875,-0.135772705078125
1772642762253750500,8.13375048828125,-1.2783050537109375,-0.27886962890625,-0.12939453125
1772642762263795700,8.143795654296875,-1.226715087890625,-0.2929229736328125,-0.1307220458984375
1772642762273840600,8.153840576171875,-1.1866455078125,-0.2893218994140625,-0.1216278076171875
1772642762283885800,8.1638857421875,-1.155364990234375,-0.2769622802734375,-0.0780181884765625
1772642762293930500,8.173930419921875,-1.10260009765625,-0.278717041015625,-0.0181884765625
1772642762303975700,8.1839755859375,-1.03515625,-0.267181396484375,0.0318756103515625
1772642762314020600,8.1940205078125,-0.97821044921875,-0.2541351318359375,0.0718994140625
1772642762324065800,8.204065673828126,-0.9473114013671875,-0.24737548828125,0.0902099609375
1772642762334110700,8.21411083984375,-0.930328369140625,-0.2349700927734375,0.07373046875
1772642762344155600,8.22415576171875,-0.9344329833984375,-0.2196197509765625,0.0494384765625
1772642762354200600,8.23420068359375,-0.9454193115234375,-0.207122802734375,0.0312042236328125
1772642762364245800,8.244245849609374,-0.9335479736328125,-0.1990509033203125,0.0228424072265625
1772642762374290700,8.254290771484374,-0.908203125,-0.1963348388671875,0.0222015380859375
1772642762384336000,8.2643359375,-0.8693084716796875,-0.180267333984375,0.0196685791015625
1772642762394380500,8.274380615234374,-0.8730316162109375,-0.1464691162109375,0.0048675537109375
1772642762404425700,8.28442578125,-0.9927825927734375,-0.112213134765625,-0.0037841796875
1772642762414470700,8.294470703125,-1.0154571533203125,-0.1032867431640625,0.0121002197265625
1772642762424515800,8.304515869140625,-0.949493408203125,-0.0986785888671875,0.0077667236328125
1772642762434560500,8.314560546875,-0.88861083984375,-0.114959716796875,-0.0103302001953125
1772642762444605700,8.324605712890625,-0.8528289794921875,-0.1439208984375,-0.0443267822265625
1772642762454650600,8.334650634765625,-0.8222808837890625,-0.1554412841796875,-0.0839080810546875
1772642762464695800,8.34469580078125,-0.81195068359375,-0.1524810791015625,-0.089935302734375
1772642762474740700,8.35474072265625,-0.8206024169921875,-0.1477508544921875,-0.0751190185546875
