time,seconds_elapsed,z,y,x
1772642754172565800,0.052565673828125,0.143344908952713,-0.1257195770740509,-0.42168572545051575
1772642754182610000,0.06260986328125,0.16997438669204712,-0.05192817747592926,-0.5459448099136353
1772642754192655000,0.072655029296875,0.18368834257125854,0.013568272814154625,-0.6638562679290771
1772642754202700000,0.082699951171875,0.18719731271266937,0.09879714995622635,-0.7547739148139954
1772642754212745200,0.0927451171875,0.18330538272857666,0.16963191330432892,-0.8115258812904358
1772642754222790000,0.102789794921875,0.16383127868175507,0.25177446007728577,-0.8238874673843384
1772642754232835000,0.1128349609375,0.14802515506744385,0.36423733830451965,-0.7798598408699036
1772642754242880000,0.1228798828125,0.14279523491859436,0.44500142335891724,-0.6969292759895325
1772642754252925200,0.13292529296875,0.13869236409664154,0.4517163336277008,-0.6050789952278137
1772642754262970000,0.14297021484375,0.12811322510242462,0.3998299539089203,-0.5062903761863708
1772642754273015000,0.15301513671875,0.13038037717342377,0.28184208273887634,-0.4218638837337494
1772642754283060000,0.16306005859375,0.16725370287895203,0.11908245086669922,-0.3604569733142853
1772642754293105200,0.173105224609375,0.21036095917224884,0.10672830790281296,-0.25911012291908264
1772642754303150000,0.183150146484375,0.27599164843559265,0.08419743180274963,-0.17096056044101715
1772642754313195000,0.193195068359375,0.3364557921886444,0.11946061998605728,-0.08418039232492447
1772642754323240000,0.203239990234375,0.3717133700847626,0.2779881954193115,0.02816452644765377
1772642754333285000,0.21328515625,0.3442782759666443,0.38210582733154297,0.12413553148508072
1772642754343330000,0.223330078125,0.30421581864356995,0.25862836837768555,0.16393834352493286
1772642754353375200,0.233375244140625,0.36018747091293335,-0.056401222944259644,0.18575921654701233
1772642754363420000,0.243419921875,0.41076037287712097,-0.39113685488700867,0.19922229647636414
1772642754373465000,0.253465087890625,0.3713360130786896,-0.46606916189193726,0.22137606143951416
1772642754383510000,0.263510009765625,0.24021978676319122,-0.31212034821510315,0.252690851688385
1772642754393555200,0.27355517578125,0.16059660911560059,-0.2946268320083618,0.2660045027732849
1772642754403600100,0.28360009765625,0.2461826056241989,-0.5257498025894165,0.23636166751384735
1772642754413644000,0.29364404296875,0.34574729204177856,-0.6611065864562988,0.2684767246246338
1772642754423689200,0.303689208984375,0.25568050146102905,-0.7571289539337158,0.3427991569042206
1772642754433734100,0.313734130859375,0.13313089311122894,-0.8237375617027283,0.37393978238105774
1772642754443779000,0.323779052734375,0.08801534026861191,-0.7714000344276428,0.5121527910232544
1772642754453824000,0.333823974609375,-0.044802892953157425,-0.5227817296981812,0.7882900834083557
1772642754463869200,0.343869140625,-0.17095549404621124,-0.28261545300483704,1.1149851083755493
1772642754473914000,0.3539140625,-0.1949114352464676,-0.16159608960151672,1.3234866857528687
1772642754483959300,0.363959228515625,-0.15877553820610046,-0.2054801881313324,1.3221023082733154
1772642754494004000,0.37400390625,-0.24705639481544495,-0.31445062160491943,1.0762406587600708
1772642754504049200,0.384049072265625,-0.368018239736557,-0.40418529510498047,0.7457751035690308
1772642754514094000,0.394093994140625,-0.4159460663795471,-0.6145891547203064,0.46988335251808167
1772642754524139300,0.40413916015625,-0.33280113339424133,-1.2071946859359741,0.3216017186641693
1772642754534184200,0.41418408203125,-0.16176040470600128,-1.6895605325698853,0.3617613911628723
1772642754544229000,0.42422900390625,0.041306428611278534,-1.7898175716400146,0.40720266103744507
1772642754554274000,0.434274169921875,0.27952539920806885,-1.7543797492980957,0.2827877700328827
1772642754564319200,0.4443193359375,0.3189164698123932,-1.551943302154541,0.02064482495188713
1772642754574364200,0.4543642578125,0.35574638843536377,-1.7849799394607544,-0.465193510055542
1772642754584409000,0.4644091796875,0.3458045423030853,-1.7396819591522217,-0.7990079522132874
1772642754594454000,0.4744541015625,0.3483060598373413,-1.4567723274230957,-1.1698973178863525
1772642754604499200,0.484499267578125,0.49779194593429565,-1.3282350301742554,-1.4674328565597534
1772642754614544100,0.494544189453125,0.6942663788795471,-1.1758819818496704,-1.591762900352478
1772642754624589300,0.50458935546875,0.762933611869812,-0.7589236497879028,-1.696593165397644
1772642754634634000,0.514634033203125,0.7670047879219055,-0.48815208673477173,-1.7259869575500488
1772642754644679200,0.52467919921875,0.5633914470672607,-0.04591182991862297,-1.6717437505722046
1772642754654724000,0.53472412109375,0.32891425490379333,0.3723013997077942,-1.4941306114196777
1772642754664769300,0.544769287109375,0.14014965295791626,0.5808724761009216,-1.212660789489746
1772642754674814000,0.55481396484375,-0.024700552225112915,0.6204065680503845,-0.8919954299926758
1772642754684859100,0.564859130859375,-0.1948118358850479,0.5400741696357727,-0.5978010892868042
1772642754694904000,0.574904052734375,-0.32527104020118713,0.4123401641845703,-0.35098996758461
1772642754704949200,0.58494921875,-0.41560786962509155,0.25117045640945435,-0.13658207654953003
1772642754714994200,0.594994140625,-0.4138328731060028,0.07623112201690674,0.1480959951877594
1772642754725039000,0.6050390625,-0.3898274004459381,0.03590739890933037,0.3427163362503052
1772642754735084000,0.615083984375,-0.32622337341308594,0.01372380182147026,0.50986248254776
1772642754745129200,0.625129150390625,-0.293230265378952,0.25253742933273315,0.6642845273017883
1772642754755174100,0.635174072265625,-0.2552679777145386,0.3746907711029053,0.7437058091163635
1772642754765219300,0.64521923828125,-0.22995251417160034,0.4702870845794678,0.6828187704086304
1772642754775264000,0.655263916015625,-0.21734003722667694,0.6169686913490295,0.6073077917098999
1772642754785309200,0.66530908203125,-0.24096441268920898,0.7593878507614136,0.49103203415870667
1772642754795354000,0.67535400390625,-0.29259297251701355,0.8283522725105286,0.347174733877182
1772642754805399300,0.6853994140625,-0.34960272908210754,0.8462226390838623,0.2025136947631836
1772642754815444000,0.69544384765625,-0.40964290499687195,0.8273674249649048,0.09518536925315857
1772642754825489200,0.7054892578125,-0.4764842689037323,0.7726293802261353,0.059053998440504074
1772642754835534000,0.7155341796875,-0.5723980069160461,0.6899025440216064,0.0870606005191803
1772642754845579300,0.725579345703125,-0.6838560700416565,0.5421788692474365,0.17412838339805603
1772642754855624200,0.735624267578125,-0.7983129024505615,0.32276472449302673,0.31356537342071533
1772642754865669000,0.745669189453125,-0.9130988717079163,0.012566391378641129,0.53587806224823
1772642754875714000,0.755714111328125,-1.0372591018676758,-0.14150413870811462,0.7150185108184814
1772642754885759200,0.76575927734375,-1.0472630262374878,-0.04337170720100403,0.8685598969459534
1772642754895804200,0.77580419921875,-0.9952688217163086,0.01299462839961052,1.1040552854537964
1772642754905849300,0.785849365234375,-0.9199572801589966,-0.05979409068822861,1.2366151809692383
1772642754915894000,0.79589404296875,-0.8541833758354187,-0.17907974123954773,1.2879470586776733
1772642754925939200,0.805939208984375,-0.8479792475700378,-0.2824673652648926,1.3092507123947144
1772642754935984000,0.815984130859375,-0.9103984236717224,-0.3565663695335388,1.3171203136444092
1772642754946029300,0.826029296875,-1.0115125179290771,-0.5141477584838867,1.2687184810638428
1772642754956074000,0.836073974609375,-1.1187108755111694,-0.8637843132019043,1.0803229808807373
1772642754966119200,0.846119140625,-1.2522201538085938,-1.3637725114822388,0.6225008368492126
1772642754976164000,0.8561640625,-1.4348698854446411,-1.6640071868896484,-0.01347426325082779
1772642754986209300,0.866209228515625,-1.5925860404968262,-1.6220557689666748,-0.4405808448791504
1772642754996254200,0.876254150390625,-1.5621367692947388,-1.3994083404541016,-0.7302054762840271
1772642755006299100,0.886299072265625,-1.3249231576919556,-1.2725952863693237,-0.9282269477844238
1772642755016344000,0.896343994140625,-0.9836574196815491,-1.242236852645874,-1.1313563585281372
1772642755026389200,0.90638916015625,-0.6680899262428284,-1.2439337968826294,-1.3733441829681396
1772642755036434200,0.91643408203125,-0.5619192719459534,-1.2952345609664917,-1.7849453687667847
1772642755046479000,0.92647900390625,-0.7145205140113831,-1.2548437118530273,-2.2471556663513184
1772642755056523000,0.93652294921875,-0.9115563631057739,-1.0882272720336914,-2.46307373046875
1772642755066568200,0.946568115234375,-1.0045864582061768,-0.8919232487678528,-2.470956563949585
1772642755076614100,0.9566142578125,-1.0068395137786865,-0.6412846446037292,-2.3589513301849365
1772642755086658000,0.966657958984375,-0.9706199169158936,-0.43087121844291687,-2.177121639251709
1772642755096703000,0.976702880859375,-0.9672888517379761,-0.31648924946784973,-1.952982783317566
1772642755106748200,0.986748046875,-0.9509855508804321,-0.2464206963777542,-1.585265040397644
1772642755116793000,0.99679296875,-0.8680344223976135,-0.2355789691209793,-1.052032232284546
1772642755126838300,1.00683837890625,-0.7297764420509338,-0.2662748396396637,-0.42739900946617126
1772642755136883000,1.016883056640625,-0.612673282623291,-0.3506682813167572,0.11146580427885056
1772642755146928000,1.02692822265625,-0.5701550841331482,-0.4727039039134979,0.4304768145084381
1772642755156973000,1.03697314453125,-0.572112500667572,-0.5358743667602539,0.5378493666648865
1772642755167018200,1.047018310546875,-0.5622463226318359,-0.4889664947986603,0.5117775201797485
1772642755177063000,1.05706298828125,-0.49531465768814087,-0.25613299012184143,0.4819677174091339
1772642755187107600,1.067107666015625,-0.3808099329471588,0.1352347880601883,0.46281611919403076
1772642755197152500,1.077152587890625,-0.2442651391029358,0.5600947141647339,0.43881383538246155
1772642755207197700,1.08719775390625,-0.09506046772003174,0.7884509563446045,0.3816024959087372
1772642755217242600,1.09724267578125,0.04224545881152153,0.7267984747886658,0.2662394046783447
1772642755227287600,1.10728759765625,0.15495896339416504,0.45594170689582825,0.08879245072603226
1772642755237332500,1.11733251953125,0.21446089446544647,0.13406433165073395,-0.12281540036201477
1772642755247377700,1.127377685546875,0.230523481965065,-0.09069181978702545,-0.35560843348503113
1772642755257422600,1.137422607421875,0.2567920982837677,-0.17485569417476654,-0.5626649260520935
1772642755267467500,1.147467529296875,0.3353748023509979,-0.1728636473417282,-0.7335013747215271
1772642755277512400,1.157512451171875,0.43226566910743713,-0.16943909227848053,-0.8903672099113464
1772642755287557600,1.1675576171875,0.5081045031547546,-0.18206913769245148,-1.046250581741333
1772642755297602600,1.1776025390625,0.5642910599708557,-0.10321906208992004,-1.1754151582717896
1772642755307647700,1.187647705078125,0.6065871119499207,0.04090482369065285,-1.2526756525039673
1772642755317692400,1.1976923828125,0.6188030242919922,0.1901792585849762,-1.2581290006637573
1772642755327737600,1.207737548828125,0.6027356386184692,0.34946131706237793,-1.173873782157898
1772642755337782500,1.217782470703125,0.5787832140922546,0.49720126390457153,-0.9745150804519653
1772642755347827700,1.22782763671875,0.5553923845291138,0.5804204940795898,-0.6882920861244202
1772642755357872400,1.237872314453125,0.5254805684089661,0.5614428520202637,-0.351433664560318
1772642755367917600,1.24791748046875,0.4782957434654236,0.4748557209968567,0.0033454629592597485
1772642755377962500,1.25796240234375,0.4119654595851898,0.3349907696247101,0.3438878655433655
1772642755388007700,1.268007568359375,0.34993162751197815,0.19655247032642365,0.6644189953804016
1772642755398052600,1.278052490234375,0.3104955554008484,0.09593451768159866,0.9475188851356506
1772642755408097500,1.28809765625,0.29638800024986267,0.016291622072458267,1.1371828317642212
1772642755418142500,1.298142578125,0.3052837550640106,-0.0306354071944952,1.2053402662277222
1772642755428187600,1.308187744140625,0.3093163073062897,-0.005938050337135792,1.155890703201294
1772642755438232600,1.318232666015625,0.28628769516944885,0.11868909746408463,1.0120835304260254
1772642755448277800,1.32827783203125,0.24725426733493805,0.31018608808517456,0.8234446048736572
1772642755458322400,1.338322509765625,0.22014674544334412,0.5161160826683044,0.621953010559082
1772642755468367600,1.34836767578125,0.22891893982887268,0.6722918152809143,0.4444490969181061
1772642755478412500,1.35841259765625,0.26894357800483704,0.7835776209831238,0.32623085379600525
1772642755488457700,1.368457763671875,0.30930137634277344,0.8499409556388855,0.2713633179664612
1772642755498502400,1.37850244140625,0.30872082710266113,0.8933057188987732,0.2647211253643036
1772642755508547600,1.388547607421875,0.2657499313354492,0.9214622378349304,0.2844961881637573
1772642755518592500,1.398592529296875,0.19882947206497192,0.9270354509353638,0.3005262613296509
1772642755528637700,1.4086376953125,0.11447704583406448,0.9041962027549744,0.3043540418148041
1772642755538682600,1.4186826171875,0.026161029934883118,0.8457107543945312,0.3207346200942993
1772642755548727600,1.4287275390625,-0.05206320062279701,0.7629532814025879,0.3568393588066101
1772642755558772500,1.4387724609375,-0.12064865231513977,0.7025712132453918,0.41599801182746887
1772642755568817700,1.448817626953125,-0.17923793196678162,0.6647534966468811,0.5018628239631653
1772642755578862600,1.458862548828125,-0.20941554009914398,0.6400129795074463,0.6139281392097473
1772642755588907800,1.46890771484375,-0.23629403114318848,0.6673167943954468,0.7517552375793457
1772642755598952400,1.478952392578125,-0.283812552690506,0.7687233090400696,0.8783448934555054
1772642755608997600,1.48899755859375,-0.3590809404850006,0.878678560256958,0.9346651434898376
1772642755619042600,1.49904248046875,-0.45788633823394775,0.8785989284515381,0.8385735154151917
1772642755629087700,1.509087646484375,-0.5759384036064148,0.7026702761650085,0.4975927472114563
1772642755639132400,1.51913232421875,-0.6907174587249756,0.47262638807296753,-0.05795997381210327
1772642755649177600,1.529177490234375,-0.745608389377594,0.4927798807621002,-0.6281648874282837
1772642755659222500,1.539222412109375,-0.655200719833374,0.7433819770812988,-1.054016351699829
1772642755669267700,1.549267822265625,-0.46978986263275146,1.0100123882293701,-1.307114839553833
1772642755679311600,1.5593115234375,-0.29325610399246216,1.121122121810913,-1.4138767719268799
1772642755689357600,1.569357666015625,-0.15694381296634674,1.1254574060440063,-1.3572875261306763
1772642755699401700,1.579401611328125,-0.06663814932107925,1.1280018091201782,-1.1198573112487793
1772642755709446700,1.58944677734375,-0.0930391326546669,1.0896203517913818,-0.7829943895339966
1772642755719491800,1.599491943359375,-0.24618953466415405,0.9093054533004761,-0.4363293945789337
1772642755729536500,1.60953662109375,-0.44114649295806885,0.5495212078094482,-0.12777261435985565
1772642755739581700,1.619581787109375,-0.5702163577079773,0.08266478776931763,0.15576748549938202
1772642755749626600,1.629626708984375,-0.5923964977264404,-0.4048510789871216,0.38198891282081604
1772642755759671800,1.639671875,-0.5398030281066895,-0.8280937075614929,0.5272566080093384
1772642755769716500,1.649716552734375,-0.3982946574687958,-1.1133300065994263,0.5591074824333191
1772642755779761700,1.65976171875,-0.15528546273708344,-1.2748302221298218,0.44632449746131897
1772642755789806600,1.669806640625,0.09601707756519318,-1.2626867294311523,0.2280701845884323
1772642755799851800,1.679851806640625,0.2679635286331177,-1.0720951557159424,-0.03718172386288643
1772642755809896700,1.689896728515625,0.30093905329704285,-0.7166332006454468,-0.28285354375839233
1772642755819941600,1.699941650390625,0.17426741123199463,-0.46014603972435,-0.4910283088684082
1772642755829986600,1.709986572265625,-0.07392828911542892,-0.4617047905921936,-0.5831292271614075
1772642755840031700,1.72003173828125,-0.28963741660118103,-0.5646545886993408,-0.5144167542457581
1772642755850076700,1.73007666015625,-0.38285335898399353,-0.6550737023353577,-0.25608983635902405
1772642755860121600,1.74012158203125,-0.35704946517944336,-0.7919641733169556,0.14200134575366974
1772642755870166500,1.75016650390625,-0.2672588527202606,-0.9950233101844788,0.5563106536865234
1772642755880211700,1.760211669921875,-0.2434467375278473,-1.1557447910308838,0.8259077668190002
1772642755890256600,1.770256591796875,-0.2923985719680786,-1.19590425491333,0.835867702960968
1772642755900301600,1.780301513671875,-0.34859606623649597,-1.1231019496917725,0.576293408870697
1772642755910346500,1.790346435546875,-0.3279690742492676,-0.9391059875488281,0.10193648189306259
1772642755920391700,1.8003916015625,-0.17083007097244263,-0.562541127204895,-0.4538588523864746
1772642755930436600,1.8104365234375,0.0697159618139267,-0.04831134155392647,-0.9796528816223145
1772642755940481500,1.8204814453125,0.3021928668022156,0.459698349237442,-1.3395836353302002
1772642755950526700,1.830526611328125,0.5334063768386841,0.7744070291519165,-1.3859162330627441
1772642755960571600,1.840571533203125,0.7575715780258179,0.7464781999588013,-1.0930007696151733
1772642755970616600,1.850616455078125,0.9323519468307495,0.4074295461177826,-0.5307429432868958
1772642755980661500,1.86066162109375,1.022944688796997,-0.10718876868486404,0.12567083537578583
1772642755990706700,1.870706787109375,1.0415189266204834,-0.596846342086792,0.741046130657196
1772642756000751600,1.880751708984375,0.9978228211402893,-0.8727439641952515,1.1847023963928223
1772642756010796500,1.890796630859375,0.8462654948234558,-0.8496420979499817,1.3476614952087402
1772642756020841500,1.900841552734375,0.5827241539955139,-0.6441049575805664,1.2120310068130493
1772642756030886700,1.91088671875,0.3121562898159027,-0.43382734060287476,0.8490666151046753
1772642756040931600,1.920931640625,0.15242868661880493,-0.21351706981658936,0.388084352016449
1772642756050976500,1.9309765625,0.1451430767774582,0.0532512366771698,-0.016862869262695312
1772642756061021400,1.941021484375,0.2651408612728119,0.29902133345603943,-0.2655693590641022
1772642756071066600,1.951066650390625,0.41660255193710327,0.42191049456596375,-0.37535443902015686
1772642756081111600,1.961111572265625,0.5287138819694519,0.43546783924102783,-0.3774130642414093
1772642756091156700,1.97115673828125,0.5422779321670532,0.4174065589904785,-0.3123871982097626
1772642756101201400,1.981201416015625,0.4280831813812256,0.39455023407936096,-0.21174554526805878
1772642756111246600,1.99124658203125,0.2590661942958832,0.3468136191368103,-0.09032510221004486
1772642756121291500,2.00129150390625,0.09121459722518921,0.30066582560539246,0.026700852438807487
1772642756131336700,2.011336669921875,-0.04357197880744934,0.2732296586036682,0.10677038878202438
1772642756141381400,2.02138134765625,-0.1166328713297844,0.27929821610450745,0.1677575707435608
1772642756151426600,2.031426513671875,-0.0993042141199112,0.25301361083984375,0.21827107667922974
1772642756161471500,2.041471435546875,-0.021381454542279243,0.21111437678337097,0.25097548961639404
1772642756171516700,2.0515166015625,0.07498156279325485,0.2185906618833542,0.278918981552124
1772642756181562400,2.061562255859375,0.1635095626115799,0.2975773513317108,0.34072643518447876
1772642756191607600,2.071607666015625,0.20160582661628723,0.39731886982917786,0.4261321425437927
1772642756201652200,2.08165234375,0.17819876968860626,0.4464600384235382,0.5168290138244629
1772642756211697400,2.091697509765625,0.10432640463113785,0.4247206747531891,0.580024242401123
1772642756221742300,2.101742431640625,0.011387144215404987,0.38393434882164,0.5945685505867004
1772642756231787500,2.11178759765625,-0.06605412065982819,0.3527468740940094,0.6148863434791565
1772642756241831400,2.12183154296875,-0.07610062509775162,0.3187233805656433,0.6570540070533752
1772642756251876400,2.13187646484375,-0.0158332921564579,0.3522115647792816,0.7254384160041809
1772642756261921300,2.14192138671875,0.08171137422323227,0.4166789650917053,0.73753422498703
1772642756271966500,2.151966552734375,0.13987082242965698,0.34895187616348267,0.5853391289710999
1772642756282011400,2.162011474609375,0.09945575147867203,0.07664444297552109,0.17262689769268036
1772642756292056300,2.172056396484375,-0.061651378870010376,-0.24878159165382385,-0.4448254108428955
1772642756302101200,2.182101318359375,-0.2636476159095764,-0.19921323657035828,-1.032433032989502
1772642756312146400,2.192146484375,-0.317543089389801,0.1146533414721489,-1.428821325302124
1772642756322191400,2.20219140625,-0.18864208459854126,0.4272075295448303,-1.522460699081421
1772642756332236300,2.212236328125,0.05697540193796158,0.5508232116699219,-1.3344967365264893
1772642756342281200,2.22228125,0.25427037477493286,0.5193139910697937,-1.0433423519134521
1772642756352326400,2.232326416015625,0.27207598090171814,0.4150528609752655,-0.7921002507209778
1772642756362371300,2.242371337890625,0.13557301461696625,0.21103154122829437,-0.6513364911079407
1772642756372416500,2.25241650390625,-0.02828090637922287,-0.04751718416810036,-0.6308605074882507
1772642756382461200,2.262461181640625,-0.12675847113132477,-0.253705233335495,-0.6720787882804871
1772642756392506400,2.27250634765625,-0.10649022459983826,-0.3660094141960144,-0.7463684678077698
1772642756402551300,2.28255126953125,0.048336371779441833,-0.3505207300186157,-0.8120713233947754
1772642756412596500,2.292596435546875,0.2670580744743347,-0.25897589325904846,-0.8389180898666382
1772642756422641200,2.30264111328125,0.4611114263534546,-0.18990975618362427,-0.8397053480148315
1772642756432686300,2.312686279296875,0.5746712684631348,-0.16859060525894165,-0.7933530211448669
1772642756442731300,2.322731201171875,0.5612468123435974,-0.19291725754737854,-0.6898290514945984
1772642756452776400,2.3327763671875,0.43317487835884094,-0.24125203490257263,-0.5116257071495056
1772642756462821400,2.3428212890625,0.24068477749824524,-0.2689742147922516,-0.2632569372653961
1772642756472866300,2.3528662109375,0.06451587378978729,-0.25868934392929077,0.01647964119911194
1772642756482911200,2.3629111328125,-0.054131411015987396,-0.2738350033760071,0.25520753860473633
1772642756492956400,2.372956298828125,-0.10546410828828812,-0.29842984676361084,0.4141758680343628
1772642756503001300,2.38300146484375,-0.10252158343791962,-0.2920036315917969,0.46915948390960693
1772642756513046500,2.393046630859375,-0.06655585765838623,-0.25876498222351074,0.4336710274219513
1772642756523091200,2.40309130859375,-0.013093964196741581,-0.24697916209697723,0.37701332569122314
1772642756533136400,2.413136474609375,0.025658758357167244,-0.24364781379699707,0.32016363739967346
1772642756543181300,2.423181396484375,0.06344395130872726,-0.1818574219942093,0.2448398470878601
1772642756553226500,2.4332265625,0.10943328589200974,-0.06975910812616348,0.14168550074100494
1772642756563271200,2.443271240234375,0.152255579829216,0.024658208712935448,0.008684301748871803
1772642756573316400,2.45331640625,0.1628219336271286,0.016219982877373695,-0.1574562042951584
1772642756583361300,2.463361328125,0.13554424047470093,-0.104576475918293,-0.35410961508750916
1772642756593406500,2.473406494140625,0.08563261479139328,-0.2650415301322937,-0.5589336156845093
1772642756603451400,2.483451416015625,0.052856557071208954,-0.338205486536026,-0.756434440612793
1772642756613496300,2.493496337890625,0.059180498123168945,-0.29741835594177246,-0.9230971932411194
1772642756623541200,2.503541259765625,0.10963248461484909,-0.2048197239637375,-1.0445159673690796
1772642756633586400,2.51358642578125,0.20240822434425354,-0.09302102029323578,-1.1299874782562256
1772642756643631400,2.52363134765625,0.29479461908340454,0.024345019832253456,-1.199730634689331
1772642756653676500,2.533676513671875,0.3692837655544281,0.1488158404827118,-1.2518428564071655
1772642756663721200,2.54372119140625,0.41791415214538574,0.26422712206840515,-1.2493072748184204
1772642756673766400,2.553766357421875,0.45585566759109497,0.3054158389568329,-1.1781803369522095
1772642756683811300,2.563811279296875,0.4841275215148926,0.2805437743663788,-1.0470689535140991
1772642756693856500,2.5738564453125,0.5046163201332092,0.1997799575328827,-0.8635017275810242
1772642756703901200,2.583901123046875,0.5396293997764587,0.09562639147043228,-0.6225661039352417
1772642756713946400,2.5939462890625,0.5779882669448853,0.0313992016017437,-0.3442007899284363
1772642756723991300,2.6039912109375,0.5985923409461975,0.03593429923057556,-0.04994838312268257
1772642756734036500,2.614036376953125,0.5677630305290222,0.05724571272730827,0.22899456322193146
1772642756744081400,2.624081298828125,0.5365116596221924,0.03981931880116463,0.4725150763988495
1772642756754126300,2.634126220703125,0.5320207476615906,0.011899536475539207,0.6802781224250793
1772642756764171300,2.644171142578125,0.5458297729492188,0.033005621284246445,0.8126071691513062
1772642756774216400,2.654216552734375,0.5516213774681091,0.08782146126031876,0.8576260209083557
1772642756784261400,2.664261474609375,0.5347046852111816,0.14678944647312164,0.8213774561882019
1772642756794306300,2.674306396484375,0.5034708380699158,0.24919864535331726,0.7309069633483887
1772642756804351200,2.684351318359375,0.46951210498809814,0.37057486176490784,0.6291581988334656
1772642756814395400,2.6943955078125,0.43794992566108704,0.46848970651626587,0.5375561118125916
1772642756824441300,2.70444140625,0.39926883578300476,0.5458979606628418,0.482115238904953
1772642756834485200,2.7144853515625,0.3606362044811249,0.5911858081817627,0.4858554005622864
1772642756844530400,2.724530517578125,0.326930969953537,0.5893136262893677,0.5296971201896667
1772642756854575400,2.734575439453125,0.27442196011543274,0.5381763577461243,0.5914760828018188
1772642756864620500,2.74462060546875,0.21600766479969025,0.45376428961753845,0.6573776006698608
1772642756874665500,2.75466552734375,0.1563808172941208,0.34316855669021606,0.7340942025184631
1772642756884710400,2.76471044921875,0.08942681550979614,0.2276315689086914,0.8006886839866638
1772642756894755300,2.77475537109375,0.018331069499254227,0.12057754397392273,0.862461268901825
1772642756904800500,2.784800537109375,-0.020143883302807808,0.047291349619627,0.9364292025566101
1772642756914845400,2.794845458984375,-0.00957086868584156,-0.011271030642092228,1.033862590789795
1772642756924890400,2.804890380859375,-0.0030341395176947117,-0.06730527430772781,1.0928726196289062
1772642756934935300,2.814935302734375,-0.049139849841594696,-0.14180347323417664,1.0099058151245117
1772642756944980500,2.82498046875,-0.13728861510753632,-0.22250470519065857,0.7681983709335327
1772642756955025400,2.835025390625,-0.27089089155197144,-0.31343594193458557,0.3580329716205597
1772642756965070600,2.845070556640625,-0.4166361093521118,-0.32931265234947205,-0.1027066707611084
1772642756975115300,2.855115234375,-0.521901547908783,-0.18881945312023163,-0.4773380756378174
1772642756985160400,2.865160400390625,-0.4868316948413849,0.08307597786188126,-0.659384548664093
1772642756995205400,2.875205322265625,-0.31063351035118103,0.4342321455478668,-0.6500837206840515
1772642757005250600,2.88525048828125,-0.07041903585195541,0.7453732490539551,-0.5580978989601135
1772642757015295500,2.89529541015625,0.10013005882501602,0.8537953495979309,-0.5226038098335266
1772642757025340400,2.90534033203125,0.10813046246767044,0.8057985305786133,-0.5986272096633911
1772642757035385300,2.91538525390625,-0.08719722181558609,0.7435255646705627,-0.8222213983535767
1772642757045430500,2.925430419921875,-0.3867615759372711,0.6995130777359009,-1.112107515335083
1772642757055475500,2.935475341796875,-0.6287294626235962,0.6843959093093872,-1.3539832830429077
1772642757065520400,2.945520263671875,-0.7694037556648254,0.7047440409660339,-1.5252442359924316
1772642757075565300,2.9555654296875,-0.8465344905853271,0.7434006333351135,-1.6575757265090942
1772642757085610500,2.965610595703125,-0.8336519598960876,0.7736898064613342,-1.7195112705230713
1772642757095655400,2.975655517578125,-0.705100417137146,0.6688268184661865,-1.6545919179916382
1772642757105700600,2.98570068359375,-0.4632028043270111,0.4728940427303314,-1.4779601097106934
1772642757115745300,2.995745361328125,-0.18534083664417267,0.2624201774597168,-1.2660529613494873
1772642757125790500,3.00579052734375,-0.0096848513931036,0.13404248654842377,-1.0524756908416748
1772642757135835400,3.01583544921875,0.01920192316174507,0.06841687113046646,-0.8325273394584656
1772642757145880600,3.025880615234375,-0.07078655809164047,-0.016383500769734383,-0.5967864394187927
1772642757155925500,3.035925537109375,-0.2166641354560852,-0.13096466660499573,-0.35426992177963257
1772642757165970400,3.045970458984375,-0.32808518409729004,-0.23664423823356628,-0.11549729853868484
1772642757176015400,3.056015380859375,-0.35969212651252747,-0.2866764962673187,0.10396687686443329
1772642757186060000,3.06606005859375,-0.3152788579463959,-0.2778494656085968,0.3241085708141327
1772642757196105000,3.07610498046875,-0.22484803199768066,-0.25448182225227356,0.5481701493263245
1772642757206150100,3.086150146484375,-0.12657178938388824,-0.23258264362812042,0.7341908812522888
1772642757216194800,3.09619482421875,-0.05916851386427879,-0.17869891226291656,0.8753794431686401
1772642757226240000,3.106239990234375,-0.025891784578561783,-0.16258172690868378,0.9815514087677002
1772642757236285000,3.116284912109375,-0.03280801326036453,-0.19751493632793427,1.031922459602356
1772642757246330000,3.126330078125,-0.06869703531265259,-0.24243314564228058,1.0329821109771729
1772642757256375000,3.136375,-0.1249224916100502,-0.29394587874412537,0.992836058139801
1772642757266420000,3.146419921875,-0.18784978985786438,-0.3531774878501892,0.9193985462188721
1772642757276465000,3.15646484375,-0.22869762778282166,-0.4445556104183197,0.8205689191818237
1772642757286510000,3.166510009765625,-0.23332034051418304,-0.5621392130851746,0.7050063610076904
1772642757296555000,3.176554931640625,-0.19590160250663757,-0.680979311466217,0.553877055644989
1772642757306600200,3.18660009765625,-0.14358486235141754,-0.8000407218933105,0.35322755575180054
1772642757316644900,3.196644775390625,-0.11507918685674667,-0.9435670375823975,0.09157705307006836
1772642757326690000,3.20668994140625,-0.17009955644607544,-1.0714365243911743,-0.18928471207618713
1772642757336735000,3.21673486328125,-0.28718143701553345,-1.128522515296936,-0.3950873911380768
1772642757346780200,3.2267802734375,-0.4005016088485718,-1.11357843875885,-0.4989434778690338
1772642757356824800,3.236824951171875,-0.4935082495212555,-1.0487624406814575,-0.5629427433013916
1772642757366870000,3.2468701171875,-0.5517284274101257,-0.9466376304626465,-0.5958279371261597
1772642757376915000,3.2569150390625,-0.5560280680656433,-0.8481608629226685,-0.5808016061782837
1772642757386960100,3.266960205078125,-0.4791833758354187,-0.7461255788803101,-0.5019171833992004
1772642757397003800,3.277003662109375,-0.31302234530448914,-0.5908955335617065,-0.3564497232437134
1772642757407049000,3.287049072265625,-0.10414424538612366,-0.36118748784065247,-0.15496481955051422
1772642757417094000,3.297093994140625,0.11522379517555237,-0.1210382729768753,0.05657326430082321
1772642757427139000,3.30713916015625,0.30785050988197327,0.09998732060194016,0.24475808441638947
1772642757437184000,3.31718408203125,0.45185214281082153,0.28137868642807007,0.3956131041049957
1772642757447229000,3.32722900390625,0.5653970837593079,0.4064750671386719,0.49215295910835266
1772642757457273900,3.33727392578125,0.6541165709495544,0.4639761745929718,0.5322556495666504
1772642757467319000,3.347319091796875,0.7165354490280151,0.4707382321357727,0.5173150300979614
1772642757477364000,3.357364013671875,0.7350918650627136,0.4727025628089905,0.45678380131721497
1772642757487409000,3.367408935546875,0.7259899377822876,0.4935692250728607,0.3818826377391815
1772642757497453800,3.377453857421875,0.692844808101654,0.5543140769004822,0.29693472385406494
1772642757507499000,3.3874990234375,0.6318874359130859,0.6257464289665222,0.22441819310188293
1772642757517544000,3.3975439453125,0.5479224920272827,0.6708697080612183,0.168378084897995
1772642757527589000,3.407589111328125,0.44659480452537537,0.6592053174972534,0.1388942301273346
1772642757537633800,3.4176337890625,0.34702932834625244,0.6360992193222046,0.1588735431432724
1772642757547679000,3.427678955078125,0.27451252937316895,0.6335241794586182,0.22688907384872437
1772642757557724000,3.437723876953125,0.23716114461421967,0.6380489468574524,0.34069687128067017
1772642757567769000,3.44776904296875,0.22279046475887299,0.6404444575309753,0.48550039529800415
1772642757577813800,3.457813720703125,0.23727992177009583,0.6552055478096008,0.6682060360908508
1772642757587859000,3.46785888671875,0.2659728229045868,0.6118492484092712,0.8822954297065735
1772642757597904000,3.47790380859375,0.2536943256855011,0.43076151609420776,1.079299807548523
1772642757607949000,3.487948974609375,0.1904309242963791,0.20821605622768402,1.2298486232757568
1772642757617994000,3.497993896484375,0.10966790467500687,0.025668345391750336,1.3507390022277832
1772642757628039000,3.508038818359375,0.04777471348643303,-0.11151507496833801,1.4171819686889648
1772642757638083800,3.518083740234375,0.0088187912479043,-0.28111210465431213,1.3682703971862793
1772642757648129000,3.52812890625,-0.011544803157448769,-0.5033541917800903,1.1485254764556885
1772642757658174000,3.538174072265625,-0.050147321075201035,-0.6747435331344604,0.7369491457939148
1772642757668219100,3.54821923828125,-0.09867171198129654,-0.6191260814666748,0.255156934261322
1772642757678263800,3.558263916015625,-0.11004713922739029,-0.259756475687027,-0.012879312969744205
1772642757688309000,3.56830908203125,-0.07145900279283524,0.17743736505508423,-0.029988791793584824
1772642757698354000,3.57835400390625,0.08451461791992188,0.29179003834724426,0.1397286057472229
1772642757708399000,3.588399169921875,0.16568057239055634,0.12444578856229782,0.22862358391284943
1772642757718443800,3.59844384765625,0.0026668894570320845,-0.1051916629076004,0.02983965538442135
1772642757728489000,3.608489013671875,-0.28547462821006775,-0.2757633924484253,-0.2583058476448059
1772642757738534000,3.618533935546875,-0.5260656476020813,-0.38709205389022827,-0.5126992464065552
1772642757748579000,3.6285791015625,-0.6539725065231323,-0.4448261857032776,-0.7382271885871887
1772642757758624000,3.6386240234375,-0.6591691374778748,-0.39257150888442993,-0.953163206577301
1772642757768669000,3.6486689453125,-0.5827723741531372,-0.17679235339164734,-1.1664701700210571
1772642757778713900,3.6587138671875,-0.47667866945266724,0.0671771690249443,-1.385920524597168
1772642757788759000,3.668759033203125,-0.37136077880859375,0.24493837356567383,-1.5651509761810303
1772642757798804000,3.678803955078125,-0.3103141784667969,0.31340959668159485,-1.6314722299575806
1772642757808849200,3.68884912109375,-0.27532026171684265,0.2273748368024826,-1.5088716745376587
1772642757818893800,3.698893798828125,-0.2612379789352417,0.04723835363984108,-1.15654456615448
1772642757828939000,3.70893896484375,-0.282019704580307,-0.11244425177574158,-0.6245411038398743
1772642757838984000,3.71898388671875,-0.3343944847583771,-0.24289414286613464,-0.04888418689370155
1772642757849029000,3.729029052734375,-0.3969028890132904,-0.325585275888443,0.43088480830192566
1772642757859073800,3.73907373046875,-0.45761123299598694,-0.3866949677467346,0.7606523036956787
1772642757869119000,3.749118896484375,-0.5147671699523926,-0.3801273703575134,0.9947718977928162
1772642757879164000,3.759163818359375,-0.5281892418861389,-0.2931325435638428,1.224097728729248
1772642757889209000,3.769208984375,-0.430929034948349,-0.10388059169054031,1.4630706310272217
1772642757899254000,3.77925390625,-0.2567010223865509,0.14054380357265472,1.641318678855896
1772642757909299000,3.789298828125,-0.0686163455247879,0.3682810962200165,1.7001100778579712
1772642757919343900,3.79934375,0.08847527205944061,0.48973748087882996,1.6445589065551758
1772642757929389000,3.80938916015625,0.17884378135204315,0.4584653079509735,1.5320854187011719
1772642757939434000,3.81943408203125,0.15437279641628265,0.35054337978363037,1.354034185409546
1772642757949479000,3.82947900390625,0.03331933915615082,0.2805541753768921,1.1156634092330933
1772642757959523800,3.83952392578125,-0.09248173236846924,0.2166774421930313,0.856193482875824
1772642757969568000,3.849568115234375,-0.11801132559776306,0.09621121734380722,0.6049937605857849
1772642757979613200,3.85961328125,-0.018997926265001297,-0.07508969306945801,0.3649129867553711
1772642757989657900,3.869657958984375,0.125374436378479,-0.17975005507469177,0.115083709359169
1772642757999703000,3.879703125,0.2438158541917801,-0.14125646650791168,-0.12522876262664795
1772642758009748000,3.889748046875,0.3060067892074585,0.002862365450710058,-0.3250739574432373
1772642758019793200,3.899793212890625,0.328867644071579,0.17717930674552917,-0.44813862442970276
1772642758029838000,3.909838134765625,0.29151999950408936,0.291096031665802,-0.5169605612754822
1772642758039883000,3.919883056640625,0.23241060972213745,0.22397556900978088,-0.5492658019065857
1772642758049928000,3.929927978515625,0.1559901386499405,0.02322383038699627,-0.5542852878570557
1772642758059973000,3.93997314453125,0.04936541989445686,-0.1662108153104782,-0.5669928789138794
1772642758070018000,3.95001806640625,-0.0521010160446167,-0.21247923374176025,-0.5587437152862549
1772642758080063000,3.96006298828125,-0.05974855273962021,-0.10902262479066849,-0.4981094002723694
1772642758090108000,3.97010791015625,0.027704065665602684,0.06682004034519196,-0.38222965598106384
1772642758100153000,3.980153076171875,0.1901068240404129,0.24736931920051575,-0.2053355723619461
1772642758110198000,3.990197998046875,0.37984853982925415,0.43268272280693054,0.016687899827957153
1772642758120243200,4.0002431640625,0.5763232111930847,0.6033855080604553,0.26707643270492554
1772642758130287900,4.010287841796875,0.7349741458892822,0.7217845320701599,0.4960379898548126
1772642758140333000,4.0203330078125,0.8491222858428955,0.7490830421447754,0.6686422228813171
1772642758150378000,4.0303779296875,0.893833577632904,0.6729826927185059,0.7658164501190186
1772642758160423200,4.040423095703125,0.8624953627586365,0.46700313687324524,0.8003203868865967
1772642758170468000,4.050468017578125,0.7477365136146545,0.19386588037014008,0.7951037883758545
1772642758180513000,4.060512939453125,0.5757189393043518,-0.011655057780444622,0.7617719173431396
1772642758190559000,4.07055908203125,0.41723930835723877,-0.11090628057718277,0.7039659023284912
1772642758200604000,4.08060400390625,0.2939474582672119,-0.1148805096745491,0.6375389099121094
1772642758210648800,4.09064892578125,0.21318870782852173,-0.0025931198615580797,0.5491422414779663
1772642758220693800,4.10069384765625,0.1594407856464386,0.1967327743768692,0.43382441997528076
1772642758230739000,4.110739013671875,0.09762801975011826,0.3455318212509155,0.318371057510376
1772642758240784000,4.120783935546875,0.022005965933203697,0.3907959759235382,0.23022201657295227
1772642758250828800,4.130828857421875,-0.07045845687389374,0.3620205223560333,0.177882120013237
1772642758260873700,4.140873779296875,-0.17907680571079254,0.30015209317207336,0.16625608503818512
1772642758270919000,4.1509189453125,-0.2919154763221741,0.25862595438957214,0.20837397873401642
1772642758280963800,4.1609638671875,-0.3905903995037079,0.2532583475112915,0.29899442195892334
1772642758291009000,4.171009033203125,-0.4535757303237915,0.28723204135894775,0.4194915294647217
1772642758301053700,4.1810537109375,-0.4605460464954376,0.3497619926929474,0.5586736798286438
1772642758311099000,4.191098876953125,-0.41286373138427734,0.37084758281707764,0.7035895586013794
1772642758321143800,4.201143798828125,-0.3240811228752136,0.31610924005508423,0.8540927767753601
1772642758331189000,4.21118896484375,-0.24994271993637085,0.16191592812538147,0.9684590697288513
1772642758341234000,4.22123388671875,-0.27020084857940674,-0.0920119509100914,1.0026772022247314
1772642758351278800,4.23127880859375,-0.3603382110595703,-0.4293130040168762,0.9290525317192078
1772642758361323800,4.24132373046875,-0.5077244639396667,-0.8172647356987,0.697566032409668
1772642758371369000,4.251368896484375,-0.6783404350280762,-1.0298774242401123,0.3102444112300873
1772642758381414000,4.261413818359375,-0.7621186971664429,-0.7244240045547485,-0.10715894401073456
1772642758391458800,4.271458740234375,-0.6482136845588684,-0.2134622186422348,-0.653477132320404
1772642758401503700,4.281503662109375,-0.48756060004234314,0.40885674953460693,-1.3394813537597656
1772642758411549000,4.291548828125,-0.2816966474056244,0.926872730255127,-1.872271180152893
1772642758421593900,4.30159375,-0.0458335354924202,1.0942106246948242,-2.0235137939453125
1772642758431639000,4.31163916015625,0.05897144228219986,0.7535129189491272,-1.8606510162353516
1772642758441683700,4.32168359375,-0.09791538119316101,0.13450348377227783,-1.5564628839492798
1772642758451729000,4.33172900390625,-0.3466026782989502,-0.49541613459587097,-1.250008225440979
1772642758461773800,4.34177392578125,-0.4803173542022705,-0.881511926651001,-1.0310657024383545
1772642758471819000,4.351819091796875,-0.4671131372451782,-0.9930107593536377,-0.9632986187934875
1772642758481863700,4.36186376953125,-0.3484666347503662,-0.9025173187255859,-1.0817773342132568
1772642758491907800,4.371907958984375,-0.17523705959320068,-0.611932098865509,-1.2819455862045288
1772642758501952800,4.381952880859375,0.02016385830938816,-0.2695033848285675,-1.4330615997314453
1772642758511998000,4.391998046875,0.20424234867095947,-0.08480729907751083,-1.4357303380966187
1772642758522042600,4.402042724609375,0.31865227222442627,-0.14383333921432495,-1.2808542251586914
1772642758532087800,4.412087890625,0.32106325030326843,-0.4363839626312256,-1.0231558084487915
1772642758542132700,4.4221328125,0.23128755390644073,-0.7259228229522705,-0.6853410601615906
1772642758552178000,4.432177978515625,0.0938977301120758,-0.9054856896400452,-0.3458530008792877
1772642758562222800,4.442222900390625,-0.06619846075773239,-0.9250865578651428,-0.05819007009267807
1772642758572267800,4.452267822265625,-0.23573502898216248,-0.7893803715705872,0.15916834771633148
1772642758582312700,4.462312744140625,-0.35178548097610474,-0.5865085124969482,0.3151733875274658
1772642758592358000,4.47235791015625,-0.382997989654541,-0.353153258562088,0.40806978940963745
1772642758602402800,4.48240283203125,-0.3435826599597931,-0.10083020478487015,0.4278024733066559
1772642758612447700,4.49244775390625,-0.2679787278175354,0.07189576327800751,0.40787190198898315
1772642758622492700,4.50249267578125,-0.20327003300189972,0.127225860953331,0.3807036578655243
1772642758632537900,4.512537841796875,-0.1728314310312271,0.10593921691179276,0.3773459494113922
1772642758642582800,4.522582763671875,-0.15044356882572174,0.020658141002058983,0.38490188121795654
1772642758652628000,4.5326279296875,-0.13826705515384674,-0.1116008311510086,0.38333967328071594
1772642758662672600,4.542672607421875,-0.11819534748792648,-0.26917022466659546,0.3523961305618286
1772642758672717800,4.5527177734375,-0.07314717769622803,-0.4003058671951294,0.3051378130912781
1772642758682762800,4.5627626953125,0.01931004785001278,-0.522804856300354,0.2311416119337082
1772642758692808000,4.572807861328125,0.13295964896678925,-0.6348928213119507,0.11528558284044266
1772642758702852900,4.582852783203125,0.2446100115776062,-0.679266631603241,-0.02370559610426426
1772642758712897800,4.592897705078125,0.36371350288391113,-0.6451587677001953,-0.16642093658447266
1772642758722942700,4.602942626953125,0.48612356185913086,-0.5742880702018738,-0.3099837005138397
1772642758732988000,4.61298779296875,0.5732105374336243,-0.4841642677783966,-0.46688011288642883
1772642758743032800,4.62303271484375,0.5950220823287964,-0.42818835377693176,-0.6161201596260071
1772642758753077800,4.633077880859375,0.5611860752105713,-0.45944029092788696,-0.7317708730697632
1772642758763122700,4.643122802734375,0.4826585352420807,-0.5245468616485596,-0.7952694296836853
1772642758773167900,4.65316796875,0.3530113101005554,-0.5599405169487,-0.8040791749954224
1772642758783212800,4.663212890625,0.21247310936450958,-0.5241548418998718,-0.7483144402503967
1772642758793258000,4.673258056640625,0.0863732397556305,-0.39703869819641113,-0.6484890580177307
1772642758803302700,4.683302734375,-0.020744159817695618,-0.21499858796596527,-0.5339813828468323
1772642758813347800,4.693347900390625,-0.06271930783987045,-0.018136659637093544,-0.39918360114097595
1772642758823392800,4.703392822265625,-0.010575412772595882,0.14881211519241333,-0.2402525544166565
1772642758833438000,4.71343798828125,0.1243714839220047,0.2924007177352905,-0.07019879668951035
1772642758843483000,4.72348291015625,0.3120279312133789,0.39199015498161316,0.11831332743167877
1772642758853527800,4.73352783203125,0.4977551996707916,0.43488994240760803,0.2932675778865814
1772642758863572700,4.74357275390625,0.6416338086128235,0.43411949276924133,0.44636496901512146
1772642758873618000,4.753617919921875,0.721764326095581,0.4360015392303467,0.5749980211257935
1772642758883662800,4.763662841796875,0.7313756942749023,0.4250791370868683,0.6748154759407043
1772642758893707800,4.773707763671875,0.6773763298988342,0.3969167172908783,0.736723005771637
1772642758903752700,4.783752685546875,0.5978335738182068,0.35373249650001526,0.7698429226875305
1772642758913798000,4.7937978515625,0.5184040069580078,0.34481996297836304,0.7790846228599548
1772642758923842800,4.8038427734375,0.46162036061286926,0.36924993991851807,0.7670215368270874
1772642758933888000,4.813887939453125,0.42193472385406494,0.429888516664505,0.7205514907836914
1772642758943932700,4.8239326171875,0.38039714097976685,0.5184266567230225,0.62284255027771
1772642758953977900,4.833977783203125,0.3184024691581726,0.6247640252113342,0.5033395886421204
1772642758964022800,4.844022705078125,0.25347593426704407,0.724309504032135,0.3997277021408081
1772642758974068000,4.85406787109375,0.19783079624176025,0.7817555069923401,0.3412342965602875
1772642758984112600,4.864112548828125,0.13627368211746216,0.7206125259399414,0.3337782323360443
1772642758994157800,4.87415771484375,0.06669647246599197,0.5708805322647095,0.36039814352989197
1772642759004202800,4.88420263671875,-0.006178000941872597,0.4475484788417816,0.4001902937889099
1772642759014247000,4.894246826171875,-0.06474703550338745,0.4113878011703491,0.45028406381607056
1772642759024291800,4.904291748046875,-0.11185383051633835,0.4454456567764282,0.5147531032562256
1772642759034336800,4.914336669921875,-0.15247689187526703,0.519132137298584,0.5920881032943726
1772642759044382000,4.9243818359375,-0.19757992029190063,0.552753210067749,0.6571778655052185
1772642759054427000,4.934427001953125,-0.27932432293891907,0.36658066511154175,0.6417158246040344
1772642759064472000,4.94447216796875,-0.3812517523765564,-0.0955483615398407,0.4480193257331848
1772642759074516700,4.954516845703125,-0.5015078783035278,-0.5689499974250793,0.055818259716033936
1772642759084562000,4.96456201171875,-0.5939195156097412,-0.7476806044578552,-0.39671245217323303
1772642759094606800,4.97460693359375,-0.6061295866966248,-0.5154236555099487,-0.6909464597702026
1772642759104652000,4.984652099609375,-0.5296878218650818,0.01455790363252163,-0.7923908233642578
1772642759114696700,4.99469677734375,-0.4201107323169708,0.3692035973072052,-0.8467299342155457
1772642759124742000,5.004741943359375,-0.3857972323894501,0.4731779396533966,-0.9363061785697937
1772642759134786800,5.014786865234375,-0.40272748470306396,0.47761690616607666,-0.9714750647544861
1772642759144832000,5.02483203125,-0.42456114292144775,0.4281974136829376,-0.9272705912590027
1772642759154877000,5.034876953125,-0.4712540805339813,0.23766902089118958,-0.9046174883842468
1772642759164921900,5.044921875,-0.5252819061279297,-0.09009766578674316,-0.9489460587501526
1772642759174966800,5.054966796875,-0.5404752492904663,-0.4512723684310913,-1.036027193069458
1772642759185012200,5.06501220703125,-0.5313845276832581,-0.6879816055297852,-1.113870620727539
1772642759195057200,5.07505712890625,-0.5240837335586548,-0.8048864006996155,-1.164469838142395
1772642759205102000,5.08510205078125,-0.5310484170913696,-0.8014804720878601,-1.1963223218917847
1772642759215147000,5.09514697265625,-0.5413253307342529,-0.6320919394493103,-1.1959953308105469
1772642759225192200,5.105192138671875,-0.5030964016914368,-0.4296136796474457,-1.1712111234664917
1772642759235237000,5.115237060546875,-0.42209264636039734,-0.322594553232193,-1.1280721426010132
1772642759245282000,5.125281982421875,-0.3150639533996582,-0.3616729974746704,-1.0611793994903564
1772642759255327000,5.135326904296875,-0.2224557101726532,-0.5167360901832581,-0.9755507707595825
1772642759265372200,5.1453720703125,-0.1840936690568924,-0.6632823944091797,-0.8947619199752808
1772642759275417000,5.1554169921875,-0.18348221480846405,-0.6900745630264282,-0.791403591632843
1772642759285462000,5.1654619140625,-0.17883633077144623,-0.540580689907074,-0.6397685408592224
1772642759295507200,5.175507080078125,-0.13981541991233826,-0.3012336194515228,-0.43726974725723267
1772642759305552100,5.18555224609375,-0.0872933566570282,-0.08806221187114716,-0.21376767754554749
1772642759315597000,5.19559716796875,-0.05468135327100754,-0.042095255106687546,-0.032952889800071716
1772642759325642000,5.20564208984375,-0.05999436229467392,-0.0939621850848198,0.0838773250579834
1772642759335687200,5.215687255859375,-0.09760352224111557,-0.17785415053367615,0.14711275696754456
1772642759345732000,5.225732177734375,-0.15594938397407532,-0.28699448704719543,0.17185911536216736
1772642759355777000,5.235777099609375,-0.21449871361255646,-0.399926096200943,0.17217868566513062
1772642759365822000,5.245822021484375,-0.2521187961101532,-0.47439393401145935,0.1741718053817749
1772642759375867100,5.2558671875,-0.24103978276252747,-0.4688771963119507,0.18200309574604034
1772642759385912000,5.265912109375,-0.1837455928325653,-0.3677828013896942,0.16781936585903168
1772642759395957000,5.27595703125,-0.0993252545595169,-0.23040124773979187,0.12763705849647522
1772642759406002000,5.286001953125,-0.011032943613827229,-0.14195260405540466,0.10425130277872086
1772642759416047000,5.296047119140625,0.05342167988419533,-0.1988297402858734,0.14747254550457
1772642759426092000,5.306092041015625,0.08920657634735107,-0.37036368250846863,0.271894633769989
1772642759436137200,5.31613720703125,0.1060103252530098,-0.5484085083007812,0.457229882478714
1772642759446182000,5.326181884765625,0.1294650435447693,-0.6939734220504761,0.6611126661300659
1772642759456227000,5.33622705078125,0.17869225144386292,-0.7551640868186951,0.8342626094818115
1772642759466272000,5.34627197265625,0.229196697473526,-0.6635436415672302,0.9290642738342285
1772642759476317200,5.356317138671875,0.2990085482597351,-0.4940813481807709,0.9532380104064941
1772642759486362000,5.366362060546875,0.36450710892677307,-0.35928040742874146,0.9066795706748962
1772642759496407000,5.376406982421875,0.3864491581916809,-0.24947534501552582,0.8171704411506653
1772642759506451200,5.386451171875,0.3529583215713501,-0.19265227019786835,0.7029770612716675
1772642759516496100,5.39649609375,0.2834138572216034,-0.21964846551418304,0.5653800368309021
1772642759526541000,5.406541015625,0.18515974283218384,-0.21765083074569702,0.4213046133518219
1772642759536586000,5.4165859375,0.09090274572372437,-0.0852120965719223,0.30435910820961
1772642759546631200,5.426631103515625,0.046296924352645874,0.15696485340595245,0.25936660170555115
1772642759556676000,5.436676025390625,0.06446421146392822,0.4012126624584198,0.2992362380027771
1772642759566721300,5.44672119140625,0.11752529442310333,0.5416281223297119,0.39201971888542175
1772642759576766000,5.456765869140625,0.1739582121372223,0.5296792984008789,0.5377156734466553
1772642759586811100,5.46681103515625,0.20963658392429352,0.41077423095703125,0.7256168723106384
1772642759596856000,5.47685595703125,0.22768428921699524,0.30739909410476685,0.9282362461090088
1772642759606901200,5.4869013671875,0.23826156556606293,0.27212047576904297,1.107688546180725
1772642759616946200,5.4969462890625,0.23589321970939636,0.23540692031383514,1.2155886888504028
1772642759626991000,5.5069912109375,0.21553468704223633,0.18172664940357208,1.2515720129013062
1772642759637036000,5.5170361328125,0.1969980150461197,0.07068349421024323,1.2288647890090942
1772642759647081200,5.527081298828125,0.1788909137248993,-0.07961893081665039,1.1489814519882202
1772642759657126100,5.537126220703125,0.14331428706645966,-0.19032466411590576,1.0158183574676514
1772642759667171000,5.547171142578125,0.10579434037208557,-0.20740218460559845,0.8560901880264282
1772642759677216000,5.557216064453125,0.07697174698114395,-0.1587153524160385,0.6750359535217285
1772642759687261200,5.56726123046875,0.027276361361145973,-0.07657866179943085,0.49669525027275085
1772642759697306000,5.57730615234375,-0.03645814210176468,0.044255077838897705,0.3529873490333557
1772642759707351300,5.587351318359375,-0.09687994420528412,0.18914435803890228,0.2644878327846527
1772642759717396000,5.59739599609375,-0.1547757238149643,0.33366477489471436,0.23614728450775146
1772642759727441200,5.607441162109375,-0.20987732708454132,0.4534929096698761,0.2637253701686859
1772642759737486000,5.617486083984375,-0.24712777137756348,0.5404917597770691,0.332273006439209
1772642759747531300,5.62753125,-0.28243809938430786,0.5732427835464478,0.41990140080451965
1772642759757576000,5.637575927734375,-0.3083533048629761,0.5253279805183411,0.5027872323989868
1772642759767621000,5.64762109375,-0.3165276050567627,0.46950703859329224,0.5876315236091614
1772642759777666000,5.657666015625,-0.2994183897972107,0.4288104772567749,0.6648440361022949
1772642759787711200,5.667711181640625,-0.27413806319236755,0.47495827078819275,0.6985751390457153
1772642759797756200,5.677756103515625,-0.2536434531211853,0.5538821220397949,0.603041410446167
1772642759807801000,5.687801025390625,-0.255791574716568,0.5838668942451477,0.33547839522361755
1772642759817846000,5.697845947265625,-0.25297659635543823,0.572868824005127,-0.04867459461092949
1772642759827891200,5.70789111328125,-0.23830151557922363,0.5919224619865417,-0.45915427803993225
1772642759837936000,5.71793603515625,-0.19704702496528625,0.4645999073982239,-0.8202067613601685
1772642759847981300,5.727981201171875,-0.22188472747802734,0.3038261830806732,-1.115848183631897
1772642759858026000,5.73802587890625,-0.27793681621551514,0.3608604669570923,-1.2119883298873901
1772642759868071200,5.7480712890625,-0.2552317678928375,0.4981522560119629,-0.9946792125701904
1772642759878116000,5.7581162109375,-0.19057022035121918,0.4644893705844879,-0.6045849919319153
1772642759888161300,5.768161376953125,-0.19130657613277435,0.16601373255252838,-0.31454354524612427
1772642759898206000,5.7782060546875,-0.2664945423603058,-0.25293397903442383,-0.1926078051328659
1772642759908251100,5.788251220703125,-0.33572474122047424,-0.6828022599220276,-0.19753678143024445
1772642759918296000,5.798296142578125,-0.38040485978126526,-0.9908085465431213,-0.28357845544815063
1772642759928341200,5.80834130859375,-0.34473368525505066,-1.0154998302459717,-0.42617180943489075
1772642759938386200,5.81838623046875,-0.2225574404001236,-0.7649171352386475,-0.5976567268371582
1772642759948431000,5.82843115234375,-0.06029289960861206,-0.3544997572898865,-0.7748075723648071
1772642759958476000,5.83847607421875,0.09731537103652954,0.021565213799476624,-0.893541157245636
1772642759968521200,5.848521240234375,0.1823282688856125,0.11061705648899078,-0.9674052596092224
1772642759978565000,5.858565185546875,0.1834196299314499,-0.04832412302494049,-0.998436689376831
1772642759988610000,5.868610107421875,0.108685202896595,-0.36425545811653137,-0.9956150650978088
1772642759998655000,5.878655029296875,0.024237696081399918,-0.6627846360206604,-0.9373197555541992
1772642760008700200,5.8887001953125,-0.0342988520860672,-0.7296246290206909,-0.8035563826560974
1772642760018745000,5.8987451171875,-0.04213760048151016,-0.5762467980384827,-0.5729053616523743
1772642760028790000,5.9087900390625,-0.010588462464511395,-0.28060635924339294,-0.24242888391017914
1772642760038835000,5.9188349609375,-0.0017872473690658808,-0.05501105263829231,0.08253828436136246
1772642760048880000,5.928880126953125,-0.08546909689903259,-0.04898032546043396,0.2596432864665985
1772642760058925000,5.938925048828125,-0.22110974788665771,-0.15166835486888885,0.27343127131462097
1772642760068970200,5.94897021484375,-0.35906973481178284,-0.2653887867927551,0.144169420003891
1772642760079015000,5.959014892578125,-0.4399566054344177,-0.3313576877117157,-0.00009880327706923708
1772642760089060000,5.96906005859375,-0.4503200352191925,-0.34681281447410583,-0.08982016891241074
1772642760099105000,5.97910498046875,-0.4111877977848053,-0.32905086874961853,-0.126161128282547
1772642760109150200,5.989150146484375,-0.3532920181751251,-0.2878884971141815,-0.10425316542387009
1772642760119195100,5.999195068359375,-0.30065250396728516,-0.2636992931365967,-0.04716404899954796
1772642760129240000,6.009239990234375,-0.2616715431213379,-0.24933499097824097,0.015576296485960484
1772642760139285000,6.019284912109375,-0.23824772238731384,-0.24271143972873688,0.07271122187376022
1772642760149330200,6.029330078125,-0.23645621538162231,-0.2611501216888428,0.11871360242366791
1772642760159375000,6.039375,-0.26015275716781616,-0.31119704246520996,0.1501210629940033
1772642760169420000,6.049419921875,-0.28691378235816956,-0.3840744197368622,0.12720641493797302
1772642760179465000,6.05946484375,-0.28932875394821167,-0.4217539131641388,0.008402539417147636
1772642760189508400,6.06950830078125,-0.25428181886672974,-0.3593054413795471,-0.22437931597232819
1772642760199553500,6.079553466796875,-0.18702447414398193,-0.20070381462574005,-0.49613040685653687
1772642760209598500,6.089598388671875,-0.1171300858259201,-0.04781812056899071,-0.7218519449234009
1772642760219643600,6.0996435546875,-0.041602570563554764,-0.03080451861023903,-0.8640753626823425
1772642760229688300,6.109688232421875,0.003710582386702299,-0.11466240137815475,-0.9160781502723694
1772642760239733500,6.1197333984375,0.042940810322761536,-0.21299110352993011,-0.8855758905410767
1772642760249778400,6.1297783203125,0.10231838375329971,-0.18279564380645752,-0.778549313545227
1772642760259823600,6.13982373046875,0.2051885724067688,-0.0023118900135159492,-0.6143052577972412
1772642760269868300,6.149868408203125,0.32278844714164734,0.2686018943786621,-0.410010427236557
1772642760279913500,6.15991357421875,0.41772931814193726,0.5425570011138916,-0.1771548092365265
1772642760289958400,6.16995849609375,0.454615980386734,0.7229848504066467,0.06896255910396576
1772642760300003600,6.180003662109375,0.45099806785583496,0.7509746551513672,0.3242183029651642
1772642760310048500,6.190048583984375,0.41990965604782104,0.623885989189148,0.5352418422698975
1772642760320093400,6.200093505859375,0.36106550693511963,0.3656959533691406,0.7041749358177185
1772642760330138400,6.210138427734375,0.32601991295814514,0.05865452438592911,0.8155307769775391
1772642760340183600,6.22018359375,0.31571507453918457,-0.14255128800868988,0.8577053546905518
1772642760350228500,6.230228515625,0.3384353220462799,-0.17983554303646088,0.8452825546264648
1772642760360273400,6.2402734375,0.3641505241394043,-0.07103902101516724,0.8021174669265747
1772642760370318300,6.250318359375,0.3498384356498718,0.09749966114759445,0.7388961911201477
1772642760380363500,6.260363525390625,0.2851550281047821,0.264573335647583,0.6684438586235046
1772642760390408400,6.270408447265625,0.18149974942207336,0.34654542803764343,0.5953717827796936
1772642760400453600,6.28045361328125,0.08431168645620346,0.3090721070766449,0.5549446940422058
1772642760410497500,6.29049755859375,0.01131044514477253,0.16282780468463898,0.5563548803329468
1772642760420542500,6.30054248046875,-0.03146125376224518,-0.00063383235828951,0.5941019654273987
1772642760430587600,6.310587646484375,-0.03933702036738396,-0.09110993891954422,0.6653002500534058
1772642760440632600,6.320632568359375,-0.03015603870153427,-0.07641354948282242,0.7527352571487427
1772642760450677500,6.330677490234375,-0.015736086294054985,0.009801764041185379,0.8337656855583191
1772642760460722400,6.340722412109375,-0.005278917960822582,0.09774041175842285,0.8919962644577026
1772642760470767600,6.350767578125,0.0015507587231695652,0.16384832561016083,0.9070859551429749
1772642760480812500,6.3608125,0.01076982356607914,0.25190335512161255,0.8937872052192688
1772642760490857500,6.370857421875,0.026610571891069412,0.3326847553253174,0.8785361051559448
1772642760500902400,6.38090234375,0.03712766245007515,0.37209632992744446,0.8709085583686829
1772642760510947600,6.390947509765625,0.05302247032523155,0.4374462962150574,0.8944585919380188
1772642760520992500,6.400992431640625,0.07956326752901077,0.4615790843963623,0.9604309797286987
1772642760531037700,6.41103759765625,0.0867396891117096,0.3515002429485321,0.987906277179718
1772642760541082400,6.421082275390625,0.03653217852115631,0.0847146213054657,0.8928524255752563
1772642760551127600,6.43112744140625,-0.08328770101070404,-0.24418364465236664,0.6240460276603699
1772642760561172500,6.44117236328125,-0.236068457365036,-0.3961252272129059,0.2253710776567459
1772642760571217700,6.4512177734375,-0.3562089800834656,-0.16472956538200378,-0.20913803577423096
1772642760581262600,6.4612626953125,-0.38437163829803467,0.4273201823234558,-0.5939664244651794
1772642760591307500,6.4713076171875,-0.35449016094207764,0.8037148714065552,-0.9972323775291443
1772642760601352400,6.4813525390625,-0.3841775059700012,0.8582742214202881,-1.4103083610534668
1772642760611397600,6.491397705078125,-0.4054337739944458,0.7864615321159363,-1.6618831157684326
1772642760621442600,6.501442626953125,-0.3792352080345154,0.43292292952537537,-1.710661768913269
1772642760631487500,6.511487548828125,-0.3659806549549103,-0.08665686100721359,-1.5966519117355347
1772642760641532400,6.521532470703125,-0.3946613073348999,-0.5417873859405518,-1.3913501501083374
1772642760651577600,6.53157763671875,-0.4427665174007416,-0.8628953695297241,-1.1846845149993896
1772642760661622500,6.54162255859375,-0.46731632947921753,-0.9330816268920898,-1.0501863956451416
1772642760671667500,6.55166748046875,-0.45109155774116516,-0.7717020511627197,-0.9933643937110901
1772642760681712400,6.56171240234375,-0.36180800199508667,-0.44737616181373596,-0.9932783842086792
1772642760691757600,6.571757568359375,-0.22022931277751923,-0.04436506703495979,-1.0162324905395508
1772642760701802500,6.581802490234375,-0.10738638043403625,0.21779730916023254,-1.0515270233154297
1772642760711847400,6.591847412109375,-0.036387570202350616,0.23663464188575745,-1.0632801055908203
1772642760721892600,6.601892578125,0.003659183392301202,0.024944763630628586,-1.0654268264770508
1772642760731937500,6.6119375,0.01702452264726162,-0.3692275881767273,-1.089537262916565
1772642760741982500,6.621982421875,0.021764950826764107,-0.6704792976379395,-1.0801602602005005
1772642760752027400,6.63202734375,0.06311611831188202,-0.647200882434845,-0.9881182312965393
1772642760762072600,6.642072509765625,0.1145114004611969,-0.34719470143318176,-0.7769551277160645
1772642760772117500,6.652117431640625,0.16129142045974731,0.04229659214615822,-0.48637232184410095
1772642760782162400,6.662162353515625,0.15888711810112,0.30962228775024414,-0.19606831669807434
1772642760792207400,6.672207275390625,0.12858647108078003,0.36950427293777466,0.0032176312524825335
1772642760802252500,6.68225244140625,0.10027334094047546,0.2777272164821625,0.09792203456163406
1772642760812297500,6.69229736328125,0.056234776973724365,0.0878819152712822,0.0882909819483757
1772642760822341400,6.70234130859375,0.03485012426972389,-0.018323080614209175,0.03303118795156479
1772642760832386600,6.712386474609375,0.037749774754047394,0.020487165078520775,-0.02955416403710842
1772642760842431500,6.722431396484375,0.03852395713329315,0.0848080962896347,-0.07701382786035538
1772642760852476700,6.7324765625,0.03080318681895733,0.09054667502641678,-0.11296197026968002
1772642760862521300,6.742521240234375,0.021416075527668,0.04779335483908653,-0.15445508062839508
1772642760872566500,6.75256640625,0.03328871354460716,-0.014926218427717686,-0.2024870663881302
1772642760882611500,6.762611572265625,0.07287287712097168,-0.09669511765241623,-0.21202383935451508
1772642760892656600,6.77265673828125,0.0938042551279068,-0.24509604275226593,-0.14246366918087006
1772642760902701300,6.782701416015625,0.06789595633745193,-0.5268808603286743,-0.0016522251535207033
1772642760912746500,6.79274658203125,0.016647418960928917,-0.7912459373474121,0.1313960999250412
1772642760922791400,6.80279150390625,-0.021520471200346947,-0.8692320585250854,0.19886063039302826
1772642760932836600,6.812836669921875,-0.0012679309584200382,-0.695324718952179,0.16507017612457275
1772642760942881500,6.822881591796875,0.09562133252620697,-0.4043909013271332,0.030401848256587982
1772642760952926500,6.832926513671875,0.21854299306869507,-0.1936917006969452,-0.11418808996677399
1772642760962971400,6.842971435546875,0.33128711581230164,-0.23671667277812958,-0.2111428678035736
1772642760973016600,6.8530166015625,0.3976251184940338,-0.5136933922767639,-0.22991734743118286
1772642760983061500,6.8630615234375,0.44040748476982117,-0.8415040373802185,-0.16579802334308624
1772642760993106400,6.8731064453125,0.46369388699531555,-1.0822631120681763,-0.04849056899547577
1772642761003151400,6.8831513671875,0.5167334079742432,-1.237168550491333,0.05465046316385269
1772642761013196500,6.893196533203125,0.5733429193496704,-1.2998473644256592,0.09972260147333145
1772642761023241500,6.903241455078125,0.5419330596923828,-1.2533349990844727,0.08603448420763016
1772642761033286700,6.91328662109375,0.4044340252876282,-1.0432417392730713,0.0739796832203865
1772642761043331300,6.923331298828125,0.23909513652324677,-0.756744384765625,0.12768658995628357
1772642761053376500,6.93337646484375,0.07927697896957397,-0.5012508630752563,0.25085005164146423
1772642761063421400,6.94342138671875,-0.05047782137989998,-0.2996141314506531,0.411541223526001
1772642761073466600,6.953466552734375,-0.16793254017829895,-0.1817024201154709,0.5598366856575012
1772642761083511600,6.963511474609375,-0.27186906337738037,-0.09321090579032898,0.6662038564682007
1772642761093556500,6.973556396484375,-0.3307883143424988,-0.008449144661426544,0.7264376282691956
1772642761103601400,6.983601318359375,-0.35114043951034546,0.045650843530893326,0.7376285195350647
1772642761113646600,6.993646484375,-0.32452189922332764,0.025652632117271423,0.7025107145309448
1772642761123691500,7.00369140625,-0.2925402522087097,-0.06754256039857864,0.608867883682251
1772642761133736400,7.013736328125,-0.2795557379722595,-0.20296643674373627,0.45568764209747314
1772642761143781400,7.023781494140625,-0.28058186173439026,-0.31157174706459045,0.2657829523086548
1772642761153826600,7.03382666015625,-0.29994890093803406,-0.3944628834724426,0.08290740102529526
1772642761163871500,7.04387158203125,-0.31364527344703674,-0.3972155451774597,-0.04507666453719139
1772642761173916700,7.053916748046875,-0.3280191421508789,-0.30345308780670166,-0.1161537691950798
1772642761183961300,7.06396142578125,-0.353412926197052,-0.18357115983963013,-0.13858237862586975
1772642761194007000,7.074007080078125,-0.3898758590221405,-0.0786743089556694,-0.11910002678632736
1772642761204052200,7.08405224609375,-0.4204832911491394,0.02004055306315422,-0.05704490840435028
1772642761214097000,7.094096923828125,-0.43413838744163513,0.131949782371521,0.030544593930244446
1772642761224142000,7.10414208984375,-0.4380718767642975,0.20809541642665863,0.12246732413768768
1772642761234186200,7.114186279296875,-0.44156116247177124,0.23834945261478424,0.212402805685997
1772642761244231000,7.12423095703125,-0.447029709815979,0.26641809940338135,0.2935759425163269
1772642761254276000,7.134276123046875,-0.4518830478191376,0.31181782484054565,0.38133668899536133
1772642761264321000,7.144321044921875,-0.43231093883514404,0.4102274775505066,0.4994817078113556
1772642761274366200,7.1543662109375,-0.3843705654144287,0.5443400144577026,0.655857503414154
1772642761284411100,7.1644111328125,-0.333278626203537,0.6340422034263611,0.8009025454521179
1772642761294456000,7.1744560546875,-0.3073088228702545,0.6370643377304077,0.8655675649642944
1772642761304501000,7.1845009765625,-0.3062366247177124,0.5865580439567566,0.827122688293457
1772642761314546200,7.194546142578125,-0.3380419611930847,0.5740065574645996,0.6950661540031433
1772642761324591000,7.204591064453125,-0.4050220549106598,0.3607528507709503,0.47138509154319763
1772642761334636300,7.21463623046875,-0.5031145215034485,-0.14487649500370026,0.07576480507850647
1772642761344681000,7.224680908203125,-0.6365578174591064,-0.5851715803146362,-0.4793258607387543
1772642761354726100,7.23472607421875,-0.7535725831985474,-0.5301682353019714,-1.0206702947616577
1772642761364771000,7.24477099609375,-0.7443018555641174,-0.0658184289932251,-1.416862964630127
1772642761374816300,7.254816162109375,-0.6595147848129272,0.649293839931488,-1.635951042175293
1772642761384861000,7.26486083984375,-0.5606425404548645,1.2692745923995972,-1.6993638277053833
1772642761394906000,7.274906005859375,-0.4369291365146637,1.5900036096572876,-1.5784342288970947
1772642761404951000,7.284950927734375,-0.32681408524513245,1.4521570205688477,-1.305616855621338
1772642761414996200,7.294996337890625,-0.30941537022590637,0.938221275806427,-0.9837072491645813
1772642761425041200,7.305041259765625,-0.36603444814682007,0.3663116693496704,-0.6755989789962769
1772642761435086000,7.315086181640625,-0.4156664311885834,-0.0005456816870719194,-0.38617220520973206
1772642761445131000,7.325131103515625,-0.40435466170310974,-0.14902782440185547,-0.11432044953107834
1772642761455176200,7.33517626953125,-0.3118492364883423,-0.16666941344738007,0.06806720048189163
1772642761465221000,7.34522119140625,-0.1621425598859787,-0.06294754147529602,0.13112978637218475
1772642761475266300,7.355266357421875,-0.01002174150198698,-0.02803190052509308,0.07166513055562973
1772642761485311000,7.36531103515625,0.08633142709732056,-0.1467183381319046,-0.07191946357488632
1772642761495356200,7.375356201171875,0.12381142377853394,-0.34158504009246826,-0.1970752477645874
1772642761505401000,7.385401123046875,0.11568185687065125,-0.5403245091438293,-0.21970252692699432
1772642761515446300,7.3954462890625,0.07389872521162033,-0.659527599811554,-0.12624821066856384
1772642761525491000,7.405490966796875,0.013873470947146416,-0.6233440041542053,0.07403641194105148
1772642761535536000,7.4155361328125,-0.06024203449487686,-0.45699605345726013,0.32310667634010315
1772642761545581000,7.4255810546875,-0.12737366557121277,-0.27597272396087646,0.5141136646270752
1772642761555626200,7.435626220703125,-0.19897115230560303,-0.20301036536693573,0.5758355855941772
1772642761565671200,7.445671142578125,-0.2569692134857178,-0.22107751667499542,0.5349717736244202
1772642761575716000,7.455716064453125,-0.29043981432914734,-0.31722989678382874,0.45217570662498474
1772642761585761000,7.465760986328125,-0.30142349004745483,-0.4621521830558777,0.3536403477191925
1772642761595806200,7.47580615234375,-0.29714033007621765,-0.5353060364723206,0.2612755298614502
1772642761605851100,7.48585107421875,-0.26594433188438416,-0.5076451301574707,0.18323001265525818
1772642761615895000,7.49589501953125,-0.2157064527273178,-0.4092807173728943,0.11746857315301895
1772642761625940000,7.50593994140625,-0.16161392629146576,-0.342207133769989,0.04027711600065231
1772642761635985200,7.515985107421875,-0.08766167610883713,-0.39026761054992676,-0.07463402301073074
1772642761646030000,7.526030029296875,-0.007389206904917955,-0.5083670616149902,-0.22345413267612457
1772642761656075000,7.536074951171875,0.08044397830963135,-0.5825425386428833,-0.3861818015575409
1772642761666120000,7.546119873046875,0.1764192432165146,-0.5578078627586365,-0.5538621544837952
1772642761676165000,7.5561650390625,0.2541712820529938,-0.43278151750564575,-0.7239459753036499
1772642761686210000,7.5662099609375,0.28759583830833435,-0.23289263248443604,-0.8815878033638
1772642761696255200,7.576255126953125,0.2792484164237976,0.04753183200955391,-0.9855621457099915
1772642761706300000,7.5862998046875,0.23085930943489075,0.37350142002105713,-1.0074403285980225
1772642761716345000,7.596344970703125,0.1711089015007019,0.6695213317871094,-0.9142125844955444
1772642761726390000,7.60639013671875,0.11887551844120026,0.845654308795929,-0.7048580646514893
1772642761736435200,7.616435302734375,0.0889732837677002,0.8738446831703186,-0.41551730036735535
1772642761746479900,7.62647998046875,0.1017703041434288,0.7644926309585571,-0.07786284387111664
1772642761756525000,7.636525146484375,0.1379418969154358,0.5033057332038879,0.2732214033603668
1772642761766570000,7.646570068359375,0.16364219784736633,0.13875442743301392,0.5899810194969177
1772642761776615200,7.656615234375,0.15868525207042694,-0.19364748895168304,0.8388179540634155
1772642761786660000,7.66666015625,0.1034289225935936,-0.4384724199771881,0.9963812232017517
1772642761796705000,7.676705078125,0.01890604756772518,-0.5672237277030945,1.0454915761947632
1772642761806750000,7.68675,-0.0554981455206871,-0.5224208831787109,0.985295832157135
1772642761816795100,7.696795166015625,-0.09002310037612915,-0.3427909016609192,0.8437901139259338
1772642761826840000,7.706840087890625,-0.09860886633396149,-0.12024465203285217,0.6473097801208496
1772642761836885200,7.71688525390625,-0.09541493654251099,0.1158435121178627,0.43883782625198364
1772642761846930000,7.726929931640625,-0.08651039004325867,0.3741331100463867,0.2724749445915222
1772642761856975000,7.73697509765625,-0.07870972901582718,0.5774316191673279,0.17740434408187866
1772642761867020000,7.74702001953125,-0.09585009515285492,0.6649055480957031,0.1461569368839264
1772642761877065200,7.757065185546875,-0.15332616865634918,0.6428670883178711,0.17770767211914062
1772642761887110000,7.76710986328125,-0.2339906543493271,0.5485081076622009,0.26311126351356506
1772642761897155000,7.777155029296875,-0.3062555193901062,0.45225322246551514,0.3998456597328186
1772642761907200000,7.787199951171875,-0.3617558181285858,0.41068926453590393,0.5629395246505737
1772642761917245200,7.7972451171875,-0.4088876247406006,0.4345463812351227,0.7206575274467468
1772642761927290000,7.8072900390625,-0.4369056820869446,0.498440146446228,0.833920419216156
1772642761937335000,7.8173349609375,-0.42527008056640625,0.5035086870193481,0.8798306584358215
1772642761947380000,7.8273798828125,-0.4011703133583069,0.40835368633270264,0.8521513342857361
1772642761957425200,7.837425048828125,-0.36413002014160156,0.32361188530921936,0.7896943688392639
1772642761967470000,7.847469970703125,-0.30190685391426086,0.3694760501384735,0.7678852081298828
1772642761977515300,7.857515380859375,-0.20003269612789154,0.4690819978713989,0.8206275105476379
1772642761987559200,7.86755908203125,-0.1122322678565979,0.49027490615844727,0.8687521815299988
1772642761997604000,7.87760400390625,-0.11651116609573364,0.6334176659584045,0.8437181711196899
1772642762007649300,7.887649169921875,-0.1651332974433899,0.8834432363510132,0.7826281785964966
1772642762017694000,7.89769384765625,-0.3099445402622223,0.3770143985748291,0.4353288412094116
1772642762027739100,7.9077392578125,-0.6397591829299927,0.2975667119026184,-0.034568894654512405
1772642762037784000,7.9177841796875,-0.7579436302185059,0.7359586954116821,-0.38851526379585266
1772642762047829200,7.927829345703125,-0.6245077848434448,0.9232601523399353,-0.6814144849777222
1772642762057874200,7.937874267578125,-0.47366875410079956,0.9165068864822388,-0.9394788146018982
1772642762067919000,7.947919189453125,-0.36981001496315,0.9012267589569092,-1.1393927335739136
1772642762077964000,7.957964111328125,-0.25214701890945435,0.9233775734901428,-1.2006372213363647
1772642762088009200,7.96800927734375,-0.0759538859128952,0.9063711762428284,-1.1019803285598755
1772642762098054100,7.97805419921875,0.08277610689401627,0.708480179309845,-0.9588250517845154
1772642762108099300,7.988099365234375,0.1283140331506729,0.3399229347705841,-0.8923874497413635
1772642762118144000,7.99814404296875,0.11239098757505417,-0.031195469200611115,-0.8060134053230286
1772642762128189200,8.008189208984374,0.10294449329376221,-0.3810248374938965,-0.6183846592903137
1772642762138234000,8.018234130859375,0.07774592936038971,-0.7310236096382141,-0.3956530690193176
1772642762148279300,8.028279296875,-0.00250550196506083,-1.019520878791809,-0.23774012923240662
1772642762158324000,8.038323974609375,-0.10882554948329926,-1.1530743837356567,-0.1978670060634613
1772642762168369200,8.048369140625,-0.16618923842906952,-1.1068896055221558,-0.26816248893737793
1772642762178414000,8.0584140625,-0.14329829812049866,-0.8864629864692688,-0.3918681740760803
1772642762188458800,8.068458740234375,-0.02689126878976822,-0.5012452602386475,-0.503667414188385
1772642762198503700,8.078503662109375,0.13153725862503052,-0.06710420548915863,-0.5330143570899963
1772642762208548600,8.088548583984375,0.2580605745315552,0.2797296643257141,-0.4750272333621979
1772642762218593500,8.098593505859375,0.3038256764411926,0.4789354205131531,-0.3772357106208801
1772642762228638700,8.108638671875,0.24751073122024536,0.4778118431568146,-0.255378782749176
1772642762238683600,8.11868359375,0.12494726479053497,0.32886603474617004,-0.10435383766889572
1772642762248728800,8.128728759765625,-0.020978251472115517,0.11086020618677139,0.05967984348535538
1772642762258773500,8.1387734375,-0.17471428215503693,-0.09095706790685654,0.21049092710018158
1772642762268818700,8.148818603515625,-0.3194701373577118,-0.1947455108165741,0.322222501039505
1772642762278863600,8.158863525390625,-0.4049757122993469,-0.17969119548797607,0.4032617211341858
1772642762288908800,8.16890869140625,-0.41678497195243835,-0.10989241302013397,0.4360281825065613
1772642762298953500,8.178953369140626,-0.37322232127189636,-0.01751827262341976,0.3959934115409851
1772642762308998700,8.18899853515625,-0.27809232473373413,0.07739944756031036,0.3140924274921417
1772642762319043600,8.199043701171876,-0.17067240178585052,0.15791480243206024,0.22444748878479004
1772642762329088800,8.2090888671875,-0.09544955939054489,0.21348591148853302,0.15082652866840363
1772642762339132700,8.219132568359376,-0.05799086391925812,0.2461692988872528,0.12863121926784515
1772642762349177600,8.229177490234376,-0.05265575274825096,0.22218219935894012,0.1797250211238861
1772642762359222500,8.239222412109376,-0.06811114400625229,0.09264711290597916,0.28141650557518005
1772642762369267700,8.249267822265624,-0.0978647768497467,-0.13045494258403778,0.4061565697193146
1772642762379312600,8.259312744140624,-0.13409654796123505,-0.45669618248939514,0.503513753414154
1772642762389357600,8.269357666015624,-0.14370177686214447,-0.7135058641433716,0.5342540740966797
1772642762399402500,8.279402587890624,-0.10444092005491257,-0.5956138372421265,0.6187439560890198
1772642762409447700,8.28944775390625,-0.0030123014003038406,-0.37207743525505066,0.6824989318847656
1772642762419492600,8.29949267578125,0.10806548595428467,-0.18752436339855194,0.6668760180473328
1772642762429537500,8.30953759765625,0.20867490768432617,-0.044024717062711716,0.5932937264442444
1772642762439582500,8.31958251953125,0.2674596607685089,0.06686132401227951,0.4730314612388611
1772642762449627600,8.329627685546875,0.2769991159439087,0.12385962903499603,0.3353918492794037
1772642762459672600,8.339672607421875,0.27826252579689026,0.10897495597600937,0.23324842751026154
1772642762469717800,8.3497177734375,0.28127241134643555,0.04632914811372757,0.18216660618782043
