time,seconds_elapsed,z,y,x
1772642754178843000,0.0588427734375,0.1608608067035675,-0.07693810760974884,-0.4943107068538666
1772642754188887000,0.068886962890625,0.17840491235256195,-0.008694878779351711,-0.6150187253952026
1772642754198932200,0.07893212890625,0.18635810911655426,0.07161559909582138,-0.7202251553535461
1772642754208977200,0.08897705078125,0.1861485242843628,0.14833034574985504,-0.7886659502983093
1772642754219022000,0.09902197265625,0.1710451990365982,0.2220519781112671,-0.8176371455192566
1772642754229067000,0.10906689453125,0.1513167768716812,0.3256867825984955,-0.7948751449584961
1772642754239112200,0.1191123046875,0.14375123381614685,0.4278597831726074,-0.7235291600227356
1772642754249157000,0.1291572265625,0.1416739672422409,0.45938095450401306,-0.6335846185684204
1772642754259202000,0.1392021484375,0.1306145191192627,0.43316227197647095,-0.5348408818244934
1772642754269247000,0.1492470703125,0.12680166959762573,0.33014827966690063,-0.44693341851234436
1772642754279292200,0.159292236328125,0.14843310415744781,0.1649915874004364,-0.3822548985481262
1772642754289337000,0.169337158203125,0.1945316195487976,0.10416977852582932,-0.2905002236366272
1772642754299382300,0.17938232421875,0.24625349044799805,0.11136668175458908,-0.19081924855709076
1772642754309427000,0.189427001953125,0.31623950600624084,0.08981558680534363,-0.11451435089111328
1772642754319472000,0.19947216796875,0.36036184430122375,0.21877604722976685,-0.009268628433346748
1772642754329517000,0.20951708984375,0.3631775975227356,0.3674464821815491,0.09991218149662018
1772642754339562200,0.219562255859375,0.3102264702320099,0.33461493253707886,0.15691031515598297
1772642754349607000,0.22960693359375,0.3297346532344818,0.07748512923717499,0.1836196929216385
1772642754359652000,0.239652099609375,0.40232834219932556,-0.28489601612091064,0.20249147713184357
1772642754369697000,0.249697021484375,0.39639002084732056,-0.47058331966400146,0.21661049127578735
1772642754379742200,0.2597421875,0.2938646972179413,-0.36757326126098633,0.2467743456363678
1772642754389787100,0.269787109375,0.17020055651664734,-0.27277350425720215,0.2682788372039795
1772642754399832000,0.27983203125,0.1923297792673111,-0.3860711455345154,0.26895856857299805
1772642754409877000,0.289876953125,0.32668599486351013,-0.6470958590507507,0.2529255449771881
1772642754419922200,0.299922119140625,0.3115580677986145,-0.7092723846435547,0.3272269368171692
1772642754429967000,0.309967041015625,0.16238562762737274,-0.798241138458252,0.3647894859313965
1772642754440012300,0.32001220703125,0.1104942113161087,-0.8102630376815796,0.4481961131095886
1772642754450057000,0.330056884765625,0.01280600018799305,-0.6231083273887634,0.679709255695343
1772642754460102100,0.34010205078125,-0.13170823454856873,-0.3657791018486023,1.0004844665527344
1772642754470147000,0.35014697265625,-0.20030194520950317,-0.17826031148433685,1.2783597707748413
1772642754480192300,0.360192138671875,-0.1666027009487152,-0.1777588576078415,1.35561203956604
1772642754490237000,0.37023681640625,-0.20054201781749725,-0.261160284280777,1.1984401941299438
1772642754500282000,0.3802822265625,-0.3308405876159668,-0.3744332194328308,0.8738787174224854
1772642754510327000,0.3903271484375,-0.39471888542175293,-0.4880223572254181,0.5713934302330017
1772642754520372200,0.400372314453125,-0.4086386263370514,-0.8458324074745178,0.40462344884872437
1772642754530417200,0.410417236328125,-0.21034257113933563,-1.602953314781189,0.3319372832775116
1772642754540462000,0.420462158203125,-0.056998416781425476,-1.7468687295913696,0.4200711250305176
1772642754550507000,0.430507080078125,0.20961089432239532,-1.8042497634887695,0.3516486585140228
1772642754560552200,0.44055224609375,0.317970335483551,-1.6072850227355957,0.1443057507276535
1772642754570597000,0.45059716796875,0.33677491545677185,-1.6552202701568604,-0.2589937746524811
1772642754580642000,0.46064208984375,0.35533779859542847,-1.8052140474319458,-0.6873693466186523
1772642754590687000,0.47068701171875,0.32050925493240356,-1.5383613109588623,-1.0295839309692383
1772642754600732200,0.480732177734375,0.4374603033065796,-1.3652137517929077,-1.3534468412399292
1772642754610777000,0.490777099609375,0.6281716227531433,-1.2604780197143555,-1.5629528760910034
1772642754620822300,0.500822265625,0.7323629856109619,-0.9056050777435303,-1.6647378206253052
1772642754630867000,0.510866943359375,0.7955417037010193,-0.5978294610977173,-1.7162882089614868
1772642754640912100,0.520912109375,0.6511898040771484,-0.22460776567459106,-1.6975866556167603
1772642754650957000,0.53095703125,0.4116315245628357,0.24143317341804504,-1.5682406425476074
1772642754661002200,0.541002197265625,0.20545141398906708,0.5269613862037659,-1.320867657661438
1772642754671047200,0.551047119140625,0.036216042935848236,0.6294917464256287,-1.0059877634048462
1772642754681092000,0.561092041015625,-0.13246500492095947,0.5793840289115906,-0.6958296895027161
1772642754691137000,0.571136962890625,-0.2829325199127197,0.47067028284072876,-0.42991092801094055
1772642754701182200,0.58118212890625,-0.3855620324611664,0.31469881534576416,-0.21147383749485016
1772642754711227100,0.59122705078125,-0.4300597310066223,0.14067403972148895,0.031281810253858566
1772642754721272000,0.60127197265625,-0.41366347670555115,0.06399450451135635,0.2877931296825409
1772642754731317000,0.61131689453125,-0.34083160758018494,-0.007726553827524185,0.451821506023407
1772642754741362200,0.621362060546875,-0.31191369891166687,0.1832762211561203,0.6274486184120178
1772642754751407000,0.631406982421875,-0.25477612018585205,0.3162880837917328,0.7364275455474854
1772642754761452300,0.641452392578125,-0.24447020888328552,0.43727654218673706,0.7154706120491028
1772642754771496000,0.651495849609375,-0.22012892365455627,0.5607486367225647,0.6456894278526306
1772642754781541000,0.661541015625,-0.22870057821273804,0.7155091762542725,0.5430511832237244
1772642754791586000,0.6715859375,-0.27361559867858887,0.8173857927322388,0.4098374843597412
1772642754801631200,0.68163134765625,-0.32845234870910645,0.846026599407196,0.2622606158256531
1772642754811676000,0.691676025390625,-0.38772526383399963,0.8461515307426453,0.1354864239692688
1772642754821721000,0.70172119140625,-0.44952192902565,0.8003653883934021,0.06961065530776978
1772642754831766000,0.71176611328125,-0.5338628888130188,0.7295702695846558,0.0761796087026596
1772642754841811200,0.721811279296875,-0.639920175075531,0.6093137860298157,0.14020590484142303
1772642754851856000,0.73185595703125,-0.7560986876487732,0.41369229555130005,0.2605794668197632
1772642754861901000,0.741901123046875,-0.8621531128883362,0.17148660123348236,0.4407421946525574
1772642754871946000,0.751946044921875,-0.997856616973877,-0.150704488158226,0.6790967583656311
1772642754881991200,0.7619912109375,-1.0576024055480957,-0.07928261160850525,0.7951406836509705
1772642754892036000,0.7720361328125,-1.0192598104476929,0.011466463096439838,1.030210256576538
1772642754902081000,0.7820810546875,-0.9499608874320984,-0.01591826230287552,1.2031687498092651
1772642754912126000,0.7921259765625,-0.8733531832695007,-0.13314181566238403,1.281240701675415
1772642754922171100,0.802171142578125,-0.8443306684494019,-0.24204863607883453,1.3084219694137573
1772642754932216000,0.812216064453125,-0.8795526027679443,-0.32659974694252014,1.3246678113937378
1772642754942261200,0.82226123046875,-0.9726358652114868,-0.429621160030365,1.303666591644287
1772642754952306000,0.832305908203125,-1.076773762702942,-0.7057419419288635,1.1828062534332275
1772642754962351000,0.84235107421875,-1.1996408700942993,-1.1764013767242432,0.8375688195228577
1772642754972396000,0.85239599609375,-1.3626993894577026,-1.5839382410049438,0.22254106402397156
1772642754982441200,0.862441162109375,-1.548537015914917,-1.6758960485458374,-0.3004119396209717
1772642754992486000,0.87248583984375,-1.6023750305175781,-1.4772590398788452,-0.626901388168335
1772642755002531000,0.882531005859375,-1.4331352710723877,-1.2993258237838745,-0.8545915484428406
1772642755012576000,0.892575927734375,-1.1171858310699463,-1.2462207078933716,-1.0440863370895386
1772642755022621200,0.90262109375,-0.7742233276367188,-1.234704613685608,-1.2674477100372314
1772642755032666000,0.912666015625,-0.565683126449585,-1.2693639993667603,-1.597951054573059
1772642755042711000,0.9227109375,-0.6390986442565918,-1.2870213985443115,-2.086236000061035
1772642755052756000,0.932755859375,-0.8452880382537842,-1.1557002067565918,-2.406836986541748
1772642755062801200,0.94280126953125,-0.9825705289840698,-0.9625229835510254,-2.4768569469451904
1772642755072846000,0.95284619140625,-1.0173487663269043,-0.7401322722434998,-2.408587694168091
1772642755082891000,0.96289111328125,-0.9838716983795166,-0.4901123642921448,-2.2427146434783936
1772642755092936000,0.97293603515625,-0.9684272408485413,-0.3479270040988922,-2.038684844970703
1772642755102981000,0.982981201171875,-0.9637917876243591,-0.26509809494018555,-1.7382768392562866
1772642755113026000,0.993026123046875,-0.9098396301269531,-0.228376567363739,-1.258194923400879
1772642755123071200,1.0030712890625,-0.7842284440994263,-0.24834506213665009,-0.6586568355560303
1772642755133116000,1.013115966796875,-0.6486298441886902,-0.3035595715045929,-0.058047980070114136
1772642755143161000,1.0231611328125,-0.5794567465782166,-0.42651474475860596,0.34531721472740173
1772642755153206000,1.0332060546875,-0.5697900056838989,-0.5173119902610779,0.5273411273956299
1772642755163251200,1.043251220703125,-0.5719200372695923,-0.5213046073913574,0.5333887934684753
1772642755173296000,1.053296142578125,-0.5279432535171509,-0.36156922578811646,0.4944232702255249
1772642755183340500,1.063340576171875,-0.4269600212574005,-0.021374141797423363,0.4776427149772644
1772642755193385700,1.0733857421875,-0.29861482977867126,0.41331472992897034,0.45508041977882385
1772642755203430700,1.0834306640625,-0.15118639171123505,0.7411651611328125,0.416654109954834
1772642755213475600,1.0934755859375,-0.008981846272945404,0.7868871092796326,0.3225984275341034
1772642755223520500,1.1035205078125,0.11636132746934891,0.5755863189697266,0.1676345020532608
1772642755233565700,1.113565673828125,0.19875206053256989,0.2537315785884857,-0.03210151195526123
1772642755243610600,1.123610595703125,0.22760607302188873,-0.021097181364893913,-0.2611458897590637
1772642755253655600,1.133655517578125,0.2406318634748459,-0.15310928225517273,-0.4846455454826355
1772642755263700500,1.143700439453125,0.29991257190704346,-0.17494508624076843,-0.6669895648956299
1772642755273745700,1.15374560546875,0.39770013093948364,-0.16290147602558136,-0.8254266381263733
1772642755283790600,1.16379052734375,0.4813733398914337,-0.17774154245853424,-0.9822880625724792
1772642755293835500,1.17383544921875,0.5439245700836182,-0.14163866639137268,-1.126118779182434
1772642755303880700,1.183880615234375,0.5916427969932556,-0.010974811390042305,-1.2258520126342773
1772642755313925600,1.193925537109375,0.6176637411117554,0.13749001920223236,-1.2617218494415283
1772642755323970600,1.203970458984375,0.6099288463592529,0.29128965735435486,-1.2110177278518677
1772642755334015500,1.214015380859375,0.5867955684661865,0.4504947364330292,-1.0567485094070435
1772642755344060700,1.224060791015625,0.5609058737754822,0.5650566816329956,-0.7966588735580444
1772642755354105600,1.234105712890625,0.5381960272789001,0.5815432667732239,-0.47457513213157654
1772642755364150500,1.244150634765625,0.4979396462440491,0.5152302980422974,-0.12131758779287338
1772642755374195500,1.254195556640625,0.43703848123550415,0.39672383666038513,0.22296203672885895
1772642755384240600,1.26424072265625,0.3723222613334656,0.2464011162519455,0.5553697347640991
1772642755394284500,1.274284423828125,0.3183005750179291,0.1399010270833969,0.8529761433601379
1772642755404329500,1.28432958984375,0.29996001720428467,0.04542556777596474,1.0870541334152222
1772642755414374700,1.294374755859375,0.29974135756492615,-0.014137360267341137,1.1998381614685059
1772642755424419600,1.304419677734375,0.31042370200157166,-0.02374526485800743,1.1938475370407104
1772642755434464800,1.31446484375,0.2988429367542267,0.0671529546380043,1.079279899597168
1772642755444509400,1.324509521484375,0.2619543969631195,0.23488612473011017,0.9026423096656799
1772642755454554600,1.3345546875,0.22515402734279633,0.44440925121307373,0.7026588916778564
1772642755464599600,1.344599609375,0.22011791169643402,0.6242544651031494,0.5093411207199097
1772642755474644700,1.354644775390625,0.250765323638916,0.7502659559249878,0.3684214949607849
1772642755484689700,1.364689697265625,0.296978622674942,0.8326893448829651,0.2899385094642639
1772642755494734600,1.374734619140625,0.31287744641304016,0.8834244608879089,0.26950111985206604
1772642755504779500,1.384779541015625,0.28447219729423523,0.9158667922019958,0.2817343473434448
1772642755514824700,1.39482470703125,0.22478994727134705,0.932059645652771,0.301513135433197
1772642755524869600,1.40486962890625,0.14843837916851044,0.9190994501113892,0.3084653317928314
1772642755534914600,1.41491455078125,0.058382779359817505,0.8760294914245605,0.3176324665546417
1772642755544959500,1.42495947265625,-0.02584879659116268,0.7937976121902466,0.3476221263408661
1772642755555004700,1.435004638671875,-0.09712430834770203,0.7240451574325562,0.39598485827445984
1772642755565049600,1.445049560546875,-0.1608719676733017,0.6807411909103394,0.4734109342098236
1772642755575094800,1.4550947265625,-0.20185962319374084,0.650666356086731,0.5760299563407898
1772642755585139500,1.465139404296875,-0.2255571037530899,0.650080680847168,0.7054771780967712
1772642755595184600,1.4751845703125,-0.2638760209083557,0.7284657955169678,0.8406379818916321
1772642755605229600,1.4852294921875,-0.3279667794704437,0.8471096754074097,0.930360734462738
1772642755615274800,1.495274658203125,-0.4209396243095398,0.9019865393638611,0.906766951084137
1772642755625319700,1.505319580078125,-0.5328623652458191,0.7901633381843567,0.6596486568450928
1772642755635364600,1.515364501953125,-0.650635838508606,0.5477322936058044,0.17406675219535828
1772642755645409500,1.525409423828125,-0.7402506470680237,0.45310670137405396,-0.4198388457298279
1772642755655454700,1.535454833984375,-0.7065805792808533,0.6369484066963196,-0.9076540470123291
1772642755665499600,1.545499755859375,-0.5444933772087097,0.9292701482772827,-1.2248244285583496
1772642755675544600,1.555544677734375,-0.3547268807888031,1.101833462715149,-1.3845131397247314
1772642755685589500,1.565589599609375,-0.2054503858089447,1.1294755935668945,-1.3940072059631348
1772642755695634700,1.575634765625,-0.09323836117982864,1.1314013004302979,-1.2203712463378906
1772642755705679600,1.5856796875,-0.06828288733959198,1.115689754486084,-0.9115385413169861
1772642755715724800,1.595724853515625,-0.17869700491428375,1.0036907196044922,-0.5563801527023315
1772642755725769500,1.60576953125,-0.369659960269928,0.7063018083572388,-0.2314131110906601
1772642755735814700,1.615814697265625,-0.5367554426193237,0.2706177234649658,0.057732414454221725
1772642755745859600,1.625859619140625,-0.5948882102966309,-0.22029276192188263,0.3123430609703064
1772642755755904800,1.63590478515625,-0.5689945816993713,-0.679844856262207,0.489195317029953
1772642755765949400,1.645949462890625,-0.4631710946559906,-1.017303705215454,0.5676589012145996
1772642755775994600,1.65599462890625,-0.25287750363349915,-1.2285178899765015,0.5087673664093018
1772642755786039600,1.66603955078125,0.006047393660992384,-1.280880331993103,0.3234492242336273
1772642755796084700,1.676084716796875,0.21708239614963531,-1.1652591228485107,0.07130726426839828
1772642755806129700,1.686129638671875,0.3064872920513153,-0.8523114919662476,-0.18847425282001495
1772642755816174600,1.696174560546875,0.24172881245613098,-0.5242968797683716,-0.4157300293445587
1772642755826219500,1.706219482421875,0.023913549259305,-0.4313010573387146,-0.5592908263206482
1772642755836264700,1.7162646484375,-0.22176146507263184,-0.5268542170524597,-0.5570473670959473
1772642755846309600,1.7263095703125,-0.364429771900177,-0.6136255860328674,-0.36826884746551514
1772642755856354800,1.736354736328125,-0.38134777545928955,-0.7281002402305603,-0.01025187037885189
1772642755866399500,1.7463994140625,-0.30034732818603516,-0.9115591645240784,0.4165116250514984
1772642755876444700,1.756444580078125,-0.24195486307144165,-1.1030185222625732,0.7573125958442688
1772642755886489600,1.766489501953125,-0.2699905037879944,-1.1930975914001465,0.8703615069389343
1772642755896534800,1.77653466796875,-0.3311726450920105,-1.1577023267745972,0.7101614475250244
1772642755906579500,1.786579345703125,-0.35153520107269287,-1.023491621017456,0.3038896322250366
1772642755916624600,1.796624755859375,-0.2460673749446869,-0.7233019471168518,-0.23771315813064575
1772642755926669600,1.806669677734375,-0.022943438962101936,-0.24522973597049713,-0.789290189743042
1772642755936714800,1.81671484375,0.21912111341953278,0.2838567793369293,-1.228543996810913
1772642755946759700,1.826759765625,0.4436592757701874,0.6997803449630737,-1.4020955562591553
1772642755956804600,1.8368046875,0.6768975853919983,0.7991445064544678,-1.2360246181488037
1772642755966849500,1.846849609375,0.8750171661376953,0.5683622360229492,-0.7565032243728638
1772642755976893700,1.856893798828125,0.9985939860343933,0.0977046936750412,-0.11444120109081268
1772642755986938600,1.866938720703125,1.0405011177062988,-0.4248882234096527,0.5294442772865295
1772642755996983600,1.876983642578125,1.025160789489746,-0.800128698348999,1.0529747009277344
1772642756007028500,1.887028564453125,0.9177648425102234,-0.8891386389732361,1.3284761905670166
1772642756017073700,1.89707373046875,0.692007303237915,-0.7245147824287415,1.3010003566741943
1772642756027118600,1.90711865234375,0.4058521091938019,-0.5068103075027466,1.0076719522476196
1772642756037163500,1.91716357421875,0.19558222591876984,-0.2979534864425659,0.5706005692481995
1772642756047208400,1.92720849609375,0.1273455023765564,-0.04614853858947754,0.12525473535060883
1772642756057253600,1.937253662109375,0.21007472276687622,0.22172658145427704,-0.18314623832702637
1772642756067298600,1.947298583984375,0.35984140634536743,0.3943116068840027,-0.3446190059185028
1772642756077343700,1.95734375,0.493275910615921,0.44125327467918396,-0.3807604908943176
1772642756087388400,1.967388427734375,0.5516111254692078,0.42619290947914124,-0.3359294831752777
1772642756097433600,1.97743359375,0.48083046078681946,0.40818995237350464,-0.24500462412834167
1772642756107478500,1.987478515625,0.32409727573394775,0.36916640400886536,-0.13474354147911072
1772642756117523700,1.997523681640625,0.15034331381320953,0.32330915331840515,-0.00595867121592164
1772642756127568600,2.007568603515625,0.0014331218553707004,0.2816939055919647,0.08525104075670242
1772642756137613600,2.017613525390625,-0.09627000242471695,0.2818733751773834,0.15038557350635529
1772642756147658500,2.027658447265625,-0.11656685918569565,0.2694098651409149,0.20953090488910675
1772642756157703700,2.03770361328125,-0.05514051765203476,0.228421151638031,0.2474902719259262
1772642756167748600,2.04774853515625,0.0377093181014061,0.2100590020418167,0.27250543236732483
1772642756177793500,2.05779345703125,0.13363078236579895,0.26557978987693787,0.32014670968055725
1772642756187839500,2.067839599609375,0.19248855113983154,0.36514681577682495,0.3978688716888428
1772642756197884400,2.077884521484375,0.19327658414840698,0.44219791889190674,0.48827359080314636
1772642756207929300,2.087929443359375,0.1364951729774475,0.4429437816143036,0.5679129362106323
1772642756217974500,2.097974609375,0.046981796622276306,0.39991188049316406,0.5987531542778015
1772642756228019500,2.10801953125,-0.040535978972911835,0.3681500256061554,0.6120139360427856
1772642756238064400,2.118064453125,-0.08302884548902512,0.33031129837036133,0.6433579921722412
1772642756248109300,2.128109375,-0.04512711614370346,0.33503931760787964,0.7067088484764099
1772642756258154500,2.138154541015625,0.04346346855163574,0.4019879996776581,0.7507553696632385
1772642756268199400,2.148199462890625,0.12807747721672058,0.4035266041755676,0.6780269145965576
1772642756278244600,2.15824462890625,0.1275791972875595,0.20684443414211273,0.3636854887008667
1772642756288289300,2.168289306640625,0.011126374825835228,-0.1469169706106186,-0.19646887481212616
1772642756298334500,2.17833447265625,-0.19837519526481628,-0.26248565316200256,-0.8238020539283752
1772642756308379400,2.18837939453125,-0.31887808442115784,-0.014282320626080036,-1.3005224466323853
1772642756318424600,2.198424560546875,-0.25917425751686096,0.3318481743335724,-1.5203427076339722
1772642756328469200,2.20846923828125,-0.03860326483845711,0.5303142666816711,-1.422516942024231
1772642756338514400,2.218514404296875,0.19521935284137726,0.5494141578674316,-1.149021029472351
1772642756348559400,2.228559326171875,0.2878901958465576,0.4645234942436218,-0.8712730407714844
1772642756358604500,2.2386044921875,0.19538262486457825,0.30516526103019714,-0.6811478734016418
1772642756368649500,2.2486494140625,0.02718166448175907,0.05084891989827156,-0.6228617429733276
1772642756378694400,2.2586943359375,-0.10188417881727219,-0.18186475336551666,-0.6441864371299744
1772642756388739300,2.2687392578125,-0.13389216363430023,-0.33667775988578796,-0.7119939923286438
1772642756398784500,2.278784423828125,-0.021829288452863693,-0.36755043268203735,-0.7829278111457825
1772642756408829400,2.288829345703125,0.18268871307373047,-0.292913019657135,-0.8267683386802673
1772642756418874600,2.29887451171875,0.395224392414093,-0.20583349466323853,-0.8359621167182922
1772642756428919300,2.308919189453125,0.5436921715736389,-0.1667686253786087,-0.8125491142272949
1772642756438964500,2.318964599609375,0.5824890732765198,-0.174815371632576,-0.7300187945365906
1772642756449009400,2.329009521484375,0.49037492275238037,-0.21851110458374023,-0.5826732516288757
1772642756459054600,2.3390546875,0.3129570186138153,-0.26069796085357666,-0.3566747009754181
1772642756469099300,2.349099365234375,0.1253083050251007,-0.25969862937927246,-0.08357339352369308
1772642756479144400,2.35914453125,-0.01572311855852604,-0.25746503472328186,0.18220315873622894
1772642756489189400,2.369189453125,-0.0963732972741127,-0.28677651286125183,0.3703562021255493
1772642756499234600,2.379234619140625,-0.1112489178776741,-0.2943372130393982,0.4672606587409973
1772642756509279500,2.389279541015625,-0.08381097763776779,-0.265830934047699,0.4596431851387024
1772642756519324400,2.399324462890625,-0.03321437910199165,-0.24346596002578735,0.4031357169151306
1772642756529369300,2.409369384765625,0.013057584874331951,-0.24465033411979675,0.3486650884151459
1772642756539413500,2.41941357421875,0.04709997400641441,-0.21040740609169006,0.28206369280815125
1772642756549459500,2.42945947265625,0.08816993236541748,-0.10914460569620132,0.18949827551841736
1772642756559503400,2.43950341796875,0.13902752101421356,-0.0005635323468595743,0.06745412200689316
1772642756569548300,2.44954833984375,0.16279920935630798,0.03577527403831482,-0.08679279685020447
1772642756579593500,2.459593505859375,0.14713183045387268,-0.04445884749293327,-0.27112534642219543
1772642756589638400,2.469638427734375,0.10536909103393555,-0.20689533650875092,-0.4783366024494171
1772642756599683300,2.479683349609375,0.060698818415403366,-0.3221425712108612,-0.6783056855201721
1772642756609728300,2.489728271484375,0.0501985102891922,-0.3159363567829132,-0.857796311378479
1772642756619773400,2.4997734375,0.08534211665391922,-0.24197450280189514,-0.9988021850585938
1772642756629818400,2.509818359375,0.16458754241466522,-0.1315300464630127,-1.095564603805542
1772642756639863600,2.519863525390625,0.261901319026947,-0.017540879547595978,-1.168589472770691
1772642756649908200,2.529908203125,0.34388941526412964,0.10693540424108505,-1.2286219596862793
1772642756659953400,2.539953369140625,0.40094152092933655,0.2301255166530609,-1.2518692016601562
1772642756669998300,2.549998291015625,0.4405667185783386,0.3013932406902313,-1.205259084701538
1772642756680043500,2.56004345703125,0.47430577874183655,0.3003830909729004,-1.0963821411132812
1772642756690088400,2.57008837890625,0.49546244740486145,0.23914889991283417,-0.9303888082504272
1772642756700133400,2.58013330078125,0.5246240496635437,0.13507921993732452,-0.7133662104606628
1772642756710178300,2.59017822265625,0.5609596371650696,0.051264844834804535,-0.4449174702167511
1772642756720223500,2.600223388671875,0.59590083360672,0.03034598007798195,-0.1549903303384781
1772642756730268400,2.610268310546875,0.5828173160552979,0.05646301433444023,0.13706213235855103
1772642756740313300,2.620313232421875,0.541644811630249,0.05523129925131798,0.3909335434436798
1772642756750358300,2.630358154296875,0.5298662781715393,0.022461313754320145,0.6160488128662109
1772642756760403500,2.640403564453125,0.5416052341461182,0.02086075395345688,0.7794427871704102
1772642756770448400,2.650448486328125,0.5512913465499878,0.06982555240392685,0.8579468131065369
1772642756780493600,2.66049365234375,0.5417601466178894,0.12523901462554932,0.8474931120872498
1772642756790538200,2.670538330078125,0.5164909958839417,0.20891062915325165,0.7750735878944397
1772642756800583400,2.68058349609375,0.4834534227848053,0.33017635345458984,0.6719309687614441
1772642756810628400,2.69062841796875,0.4484853446483612,0.44087475538253784,0.5761178731918335
1772642756820673500,2.700673583984375,0.4130871295928955,0.5229828953742981,0.5025491118431091
1772642756830718200,2.71071826171875,0.37400805950164795,0.5850152373313904,0.48432353138923645
1772642756840763400,2.720763427734375,0.3376689553260803,0.5972862839698792,0.5161453485488892
1772642756850808300,2.730808349609375,0.2941904067993164,0.5670199394226074,0.5737523436546326
1772642756860853500,2.740853515625,0.23606078326702118,0.49103647470474243,0.6368402242660522
1772642756870898400,2.7508984375,0.17713023722171783,0.3908312916755676,0.71080482006073
1772642756880943400,2.760943359375,0.11508045345544815,0.27386900782585144,0.783487856388092
1772642756890988300,2.77098828125,0.04193047806620598,0.16057197749614716,0.84450763463974
1772642756901033500,2.781033447265625,-0.013970602303743362,0.07671889662742615,0.911387026309967
1772642756911078400,2.791078369140625,-0.014472650364041328,0.01503082737326622,1.0015407800674438
1772642756921123600,2.80112353515625,-0.001851663226261735,-0.04261888563632965,1.089524269104004
1772642756931168300,2.811168212890625,-0.025819696485996246,-0.10936877131462097,1.0652899742126465
1772642756941213400,2.82121337890625,-0.09939830750226974,-0.1866915076971054,0.8842219710350037
1772642756951258400,2.83125830078125,-0.21736450493335724,-0.27394986152648926,0.5322518944740295
1772642756961303600,2.841303466796875,-0.3635326325893402,-0.33462733030319214,0.07325927913188934
1772642756971348200,2.85134814453125,-0.4939229190349579,-0.26156920194625854,-0.34638744592666626
1772642756981393400,2.861393310546875,-0.5204482674598694,-0.02434411831200123,-0.6063183546066284
1772642756991438300,2.871438232421875,-0.38917309045791626,0.3049317002296448,-0.6622462272644043
1772642757001483500,2.8814833984375,-0.16346779465675354,0.6490117907524109,-0.5851304531097412
1772642757011528400,2.891528564453125,0.052271198481321335,0.8412240743637085,-0.5164375901222229
1772642757021573400,2.901573486328125,0.12752707302570343,0.8365419507026672,-0.5480373501777649
1772642757031618300,2.911618408203125,0.007850468158721924,0.7641623020172119,-0.7163653373718262
1772642757041663500,2.92166357421875,-0.27585768699645996,0.7230801582336426,-0.9979179501533508
1772642757051708400,2.93170849609375,-0.5488345623016357,0.6869679093360901,-1.2655943632125854
1772642757061753600,2.941753662109375,-0.7267007231712341,0.700417697429657,-1.458004117012024
1772642757071798300,2.95179833984375,-0.8263859152793884,0.7246787548065186,-1.6080551147460938
1772642757081843500,2.961843505859375,-0.8522825241088867,0.77680903673172,-1.7002044916152954
1772642757091888400,2.971888427734375,-0.7701544761657715,0.7270163893699646,-1.688517451286316
1772642757101933600,2.98193359375,-0.5644474029541016,0.5576577186584473,-1.5451184511184692
1772642757111978200,2.991978271484375,-0.2842952609062195,0.34017449617385864,-1.3365466594696045
1772642757122022400,3.0020224609375,-0.059984926134347916,0.17347630858421326,-1.1263563632965088
1772642757132067300,3.0120673828125,0.02512456104159355,0.09552300721406937,-0.9103411436080933
1772642757142112500,3.022112548828125,-0.027794847264885902,0.025891199707984924,-0.6799545288085938
1772642757152157200,3.0321572265625,-0.16127917170524597,-0.08385444432497025,-0.4397248327732086
1772642757162202400,3.042202392578125,-0.2961270213127136,-0.19630056619644165,-0.19707413017749786
1772642757172247300,3.052247314453125,-0.35600826144218445,-0.2733350694179535,0.02879868820309639
1772642757182292000,3.0622919921875,-0.3394383192062378,-0.2819373607635498,0.24729934334754944
1772642757192337200,3.072337158203125,-0.2632175385951996,-0.2598370313644409,0.47205662727355957
1772642757202382000,3.082382080078125,-0.1616767942905426,-0.2381058931350708,0.6803113222122192
1772642757212427000,3.092427001953125,-0.08152372390031815,-0.19575542211532593,0.8328071236610413
1772642757222472000,3.102471923828125,-0.03419642150402069,-0.15759259462356567,0.9527686834335327
1772642757232517000,3.11251708984375,-0.024939758703112602,-0.17613814771175385,1.0276356935501099
1772642757242562000,3.12256201171875,-0.052639298141002655,-0.22033542394638062,1.0430502891540527
1772642757252607000,3.13260693359375,-0.10152072459459305,-0.273031085729599,1.0162265300750732
1772642757262652000,3.14265185546875,-0.16550156474113464,-0.3254772424697876,0.9561333060264587
1772642757272697000,3.152697021484375,-0.21778467297554016,-0.40289831161499023,0.8682445287704468
1772642757282742000,3.162741943359375,-0.2369897961616516,-0.5131473541259766,0.7571073770523071
1772642757292787200,3.172787109375,-0.21412688493728638,-0.6343827843666077,0.6225494742393494
1772642757302831900,3.182831787109375,-0.16386984288692474,-0.7477849721908569,0.44140180945396423
1772642757312877000,3.192876953125,-0.11800260841846466,-0.8851274251937866,0.20153789222240448
1772642757322922000,3.202921875,-0.13920056819915771,-1.0245065689086914,-0.08259903639554977
1772642757332967200,3.21296728515625,-0.24094170331954956,-1.1122727394104004,-0.3241061270236969
1772642757343012000,3.22301220703125,-0.3600214719772339,-1.119818091392517,-0.4624940752983093
1772642757353057000,3.23305712890625,-0.4617305099964142,-1.0766701698303223,-0.5335679054260254
1772642757363102000,3.24310205078125,-0.5354662537574768,-0.9810826778411865,-0.5826012492179871
1772642757373147100,3.253147216796875,-0.5651869177818298,-0.879432201385498,-0.5861091613769531
1772642757383192000,3.263192138671875,-0.5189147591590881,-0.7840633392333984,-0.5323457717895508
1772642757393237000,3.273237060546875,-0.38264480233192444,-0.6534214615821838,-0.4113335907459259
1772642757403282000,3.283281982421875,-0.18502652645111084,-0.44985100626945496,-0.22536373138427734
1772642757413327000,3.2933271484375,0.03227689489722252,-0.2029985785484314,-0.013907494954764843
1772642757423372000,3.3033720703125,0.23855629563331604,0.023883560672402382,0.18395870923995972
1772642757433417000,3.3134169921875,0.4006231427192688,0.22258219122886658,0.3506104648113251
1772642757443462000,3.3234619140625,0.523364245891571,0.37282440066337585,0.4697698652744293
1772642757453507000,3.333507080078125,0.623713493347168,0.45508989691734314,0.5306117534637451
1772642757463552000,3.343552001953125,0.6972694993019104,0.4742119312286377,0.5368350148200989
1772642757473597000,3.353596923828125,0.7330850958824158,0.47393909096717834,0.4879820644855499
1772642757483641900,3.363641845703125,0.73231041431427,0.48637497425079346,0.4181002080440521
1772642757493687000,3.37368701171875,0.7080712914466858,0.5310223698616028,0.3348776698112488
1772642757503732000,3.38373193359375,0.6561228632926941,0.603857159614563,0.2554752230644226
1772642757513777000,3.39377685546875,0.5806758999824524,0.6619340777397156,0.1934775561094284
1772642757523822000,3.403822021484375,0.4841965138912201,0.6715922951698303,0.15245608985424042
1772642757533867000,3.413866943359375,0.3806402087211609,0.6448776125907898,0.15011899173259735
1772642757543912000,3.423911865234375,0.29705610871315,0.6365304589271545,0.200971782207489
1772642757553956900,3.433956787109375,0.24868090450763702,0.6397534608840942,0.29974958300590515
1772642757564002000,3.444001953125,0.22491884231567383,0.6409875750541687,0.4327734112739563
1772642757574047000,3.454046875,0.2274981588125229,0.6550372838973999,0.5990716814994812
1772642757584092000,3.464091796875,0.25468477606773376,0.6454512476921082,0.8076736330986023
1772642757594136800,3.47413671875,0.26171478629112244,0.517453670501709,1.0180143117904663
1772642757604182000,3.48418212890625,0.21838092803955078,0.293457567691803,1.1851673126220703
1772642757614227000,3.49422705078125,0.13763928413391113,0.09083273261785507,1.3143341541290283
1772642757624272000,3.50427197265625,0.06858910620212555,-0.057848356664180756,1.4092321395874023
1772642757634316800,3.51431689453125,0.0208062082529068,-0.20701579749584198,1.4114876985549927
1772642757644362000,3.524362060546875,-0.005498099606484175,-0.4105350971221924,1.2605175971984863
1772642757654407000,3.534406982421875,-0.030335402116179466,-0.6218233704566956,0.9176405072212219
1772642757664452000,3.5444521484375,-0.0887952521443367,-0.6726572513580322,0.43000903725624084
1772642757674496800,3.554496826171875,-0.10720745474100113,-0.42148464918136597,0.06257591396570206
1772642757684542000,3.5645419921875,-0.10142306238412857,0.03898495435714722,-0.04543817415833473
1772642757694586000,3.574586181640625,0.019544314593076706,0.29493460059165955,0.07085096836090088
1772642757704631000,3.584631103515625,0.16361761093139648,0.2076481580734253,0.23684260249137878
1772642757714676000,3.594676025390625,0.08844096958637238,-0.018461784347891808,0.137624591588974
1772642757724721000,3.604720947265625,-0.17575925588607788,-0.22145403921604156,-0.14593654870986938
1772642757734766000,3.61476611328125,-0.44647353887557983,-0.34218060970306396,-0.4135265350341797
1772642757744811000,3.62481103515625,-0.6222048997879028,-0.4329187870025635,-0.6526786684989929
1772642757754856000,3.63485595703125,-0.6694374680519104,-0.42553532123565674,-0.8668129444122314
1772642757764900900,3.64490087890625,-0.617384672164917,-0.26789161562919617,-1.079541802406311
1772642757774946000,3.654946044921875,-0.5194907188415527,-0.01437339000403881,-1.2982761859893799
1772642757784991000,3.664990966796875,-0.4067572355270386,0.19207671284675598,-1.4993571043014526
1772642757795036200,3.6750361328125,-0.3290674090385437,0.3099331259727478,-1.6174272298812866
1772642757805080800,3.685080810546875,-0.2865058481693268,0.27921730279922485,-1.575260877609253
1772642757815126000,3.6951259765625,-0.2637389898300171,0.11963143199682236,-1.3085609674453735
1772642757825171000,3.7051708984375,-0.27038994431495667,-0.05156242474913597,-0.8309184312820435
1772642757835216100,3.715216064453125,-0.31172534823417664,-0.1940380036830902,-0.2550888955593109
1772642757845261000,3.725260986328125,-0.37487369775772095,-0.292346715927124,0.27392542362213135
1772642757855306000,3.735305908203125,-0.4370253086090088,-0.36693286895751953,0.6573519110679626
1772642757865351000,3.745350830078125,-0.497830867767334,-0.3858373165130615,0.9175496697425842
1772642757875396000,3.75539599609375,-0.5356599688529968,-0.3342896103858948,1.1417107582092285
1772642757885441000,3.76544091796875,-0.4823368489742279,-0.1780610978603363,1.384115219116211
1772642757895486000,3.77548583984375,-0.32666072249412537,0.04944628104567528,1.5921975374221802
1772642757905531000,3.78553076171875,-0.13776858150959015,0.2955852150917053,1.7019234895706177
1772642757915576000,3.795576171875,0.03275366127490997,0.4664735794067383,1.680642008781433
1772642757925621000,3.80562109375,0.15673473477363586,0.4873511493206024,1.5870732069015503
1772642757935666200,3.815666259765625,0.17587700486183167,0.3990707993507385,1.4379328489303589
1772642757945710800,3.8257109375,0.08629119396209717,0.3050686717033386,1.2147783041000366
1772642757955756000,3.835756103515625,-0.052052728831768036,0.24953638017177582,0.9596177339553833
1772642757965801000,3.845801025390625,-0.12514078617095947,0.15327084064483643,0.7014551758766174
1772642757975846100,3.85584619140625,-0.06810114532709122,-0.008195251226425171,0.4637179970741272
1772642757985890800,3.865890869140625,0.06974140554666519,-0.15256814658641815,0.21613964438438416
1772642757995936000,3.87593603515625,0.2048572301864624,-0.16760927438735962,-0.029441190883517265
1772642758005981000,3.88598095703125,0.28511637449264526,-0.054582852870225906,-0.25096240639686584
1772642758016026000,3.896026123046875,0.3271096646785736,0.11239602416753769,-0.40398627519607544
1772642758026071000,3.906071044921875,0.3115709125995636,0.26990440487861633,-0.48933446407318115
1772642758036116000,3.916115966796875,0.2540142238140106,0.27449920773506165,-0.5350295305252075
1772642758046161000,3.926160888671875,0.18810898065567017,0.10578583180904388,-0.5461138486862183
1772642758056206000,3.9362060546875,0.09294296056032181,-0.09974367171525955,-0.5535382032394409
1772642758066251000,3.9462509765625,-0.020769761875271797,-0.21175649762153625,-0.561367392539978
1772642758076296200,3.956296142578125,-0.07233963906764984,-0.15860387682914734,-0.5216079950332642
1772642758086340900,3.9663408203125,-0.013369526714086533,0.001291516236960888,-0.4256572425365448
1772642758096386000,3.976385986328125,0.1223604679107666,0.1829325258731842,-0.2711024582386017
1772642758106431000,3.986430908203125,0.303928941488266,0.36745548248291016,-0.06801033765077591
1772642758116476200,3.99647607421875,0.5060547590255737,0.5469457507133484,0.17845332622528076
1772642758126520800,4.006520751953125,0.6810111403465271,0.6917375922203064,0.42428654432296753
1772642758136566000,4.01656591796875,0.8122109174728394,0.7530551552772522,0.6185242533683777
1772642758146611000,4.02661083984375,0.8842052221298218,0.7204002737998962,0.7425788640975952
1772642758156656000,4.03665625,0.8835849165916443,0.5593083500862122,0.7998273968696594
1772642758166701000,4.046701171875,0.799473226070404,0.2997390925884247,0.8088283538818359
1772642758176746000,4.05674609375,0.642623245716095,0.05544339120388031,0.7839102149009705
1772642758186792000,4.0667919921875,0.4723934233188629,-0.08235868066549301,0.7346391081809998
1772642758196836900,4.0768369140625,0.3353598713874817,-0.12015842646360397,0.6692043542861938
1772642758206881800,4.0868818359375,0.23763252794742584,-0.05568968877196312,0.592311441898346
1772642758216926700,4.0969267578125,0.17952275276184082,0.12502604722976685,0.4847886562347412
1772642758226971000,4.106970947265625,0.12322858721017838,0.30628105998039246,0.36456266045570374
1772642758237016000,4.11701611328125,0.049127887934446335,0.3875698745250702,0.26521608233451843
1772642758247060700,4.127060791015625,-0.03278268873691559,0.3820081353187561,0.20184405148029327
1772642758257106000,4.13710595703125,-0.13549073040485382,0.3268333375453949,0.17167088389396667
1772642758267150800,4.14715087890625,-0.25001493096351624,0.27164226770401,0.1917511224746704
1772642758277196000,4.157196044921875,-0.35612374544143677,0.25515246391296387,0.2691022753715515
1772642758287240700,4.16724072265625,-0.43597277998924255,0.27189815044403076,0.37658533453941345
1772642758297286000,4.177285888671875,-0.4669129550457001,0.32765811681747437,0.5134283304214478
1772642758307330800,4.187330810546875,-0.43572309613227844,0.37489885091781616,0.6553830504417419
1772642758317376000,4.1973759765625,-0.3589811623096466,0.35233017802238464,0.8050713539123535
1772642758327421000,4.2074208984375,-0.27056261897087097,0.2340613305568695,0.9410819411277771
1772642758337465900,4.2174658203125,-0.252167284488678,0.01844605803489685,1.0051757097244263
1772642758347510800,4.2275107421875,-0.32153889536857605,-0.28735461831092834,0.9796549081802368
1772642758357556000,4.237555908203125,-0.4476330876350403,-0.6733452081680298,0.8117214441299438
1772642758367601000,4.247600830078125,-0.6145243644714355,-0.9963736534118652,0.4729447066783905
1772642758377646000,4.25764599609375,-0.7589794993400574,-0.8758883476257324,0.05801302194595337
1772642758387690800,4.267690673828125,-0.7015223503112793,-0.4272986054420471,-0.42071041464805603
1772642758397736000,4.27773583984375,-0.5548234581947327,0.1802106350660324,-1.0763344764709473
1772642758407780900,4.28778076171875,-0.3648702800273895,0.767238438129425,-1.7015197277069092
1772642758417826000,4.297825927734375,-0.13313089311122894,1.092221736907959,-2.008776903152466
1772642758427870700,4.30787060546875,0.04961787536740303,0.9360095858573914,-1.9398268461227417
1772642758437916000,4.317916015625,-0.018572919070720673,0.3865428864955902,-1.6713953018188477
1772642758447960800,4.3279609375,-0.2571559250354767,-0.2719455361366272,-1.3508095741271973
1772642758458006000,4.338006103515625,-0.4501689076423645,-0.7727475762367249,-1.0917683839797974
1772642758468051000,4.348051025390625,-0.48987266421318054,-0.9716430902481079,-0.9608123898506165
1772642758478096000,4.358095947265625,-0.40275833010673523,-0.9599230289459229,-1.013968586921692
1772642758488140800,4.368140869140625,-0.2460496574640274,-0.7311409711837769,-1.1985368728637695
1772642758498186000,4.37818603515625,-0.05272561311721802,-0.3884563446044922,-1.3827733993530273
1772642758508231000,4.38823095703125,0.13570688664913177,-0.1276273876428604,-1.449222445487976
1772642758518275800,4.39827587890625,0.28541800379753113,-0.08170686662197113,-1.3449432849884033
1772642758528320800,4.40832080078125,0.3348289728164673,-0.310516893863678,-1.1257938146591187
1772642758538366000,4.418365966796875,0.2709432542324066,-0.6225551962852478,-0.8101756572723389
1772642758548411000,4.428410888671875,0.14426706731319427,-0.8520480394363403,-0.4629095196723938
1772642758558456000,4.4384560546875,-0.004182268399745226,-0.9357548952102661,-0.15061865746974945
1772642758568500700,4.448500732421875,-0.1752496212720871,-0.8467137217521667,0.09255804866552353
1772642758578546000,4.4585458984375,-0.3172485828399658,-0.6637622714042664,0.2697237730026245
1772642758588590800,4.4685908203125,-0.3821689784526825,-0.442814439535141,0.38702458143234253
1772642758598636000,4.478635986328125,-0.3676905333995819,-0.18619677424430847,0.4343216121196747
1772642758608681000,4.488680908203125,-0.29825153946876526,0.025327986106276512,0.4261038899421692
1772642758618726000,4.498725830078125,-0.22622808814048767,0.12107569724321365,0.3946065902709961
1772642758628770800,4.508770751953125,-0.18229445815086365,0.12450052052736282,0.38156482577323914
1772642758638816000,4.51881591796875,-0.1589316874742508,0.06315945833921432,0.3881147801876068
1772642758648861000,4.52886083984375,-0.14266909658908844,-0.05498369410634041,0.3917750418186188
1772642758658905900,4.53890576171875,-0.1279441863298416,-0.2081845998764038,0.3738372027873993
1772642758668950800,4.54895068359375,-0.0969652384519577,-0.35306161642074585,0.3334277272224426
1772642758678996000,4.558995849609375,-0.02219216153025627,-0.4735339879989624,0.2692295014858246
1772642758689041000,4.569041015625,0.09129951149225235,-0.5933749675750732,0.16922752559185028
1772642758699085800,4.5790859375,0.20254604518413544,-0.6710465550422668,0.037702515721321106
1772642758709130800,4.589130859375,0.31599298119544983,-0.6607076525688171,-0.10819795727729797
1772642758719176000,4.599176025390625,0.43863028287887573,-0.6009445786476135,-0.2478363811969757
1772642758729220900,4.609220947265625,0.5480765700340271,-0.5135535001754761,-0.4015369713306427
1772642758739265800,4.619265869140625,0.5945478677749634,-0.4345094859600067,-0.5579180717468262
1772642758749311000,4.62931103515625,0.5791734457015991,-0.43410760164260864,-0.686583399772644
1772642758759356000,4.63935595703125,0.5188719034194946,-0.4965248703956604,-0.770660400390625
1772642758769399800,4.64939990234375,0.40628781914711,-0.5495806336402893,-0.8010915517807007
1772642758779445000,4.659445068359375,0.2640344798564911,-0.5458265542984009,-0.7690284848213196
1772642758789489700,4.66948974609375,0.13018424808979034,-0.4479582905769348,-0.6823577284812927
1772642758799534800,4.679534912109375,0.014732775278389454,-0.2850680351257324,-0.5702013969421387
1772642758809579800,4.689579833984375,-0.056346192955970764,-0.08750009536743164,-0.44640883803367615
1772642758819625000,4.699625,-0.04460049793124199,0.09430760145187378,-0.296185165643692
1772642758829670000,4.709669921875,0.06554651260375977,0.2450081706047058,-0.1316223293542862
1772642758839714800,4.71971484375,0.2373376041650772,0.3641439378261566,0.053656723350286484
1772642758849759700,4.729759765625,0.43125221133232117,0.42723342776298523,0.23730112612247467
1772642758859805000,4.739804931640625,0.5941270589828491,0.4406762421131134,0.40118059515953064
1772642758869849900,4.749849853515625,0.6994337439537048,0.4382905662059784,0.5359935164451599
1772642758879895000,4.75989501953125,0.7371724247932434,0.4371858239173889,0.6503857374191284
1772642758889939700,4.769939697265625,0.7008338570594788,0.41417425870895386,0.724155843257904
1772642758899985000,4.77998486328125,0.6287731528282166,0.37202367186546326,0.7677239775657654
1772642758910029800,4.79002978515625,0.5480216145515442,0.3473691940307617,0.7832850813865662
1772642758920075000,4.800074951171875,0.4787471890449524,0.36074474453926086,0.7822176218032837
1772642758930119700,4.81011962890625,0.43684715032577515,0.40570634603500366,0.7521997690200806
1772642758940164900,4.820164794921875,0.39800286293029785,0.48638638854026794,0.6707993745803833
1772642758950209800,4.830209716796875,0.3410245478153229,0.5872430205345154,0.554341733455658
1772642758960255000,4.8402548828125,0.2787570059299469,0.6927735805511475,0.44238483905792236
1772642758970300000,4.8502998046875,0.21813146770000458,0.7738638520240784,0.36256083846092224
1772642758980344800,4.8603447265625,0.1597280651330948,0.7616488933563232,0.338034987449646
1772642758990389800,4.8703896484375,0.09170641005039215,0.6324975490570068,0.35420170426368713
1772642759000435000,4.88043505859375,0.019431447610259056,0.48788687586784363,0.3888874351978302
1772642759010479900,4.89047998046875,-0.04704105481505394,0.41869714856147766,0.4358102083206177
1772642759020524800,4.90052490234375,-0.09579876065254211,0.43046659231185913,0.4940989017486572
1772642759030569700,4.91056982421875,-0.1396477073431015,0.4946293532848358,0.570487916469574
1772642759040615000,4.920614990234375,-0.17818164825439453,0.5580330491065979,0.642173707485199
1772642759050659800,4.930659912109375,-0.24561715126037598,0.47669878602027893,0.6710050702095032
1772642759060705000,4.940705078125,-0.34283965826034546,0.10238649696111679,0.5511272549629211
1772642759070749700,4.950749755859375,-0.45641788840293884,-0.41070556640625,0.22801902890205383
1772642759080795000,4.960794921875,-0.5663214325904846,-0.7227264642715454,-0.22812782227993011
1772642759090839800,4.97083984375,-0.6145840287208557,-0.6471171975135803,-0.6007320284843445
1772642759100885000,4.980885009765625,-0.5673717260360718,-0.18839508295059204,-0.7646540403366089
1772642759110930000,4.990929931640625,-0.45519885420799255,0.27596381306648254,-0.8161829710006714
1772642759120974800,5.000974853515625,-0.3861472010612488,0.45849910378456116,-0.8954095244407654
1772642759131019800,5.011019775390625,-0.3970422148704529,0.4837424159049988,-0.9644812941551208
1772642759141065000,5.02106494140625,-0.4136049151420593,0.46209239959716797,-0.940578818321228
1772642759151110000,5.03110986328125,-0.4524327218532562,0.3304819166660309,-0.8986755609512329
1772642759161154800,5.04115478515625,-0.5097147226333618,0.04994944483041763,-0.9190982580184937
1772642759171199700,5.05119970703125,-0.5375205278396606,-0.3213388919830322,-0.9933011531829834
1772642759181245000,5.061244873046875,-0.5375264286994934,-0.6103209257125854,-1.0798219442367554
1772642759191290000,5.0712900390625,-0.5257286429405212,-0.772659182548523,-1.1406521797180176
1772642759201335300,5.081335205078125,-0.5290308594703674,-0.819938600063324,-1.1789580583572388
1772642759211380000,5.0913798828125,-0.5401711463928223,-0.7064002752304077,-1.1929231882095337
1772642759221425200,5.101425048828125,-0.5240093469619751,-0.4967663586139679,-1.1757389307022095
1772642759231470000,5.111469970703125,-0.4561957120895386,-0.34313711524009705,-1.1401889324188232
1772642759241515300,5.121515380859375,-0.35660520195961,-0.32678553462028503,-1.084204912185669
1772642759251559000,5.131558837890625,-0.254019170999527,-0.44789063930511475,-1.0016599893569946
1772642759261604000,5.14160400390625,-0.1940421760082245,-0.6163806915283203,-0.9172161817550659
1772642759271649000,5.15164892578125,-0.18330004811286926,-0.6907377243041992,-0.8276854753494263
1772642759281694200,5.161694091796875,-0.18553143739700317,-0.6136826872825623,-0.699983537197113
1772642759291739000,5.17173876953125,-0.15915150940418243,-0.3886154890060425,-0.5112426280975342
1772642759301784000,5.1817841796875,-0.10885150730609894,-0.15042482316493988,-0.28837093710899353
1772642759311829000,5.1918291015625,-0.059296198189258575,-0.03679520636796951,-0.08615577220916748
1772642759321874200,5.201874267578125,-0.0553964227437973,-0.06261943280696869,0.05218400061130524
1772642759331919000,5.211919189453125,-0.08104665577411652,-0.1408734917640686,0.13619154691696167
1772642759341964000,5.221964111328125,-0.13328255712985992,-0.24033544957637787,0.17305731773376465
1772642759352009000,5.232009033203125,-0.19473445415496826,-0.3541722595691681,0.17849469184875488
1772642759362054100,5.24205419921875,-0.24193280935287476,-0.45083239674568176,0.17856359481811523
1772642759372099000,5.25209912109375,-0.2513556182384491,-0.47783976793289185,0.1859205812215805
1772642759382144300,5.262144287109375,-0.20940054953098297,-0.40920040011405945,0.183191180229187
1772642759392189000,5.27218896484375,-0.13431592285633087,-0.27930712699890137,0.14776155352592468
1772642759402234000,5.282234130859375,-0.04229779541492462,-0.15848152339458466,0.11487995833158493
1772642759412279000,5.292279052734375,0.030980147421360016,-0.15546229481697083,0.12728309631347656
1772642759422324200,5.30232421875,0.07772468030452728,-0.2950963079929352,0.22328729927539825
1772642759432369000,5.312368896484375,0.10124997794628143,-0.48224037885665894,0.39104408025741577
1772642759442414000,5.3224140625,0.11597367376089096,-0.6374297142028809,0.5910621285438538
1772642759452459000,5.332458984375,0.1612735092639923,-0.7430605888366699,0.7829095721244812
1772642759462504200,5.342504150390625,0.2075435370206833,-0.7121039628982544,0.9065783619880676
1772642759472549000,5.352549072265625,0.2707773745059967,-0.558063805103302,0.9589954614639282
1772642759482594000,5.362593994140625,0.3398797810077667,-0.39994823932647705,0.9387332201004028
1772642759492639000,5.372638916015625,0.38340967893600464,-0.2848759889602661,0.8593392968177795
1772642759502684200,5.38268408203125,0.3695181608200073,-0.20099227130413055,0.7552863359451294
1772642759512729000,5.39272900390625,0.31496119499206543,-0.2011946737766266,0.6258940100669861
1772642759522774300,5.402774169921875,0.22399045526981354,-0.22580254077911377,0.48113712668418884
1772642759532819000,5.41281884765625,0.1225234866142273,-0.14902547001838684,0.34824270009994507
1772642759542864100,5.422864013671875,0.0536835677921772,0.06316137313842773,0.27464964985847473
1772642759552909000,5.432908935546875,0.05366785451769829,0.32032310962677,0.2811986207962036
1772642759562954200,5.442954345703125,0.09305690973997116,0.5079233050346375,0.3570225238800049
1772642759572999000,5.4529990234375,0.15384383499622345,0.5542678833007812,0.48371604084968567
1772642759583044000,5.463044189453125,0.1998671293258667,0.4629037082195282,0.6590538024902344
1772642759593089000,5.473089111328125,0.2212160974740982,0.3401525020599365,0.8569735288619995
1772642759603134200,5.48313427734375,0.2340995967388153,0.2846624255180359,1.0528963804244995
1772642759613179100,5.49317919921875,0.23831458389759064,0.25472503900527954,1.1908811330795288
1772642759623224000,5.50322412109375,0.22557847201824188,0.2104063779115677,1.2495712041854858
1772642759633269000,5.51326904296875,0.2035067230463028,0.12463048100471497,1.250442624092102
1772642759643314200,5.523314208984375,0.18492332100868225,-0.02116878516972065,1.1918991804122925
1772642759653359000,5.533359130859375,0.15589407086372375,-0.15514282882213593,1.0761001110076904
1772642759663404000,5.543404052734375,0.1185973584651947,-0.20768989622592926,0.9238828420639038
1772642759673449000,5.553448974609375,0.08641652017831802,-0.1793602555990219,0.7528154850006104
1772642759683494100,5.563494140625,0.04877804219722748,-0.10630051791667938,0.5687648057937622
1772642759693539000,5.5735390625,-0.01098595466464758,-0.0019466844387352467,0.40739667415618896
1772642759703584300,5.583584228515625,-0.07618223875761032,0.1376383900642395,0.29827550053596497
1772642759713629000,5.59362890625,-0.13268865644931793,0.2830671966075897,0.2459510713815689
1772642759723674000,5.603674072265625,-0.18968039751052856,0.41476476192474365,0.2542297840118408
1772642759733718300,5.61371826171875,-0.2353844940662384,0.5163145661354065,0.3081294894218445
1772642759743763200,5.62376318359375,-0.2706139385700226,0.5750530958175659,0.39104923605918884
1772642759753808100,5.63380810546875,-0.3006972670555115,0.5512157082557678,0.4777260720729828
1772642759763853000,5.64385302734375,-0.31633704900741577,0.4947934150695801,0.5596053004264832
1772642759773898200,5.653898193359375,-0.30699440836906433,0.4434008002281189,0.643009603023529
1772642759783943200,5.663943115234375,-0.2865934669971466,0.4522395431995392,0.7023426294326782
1772642759793988000,5.673988037109375,-0.25814104080200195,0.532019317150116,0.6650200486183167
1772642759804033000,5.684032958984375,-0.25350329279899597,0.5812683701515198,0.46123024821281433
1772642759814078200,5.694078125,-0.2566269338130951,0.583649218082428,0.1110948845744133
1772642759824123100,5.704123046875,-0.24548891186714172,0.5843304395675659,-0.3028973937034607
1772642759834168300,5.714168212890625,-0.21121855080127716,0.5442690253257751,-0.683480978012085
1772642759844213000,5.724212890625,-0.2028636783361435,0.344441294670105,-1.013802170753479
1772642759854258200,5.734258056640625,-0.2633182406425476,0.32384252548217773,-1.203356146812439
1772642759864303000,5.74430322265625,-0.2721448540687561,0.4572976529598236,-1.1023428440093994
1772642759874348300,5.754348388671875,-0.21830612421035767,0.5162118077278137,-0.7472654581069946
1772642759884393200,5.764393310546875,-0.17647893726825714,0.30667921900749207,-0.39305269718170166
1772642759894438100,5.774438232421875,-0.23895296454429626,-0.08728460222482681,-0.21728086471557617
1772642759904483000,5.784483154296875,-0.3120916187763214,-0.5206339359283447,-0.1771148145198822
1772642759914528300,5.7945283203125,-0.3692132234573364,-0.8994645476341248,-0.23744019865989685
1772642759924573200,5.8045732421875,-0.3700149655342102,-1.0408730506896973,-0.3637803792953491
1772642759934618000,5.8146181640625,-0.2780032753944397,-0.8792723417282104,-0.5233700275421143
1772642759944663000,5.8246630859375,-0.12495182454586029,-0.5170748233795166,-0.7052677273750305
1772642759954708200,5.834708251953125,0.04412587359547615,-0.08880257606506348,-0.85054612159729
1772642759964753200,5.844753173828125,0.15942434966564178,0.11522074788808823,-0.9372686147689819
1772642759974798000,5.854798095703125,0.19193808734416962,0.038058049976825714,-0.9854949712753296
1772642759984843000,5.864843017578125,0.13979479670524597,-0.23135779798030853,-0.9951503276824951
1772642759994888200,5.87488818359375,0.052886005491018295,-0.5664157271385193,-0.9629726409912109
1772642760004933000,5.88493310546875,-0.019189080223441124,-0.7308611273765564,-0.8570960164070129
1772642760014978000,5.89497802734375,-0.04665825515985489,-0.6543729901313782,-0.6677979826927185
1772642760025023200,5.905023193359375,-0.026187565177679062,-0.3919299840927124,-0.36618518829345703
1772642760035068200,5.915068115234375,0.0031183911487460136,-0.11311299353837967,-0.021597469225525856
1772642760045113000,5.925113037109375,-0.0454103983938694,-0.027162641286849976,0.22367212176322937
1772642760055158000,5.935157958984375,-0.16752086579799652,-0.10230160504579544,0.29543420672416687
1772642760065203200,5.945203125,-0.31160226464271545,-0.22573184967041016,0.20826520025730133
1772642760075248000,5.955248046875,-0.42187923192977905,-0.3078930377960205,0.05600402504205704
1772642760085293000,5.96529296875,-0.4542320668697357,-0.3432879149913788,-0.05744220316410065
1772642760095338000,5.975337890625,-0.4324580729007721,-0.3348475694656372,-0.11428284645080566
1772642760105383200,5.985383056640625,-0.377339243888855,-0.3013441264629364,-0.11138904839754105
1772642760115428000,5.995427978515625,-0.31869110465049744,-0.26435256004333496,-0.06496349722146988
1772642760125473000,6.00547314453125,-0.2744872272014618,-0.25223639607429504,-0.002254574093967676
1772642760135518000,6.01551806640625,-0.24658583104610443,-0.23776637017726898,0.05910731852054596
1772642760145563100,6.025563232421875,-0.23405878245830536,-0.24622397124767303,0.10781156271696091
1772642760155608000,6.035608154296875,-0.24879272282123566,-0.27940961718559265,0.14847484230995178
1772642760165653000,6.045653076171875,-0.27842020988464355,-0.3561553359031677,0.1503903567790985
1772642760175698000,6.055697998046875,-0.29565513134002686,-0.40815117955207825,0.0725938230752945
1772642760185740500,6.065740478515625,-0.2717958688735962,-0.39516356587409973,-0.12222562730312347
1772642760195785500,6.075785400390625,-0.21644553542137146,-0.26219937205314636,-0.3906315267086029
1772642760205830700,6.08583056640625,-0.14256586134433746,-0.0902130976319313,-0.6392632722854614
1772642760215875300,6.095875244140625,-0.07169275730848312,-0.018778864294290543,-0.816016435623169
1772642760225920500,6.10592041015625,-0.012663298286497593,-0.06951121985912323,-0.9000174403190613
1772642760235965400,6.11596533203125,0.02626252919435501,-0.18018738925457,-0.8993305563926697
1772642760246010600,6.1260107421875,0.0746275782585144,-0.2109219878911972,-0.8221867084503174
1772642760256055600,6.1360556640625,0.1620250642299652,-0.07994693517684937,-0.6732606291770935
1772642760266100500,6.1461005859375,0.27953311800956726,0.16466940939426422,-0.482938289642334
1772642760276145400,6.1561455078125,0.38842207193374634,0.452625572681427,-0.25880560278892517
1772642760286190600,6.166190673828125,0.44504398107528687,0.6730716228485107,-0.0207817405462265
1772642760296235500,6.176235595703125,0.4552319049835205,0.7637392282485962,0.23852865397930145
1772642760306280400,6.186280517578125,0.43313202261924744,0.6940725445747375,0.46689704060554504
1772642760316325400,6.196325439453125,0.3823697865009308,0.47925347089767456,0.6533052325248718
1772642760326370600,6.20637060546875,0.3348748981952667,0.17286361753940582,0.7864395380020142
1772642760336415500,6.21641552734375,0.31593048572540283,-0.08230848610401154,0.8564630746841431
1772642760346460700,6.226460693359375,0.32397907972335815,-0.17900997400283813,0.8603255748748779
1772642760356505300,6.23650537109375,0.3577439486980438,-0.12095944583415985,0.8272107243537903
1772642760366550500,6.246550537109375,0.36186355352401733,0.03610493615269661,0.7713678479194641
1772642760376595500,6.256595458984375,0.316275030374527,0.21272124350070953,0.7022524476051331
1772642760386640600,6.266640625,0.22089263796806335,0.3318077623844147,0.6272949576377869
1772642760396685300,6.276685302734375,0.12006481736898422,0.34082335233688354,0.5753076672554016
1772642760406730500,6.28673046875,0.03342005982995033,0.22990408539772034,0.5584937930107117
1772642760416775400,6.296775390625,-0.01953662931919098,0.06095607578754425,0.5832582116127014
1772642760426820600,6.306820556640625,-0.04050382226705551,-0.06444291025400162,0.6408964991569519
1772642760436865500,6.316865478515625,-0.03419080004096031,-0.09237360954284668,0.7246739864349365
1772642760446910500,6.326910400390625,-0.02061096392571926,-0.022570112720131874,0.8105933666229248
1772642760456955400,6.336955322265625,-0.011290965601801872,0.07328850775957108,0.8807173371315002
1772642760467000600,6.34700048828125,-0.0015455300454050303,0.14299383759498596,0.9102780818939209
1772642760477045500,6.35704541015625,0.004645520355552435,0.2200864851474762,0.9078993201255798
1772642760487090700,6.367090576171875,0.019952503964304924,0.309598833322525,0.89208984375
1772642760497135400,6.37713525390625,0.03256923332810402,0.36270785331726074,0.8761606812477112
1772642760507180500,6.3871806640625,0.0445893295109272,0.41479191184043884,0.8865933418273926
1772642760517225500,6.3972255859375,0.06863821297883987,0.46920880675315857,0.9403780102729797
1772642760527270700,6.407270751953125,0.08866056799888611,0.41375207901000977,0.9952219128608704
1772642760537315300,6.4173154296875,0.06328277289867401,0.20623590052127838,0.9555724859237671
1772642760547360500,6.427360595703125,-0.031841810792684555,-0.12399288266897202,0.7498115301132202
1772642760557405400,6.437405517578125,-0.17941688001155853,-0.3721132278442383,0.3894885182380676
1772642760567450600,6.44745068359375,-0.319200336933136,-0.30299443006515503,-0.04287212714552879
1772642760577495600,6.45749560546875,-0.3873911201953888,0.19812780618667603,-0.4467410445213318
1772642760587540500,6.46754052734375,-0.3634028136730194,0.7190315127372742,-0.8280742764472961
1772642760597585400,6.47758544921875,-0.3687637448310852,0.8551419377326965,-1.2604296207427979
1772642760607630600,6.487630615234375,-0.40727147459983826,0.8429421782493591,-1.5861188173294067
1772642760617675500,6.497675537109375,-0.3930525779724121,0.603114128112793,-1.7091741561889648
1772642760627719400,6.507719482421875,-0.3644264340400696,0.10961192101240158,-1.6477683782577515
1772642760637764400,6.517764404296875,-0.3808898329734802,-0.3765132427215576,-1.4694223403930664
1772642760647809500,6.5278095703125,-0.42470869421958923,-0.7615939378738403,-1.248594045639038
1772642760657854500,6.5378544921875,-0.46320226788520813,-0.9357979893684387,-1.0824840068817139
1772642760667899400,6.5478994140625,-0.4666149914264679,-0.8473929166793823,-1.0010764598846436
1772642760677944300,6.5579443359375,-0.4052802622318268,-0.5837072134017944,-0.9814386367797852
1772642760687989500,6.567989501953125,-0.27450671792030334,-0.1843985766172409,-0.9992241859436035
1772642760698034400,6.578034423828125,-0.14467070996761322,0.14920975267887115,-1.0323400497436523
1772642760708079600,6.58807958984375,-0.06167483329772949,0.2603379487991333,-1.054716944694519
1772642760718124300,6.598124267578125,-0.007609202992171049,0.13716648519039154,-1.0559297800064087
1772642760728169500,6.60816943359375,0.014541588723659515,-0.21061956882476807,-1.0749666690826416
1772642760738214400,6.61821435546875,0.018289722502231598,-0.5815395712852478,-1.0840363502502441
1772642760748259600,6.628259521484375,0.045035652816295624,-0.6953250765800476,-1.0303916931152344
1772642760758304500,6.638304443359375,0.09347403049468994,-0.47111403942108154,-0.8608146905899048
1772642760768349400,6.648349365234375,0.14919619262218475,-0.10124588012695312,-0.5958041548728943
1772642760778394400,6.658394287109375,0.16706840693950653,0.2418355792760849,-0.2900178134441376
1772642760788439600,6.668439453125,0.14077696204185486,0.3681736886501312,-0.05335398018360138
1772642760798484500,6.678484375,0.11061853170394897,0.3377327024936676,0.08332689851522446
1772642760808529400,6.688529296875,0.07079734653234482,0.16088281571865082,0.10607242584228516
1772642760818574300,6.69857421875,0.03831131011247635,0.006065269932150841,0.06080587953329086
1772642760828619500,6.70861962890625,0.03448622673749924,-0.000950956717133522,-0.0009919703006744385
1772642760838664400,6.71866455078125,0.03864981234073639,0.06891041249036789,-0.05504561960697174
1772642760848709600,6.728709716796875,0.03393987938761711,0.10157699882984161,-0.09443315118551254
1772642760858754300,6.73875439453125,0.02412560023367405,0.07013731449842453,-0.1315416395664215
1772642760868799500,6.748799560546875,0.028875691816210747,0.013685934245586395,-0.17848996818065643
1772642760878844400,6.758844482421875,0.05586390197277069,-0.059913985431194305,-0.2106340527534485
1772642760888889600,6.7688896484375,0.08911612629890442,-0.17056988179683685,-0.1706756353378296
1772642760898934300,6.778934326171875,0.0807439461350441,-0.4080205261707306,-0.050901297479867935
1772642760908979500,6.7889794921875,0.0376790352165699,-0.7001999020576477,0.09370062500238419
1772642760919024400,6.7990244140625,-0.014752484858036041,-0.8681361675262451,0.19174329936504364
1772642760929069600,6.809069580078125,-0.01903817430138588,-0.7787677049636841,0.19843563437461853
1772642760939114500,6.819114501953125,0.051397379487752914,-0.5128313899040222,0.09553056955337524
1772642760949159400,6.829159423828125,0.17026321589946747,-0.24464578926563263,-0.05667068064212799
1772642760959204400,6.839204345703125,0.29146847128868103,-0.183201864361763,-0.17670787870883942
1772642760969249500,6.84924951171875,0.37818995118141174,-0.38924601674079895,-0.22613027691841125
1772642760979294500,6.85929443359375,0.4252837002277374,-0.7188859581947327,-0.19406235218048096
1772642760989339600,6.869339599609375,0.4511539041996002,-0.9961695671081543,-0.0871368944644928
1772642760999384300,6.87938427734375,0.4939631521701813,-1.1869161128997803,0.027579568326473236
1772642761009429500,6.889429443359375,0.5542967915534973,-1.2836823463439941,0.09848934412002563
1772642761019474400,6.899474365234375,0.5710869431495667,-1.284596562385559,0.10243694484233856
1772642761029519600,6.90951953125,0.46156740188598633,-1.134440541267395,0.08068068325519562
1772642761039563500,6.9195634765625,0.30216658115386963,-0.8598212003707886,0.10564249753952026
1772642761049608400,6.9296083984375,0.13379040360450745,-0.5863752961158752,0.2029934674501419
1772642761059653600,6.939653564453125,-0.0032185791060328484,-0.3649323284626007,0.357595294713974
1772642761069698600,6.949698486328125,-0.1262754499912262,-0.21224702894687653,0.5157585740089417
1772642761079743500,6.959743408203125,-0.23698864877223969,-0.12295468896627426,0.6386181712150574
1772642761089788400,6.969788330078125,-0.31509000062942505,-0.034553539007902145,0.7155361175537109
1772642761099833600,6.97983349609375,-0.3499393165111542,0.0373787060379982,0.7455065250396729
1772642761109878500,6.98987841796875,-0.33763638138771057,0.04517487436532974,0.7282956838607788
1772642761119923700,6.999923828125,-0.3060941696166992,-0.019566038623452187,0.6581637263298035
1772642761129968400,7.009968505859375,-0.2841462194919586,-0.14965961873531342,0.5244572162628174
1772642761140013600,7.020013671875,-0.2772930860519409,-0.27187421917915344,0.3463064134120941
1772642761150058500,7.03005859375,-0.2924608588218689,-0.3632649779319763,0.15369144082069397
1772642761160103700,7.040103759765625,-0.30952587723731995,-0.40375885367393494,0.0008880402892827988
1772642761170148400,7.0501484375,-0.3209523856639862,-0.34084588289260864,-0.08839806914329529
1772642761180193500,7.060193603515625,-0.3423442244529724,-0.22314855456352234,-0.12885841727256775
1772642761190239200,7.0702392578125,-0.37829965353012085,-0.11184763163328171,-0.12482532113790512
1772642761200284000,7.080283935546875,-0.4117284417152405,-0.01438899151980877,-0.07835981994867325
1772642761210329000,7.0903291015625,-0.43191367387771606,0.09542961418628693,0.0020340927876532078
1772642761220374000,7.1003740234375,-0.43811190128326416,0.19092443585395813,0.09658882766962051
1772642761230419200,7.110419189453125,-0.440558522939682,0.23288458585739136,0.18706439435482025
1772642761240464100,7.120464111328125,-0.4457080066204071,0.259480744600296,0.26995766162872314
1772642761250509000,7.130509033203125,-0.4514382481575012,0.29345664381980896,0.35400980710983276
1772642761260554000,7.140553955078125,-0.44487035274505615,0.3706619441509247,0.4584621787071228
1772642761270599200,7.15059912109375,-0.40441662073135376,0.49788898229599,0.6003584265708923
1772642761280644000,7.16064404296875,-0.35032328963279724,0.6136666536331177,0.7586045265197754
1772642761290689000,7.17068896484375,-0.31307950615882874,0.6507692337036133,0.8622804284095764
1772642761300734000,7.18073388671875,-0.30457764863967896,0.6094473600387573,0.8592281341552734
1772642761310779100,7.190779052734375,-0.3247325122356415,0.5888018012046814,0.7565290927886963
1772642761320824000,7.200823974609375,-0.37308886647224426,0.48169106245040894,0.5788882374763489
1772642761330869200,7.210869140625,-0.46625229716300964,0.07559487223625183,0.25286152958869934
1772642761340914000,7.220913818359375,-0.5813506245613098,-0.4727182984352112,-0.257470965385437
1772642761350959000,7.230958984375,-0.7245654463768005,-0.5985926389694214,-0.8213017582893372
1772642761361004000,7.241004150390625,-0.760992705821991,-0.2923421561717987,-1.283076286315918
1772642761371049200,7.25104931640625,-0.6977399587631226,0.3853926658630371,-1.5650475025177002
1772642761381094100,7.26109423828125,-0.5986306667327881,1.0669039487838745,-1.6910980939865112
1772642761391139000,7.27113916015625,-0.486368328332901,1.5198167562484741,-1.6432026624679565
1772642761401184000,7.28118408203125,-0.3601512610912323,1.5603359937667847,-1.4129939079284668
1772642761411228200,7.291228271484375,-0.3045712113380432,1.161723017692566,-1.0978316068649292
1772642761421273000,7.301273193359375,-0.3453497886657715,0.5732043385505676,-0.7821711897850037
1772642761431318000,7.311318115234375,-0.4010781943798065,0.10723185539245605,-0.4883633255958557
1772642761441363200,7.32136328125,-0.4192851483821869,-0.10318343341350555,-0.20328763127326965
1772642761451408100,7.331408203125,-0.35437557101249695,-0.17920982837677002,0.019866175949573517
1772642761461453300,7.341453369140625,-0.22265644371509552,-0.10040847957134247,0.12861289083957672
1772642761471498000,7.351498046875,-0.06329963356256485,-0.0206891018897295,0.11175578832626343
1772642761481543200,7.361543212890625,0.05557695031166077,-0.08348537236452103,-0.008357306942343712
1772642761491588000,7.371588134765625,0.11436547338962555,-0.26196789741516113,-0.15639762580394745
1772642761501633300,7.38163330078125,0.12173017859458923,-0.45948177576065063,-0.21717362105846405
1772642761511678200,7.39167822265625,0.09491536766290665,-0.6335168480873108,-0.17014211416244507
1772642761521723100,7.40172314453125,0.03800894692540169,-0.6486838459968567,-0.004535311833024025
1772642761531768000,7.41176806640625,-0.03555846959352493,-0.5266389846801758,0.23711833357810974
1772642761541813200,7.421813232421875,-0.10140884667634964,-0.33154889941215515,0.46114397048950195
1772642761551858200,7.431858154296875,-0.1742207407951355,-0.2121838480234146,0.5735390186309814
1772642761561903000,7.441903076171875,-0.23745271563529968,-0.20310033857822418,0.5645026564598083
1772642761571948000,7.451947998046875,-0.28258442878723145,-0.2665731608867645,0.4933367669582367
1772642761581993200,7.4619931640625,-0.299773246049881,-0.4080916941165924,0.3955010175704956
1772642761592038100,7.4720380859375,-0.30046772956848145,-0.5164351463317871,0.3014070391654968
1772642761602083300,7.482083251953125,-0.2828413248062134,-0.5252302289009094,0.2150452435016632
1772642761612128000,7.4921279296875,-0.23347006738185883,-0.44660696387290955,0.1455838829278946
1772642761622173200,7.502173095703125,-0.18597924709320068,-0.3507691025733948,0.07843627035617828
1772642761632218000,7.512218017578125,-0.1173815056681633,-0.3560408651828766,-0.019447505474090576
1772642761642263300,7.52226318359375,-0.03854554146528244,-0.4616141617298126,-0.1577390730381012
1772642761652308000,7.532307861328125,0.04522738605737686,-0.5630033612251282,-0.3172043561935425
1772642761662353200,7.542353271484375,0.14087055623531342,-0.574813961982727,-0.4836881458759308
1772642761672398000,7.552398193359375,0.22844915091991425,-0.4887333810329437,-0.6535464525222778
1772642761682443300,7.562443359375,0.27877914905548096,-0.31207552552223206,-0.8179308772087097
1772642761692488200,7.57248828125,0.28681817650794983,-0.06524840742349625,-0.9481287002563477
1772642761702533000,7.582533203125,0.2511509954929352,0.2554696798324585,-1.0057616233825684
1772642761712578000,7.592578125,0.19264434278011322,0.5691061019897461,-0.9584720730781555
1772642761722623200,7.602623291015625,0.13128164410591125,0.8037002682685852,-0.7867943048477173
1772642761732668200,7.612668212890625,0.0965740904211998,0.883509635925293,-0.5270735025405884
1772642761742713000,7.622713134765625,0.09272235631942749,0.8247459530830383,-0.201183021068573
1772642761752758000,7.632758056640625,0.12148601561784744,0.6226295232772827,0.15133631229400635
1772642761762803200,7.64280322265625,0.15468791127204895,0.2801267206668854,0.48284661769866943
1772642761772848000,7.65284814453125,0.16260336339473724,-0.07435011863708496,0.7613136768341064
1772642761782893000,7.66289306640625,0.1291564553976059,-0.3544326424598694,0.9560290575027466
1772642761792937000,7.67293701171875,0.05173851549625397,-0.5308520793914795,1.0487738847732544
1772642761802982100,7.682982177734375,-0.03297477588057518,-0.5552980303764343,1.023694634437561
1772642761813027000,7.693027099609375,-0.08119551837444305,-0.4145735502243042,0.9120460748672485
1772642761823072300,7.703072265625,-0.09915454685688019,-0.1998109072446823,0.7314714789390564
1772642761833117000,7.713116943359375,-0.0992310643196106,0.02624797262251377,0.5205578804016113
1772642761843162000,7.723162109375,-0.09028231352567673,0.28260520100593567,0.3322896659374237
1772642761853207000,7.73320703125,-0.08095339685678482,0.5165231823921204,0.21138551831245422
1772642761863252200,7.743252197265625,-0.08426503837108612,0.6523622274398804,0.15504714846611023
1772642761873297200,7.753297119140625,-0.12919598817825317,0.6647838950157166,0.1639041155576706
1772642761883342000,7.763342041015625,-0.203330397605896,0.5925912261009216,0.2316029965877533
1772642761893387000,7.773386962890625,-0.2831224203109741,0.48853540420532227,0.34834372997283936
1772642761903432200,7.78343212890625,-0.3455924391746521,0.4211670160293579,0.5048865079879761
1772642761913477000,7.79347705078125,-0.39179712533950806,0.42100608348846436,0.6702320575714111
1772642761923522000,7.80352197265625,-0.43254002928733826,0.4783300757408142,0.8057962656021118
1772642761933567000,7.81356689453125,-0.43207719922065735,0.5166876316070557,0.8757328987121582
1772642761943612200,7.823612060546875,-0.4090195596218109,0.4545936584472656,0.8758476376533508
1772642761953657000,7.833656982421875,-0.38185223937034607,0.34668779373168945,0.8171465396881104
1772642761963702300,7.843702392578125,-0.332246333360672,0.34283924102783203,0.7726576328277588
1772642761973747000,7.853746826171875,-0.23771776258945465,0.4379065930843353,0.8005053997039795
1772642761983792000,7.863792236328125,-0.14406876266002655,0.5007752776145935,0.8700138926506042
1772642761993837000,7.873837158203125,-0.09886792302131653,0.5259523987770081,0.8627209067344666
1772642762003882200,7.88388232421875,-0.15454556047916412,0.8674607276916504,0.8293866515159607
1772642762013927200,7.89392724609375,-0.22375266253948212,0.597830057144165,0.6099100708961487
1772642762023972000,7.90397216796875,-0.520404577255249,0.22218529880046844,0.14009785652160645
1772642762034017000,7.91401708984375,-0.7551161050796509,0.5837579369544983,-0.2590225636959076
1772642762044062200,7.924062255859375,-0.6824959516525269,0.8893364667892456,-0.5683348178863525
1772642762054107100,7.934107177734375,-0.5266450643539429,0.9282060861587524,-0.8415855169296265
1772642762064152000,7.944152099609375,-0.4074518084526062,0.9065346121788025,-1.0726122856140137
1772642762074197000,7.954197021484375,-0.3034314513206482,0.9153028726577759,-1.1924562454223633
1772642762084242200,7.9642421875,-0.14541545510292053,0.9280263781547546,-1.1463875770568848
1772642762094287000,7.974287109375,0.0305903609842062,0.8149800300598145,-1.0000226497650146
1772642762104332300,7.984332275390625,0.12298154085874557,0.488613098859787,-0.904787003993988
1772642762114377000,7.994376953125,0.117263063788414,0.10669562965631485,-0.8426613211631775
1772642762124422100,8.004422119140624,0.10547564178705215,-0.2459188848733902,-0.6892967820167542
1772642762134467000,8.014467041015624,0.09264318645000458,-0.5968035459518433,-0.47321581840515137
1772642762144512300,8.02451220703125,0.03498893976211548,-0.9200601577758789,-0.2801978886127472
1772642762154557000,8.034556884765625,-0.07135902345180511,-1.1217949390411377,-0.19213387370109558
1772642762164601000,8.04460107421875,-0.15663743019104004,-1.142325758934021,-0.22563111782073975
1772642762174646000,8.05464599609375,-0.16113483905792236,-0.9931778907775879,-0.3376430571079254
1772642762184691200,8.064691162109375,-0.08232071995735168,-0.655805230140686,-0.4633050858974457
1772642762194735600,8.074735595703125,0.07143784314393997,-0.21817372739315033,-0.5267812609672546
1772642762204780500,8.084780517578125,0.21526159346103668,0.16776011884212494,-0.49821650981903076
1772642762214825700,8.09482568359375,0.29858654737472534,0.4313666522502899,-0.4111000597476959
1772642762224870700,8.10487060546875,0.28051406145095825,0.5037204623222351,-0.2950325608253479
1772642762234915800,8.114915771484375,0.17407718300819397,0.4011683166027069,-0.1596182882785797
1772642762244960500,8.12496044921875,0.0354553759098053,0.1973070651292801,0.003560782643035054
1772642762255005700,8.135005615234375,-0.11594939976930618,-0.015726283192634583,0.16421225666999817
1772642762265050600,8.145050537109375,-0.26867130398750305,-0.1705414205789566,0.2871576249599457
1772642762275095800,8.155095703125,-0.3860837519168854,-0.18881022930145264,0.38262632489204407
1772642762285140700,8.165140625,-0.42076078057289124,-0.13743145763874054,0.4372996985912323
1772642762295185700,8.175185546875,-0.39617055654525757,-0.05096817761659622,0.42451155185699463
1772642762305230600,8.185230712890625,-0.31818440556526184,0.04654319956898689,0.3550661504268646
1772642762315275800,8.19527587890625,-0.20995604991912842,0.13570314645767212,0.26443755626678467
1772642762325320700,8.20532080078125,-0.11914519220590591,0.19732576608657837,0.18039511144161224
1772642762335365600,8.21536572265625,-0.07053983211517334,0.23914076387882233,0.13267989456653595
1772642762345410600,8.22541064453125,-0.05428362637758255,0.24683809280395508,0.1600731611251831
1772642762355455700,8.235455810546876,-0.06062212586402893,0.15601369738578796,0.24725094437599182
1772642762365500700,8.245500732421876,-0.08813683688640594,-0.03428380563855171,0.3646779954433441
1772642762375545900,8.2555458984375,-0.12589959800243378,-0.31816330552101135,0.486247181892395
1772642762385590500,8.265590576171874,-0.14237524569034576,-0.6526681184768677,0.528240978717804
1772642762395635700,8.2756357421875,-0.12896764278411865,-0.6638407111167908,0.5903441309928894
1772642762405680600,8.2856806640625,-0.04459897801280022,-0.45114389061927795,0.6722832322120667
1772642762415725800,8.295725830078124,0.0679476261138916,-0.24596641957759857,0.6899821162223816
1772642762425770800,8.305770751953125,0.17124977707862854,-0.09032010287046432,0.6324412822723389
1772642762435815700,8.315815673828125,0.2507762908935547,0.031270869076251984,0.5275561213493347
1772642762445860600,8.325860595703125,0.27597859501838684,0.11275827884674072,0.38927918672561646
1772642762455905800,8.33590576171875,0.27571356296539307,0.13097941875457764,0.2726547420024872
1772642762465950700,8.34595068359375,0.2784086763858795,0.07949066162109375,0.2040296196937561
1772642762475995600,8.35599560546875,0.2965254485607147,-0.006725534331053495,0.1761292815208435
