time,seconds_elapsed,z,y,x
1772732142760053800,0.0760537109375,-1.9231600191771983,0.31314167417809363,0.5927396098684519
1772732142770081800,0.086081787109375,-1.684478688830137,0.38880233370959755,0.14576529237106442
1772732142780109800,0.09610986328125,-1.5455559558302163,0.3968373177357018,-0.04817063159216195
1772732142790137900,0.106137939453125,-1.2576841858565806,0.8574084181047975,-0.36357977577820416
1772732142800166000,0.116165771484375,-1.7723229764997959,0.5443560296453536,-0.19795326984580605
1772732142810193700,0.126193603515625,-2.363549916782975,0.060325581625103944,0.4869016560750082
1772732142820222000,0.136221923828125,-3.2171599655181167,0.05505290191918611,1.1135918681990356
1772732142830249700,0.146249755859375,-3.23235344299674,0.31822774527072906,1.6509407224960624
1772732142840278000,0.156278076171875,-2.3005969092637297,0.3916548005312681,1.5557095394454896
1772732142850305800,0.166305908203125,-1.0997545545697212,0.1718836300984025,1.235554040982574
1772732142860333800,0.176333740234375,0.7473556596279144,0.8367410392597318,2.582238552676141
1772732142870360300,0.1863603515625,1.2778233030438422,1.1855278811842203,-0.3733673025600612
1772732142880388400,0.196388427734375,1.0779600713908672,-0.09392214627861976,-3.5092750721499324
1772732142890416400,0.20641650390625,0.6771592568516731,0.03043079409897327,-3.5150311514586208
1772732142900444200,0.216444091796875,0.25782559127807614,1.1264976000666618,-1.699854244877398
1772732142910472400,0.226472412109375,-0.5456850862920284,0.9727744805589318,-0.18581260406654326
1772732142920500200,0.236500244140625,-1.6793828269958495,0.210469673602283,0.4266182330911979
1772732142930528500,0.246528564453125,-2.4712650260925293,-0.05896452240496874,0.6562566079460084
1772732142940556300,0.256556396484375,-2.42592541667521,-0.026302315992116927,0.8281962790805846
1772732142950584300,0.266584228515625,-2.0687942325145006,0.2704971490636468,1.0922350457850842
1772732142960612400,0.2766123046875,-1.5486013148754834,0.7328738375499844,1.3818274290062487
1772732142970640400,0.286640380859375,-1.1913631632089614,0.9011799014225602,1.288708708065003
1772732142980668400,0.29666845703125,-1.2686059773653744,0.9200713566362857,1.3470191504754125
1772732142990696400,0.306696533203125,-1.2941992683053016,0.8339809268966316,1.2449366402253508
1772732143000724200,0.31672412109375,-1.4695359614670276,0.8218833696067332,0.861105445991829
1772732143010752500,0.32675244140625,-1.7620657863795757,0.8956012245073914,0.6220397194370627
1772732143020780300,0.3367802734375,-1.6569278340816498,0.680322397057712,0.5637518907172605
1772732143030807300,0.346807373046875,-1.171840716615319,0.25290567053258417,0.63738911812976
1772732143040835300,0.35683544921875,-0.17371406039595602,-0.4017947940126061,1.3054156588464974
1772732143050863400,0.36686328125,0.37279461723864077,-0.7499176190704107,1.565433791732788
1772732143060891400,0.376891357421875,0.9685042558938264,-0.21228373728692532,0.9563273497574031
1772732143070919200,0.386919189453125,1.2124135500222444,0.29081776029765605,0.503362377010472
1772732143080947500,0.396947509765625,1.9070371518939733,0.1943061820477247,0.11227421565232798
1772732143090975200,0.406975341796875,2.254391622927785,-0.06783551886379718,-0.7724591212242842
1772732143101003500,0.41700341796875,2.218206795346737,-0.4660293657749891,-1.716510488384962
1772732143111031300,0.42703125,2.0540917534232137,-0.8786889604121446,-2.341569847904146
1772732143121059300,0.437059326171875,1.7581185100585222,-1.325237965169549,-2.8829940618813037
1772732143131087400,0.44708740234375,1.1259662696689368,-1.7308572859063744,-3.4038796379595992
1772732143141115400,0.457115478515625,0.5251081622093916,-1.5104431413948536,-3.10108473188132
1772732143151143400,0.467143310546875,0.31400808174908157,-0.22340572754293678,-0.6021695553842932
1772732143161171500,0.47717138671875,0.5985813946992159,0.9750035547852516,1.0826174687426537
1772732143171199200,0.48719921875,0.8256815928459167,1.314480716572702,1.573080214832723
1772732143181227500,0.4972275390625,0.5378852261960506,0.9804819861963391,1.6654091005705296
1772732143191255300,0.50725537109375,0.2717576705187559,0.7170937923550605,1.6220670947112141
1772732143201282300,0.5172822265625,0.9980559290707111,1.105476439347863,-0.08040873084142804
1772732143211310300,0.527310302734375,1.513530586016178,0.7046364618420601,-1.344384271927178
1772732143221338400,0.53733837890625,2.596578920456767,0.5243409772291779,-0.8152451006360352
1772732143231366400,0.547366455078125,3.374618472161889,0.3747250007793307,-0.35299631284568456
1772732143241394200,0.557394287109375,2.7121950121492144,0.3716679512962699,-0.48989517533518373
1772732143251422500,0.56742236328125,1.3611848923414944,1.1080848682805895,-0.6552598519936204
1772732143261450200,0.5774501953125,0.6613724896550178,2.03221339135319,0.3819160813271999
1772732143271478500,0.587478515625,1.1763783600449562,1.3624044972643254,1.2209696353130042
1772732143281506300,0.59750634765625,4.065125286364555,0.32417876262962814,0.43369569719675927
1772732143291534300,0.607534423828125,5.106079861441255,1.5274910145685077,0.704464539341256
1772732143301562400,0.617562255859375,5.4770121919393535,1.4332622865587472,0.7330594232499599
1772732143311590400,0.62759033203125,5.562724728277325,1.5515902675583957,0.44456641610544173
1772732143321618400,0.637618408203125,5.705636238652468,1.8203575240895151,0.1079014987271279
1772732143331646500,0.647646484375,5.63974074794054,2.081656636697054,-0.48517311524935064
1772732143341674200,0.65767431640625,5.602877874967455,2.300855852460861,-0.9448211094241589
1772732143351702500,0.66770263671875,6.1915755890339605,2.625344703952968,-1.2314657487556337
1772732143361729300,0.677729248046875,6.979620401924848,2.738093715776503,-1.388815826588869
1772732143371757300,0.68775732421875,7.704911529260873,2.962450168173015,-1.4073852102413773
1772732143381785300,0.697785400390625,8.110078722316025,3.4551991985693573,-1.715583436667919
1772732143391813400,0.7078134765625,8.394771277731657,3.7436493529528376,-2.0149235261172054
1772732143401841400,0.71784130859375,8.848048713961242,3.8111870579138394,-2.083143806514889
1772732143411869200,0.727869140625,9.247641906276344,3.8195898523390293,-1.6906820735149084
1772732143421897500,0.7378974609375,9.193747234481572,4.179492839300632,-1.436844382829219
1772732143431925200,0.74792529296875,8.60032599902451,4.364824564515054,-1.1599416045069695
1772732143441953500,0.75795361328125,7.8140669005066155,4.39768492384851,-1.2340591262497007
1772732143451981300,0.767981201171875,7.344813311988115,4.626139459213614,-1.4761727691330015
1772732143462009300,0.77800927734375,7.0447308797389265,4.595582408386469,-1.9484297772511838
1772732143472037400,0.788037353515625,7.011573291024566,4.519951413340866,-2.0886098168358207
1772732143482065400,0.7980654296875,7.106532963657378,4.777984217628837,-1.9265861942335962
1772732143492093400,0.808093505859375,6.919738472414016,5.117824659770727,-2.018485017991066
1772732143502121500,0.81812158203125,6.6694742563009255,5.40946951854229,-2.12552851164937
1772732143512149200,0.828149169921875,6.858377702522278,5.647698428946733,-1.9823887454763054
1772732143522177500,0.838177490234375,6.9559642165273425,6.160981128805876,-1.3711714488267899
1772732143532205300,0.848205322265625,6.08734306114316,6.433342025914788,-0.40559506307840343
1772732143542232300,0.858232421875,5.707879633665084,6.456226057896018,0.7726070052623748
1772732143552260400,0.86826025390625,5.382534165343642,6.54270197982192,2.4090409173697234
1772732143562288400,0.878288330078125,3.9091058726131913,6.462178244298696,3.9417221940577027
1772732143572316400,0.88831640625,1.6420073283255099,5.815637997594475,5.354664161643385
1772732143582344200,0.89834423828125,-0.5369529137820005,6.185718679699302,6.776602505633234
1772732143592372500,0.90837255859375,-2.7601404201507567,6.686694271171093,7.30862263918817
1772732143602400300,0.918400146484375,-4.9802363902449605,7.015410092708468,6.91102149747312
1772732143612428500,0.928428466796875,-7.0589219021767375,7.338632577526569,6.825280904084444
1772732143622456300,0.938456298828125,-9.221662830889224,7.362963885706662,7.2916276652455325
1772732143632484400,0.948484375,-11.171916608697176,7.001241866624355,8.588871123552321
1772732143642512400,0.958512451171875,-13.511866454184055,6.2439107564270495,9.79199019100666
1772732143652540400,0.96854052734375,-15.245429784178732,3.8151542079791425,10.812760640710591
1772732143662568400,0.978568359375,-15.539531972974538,1.4432842066183686,12.475794390451908
1772732143672596500,0.988596435546875,-15.740629714858532,-1.2376841848790645,13.153381517326832
1772732143682624300,0.998624267578125,-16.45066014469862,-3.5274642243131993,13.450730140697955
1772732143692652300,1.00865234375,-17.127875515651702,-5.289124060240388,14.071138167279958
1772732143702679300,1.01867919921875,-17.115946592926978,-6.71019906539917,14.483224930465221
1772732143712707300,1.028707275390625,-16.187703620272874,-7.019440955659746,13.77446758930087
1772732143722735400,1.0387353515625,-14.712075771671532,-5.875591823297738,12.139662739700078
1772732143732763400,1.048763427734375,-13.668486756438016,-4.542288917355239,9.664616441503167
1772732143742791400,1.05879150390625,-13.353655083346366,-3.7201194242835043,7.622531352216005
1772732143752819200,1.068819091796875,-11.771237423586845,-2.2427552534088493,6.533664102363586
1772732143762847500,1.078847412109375,-9.642420391786098,-1.4304568737491965,4.999776957017183
1772732143772875300,1.088875244140625,-8.591986040702462,-2.066665988314152,4.3576790766745805
1772732143782903600,1.098903564453125,-7.56657273362875,-2.1955957350879904,4.70509316894114
1772732143792931300,1.108931396484375,-7.136323706287145,-2.09790809879601,4.600940720549225
1772732143802959400,1.11895947265625,-7.226603696671128,-2.425104455681145,4.17380894844532
1772732143812987400,1.1289873046875,-8.014121270817517,-3.137088065415621,4.705211242362856
1772732143823015400,1.139015380859375,-8.344713992142676,-3.699266605868935,5.788933530542254
1772732143833043500,1.14904345703125,-8.639386674302816,-4.047923099412023,6.811776694867015
1772732143843071200,1.1590712890625,-9.649910455280542,-4.601230351145565,8.147437269851565
1772732143853099300,1.169099365234375,-11.432359688997268,-4.86897147949934,10.342623839616776
1772732143863127300,1.179127197265625,-13.02925011074543,-4.440202753843367,11.711631388407945
1772732143873154600,1.189154541015625,-14.582772515410184,-4.219903760144114,12.521613892340659
1772732143883182600,1.1991826171875,-15.256285524713991,-4.02287370609045,13.228569737040996
1772732143893210600,1.209210693359375,-15.013834028178453,-3.309908391842246,13.235011168265341
1772732143903238700,1.21923876953125,-14.669086524772643,-2.3883161092489957,13.2706740177989
1772732143913266700,1.2292666015625,-15.105787504732607,-1.5718028883732855,13.44680682977438
1772732143923294500,1.23929443359375,-16.678684471952913,-0.8355576746940613,13.338237733983993
1772732143933322800,1.24932275390625,-18.66883654490709,0.5041933114092797,13.249087624412775
1772732143943350500,1.2593505859375,-20.79464679610729,2.465797116075456,14.771494759845734
1772732143953378600,1.269378662109375,-24.146278944957256,4.208378157523274,17.011681916332243
1772732143963406600,1.279406494140625,-26.046987478351593,6.270878258329629,16.92837936374545
1772732143973434600,1.2894345703125,-24.73742229861021,9.48223041435182,15.039083035725355
1772732143983462700,1.299462646484375,-22.770971419239043,11.751658278369902,13.454758665561675
1772732143993490700,1.30949072265625,-21.251057854187486,13.151702770459652,14.727314257335662
1772732144003518500,1.3195185546875,-19.116549917268753,14.186272612935303,16.996337047684193
1772732144013546800,1.329546630859375,-17.415953621852395,15.36772579202652,19.043788632440567
1772732144023574500,1.339574462890625,-16.56106697731018,16.49122128766775,21.34065103135109
1772732144033601500,1.3496015625,-16.426137113338708,18.1932461545825,22.49710187113285
1772732144043629600,1.359629638671875,-16.052832208490372,20.419767189288137,21.807527369344232
1772732144053657600,1.36965771484375,-14.619692087006568,22.406468245005605,21.317721406662464
1772732144063685600,1.379685546875,-11.115191097390651,23.646250863468644,20.648869374907015
1772732144073713700,1.389713623046875,-7.526764454853534,24.518888268756864,20.412963354492188
1772732144083741700,1.39974169921875,-5.369512771207094,25.08005967799425,20.581747557270525
1772732144093769500,1.40976953125,-5.389081395030021,26.27287479357719,20.427665249061583
1772732144103797800,1.4197978515625,-7.410463303506374,27.670581198108195,18.76231094741821
1772732144113825500,1.429825439453125,-9.481659336465597,29.397106884551047,16.12491310983896
1772732144123853600,1.439853515625,-11.058955415427684,31.165100891935822,13.529185837775469
1772732144133881600,1.449881591796875,-11.06976205612421,32.443765906500815,11.566964558798073
1772732144143909600,1.45990966796875,-9.62734907938242,33.405729946970936,10.923989311099051
1772732144153937700,1.469937744140625,-7.219075639253854,33.07521321349144,11.66063419162035
1772732144163965700,1.479965576171875,-2.9499180188581344,32.000833923196794,13.966463156318664
1772732144173993500,1.489993408203125,2.71733237503767,29.80303629415035,16.378247234916685
1772732144184021800,1.500021728515625,8.842541933238506,26.727471495711804,16.829678166496752
1772732144194049500,1.510049560546875,14.049932882165908,23.63879704033136,15.413147819030284
1772732144204077800,1.520077880859375,17.559959941726923,20.905338875401018,13.657742075061797
1772732144214104600,1.5301044921875,18.767230283641815,18.967253674292564,11.385576895034312
1772732144224132600,1.540132568359375,17.940563186889886,17.935951309180258,9.769061150839924
1772732144234160600,1.55016064453125,17.294826657783982,17.16583436716795,7.628813793486357
1772732144244188700,1.560188720703125,16.413784996765852,16.32113360107541,4.649332703274488
1772732144254216700,1.570216796875,16.42261010825634,15.236816269612312,2.2925106334418057
1772732144264244500,1.580244384765625,17.08871956330538,14.265406355404853,1.8229197757929563
1772732144274272800,1.590272705078125,17.925069849681854,13.174202187037467,2.8693320317536593
1772732144284300500,1.600300537109375,18.829646700066327,12.10694704953432,4.397965494355559
1772732144294328600,1.61032861328125,19.569961209011076,11.456640728294849,5.747960299640893
1772732144304356600,1.620356689453125,19.146912322306633,11.20355794762969,5.99052870055437
1772732144314384600,1.630384521484375,17.660611103999614,11.359184562671183,5.808512675759196
1772732144324412700,1.64041259765625,15.45041927280426,11.711018809467554,6.064933660936355
1772732144334440700,1.650440673828125,13.175740648651121,12.277572496265172,6.717555273380875
1772732144344468500,1.660468505859375,11.452930183339118,12.988749758052824,7.394251004374027
1772732144354496800,1.670496826171875,10.531085387289524,13.607538659000395,7.42468238299489
1772732144364523800,1.680523681640625,10.194760844314098,14.315350243747233,7.395107328942418
1772732144374551600,1.690551513671875,10.232547846394777,15.229783302235603,7.693629087746143
1772732144384579600,1.70057958984375,10.899027888321877,16.054598633641003,8.36600754006207
1772732144394607600,1.710607666015625,11.734728186357021,16.856962479263544,9.654871292558312
1772732144404635600,1.7206357421875,12.08091361361146,17.70422345123291,10.812142216551303
1772732144414663700,1.73066357421875,12.035011109614372,18.559222323977945,11.681618527460097
1772732144424691700,1.740691650390625,11.863178040659427,19.401798937523363,12.270942848992346
1772732144434719500,1.750719482421875,11.52308917671442,20.308413431215286,12.885455387794972
1772732144444747800,1.760747802734375,11.395113954186439,21.17288623474836,13.243248250734805
1772732144454775600,1.770775634765625,10.845145491486788,21.825243058776856,13.859528383731842
1772732144464803600,1.780803466796875,9.998789359402656,22.182928369688987,14.916721561425923
1772732144474831600,1.79083154296875,8.689092077714204,22.600389227128026,15.34517493752241
1772732144484859600,1.800859619140625,6.999678855091333,22.639435289359092,15.0164328125
1772732144494887700,1.8108876953125,6.009578853461146,22.48572707515955,16.26988505987525
1772732144504915700,1.820915771484375,5.647911194914579,22.243952454972266,17.454152127343416
1772732144514943500,1.830943603515625,5.484452571073174,22.33736139103174,16.28366457890272
1772732144524970500,1.840970458984375,5.740035351860523,22.938032451486585,14.305112927371262
1772732144534998500,1.85099853515625,7.4426254514425985,23.907462005531787,12.194785491985082
1772732144545026600,1.861026611328125,9.077558311337231,25.010213988351822,11.634862621504068
1772732144555054600,1.8710546875,9.616794952142238,25.57066292853355,13.685887973093985
1772732144565082600,1.88108251953125,8.583750127276778,26.462005034291742,16.854142745667694
1772732144575110700,1.891110595703125,4.61814787593782,26.771537431931495,19.865273358118532
1772732144585138400,1.901138427734375,-1.3040432014495134,25.494492712044714,21.438326977205275
1772732144595166700,1.911166748046875,-7.299634446090459,25.25404144941568,24.685002375543117
1772732144605194500,1.921194580078125,-16.980138777077197,25.748769086408615,27.86975586297512
1772732144615222800,1.931222900390625,-28.873641813373563,23.67162846583128,25.35339848022461
1772732144625250600,1.94125048828125,-30.70210110311508,20.488296535634994,21.657106506252287
1772732144635278600,1.951278564453125,-23.765607895255087,18.130715171867607,16.52412168675065
1772732144645306600,1.961306640625,-16.02116631963849,17.108068406897782,12.184052501046656
1772732144655334700,1.971334716796875,-12.302481312072276,17.214438531339166,11.27879176005125
1772732144665362700,1.98136279296875,-13.94727914789915,16.41533397977352,14.435738372147082
1772732144675390700,1.991390625,-18.2255795674324,14.399194063603877,18.368844713550804
1772732144685417700,2.001417724609375,-25.31693600474596,12.14062953890562,23.37663663471937
1772732144695445500,2.011445556640625,-33.07377996581793,8.993557255092263,25.51115860016346
1772732144705473500,2.0214736328125,-35.90665595183372,6.018296997445821,23.13752743434906
1772732144715501600,2.03150146484375,-34.06883495950699,3.859218098372221,19.948967540371417
1772732144725529600,2.041529541015625,-31.23961106625795,0.9624185062393545,17.604006004202365
1772732144735557600,2.0515576171875,-28.78688941259384,-2.3391566492825744,18.677893127065897
1772732144745585700,2.061585693359375,-27.045079647779463,-5.289699814301729,19.44537387535572
1772732144755613400,2.071613525390625,-25.90946116814613,-7.4309671623527995,17.638619052422044
1772732144765641700,2.081641845703125,-24.968165821695326,-8.339115441483258,13.806032940387725
1772732144775669500,2.09166943359375,-24.33670682426691,-7.915814625844359,9.961469974833726
1772732144785697800,2.10169775390625,-23.63068855267763,-7.505961320799589,6.89127284090817
1772732144795725600,2.1117255859375,-22.512582348859308,-7.434738497585058,5.011486684033274
1772732144805753600,2.121753662109375,-20.630531754183767,-7.9099138773679725,4.0905934896200895
1772732144815781600,2.13178173828125,-18.139580030846595,-8.675022635829448,4.321432289773226
1772732144825809700,2.1418095703125,-16.383025116842983,-9.863989259290694,5.307496752277016
1772732144835836700,2.151836669921875,-15.849470028805731,-11.181247916144132,6.6686757993996135
1772732144845864400,2.161864501953125,-16.109329756259918,-12.069222006773948,8.085166983899473
1772732144855892700,2.171892822265625,-16.826650343108177,-12.15362813668847,8.99887640428841
1772732144865920500,2.18192041015625,-17.734897990959883,-12.102466104727982,9.206459416538477
1772732144875948800,2.19194873046875,-19.029881687641144,-12.929645242655276,7.943698073548078
1772732144885976800,2.201976806640625,-20.42291425514221,-11.966368366020918,9.14897578034103
1772732144896004900,2.2120048828125,-22.476479938864706,-11.308639785826205,11.31266129642725
1772732144906033000,2.222032958984375,-24.00859832097292,-10.674846207970381,13.611625636053084
1772732144916061000,2.23206103515625,-23.9278758480072,-9.566071311599016,14.840550175893306
1772732144926088700,2.242088623046875,-23.907445638918876,-8.203568906918168,15.00516790664196
1772732144936117000,2.252116943359375,-25.596802747440336,-6.354564257276058,14.925582913273573
1772732144946144800,2.262144775390625,-29.037532398891447,-3.3312522086441514,16.03213311933279
1772732144956173000,2.272173095703125,-33.67925345811844,0.48950190170127894,16.97834429487586
1772732144966200800,2.282200927734375,-37.13317927575111,4.369771957789361,17.8257315235734
1772732144976228900,2.292228759765625,-37.10365624414682,8.792394046756625,19.54086487838626
1772732144986257000,2.3022568359375,-35.55266715735197,13.057080366957187,20.80606133956909
1772732144996283600,2.31228369140625,-34.208451519989964,16.82457645944357,21.548602876913545
1772732145006312000,2.32231201171875,-32.66031723810434,20.483166771531103,21.52048503593206
1772732145016339700,2.332339599609375,-28.79984943193197,23.93921557266712,20.077104090940953
1772732145026368000,2.342367919921875,-24.847001448225974,26.558556360030174,17.889854743915794
1772732145036395800,2.352395751953125,-22.921488143920897,28.511790030431747,15.624812547636031
1772732145046423800,2.362423828125,-22.381107009255885,30.606805330395698,13.705533753806352
1772732145056451800,2.372451904296875,-21.459208437192437,32.283417523634434,12.212952432316541
1772732145066479900,2.38247998046875,-19.65984430903196,33.24207550829649,10.462609816956519
1772732145076508000,2.3925078125,-17.053821268403528,33.273258582067484,8.908694613581895
1772732145086536000,2.402535888671875,-14.029360049736498,32.67574861599207,8.163951182278991
1772732145096563700,2.412563720703125,-11.577001968687773,31.147340778839585,7.551994757699966
1772732145106592000,2.422592041015625,-10.211512072628736,28.86381716945171,7.3469848108083005
1772732145116619800,2.432619873046875,-9.22778920481503,27.092173407387733,7.9528943564385175
1772732145126648000,2.44264794921875,-7.542980261117219,25.202893445980546,9.155490276801586
1772732145136675800,2.45267578125,-6.9673805135548115,24.05033318389654,8.499311848658323
1772732145146702800,2.462702880859375,-10.21536407188177,24.159196878719328,6.121102707403898
1772732145156731000,2.47273095703125,-10.337136348116397,24.735191763079165,4.271744129757583
1772732145166758700,2.482758544921875,-8.167061423254012,24.705035109746454,3.2424647949054837
1772732145176787000,2.492786865234375,-7.589648488789797,24.172741419947148,2.2377374252468347
1772732145186814700,2.502814697265625,-6.91286800212264,23.122853596830367,2.1543103694975376
1772732145196843000,2.512843017578125,-6.4361471464633935,22.48455335520506,3.8481069217711683
1772732145206870800,2.522870849609375,-6.0765013491332525,22.620870874142646,6.362938117867708
1772732145216898800,2.53289892578125,-3.0756925164714453,22.966269534933566,7.221819969525932
1772732145226926800,2.5429267578125,1.4897662640690803,23.13651270434856,6.573533755937218
1772732145236955000,2.552954833984375,5.7108945975720875,22.547988008761404,5.843664653161167
1772732145246983000,2.56298291015625,6.422635922983289,20.9970924454689,6.055255147486925
1772732145257011000,2.573010986328125,4.271042411229014,19.360448690003157,7.398355517083406
1772732145267038700,2.583038818359375,3.8220793310672043,18.262575126874445,7.438056243830919
1772732145277067000,2.59306689453125,4.960419344618916,17.093460035830734,7.4058245377898215
1772732145287094800,2.6030947265625,7.365695356497168,15.6128614130795,6.946767349115014
1772732145297123000,2.613123046875,9.520161208817361,14.499570500588415,6.457353600621223
1772732145307149800,2.62314990234375,11.413788259518146,13.62873576080799,6.16763064982295
1772732145317177900,2.633177734375,12.90095573926568,12.95522625863552,6.68988809877634
1772732145327206000,2.643205810546875,14.124889631211756,12.677908031380175,7.370518246608972
1772732145337233700,2.653233642578125,14.34001239131689,12.889294527566433,7.996267634218931
1772732145347262000,2.663261962890625,14.622617034542559,13.250444884240627,8.10919550974071
1772732145357289700,2.673289794921875,15.07549641136527,13.492462665534019,7.650951975536346
1772732145367318000,2.683318115234375,15.2769378521204,13.901536802899837,7.096278111624717
1772732145377345800,2.693345703125,15.270179610031843,14.031271436315775,6.926494376415014
1772732145387373800,2.703373779296875,15.77254227194786,13.94231772609949,7.492242592048645
1772732145397401900,2.71340185546875,16.044957529592512,13.902465023660659,8.302457735693455
1772732145407430000,2.723429931640625,15.87303093713522,14.004270032143593,9.045012717041372
1772732145417458000,2.7334580078125,15.55235755227804,14.413912324786185,9.194390208560227
1772732145427486000,2.74348583984375,14.423659811818599,14.844201099616289,8.921170648795366
1772732145437513700,2.753513671875,13.570027551251648,15.34284386422634,8.81332869823575
1772732145447542000,2.7635419921875,12.899489758366345,15.912834539735316,9.483633851408959
1772732145457568800,2.77356884765625,11.823149981653689,16.528027462017537,10.461707315158844
1772732145467596800,2.7835966796875,10.07727895874977,17.30339574868679,10.511592751312255
1772732145477624800,2.793624755859375,8.170224855720996,18.071804717737436,10.086949288892745
1772732145487652900,2.80365283203125,6.469732605201005,18.854291311979292,9.913596463024616
1772732145497681000,2.813680908203125,5.322588522946834,19.479888723897933,9.846870951229333
1772732145507708700,2.823708740234375,5.17925323420167,19.968607475864886,9.563278466010093
1772732145517737000,2.833737060546875,5.1474727790594095,20.640760887253283,9.018267333456873
1772732145527764700,2.8437646484375,4.946822196421027,21.58044762946367,8.67737124478221
1772732145537793000,2.85379296875,4.789402268221974,22.788628656482697,8.557679866474867
1772732145547820800,2.86382080078125,4.367262605316936,23.770999525165557,8.330167580395937
1772732145557848800,2.873848876953125,4.127885401660204,24.154359375560283,8.423631461513041
1772732145567876900,2.883876953125,3.96267087406218,25.71261290040016,10.486560016864537
1772732145577905000,2.89390478515625,2.1762515676707026,27.976889373004436,12.434132008242607
1772732145587933000,2.903932861328125,-1.6521376771956682,28.64332382222414,11.829260573488472
1772732145597961000,2.9139609375,-5.439594607692957,29.850139406108855,12.634682637637853
1772732145607988000,2.923988037109375,-5.0339264793783425,30.02086655964851,11.934774957883358
1772732145618015700,2.934015625,-3.6870319781959053,30.04908727648258,12.47496787649989
1772732145628043800,2.944043701171875,-5.494948246124387,28.926716400957105,12.06043664277196
1772732145638071800,2.95407177734375,-8.881337820100784,27.84905443572998,9.910666839313507
1772732145648099800,2.964099853515625,-11.98624327931404,27.498163607263564,7.394812145388126
1772732145658128000,2.9741279296875,-14.36597334652543,26.347637481355665,5.049760008326173
1772732145668156000,2.984156005859375,-16.48491780360937,25.226115331614015,4.373333741924166
1772732145678183700,2.99418359375,-18.598076663029193,23.54453937848806,4.582931016606092
1772732145688212000,3.0042119140625,-19.34560066496134,21.521392213904857,6.565541003617644
1772732145698239700,3.01423974609375,-18.999888700437545,19.948284818804265,7.157614331597089
1772732145708268000,3.02426806640625,-19.480915144336223,18.784345084571836,7.239739657098054
1772732145718295800,3.0342958984375,-20.088329249310494,17.20186429644823,6.636694268727302
1772732145728323800,3.04432373046875,-20.092224503183363,16.028061339849234,5.949529166167975
1772732145738351900,3.054351806640625,-20.37852566283941,14.983007512760162,4.188651712790131
1772732145748380000,3.0643798828125,-20.846152526938916,14.047816912925242,3.8874361848577856
1772732145758407000,3.074406982421875,-20.8333047358036,12.643697134220599,7.917526690459251
1772732145768434700,3.0844345703125,-21.9477681992054,10.867225221347809,12.360257793736457
1772732145778463000,3.094462890625,-24.210880304205418,8.447429685729741,16.691062307488917
1772732145788490800,3.10449072265625,-26.053375133562085,5.773435517159104,18.52448535711765
1772732145798518800,3.114518798828125,-26.422297293281552,3.7604981964230535,17.328371199989316
1772732145808546800,3.124546875,-26.469157244133946,2.244531030909717,16.3336084672451
1772732145818574800,3.134574951171875,-26.733531818664073,0.08419044133722782,15.783907715570926
1772732145828603000,3.144602783203125,-25.698956130969524,-2.4440786207422613,15.221123025918006
1772732145838631000,3.154630859375,-24.052652566754816,-4.7036610903114076,15.672135439825057
1772732145848658700,3.16465869140625,-22.58266886152029,-6.705730980074406,16.08644455523491
1772732145858687000,3.17468701171875,-21.049189712452886,-8.047289380925893,15.761871240329741
1772732145868714800,3.18471484375,-20.001469296503068,-9.278418737334013,15.123741679096222
1772732145878742500,3.194742431640625,-19.367281750893593,-10.309442870026826,14.173493795382976
1772732145888770600,3.2047705078125,-18.87283351536393,-10.670767414224148,12.3765893353343
1772732145898798600,3.214798583984375,-18.21629151460528,-10.557482395827769,10.285314975464344
1772732145908825300,3.224825439453125,-17.73075840693712,-10.453509980177879,8.550540516114234
1772732145918853600,3.234853515625,-17.513961576139927,-10.612413424932956,7.54268040138781
1772732145928881400,3.24488134765625,-17.427908263540267,-10.698861874330044,7.292048521006107
1772732145938909400,3.254909423828125,-16.92175906882286,-10.75744733428955,7.4580936542093745
1772732145948937500,3.2649375,-16.421612913912533,-10.727035829412937,7.880256405729055
1772732145958965500,3.274965576171875,-16.575183180946112,-10.596299325478077,8.363299450147151
1772732145968993500,3.28499365234375,-17.19017152056694,-10.250350045067071,8.975091624075175
1772732145979021600,3.295021484375,-17.96300999649763,-9.727151515871286,9.626346039819717
1772732145989049300,3.30504931640625,-18.584895694416762,-9.28435280355811,10.948003808414935
1772732145999077600,3.31507763671875,-18.979536817282437,-8.749623995566367,12.88913319952488
1772732146009105400,3.32510546875,-19.860833329844475,-7.946377521890401,14.4086972204864
1772732146019133400,3.335133544921875,-21.196566385543345,-6.625902825599908,15.19063904032707
1772732146029161500,3.345161376953125,-22.456358357334135,-4.817983635061979,15.499385840547085
1772732146039189500,3.355189453125,-23.515049080109595,-2.9253336126998066,16.169873364549876
1772732146049216500,3.365216552734375,-24.833587839901448,-0.8345845918782054,16.985547942644356
1772732146059244300,3.375244384765625,-26.95471256363392,1.3466440335527061,16.97858277980685
1772732146069272600,3.3852724609375,-29.956559799432753,4.027333900369704,16.895976977312564
1772732146079300400,3.39530029296875,-33.13159385688305,7.301399702197313,16.940547940444944
1772732146089328600,3.40532861328125,-34.48289156146049,10.73475268740058,15.533555821174382
1772732146099356400,3.4153564453125,-33.72750457106829,14.075709128457307,14.071389511692523
1772732146109384400,3.425384521484375,-33.648652568149565,17.156998734283448,14.184457087945937
1772732146119412500,3.43541259765625,-32.92267404307127,20.29331873793602,14.59947230579853
1772732146129440500,3.4454404296875,-30.44725189729929,23.49680030671358,13.883618868893384
1772732146139468500,3.455468505859375,-27.253714214909074,26.206307102692126,12.22716566658616
1772732146149496600,3.46549658203125,-23.665388110136984,28.66087116935253,10.603346321380139
1772732146159524400,3.4755244140625,-20.218988596355914,30.30311815165281,9.90489643921852
1772732146169552600,3.485552734375,-16.42466294913292,31.074658988988396,9.993564902752638
1772732146179580400,3.495580322265625,-12.108099726700782,31.06896574578285,9.34149624801576
1772732146189608400,3.5056083984375,-8.793101902765034,30.508741262006758,8.595727565318345
1772732146199635500,3.515635498046875,-6.313264278638362,29.69784807296991,7.5608730606824155
1772732146209663500,3.52566357421875,-3.625154198692739,28.40101611807346,6.753369514083862
1772732146219691500,3.53569140625,-1.3865017044275998,26.702680753326415,6.298750600117445
1772732146229719300,3.54571923828125,0.06827770967334508,24.53918520685434,5.756414239731431
1772732146239747600,3.55574755859375,1.0182054215215146,22.647183711528776,4.972263511669635
1772732146249775400,3.565775390625,0.7912983347941189,21.046271779179573,4.434963684146106
1772732146259803600,3.5758037109375,-0.08033960199481807,19.52901428159475,4.095930174472928
1772732146269831400,3.58583154296875,-0.6096750721761957,18.666800070643426,3.960938351181149
1772732146279859500,3.595859375,-1.0302981565058231,18.175536310368773,3.4706109949737787
1772732146289887500,3.605887451171875,-1.2589677959263323,17.67341213338375,2.912691573269665
1772732146299915500,3.61591552734375,-1.519822233506292,17.21605414984226,2.778798943391442
1772732146309943600,3.625943603515625,-1.9625038953110574,16.84090917008519,2.7130387694969773
1772732146319971600,3.6359716796875,-2.3419524174809454,16.26214482101202,2.7846187355861067
1772732146329999400,3.645999267578125,-2.6864266569033264,15.862165844249724,3.0464804505124685
1772732146340027600,3.656027587890625,-2.8931831552013754,15.414842932510375,3.42368499314785
1772732146350054400,3.666054443359375,-2.454248424839973,15.096898095834254,3.8360759999766945
1772732146360082400,3.67608251953125,-1.539316184657812,14.750347926920652,4.587566859713196
1772732146370110500,3.6861103515625,-0.35731150916367765,14.61898130838871,5.5196121472597115
1772732146380138500,3.696138427734375,0.7036795995086431,14.701694662910699,6.082059567782283
1772732146390166500,3.70616650390625,2.015248812548816,14.856101965290307,6.120816291677952
1772732146400194300,3.7161943359375,3.269228883190453,14.963731149882078,5.496178080180287
1772732146410222600,3.72622265625,3.5474957894727583,14.808283398538826,5.020666015788913
1772732146420250400,3.73625048828125,3.654429100754857,14.274485149395465,4.62294884647876
1772732146430278700,3.746278564453125,3.680052202311158,13.691665387451648,4.886145901662111
1772732146440306400,3.756306396484375,3.864141526249051,13.144391570663451,5.4367351266086095
1772732146450334500,3.76633447265625,4.54839512527585,13.01264968907833,5.909671787554025
1772732146460362500,3.776362548828125,5.517008102241158,13.328583770453928,5.864584107071161
1772732146470390500,3.786390625,7.017094684794545,13.551819694387913,5.1187581412285565
1772732146480418600,3.79641845703125,8.707674028587341,13.750629617595672,4.494612973944842
1772732146490445300,3.8064453125,10.34645596512556,13.985237999415396,4.119562686733901
1772732146500473600,3.8164736328125,11.49272443358898,14.180212289983034,3.8030347311183808
1772732146510501400,3.82650146484375,12.020885553628206,14.388473932147026,4.090829928724467
1772732146520529400,3.836529296875,12.523204960924387,14.803500840437412,4.493757526159286
1772732146530557400,3.846557373046875,12.66706164319515,15.193957955616712,4.640265307460725
1772732146540585500,3.85658544921875,12.411011829417943,15.505563067877292,4.68709573995769
1772732146550613500,3.866613525390625,11.888190901362895,15.83494465984702,4.8135251943483945
1772732146560641500,3.8766416015625,11.423356882852316,16.037943266916272,4.999780464148521
1772732146570669300,3.88666943359375,11.034767899632453,16.200550242364404,5.388959814476967
1772732146580697600,3.896697509765625,10.79965449090004,16.37378499481082,5.665859524059296
1772732146590725400,3.906725341796875,10.280274058687686,16.550515188157558,5.967775601476431
1772732146600753700,3.916753662109375,9.618567222511768,16.79025333408117,6.4230205383867025
1772732146610781400,3.926781494140625,8.774683618021012,17.16432162451744,6.893934169071913
1772732146620809500,3.9368095703125,7.8808432657063,17.608574627292157,7.208782208776474
1772732146630836500,3.94683642578125,6.928408101081848,18.168537245261668,7.3420719043254845
1772732146640864300,3.9568642578125,6.100478437048197,18.66298781887889,7.53236651264429
1772732146650892500,3.966892578125,5.567001674944162,19.308063838249442,7.737106994944811
1772732146660920300,3.97692041015625,4.862614219427108,20.306528932642937,7.802468232649565
1772732146670948600,3.986948486328125,4.0269057380855084,21.253510508036612,7.6448133266508576
1772732146680976400,3.996976318359375,3.2712855234593152,22.104709988498687,7.387968563103676
1772732146691004400,4.00700439453125,2.339131514841318,22.99274837653637,7.347506204333901
1772732146701032400,4.017032470703125,1.1772282548725603,23.680054933393,7.533833662587404
1772732146711060500,4.027060546875,-0.02859130371212959,24.367787022185325,7.780515344038605
1772732146721088500,4.037088623046875,-0.8852344365328549,24.8322527919054,8.063698079413175
1772732146731116500,4.047116455078125,-1.3443202667802572,25.223000998985764,8.272434353351592
1772732146741144300,4.057144287109375,-1.7540525757938623,25.740595132303238,8.650394390529394
1772732146751172600,4.067172607421875,-2.611398303925991,26.253889522600172,8.659922097331284
1772732146761200400,4.077200439453125,-4.029885046157241,26.51021639975309,7.937765760889649
1772732146771228700,4.087228759765625,-5.897901854783297,26.52068167966604,7.267601477491855
1772732146781255400,4.09725537109375,-7.782151420807838,26.464331431412695,6.55803223542273
1772732146791283500,4.107283447265625,-10.056348398923873,26.026157456290722,6.610142361888289
1772732146801311500,4.1173115234375,-12.653977705216407,24.97972532658577,7.53497815644741
1772732146811339300,4.12733935546875,-15.020932462006806,23.714174645137785,8.269560259220004
1772732146821367600,4.137367431640625,-17.334459579992295,22.978058172404765,9.392214627861977
1772732146831395300,4.147395263671875,-20.219175643360614,21.683571319329737,9.72139748238921
1772732146841423600,4.157423583984375,-20.226926403617856,19.697309824073315,9.553987490573524
1772732146851451400,4.167451416015625,-17.336563858795166,18.103757022315264,10.30865376547575
1772732146861479400,4.1774794921875,-15.74428765284419,16.913555888622998,13.761265577900408
1772732146871507700,4.1875078125,-18.523161999559402,15.321331120598316,19.053956975233554
1772732146881535500,4.197535400390625,-22.706140927410125,12.489631192624568,20.7795988645792
1772732146891563800,4.207563720703125,-25.28140642620325,11.276204666167496,22.078249851596354
1772732146901591600,4.217591552734375,-26.604095291411873,8.645356980884074,21.82217081172466
1772732146911619600,4.22761962890625,-27.161397165739533,6.2064581008672715,21.173994488251207
1772732146921646600,4.237646484375,-27.998741139328477,4.2926364033997055,21.51539969549179
1772732146931674400,4.24767431640625,-29.61821281071901,2.1879174555450676,20.822201157987116
1772732146941702700,4.25770263671875,-30.96217593462467,0.0021978023052215577,19.81168205318451
1772732146951730400,4.26773046875,-31.582507973361015,-2.766607570338249,19.081013324463367
1772732146961758700,4.2777587890625,-30.13440876767635,-5.5083232760041945,18.16889029648304
1772732146971786500,4.287786376953125,-27.660263217711446,-7.7643790327519175,17.638717252099514
1772732146981814500,4.297814453125,-25.235521457862852,-9.51339419890046,17.08610324332714
1772732146991842600,4.307842529296875,-23.655462928450106,-10.851073712491988,16.22292574030161
1772732147001870600,4.31787060546875,-22.64463987226486,-11.813692417478562,14.782918655657767
1772732147011898600,4.327898681640625,-21.301249579811095,-12.312298941731452,12.282885800242424
1772732147021926700,4.3379267578125,-20.236648171687126,-12.49829965224862,9.899953722119331
1772732147031954400,4.347954345703125,-19.9039055788517,-12.609478053754568,8.300913428860902
1772732147041982700,4.357982666015625,-19.801639967119694,-12.59203592056632,7.2108467400908465
1772732147052010500,4.368010498046875,-19.311831666350365,-12.697435738670825,6.815632785773277
1772732147062037800,4.378037841796875,-18.083112878215314,-12.94705814974904,7.446565713500976
1772732147072065500,4.3880654296875,-16.517342401874064,-13.055258996748924,8.237996661698817
1772732147082093600,4.398093505859375,-15.026785864210128,-12.80421502843499,8.693649010366201
1772732147092121600,4.40812158203125,-14.231080891954898,-12.436002478289604,9.23610753582716
1772732147102149400,4.4181494140625,-15.052861385709047,-11.833774251520634,9.905020357859135
1772732147112177700,4.428177734375,-17.089503991681337,-11.013016671073435,10.682303538239001
1772732147122205400,4.438205322265625,-18.815163416683674,-9.665850367212295,11.36540036844611
1772732147132233700,4.448233642578125,-19.441165317749977,-8.481136725020407,11.895513791596889
1772732147142261500,4.458261474609375,-19.62480806696415,-6.784658970838785,12.904791371905803
1772732147152289500,4.46828955078125,-22.331373548793792,-5.049587574368715,13.528085767579078
1772732147162317600,4.478317626953125,-26.789907785880565,-2.813425143353641,14.140346728062628
1772732147172345600,4.488345703125,-30.920183882069587,0.0710591570854187,14.51215408782959
1772732147182373600,4.49837353515625,-33.373473691010474,3.2137229768067597,14.224384609186648
1772732147192401700,4.508401611328125,-33.340473923206325,6.523961623516678,13.299783207905291
1772732147202428700,4.5184287109375,-31.597986112999916,9.651199326047301,12.182781750458478
1772732147212456700,4.528456787109375,-29.20897734531164,12.306103009700774,11.47612751905322
1772732147222484500,4.538484375,-28.119187719917296,14.614806653052568,12.241603357261418
1772732147232512500,4.548512451171875,-28.575760106039045,17.011678409200904,12.95963004655242
1772732147242540500,4.55854052734375,-28.990541515135764,19.911310302150248,12.019509589099883
1772732147252568600,4.568568603515625,-28.770303019452093,22.704237724137304,11.047413446193932
1772732147262596600,4.5785966796875,-26.58771698806286,25.52006905184984,10.960283444273472
1772732147272624400,4.588624267578125,-22.922315826916694,27.826646204566956,9.6280019903332
1772732147282652700,4.598652587890625,-19.64401078008413,29.52964137781858,7.931452339959145
1772732147292680400,4.608680419921875,-17.004237445545197,30.20660423531532,6.938657692417502
1772732147302708700,4.618708740234375,-13.606720328354834,30.62655047982931,7.037019282448291
1772732147312736500,4.628736572265625,-9.825372236126661,30.643387048339843,6.854608705377578
1772732147322764500,4.6387646484375,-7.287326753181219,30.160239959025382,6.5480901026010505
1772732147332792600,4.64879248046875,-5.41590393550396,29.463555332970618,5.980389583855867
1772732147342819600,4.658819580078125,-2.9173364764660596,28.535329895973202,4.868881463128328
1772732147352847600,4.66884765625,-0.8178064755566418,27.318649920678137,3.285090176928043
1772732147362875600,4.678875732421875,1.2738526458472013,25.7140671908617,2.537233874301612
1772732147372903700,4.688903564453125,3.436957731696963,23.716409856843946,2.7755215291559696
1772732147382931500,4.698931396484375,5.054047476387024,21.57780559052229,3.6740681594654916
1772732147392959500,4.70895947265625,5.881977140420675,19.68066264065504,4.5426510286659
1772732147402987500,4.718987548828125,6.560752015775441,18.155764272928238,4.630066861790418
1772732147413015600,4.729015625,7.612106988835334,16.880564304125308,4.8309240729168055
1772732147423043600,4.739043701171875,8.896889609497785,16.244113489758966,5.576728119188547
1772732147433071600,4.749071533203125,10.38176225630641,16.235764179086683,5.982593231379986
1772732147443099400,4.759099365234375,11.990958032876252,16.115530364465712,5.642376941663026
1772732147453127700,4.769127685546875,12.926610405004023,15.796736802005768,4.906614104673266
1772732147463155500,4.779155517578125,12.747644999951124,15.470959372007846,4.653566103060543
1772732147473183700,4.789183837890625,11.724313175326586,15.35608679215908,4.689012679494917
1772732147483211500,4.79921142578125,9.925955593860149,15.682468617790937,4.434322171372175
1772732147493238800,4.80923876953125,7.824902182775736,16.016238800108432,3.750687581026554
1772732147503266600,4.8192666015625,5.799121162557602,16.483590938919782,2.518028530833125
1772732147513294600,4.829294677734375,3.749605631008744,16.614471235239506,1.1156097108274698
1772732147523322600,4.839322509765625,2.25599525873214,16.481022549736497,0.37168811730146406
1772732147533350700,4.8493505859375,2.0601234348028896,16.44260075688362,0.5801347606435417
1772732147543378700,4.859378662109375,3.190292416858673,16.41891592991352,2.140280382840335
1772732147553406500,4.869406494140625,4.868818919286132,16.374723736965656,3.9514249651655553
1772732147563434500,4.8794345703125,6.8648355003595345,16.50324841006994,5.691837430402636
1772732147573462500,4.889462646484375,7.995017926418781,16.499306394445895,6.8646507914423935
1772732147583490600,4.899490478515625,8.37126765254736,16.559736605489253,7.353487032309174
1772732147593518600,4.9095185546875,7.928651311063766,16.712571543985604,7.769259790530801
1772732147603546600,4.919546630859375,6.540432865846157,16.721452769577503,7.730430585920811
1772732147613574400,4.929574462890625,5.057531226849556,16.833912443065643,7.200162848991155
1772732147623601700,4.9396015625,3.9854783336758612,16.872589087462423,6.470014344751834
1772732147633629400,4.94962939453125,3.3024037153005597,16.80311047756672,6.025825054863095
1772732147643657700,4.95965771484375,2.9609236892580983,16.541473803567886,5.93014057508707
1772732147653685500,4.969685546875,3.1228830144524573,16.176476123815775,5.951707094728946
1772732147663713800,4.9797138671875,3.9291643257796762,15.865146905887126,5.780863621333241
1772732147673741600,4.989741455078125,4.914423901641369,15.69891121854782,5.134788654053211
1772732147683769600,4.99976953125,5.3193315669775005,15.625268474709987,4.274911653877795
1772732147693797600,5.009797607421875,5.1522939156055445,15.49333370090127,3.1622362429365514
1772732147703825400,5.019825439453125,4.794153846663236,15.350282489794491,1.7870529281198977
1772732147713853700,5.029853759765625,4.571440485298633,15.193910024821758,0.6625393414773046
1772732147723881500,5.039881591796875,4.6828164552032945,14.982799422967434,-0.07679916204214096
1772732147733909500,5.049909423828125,5.442022711622715,14.760257911038398,-0.17061302564069628
1772732147743937500,5.0599375,6.036638125300407,14.728993004202842,0.19439824424535035
1772732147753965600,5.069965576171875,6.082943949401378,14.77839913240671,0.5273104945592582
1772732147763992600,5.07999267578125,5.885067507651448,14.993822336763143,0.9256423617016524
1772732147774020600,5.0900205078125,5.454560706156492,15.051328769314289,1.3381833714604376
1772732147784048600,5.100048583984375,5.074350844225287,14.930968697965143,1.6689298220425843
1772732147794076700,5.11007666015625,4.424464794224501,14.904873302721976,1.8930790614292023
1772732147804104400,5.1201044921875,3.459948438923061,14.951452683067322,2.4512502659372983
1772732147814132700,5.1301328125,3.0255925607845184,15.313449427437781,3.1086335398256777
1772732147824160500,5.140160400390625,3.080746877251565,15.802088684427737,3.653272331935167
1772732147834188800,5.150188720703125,3.9233895417705176,16.167469810539483,2.9354452568694946
1772732147844216600,5.160216552734375,4.86763730828613,16.695584168827533,1.3714870906472205
1772732147854244400,5.170244384765625,4.105532407815754,17.0847623501122,1.366640089007467
1772732147864272600,5.180272705078125,2.059065450182557,17.27325312387943,2.666962370237708
1772732147874300400,5.190300537109375,0.8353446164652705,17.633830649101732,4.791940846788883
1772732147884328400,5.200328369140625,0.11066577580869197,18.475207823729512,5.963979716324806
1772732147894356500,5.2103564453125,-0.6411766738444566,19.256636433351037,6.410447472539544
1772732147904383500,5.220383544921875,-2.873542927446961,20.538948864507674,9.004849633479118
1772732147914411500,5.23041162109375,-9.43476372977793,21.080959646201133,11.853858423650264
1772732147924439600,5.240439453125,-17.016476164871452,19.671869093346594,13.7108529030025
1772732147934467600,5.250467529296875,-21.04996829560995,17.731755601280927,14.387971243321894
1772732147944495400,5.260495361328125,-20.350604221212862,16.539086616170405,14.564314483177661
1772732147954523600,5.270523681640625,-18.812867414700985,15.263741685938834,16.53227342902422
1772732147964551400,5.280551513671875,-19.514163918465375,13.461347396302223,21.832009484171866
1772732147974579500,5.290579345703125,-21.366949840211866,11.165514924961327,23.6898655487895
1772732147984607500,5.300607421875,-22.217492318069933,9.86311949071884,22.35315517249107
1772732147994635500,5.310635498046875,-23.653992271375653,8.370918108457326,22.13633963699341
1772732148004663600,5.32066357421875,-25.115077215361595,5.7968596473664045,22.836339671206474
1772732148014690300,5.330690185546875,-24.10435937311649,3.6197608152166008,22.198881141102312
1772732148024718600,5.340718505859375,-22.017894459354878,1.8789231103047728,21.225154182124136
1772732148034746400,5.350746337890625,-20.77525703598261,0.057832449635118244,20.449479605984685
1772732148044774700,5.360774658203125,-21.37845089291334,-2.0600009774670003,21.421871516966817
1772732148054801400,5.370801513671875,-21.989685432958602,-4.796091244466602,23.175710742270944
1772732148064829400,5.380829345703125,-21.291258931672573,-7.267123338586091,24.013096801435946
1772732148074857500,5.390857421875,-19.62989574549198,-8.607907832455634,22.773674248456953
1772732148084885200,5.40088525390625,-18.192729437232018,-9.0110397202909,20.388937166738508
1772732148094913500,5.41091357421875,-17.856393203818797,-9.071756347060203,17.507358816874028
1772732148104941300,5.42094140625,-18.11370675392151,-8.818908544194699,14.371320552772282
1772732148114969600,5.430969482421875,-18.037856855428217,-8.470645726144314,11.179691918873786
1772732148124997400,5.440997314453125,-17.801717026257514,-8.08369924943447,8.408086101856828
1772732148135025400,5.451025390625,-17.872684997928143,-7.841739920330047,6.668169603443145
1772732148145053400,5.461053466796875,-17.111471493339536,-7.586040819686651,5.908609126758575
1772732148155081500,5.47108154296875,-15.55435427905321,-7.2594520733058445,5.477720632469654
1772732148165109500,5.481109619140625,-14.119427858674525,-7.088605677300691,5.501631669411063
1772732148175137500,5.491137451171875,-13.402633341526984,-7.131288050207496,5.7837026441514485
1772732148185165300,5.501165283203125,-13.836634999400376,-7.510093890559673,6.119032330870628
1772732148195192600,5.511192626953125,-14.940384176564216,-7.736400892502069,6.906667393916845
1772732148205220400,5.521220458984375,-16.06879199416637,-8.475718207103014,8.071303878241777
1772732148215248400,5.531248291015625,-16.971662040632964,-10.03505543552637,10.617951185315846
1772732148225276400,5.5412763671875,-18.338278894895314,-11.372127046352624,14.272754964601992
1772732148235304400,5.551304443359375,-20.118558383357524,-11.506017630404234,16.768014614266157
1772732148245332500,5.56133251953125,-21.626285836052894,-11.137252122551201,17.86649608016014
1772732148255360300,5.5713603515625,-22.226910134756565,-10.087633179503678,18.688399323511124
1772732148265388500,5.581388427734375,-21.8987151222229,-8.824483713978529,19.7232625959754
1772732148275416300,5.591416259765625,-20.626337225103377,-7.112019286113977,20.632044496834276
1772732148285444600,5.601444580078125,-19.16284054380059,-5.1737230726033445,21.16951471248865
1772732148295472400,5.611472412109375,-18.6457011685133,-3.408300084750354,21.08376768935919
1772732148305500400,5.62150048828125,-19.118982697373628,-1.481027369557321,20.638817936491964
1772732148315528400,5.631528564453125,-20.162986723148823,0.5856250286228954,20.381618952679634
1772732148325555500,5.641555419921875,-20.94685162000656,2.0928329874888063,19.466563962900636
1772732148335583500,5.65158349609375,-22.261153765141962,5.975258650708199,20.94509571624994
1772732148345611500,5.661611572265625,-23.321979161858557,9.319981750822066,20.724326474690436
1772732148355639600,5.6716396484375,-24.90135029352903,12.152077984637021,17.199205890893936
1772732148365667600,5.68166748046875,-26.868701336610314,17.06497394605875,14.4665520280838
1772732148375695400,5.6916953125,-27.999809645342825,21.459047109150884,10.422498755842447
1772732148385723400,5.701723388671875,-28.38147438225746,24.610246702027318,6.187438927620649
1772732148395752400,5.71175244140625,-27.25834830445051,26.717261067342758,3.341097018571198
1772732148405780500,5.721780517578125,-24.690230339324472,28.00975586981773,1.9430463306471704
1772732148415808500,5.73180859375,-21.20853037958145,28.33061630167961,1.275535192106664
1772732148425836500,5.74183642578125,-17.49142942633629,28.18179235239029,1.2682520493611693
1772732148435864600,5.751864501953125,-14.423745152014494,27.60688234065771,0.9817555132634938
1772732148445892600,5.761892578125,-11.643783594584464,26.825505168962476,0.44562779825925825
1772732148455920400,5.77192041015625,-8.081776172417403,26.18138308931589,0.24915033658705651
1772732148465948700,5.78194873046875,-4.952727036550641,25.581733773124217,-0.7630990260742604
1772732148475975400,5.791975341796875,-2.398451718816161,24.71686817088127,-1.6862975748203695
1772732148486003500,5.80200341796875,0.6937830593943596,23.932191957640647,-3.1049852464511987
1772732148496031500,5.812031494140625,3.784444304677844,23.22581829674244,-4.546868354099988
1772732148506059500,5.8220595703125,5.998229191929101,22.60607077989578,-5.209301166462898
1772732148516087600,5.832087646484375,7.868651308131217,22.327945912432668,-5.080140533542632
1772732148526115300,5.842115234375,10.280996527743339,22.48953114361763,-4.827138709159195
1772732148536143600,5.8521435546875,12.303393166220188,22.90756717059612,-5.499897977486253
1772732148546171400,5.86217138671875,13.368998782950639,22.42063237943649,-7.552756974244117
1772732148556199400,5.872199462890625,13.413314894539116,21.562505145537852,-9.087762309965491
1772732148566227500,5.8822275390625,12.21528467465639,20.39266875448227,-9.05837371839583
1772732148576255500,5.89225537109375,11.054798295748233,19.046327795529365,-7.617286437299847
1772732148586283500,5.902283447265625,10.800531273734569,17.450872959542274,-5.67286326534152
1772732148596311600,5.9123115234375,11.605415577745436,16.751635141873358,-3.2055557447031138
1772732148606339300,5.92233935546875,11.931593989759683,16.35119673090577,-1.1763521296251565
1772732148616366300,5.932366455078125,11.0984235024631,15.490350301176308,0.35622966874372214
1772732148626394600,5.94239453125,9.718514620429277,15.2010657417953,1.7298986700072883
1772732148636422400,5.95242236328125,8.188461938679218,15.224188258707523,2.101125745668262
1772732148646450400,5.962450439453125,7.179740823209285,15.093998867261408,1.830591041073203
1772732148656478500,5.972478515625,6.6076634045541285,15.1165052981019,1.486915258552134
1772732148666506500,5.982506591796875,6.018500411063433,15.070287152284383,1.1771680491179226
1772732148676534500,5.992534423828125,5.225697005468606,14.95010945176482,1.1164924119461328
1772732148686562600,6.0025625,4.573582173502445,15.173627115249634,1.2931716788232326
1772732148696590300,6.01259033203125,4.409409848433732,15.474747073853015,0.8288823616486042
1772732148706618600,6.02261865234375,4.601526996004581,15.972069988036155,0.0611468348801136
1772732148716646400,6.032646484375,5.078474646157026,16.51192505300045,-1.0915184950135648
1772732148726674400,6.04267431640625,5.582005182808637,16.821992872691155,-2.1199333219908176
1772732148736702500,6.052702392578125,5.816011507081985,16.921976510965823,-3.0763062644556163
1772732148746730500,6.06273046875,5.407940409278869,16.92860265110731,-3.9203164179354903
1772732148756757500,6.072757568359375,4.795484803006053,16.821092708981038,-4.528314460277557
1772732148766785300,6.082785400390625,4.600957671684027,16.627295645499228,-4.9160722533702845
1772732148776813600,6.0928134765625,4.852270520067215,16.524359002637862,-5.06166321208775
1772732148786841300,6.10284130859375,4.706406005105376,16.3874733284235,-5.2261003255724905
1772732148796869600,6.11286962890625,4.55950980900824,16.237288612174986,-5.414630846828222
1772732148806897400,6.1228974609375,4.732179328787327,15.967922220706939,-5.265895744866133
1772732148816925400,6.132925537109375,4.7125317945092915,15.792175193178652,-4.867065645878017
1772732148826953500,6.142953369140625,4.173431347304582,15.66813847914338,-4.683591238968074
1772732148836981500,6.1529814453125,3.5830633619382977,15.414464162325858,-4.692659511564671
1772732148847009500,6.163009521484375,3.5431980922788378,15.050491733968258,-4.592910558828711
1772732148857037600,6.17303759765625,4.277817019930482,14.84078398464918,-4.289463618582487
1772732148867065300,6.1830654296875,4.989380066165328,14.8692057770133,-4.080243652780354
1772732148877093600,6.19309375,4.968384624409675,14.892158782577514,-3.895398249778151
1772732148887121700,6.20312158203125,4.615109238894283,15.19700097657442,-3.5856408112108706
1772732148897148700,6.213148681640625,3.639444005329907,15.620028820490836,-3.6696541424155233
1772732148907176700,6.2231767578125,2.1570535307258365,16.127743364828824,-3.74423299805969
1772732148917204700,6.233204833984375,0.8185098015204072,16.554124026304482,-3.710225806778669
1772732148927232800,6.243232666015625,0.18187281693220136,17.16920822751522,-3.726324416403472
1772732148937260500,6.253260498046875,-0.24920798505842684,17.915598256981372,-3.5083348686903713
1772732148947288600,6.26328857421875,-0.48976241580098867,18.63707830159664,-3.007346417737007
1772732148957316600,6.273316650390625,-1.1954974865347145,19.321289230525494,-2.280408107715845
1772732148967344600,6.2833447265625,-3.270115018375218,19.390135387736557,-1.502088570025563
1772732148977372700,6.29337255859375,-5.047563375064731,18.721539376568792,-0.415735933342576
1772732148987400400,6.303400390625,-5.909657759028673,17.97054565269947,1.7232962030023335
1772732148997428700,6.3134287109375,-7.02199064014256,16.95570459304452,3.45348742621541
1772732149007456500,6.32345654296875,-9.058190763044356,16.27965943491459,5.31519256747663
1772732149017484500,6.333484619140625,-11.417847179520129,16.235504651367663,8.141824106144904
1772732149027512600,6.3435126953125,-12.786361391836405,15.695026486068963,11.500811878454684
1772732149037540600,6.35354052734375,-12.640938190901279,14.895015925574302,13.248703009009361
1772732149047567600,6.363567626953125,-11.453880615931748,14.241901561176777,13.196945933765171
1772732149057595600,6.373595703125,-10.346491036438941,13.974176507174969,13.286889824062586
1772732149067623700,6.383623779296875,-13.518139543104171,13.813997635656595,14.742140070545673
1772732149077651700,6.393651611328125,-19.481651641917228,12.485292871159315,15.451826801514624
1772732149087679700,6.4036796875,-22.190501435291765,10.494586671453714,15.449908400672673
1772732149097707800,6.413707763671875,-23.75184123570919,8.429079205524921,16.202013885176182
1772732149107735600,6.423735595703125,-25.630882711696625,5.539633775547147,17.23409015727043
1772732149117763600,6.433763671875,-26.005072582685944,3.1869960056617854,18.35272243078947
1772732149127791600,6.44379150390625,-25.533117918515202,1.202783551889658,19.10208416954279
1772732149137819600,6.453819580078125,-24.96272743003368,-0.7577280005604028,19.48459412510991
1772732149147847700,6.46384765625,-23.96225274938345,-2.563715346252918,18.858385303294657
1772732149157875500,6.47387548828125,-22.403954800879955,-3.9634482881754636,18.473662347853182
1772732149167903700,6.48390380859375,-21.63574807640314,-5.043552970379591,18.12677900146246
1772732149177930500,6.493930419921875,-22.078364417886732,-6.34253070513308,16.400857710653543
1772732149187958800,6.503958740234375,-23.16742689805031,-7.347218035042285,13.659911820316314
1772732149197986600,6.513986572265625,-24.270716641008853,-8.12816032245159,11.11972464916706
1772732149208014800,6.524014892578125,-24.31415830785036,-8.448025898057223,8.834003821995854
1772732149218042600,6.534042724609375,-22.52092230718136,-8.432108197957277,6.513057952186465
1772732149228070700,6.544070556640625,-20.35222685397863,-8.713817938169836,4.943596220111846
1772732149238098700,6.5540986328125,-19.041123212623596,-9.118187258845568,4.996943779417872
1772732149248126700,6.564126708984375,-18.61897332058549,-9.654414196440577,5.8982268489539615
1772732149258154800,6.57415478515625,-18.402296901297568,-9.86668273615837,6.819781137624383
1772732149268182500,6.5841826171875,-18.42847880578041,-9.985547600513696,7.058944698530435
1772732149278210600,6.59421044921875,-18.483966299724578,-9.983009606468677,7.364733233466744
1772732149288238600,6.604238525390625,-18.611273998254536,-9.927871656614542,8.118546106410026
1772732149298266600,6.6142666015625,-19.793454322576522,-9.508701072648167,8.993612784671782
1772732149308294700,6.624294677734375,-21.834532280647753,-8.842052103894948,9.470942712140083
1772732149318321700,6.63432177734375,-24.742180306792257,-7.544307125806808,10.252989745920896
1772732149328349700,6.644349609375,-29.574305864453315,-5.6236330782264465,11.138043565189838
1772732149338377700,6.654377685546875,-36.347277904629706,-2.82519566064626,12.625347823059558
1772732149348405500,6.664405517578125,-40.56195662360191,0.3524497483462095,14.119582172453402
1772732149358433800,6.674433837890625,-38.48043208885193,3.643331952679157,14.764872126835584
1772732149368461600,6.684461669921875,-34.65246369974613,6.359198931339383,14.341687631052732
1772732149378489900,6.69448974609375,-32.31050192991495,8.10154996342361,14.453131405496597
1772732149388517600,6.704517578125,-31.982760506367683,9.55463046465218,15.387144778245686
1772732149398545700,6.714545654296875,-33.79725206103325,11.534676738655566,16.26093135356903
1772732149408573700,6.72457373046875,-34.98441134281158,14.644444250947236,15.622635788118838
1772732149418601500,6.7346015625,-32.35165928521156,17.717274655985833,13.03253044759035
1772732149428629800,6.744629638671875,-24.08078911243677,18.895003261595964,13.389372877937555
1772732149438657500,6.754657470703125,-17.932641746240854,17.901141861605645,16.929432672190664
1772732149448685600,6.764685546875,-18.86826839940548,16.300157448542116,20.577408066761492
1772732149458713600,6.774713623046875,-22.270218530607224,16.355665985274314,21.258004312324523
1772732149468740600,6.78474072265625,-25.72527832070589,18.569478345054385,17.719615081632135
1772732149478768600,6.7947685546875,-27.146014887690544,21.727256147277355,12.308203781372308
1772732149488796700,6.804796630859375,-26.118860289907452,24.037228203129768,8.238925466981529
1772732149498824700,6.81482470703125,-24.499772064876556,25.44905431842804,6.164997378709912
1772732149508852700,6.824852783203125,-22.662421028149126,26.26797416205406,3.8606098449915645
1772732149518880500,6.834880615234375,-19.7980065790534,26.484048523795604,2.0455746849685905
1772732149528908800,6.84490869140625,-16.508375836086273,25.742390783548352,1.2449646972760557
1772732149538936600,6.8549365234375,-13.643092787462471,24.338897612309456,0.9247433670353143
1772732149548964900,6.86496484375,-10.093087937778234,22.685848665487764,0.6883936214409768
1772732149558992600,6.87499267578125,-6.39631782490015,20.76324160401821,1.0256165745608508
1772732149569020700,6.885020751953125,-4.252065615819395,18.779153361147642,1.514237565241754
1772732149579048700,6.895048583984375,-3.6751685219228265,17.3463043315649,2.0466743167735637
1772732149589076500,6.905076416015625,-3.8381826168671247,16.32903984415531,2.2403594443134964
1772732149599104800,6.915104736328125,-4.196984656849503,15.886704073178768,1.9798907911807297
1772732149609131500,6.925131591796875,-3.8069039737671613,16.31287196868658,2.120489640699327
1772732149619159800,6.935159912109375,-2.4050597387790678,17.459651309281586,2.6641768311724063
1772732149629187600,6.9451875,0.4218380496099591,19.397934078788754,2.465375968053937
1772732149639215600,6.955215576171875,3.7727047670453784,21.425493214595317,1.1214750957295299
1772732149649243600,6.96524365234375,7.266467505025863,23.466384125661847,-1.0014622303828598
1772732149659271700,6.975271728515625,9.8107135961771,24.768516525053975,-3.017204379406571
1772732149669299700,6.9852998046875,12.02458791527748,25.260342595386504,-3.7454312679335473
1772732149679327700,6.99532763671875,14.704748205262423,25.584424911904332,-3.473240466694534
1772732149689355500,7.00535546875,16.376313636505603,24.828285057318208,-2.7506463233575222
1772732149699383800,7.0153837890625,17.17427486325502,24.065275901484487,-0.5779106548532843
1772732149709411600,7.02541162109375,16.310702223432063,24.166501064252852,0.5838298157691956
1772732149719440000,7.03543994140625,13.062878824102878,25.38183663920164,0.3743468151167035
1772732149729467600,7.045467529296875,9.243571295836567,27.458582122981547,0.40320524533241986
1772732149739495400,7.055495361328125,5.742879635375738,29.44775453724861,0.7530854354515671
1772732149749523700,7.065523681640625,1.9496797773122787,30.4481240039587,1.1089707112044096
1772732149759550500,7.075550537109375,-1.241659518250823,31.221439449751376,2.3049156492456793
1772732149769578800,7.085578857421875,-2.998909136520326,31.766054860985278,4.466301656217873
1772732149779606500,7.0956064453125,-3.455076156711578,31.435150004971025,7.096539392909407
1772732149789634800,7.105634765625,-2.422948446691036,31.131881343901156,8.512256670427321
1772732149799662600,7.11566259765625,-2.019048643223196,29.843391685414314,7.867758158683777
1772732149809690600,7.125690673828125,-2.8211636286512016,28.177286857664583,6.370645038983225
1772732149819718700,7.13571875,-4.09676545625329,26.436082657527923,4.620771794700622
1772732149829746700,7.14574658203125,-4.021615814983845,24.780915403378007,3.2387750004768368
1772732149839774700,7.155774658203125,-2.3800797574318944,23.341317484056948,2.882678127799928
1772732149849802800,7.165802734375,-0.46669396716356276,22.0627974309206,3.3851009954705833
1772732149859830500,7.17583056640625,0.5586755007684231,21.074165163755417,4.158292522622645
1772732149869858800,7.18585888671875,0.8853167810540645,20.517913090741633,4.260586775927245
1772732149879886300,7.19588623046875,0.6766811179459095,20.316587385320663,3.125282184548676
1772732149889914600,7.20591455078125,0.1975005941748619,20.141707788276673,1.1787819140553473
1772732149899941400,7.21594140625,-0.2549357150554657,19.8521660392642,-0.5164604531124234
1772732149909969700,7.2259697265625,-0.23570034177489577,19.49654642871022,-1.360092713190615
1772732149919997400,7.23599755859375,0.38598844533264637,19.037501514995096,-1.6703458263203501
1772732149930025500,7.246025390625,0.9030565089493989,18.79384941049814,-1.4604915081374346
1772732149940053500,7.256053466796875,0.7192566694773733,18.25799948952198,-1.243156040418893
1772732149950081500,7.26608154296875,-0.13307605279833076,17.57699407863617,-1.1240291641265152
1772732149960109600,7.276109619140625,-0.5999357319176196,17.06076305036545,-0.7492226225435733
1772732149970137600,7.2861376953125,-0.40321255185604093,16.680121226757763,-0.3045066784322262
1772732149980165400,7.296165283203125,-0.10267243896722793,16.455011325645447,-0.019913199476897715
1772732149990193700,7.306193603515625,-0.01310381172299385,16.36781468822956,0.4319952864870429
1772732150000221400,7.316221435546875,-0.6663619685053825,16.632266419649124,0.7694713375851512
1772732150010249700,7.326249755859375,-1.1471829529598354,16.878317401981352,0.8998477760359644
1772732150020277500,7.336277587890625,-0.7615817533791065,17.116718161821364,1.635147671689093
1772732150030305500,7.346305419921875,-0.043378538477420805,17.722303882324695,3.3710289232373234
1772732150040332500,7.35633251953125,-0.9401227955400944,18.704955321514607,5.236898782962561
1772732150050360300,7.3663603515625,-5.312486815649271,20.072341406583785,4.813513503910601
1772732150060388600,7.376388671875,-11.74370059736371,21.003388915264605,2.0815897089406845
1772732150070416400,7.38641650390625,-16.22298419249058,21.087097126042842,-0.4915700497448444
1772732150080444700,7.396444580078125,-18.595588937866687,20.171950950849055,-1.1542425160825251
1772732150090472400,7.406472412109375,-19.64977884209156,18.165040635317563,0.9791153740182519
1772732150100500500,7.41650048828125,-19.78430070978403,16.00174733341932,4.390658093951642
1772732150110528500,7.426528564453125,-20.51911252965927,13.405808464431763,7.579559640973806
1772732150120556500,7.436556640625,-22.44113273115158,11.089538769739866,9.904884748780727
1772732150130584600,7.44658447265625,-24.633178664803502,9.34569486874938,11.732650795561074
1772732150140612600,7.456612548828125,-24.807085617423056,6.977868005299568,12.172293089669942
1772732150150640400,7.466640380859375,-21.47940249943733,5.149032867982983,13.847005586767196
1772732150160668700,7.476668701171875,-18.99411128607988,3.9386899867549534,15.824622003275156
1772732150170696400,7.486696533203125,-19.54116064646244,3.008418723143637,16.17685840113163
1772732150180724700,7.496724853515625,-21.98981636586189,2.3901181902348996,16.401936738061902
1772732150190751500,7.50675146484375,-24.951144544267652,1.5955841614551842,15.619152037656306
1772732150200779500,7.516779541015625,-26.706426369595526,0.6561274286083877,13.555121074020862
1772732150210807600,7.5268076171875,-26.68323721718788,-0.6473916028365493,12.000291678410768
1772732150220835300,7.53683544921875,-24.858002150189876,-2.1191867414072156,11.710804874455928
1772732150230863600,7.546863525390625,-21.743272047054766,-3.5972064535811543,12.471080805933475
1772732150240891400,7.556891357421875,-17.920932603746653,-5.355654926246404,12.916138110828399
1772732150250919700,7.566919677734375,-14.475548989009857,-6.934328138780593,13.146381283175945
1772732150260947500,7.576947509765625,-12.683879507005214,-8.188917865753174,13.374502641063927
1772732150270975500,7.5869755859375,-12.055152564889191,-9.200883077710866,13.537795845210551
1772732150281003500,7.59700341796875,-11.542194859200716,-9.816639479094743,12.92682317097187
1772732150291031600,7.607031494140625,-11.476813747751713,-10.031012882137299,12.101472417515515
1772732150301059600,7.6170595703125,-12.327056950402259,-10.113968228721617,11.34658343977332
1772732150311087600,7.627087646484375,-13.522752589857577,-10.294223089063166,10.915131466382741
1772732150321115400,7.637115478515625,-14.983433044695854,-10.659523551154136,11.524225487267971
1772732150331142400,7.647142333984375,-16.123795503985882,-11.03098838109374,10.981088916414976
1772732150341170400,7.65717041015625,-17.322579757106304,-10.831849956583977,10.089440521186589
1772732150351198500,7.667198486328125,-19.07115945444703,-10.479560951757431,9.490047225582599
1772732150361226500,7.6772265625,-20.65416046705246,-9.925888958364725,8.338933070653676
1772732150371254500,7.687254638671875,-22.180393882775306,-9.008231092610954,7.218442602047324
1772732150381282600,7.697282470703125,-23.76243744852543,-8.044524592387676,7.052308621516823
1772732150391310300,7.707310302734375,-26.318600771963595,-6.495117221826314,7.031138992238044
1772732150401338600,7.717338623046875,-30.607008744013307,-4.557827555009722,7.061923422080278
1772732150411366400,7.727366455078125,-34.46839074242115,-1.7863222757577895,8.817147964262961
1772732150421394700,7.737394775390625,-38.245159690165515,1.0904108260326086,11.982228782975673
1772732150431422500,7.74742236328125,-40.28942913775444,3.032514176741242,15.560179624205826
1772732150441450500,7.757450439453125,-38.07344586367607,4.375419023765623,17.59316078506112
1772732150451478500,7.767478515625,-35.90390402277708,5.911739825999736,18.805818080711365
1772732150461505500,7.777505615234375,-38.33127846921682,7.574355058068036,20.441943949782846
1772732150471533600,7.787533447265625,-40.7354193395853,9.382698611497878,21.788315303874015
1772732150481561300,7.797561279296875,-36.9616221011281,10.880822369545697,24.267506446790694
1772732150491589600,7.807589599609375,-32.123798624086376,12.799923468720912,24.871525648629664
1772732150501617400,7.817617431640625,-30.79354136945009,14.6990818500638,24.84984456269741
1772732150511645400,7.8276455078125,-31.46953625869751,17.596470348000526,24.05563362839222
1772732150521673500,7.837673583984375,-30.933237424910068,21.55931599410772,21.547952888572215
1772732150531701500,7.847701416015625,-27.9360733784914,25.26492057082653,19.80023010032177
1772732150541729500,7.8577294921875,-24.671654233670232,28.45025156588554,19.491537076115605
1772732150551757600,7.867757568359375,-22.33620637577772,31.261748079264162,17.863275364547967
1772732150561785300,7.877785400390625,-18.93232849138379,33.39190483523607,16.525490637016297
1772732150571813600,7.887813720703125,-15.13815949602723,34.53150040180683,15.024148501443863
1772732150581841400,7.89784130859375,-11.288838522291183,34.78270219103098,12.201572960168123
1772732150591869700,7.90786962890625,-8.27038618865013,34.16115668485165,10.00849709894657
1772732150601897500,7.9178974609375,-6.555679534816742,33.04901494239569,7.96420894665718
1772732150611924500,7.927924560546875,-5.041456874883175,31.682730096566676,5.708592750370502
1772732150621952500,7.937952392578125,-3.7302982884705065,29.979568919098377,3.619570261080563
1772732150631980500,7.94798046875,-2.2787936582565305,27.9076165148139,1.7175991604045033
1772732150642008600,7.958008544921875,-0.527043221925199,25.58877843093872,0.5504468938663601
1772732150652036400,7.968036376953125,1.6646961299955845,23.39647998383045,0.4027826360061765
1772732150662064600,7.978064697265625,5.26319759182334,22.05190895715952,1.00268300434947
1772732150672092400,7.988092529296875,11.386752953076362,22.01608244149685,1.8000287295490502
1772732150682120400,7.998120361328125,17.29886219691038,23.03048978590965,1.6705384262830019
1772732150692148500,8.0081484375,20.977244420182704,24.528813450443742,-0.7192816577881574
1772732150702176500,8.018176513671875,24.20393384606838,25.79745274555683,-5.463992551368475
1772732150712204500,8.02820458984375,25.940492266225814,26.61487153697014,-8.931498566064239
1772732150722232600,8.038232666015626,24.709718299126624,26.491586518085,-9.20690073056519
1772732150732260400,8.04826025390625,21.533926701307294,26.401775898778435,-7.400766085356474
1772732150742288600,8.05828857421875,16.550798096752168,25.34513100261688,-4.298746702973545
1772732150752315600,8.068315673828126,11.69661151393056,24.37175241868496,-0.0899076499402523
1772732150762343400,8.078343505859374,9.459521154415606,23.691270739412307,4.010794561240076
1772732150772371500,8.088371337890624,9.62104559532404,23.501806152176854,5.614513952225447
1772732150782399500,8.0983994140625,9.877841259032488,23.30347319883108,5.819992101150751
1772732150792427500,8.108427490234375,9.835143104034662,23.467490041077134,5.778261914402246
1772732150802455600,8.11845556640625,9.590262334525585,24.22163083080053,5.681877761924267
1772732150812483600,8.128483642578125,9.634157590353489,24.558013825964927,5.490638566231727
1772732150822511400,8.138511474609375,10.60377302235961,24.713248811340332,6.143047997230291
1772732150832539600,8.14853955078125,11.737107190448045,24.884675053060054,7.130232988196611
1772732150842567400,8.1585673828125,12.519513120669126,24.67917819943428,8.284790561577678
1772732150852595500,8.168595458984376,12.979674471193551,24.446339749896524,9.61696095635891
1772732150862623500,8.17862353515625,13.317054660701752,23.690980816555022,10.160380435806513
1772732150872651500,8.188651611328124,14.057687149554491,22.94559850282669,10.979929224985836
1772732150882679800,8.1986796875,14.052675458872317,22.403634482884407,11.432089639884232
1772732150892706600,8.20870654296875,12.71316872985363,21.70096902885437,10.20419385856986
1772732150902734600,8.218734619140625,11.086385858666896,21.314265713250634,8.293405829709767
1772732150912762600,8.2287626953125,9.823484230422974,20.94696151012182,6.19553163318336
1772732150922790400,8.238790283203125,9.062710870817304,20.374176819980143,4.91470096501708
1772732150932818700,8.248818603515625,9.209330588060617,19.999329946386812,4.226199060896039
1772732150942846500,8.258846435546875,9.082571171063185,19.492932914388177,3.5524569190114734
1772732150952874800,8.268874755859375,8.301486260312796,19.12741150302291,2.7652228379815815
1772732150962902500,8.278902587890625,7.100502451321482,18.777751677656173,2.2268591806188223
1772732150972930600,8.2889306640625,6.2042702354341746,18.341554555565118,2.1383330481648444
1772732150982958600,8.29895849609375,5.395692337602377,17.952182313013076,2.26161748252809
1772732150992986600,8.308986572265624,4.2605829765349625,17.746619992935656,2.3737743736773727
1772732151003014700,8.3190146484375,3.9730437995165584,17.546521783483026,2.4576667088508604
1772732151013042700,8.329042724609375,4.15348103068769,17.794756539595127,2.547448978845775
1772732151023070500,8.339070556640625,3.797092773848772,18.677040894150732,2.826389838866889
1772732151033098800,8.3490986328125,3.2104110757797955,19.995203221845625,3.520659220473468
1772732151043125500,8.35912548828125,2.1362404597997666,21.382809088122844,4.3811026223599905
1772732151053153500,8.369153564453125,0.962505307739973,22.364204974293706,5.439525049588084
1772732151063181600,8.379181640625,-1.3933791889816523,22.727134615600107,5.6602288246959445
1772732151073209600,8.389209716796875,-5.4431403174757955,22.550950365698338,7.429701672461628
1772732151083237600,8.399237548828125,-8.937465950036048,21.76631857612133,11.490810708922147
1772732151093265400,8.409265380859376,-10.721962179410458,25.854654057681557,16.673613160037995
1772732151103293700,8.419293701171876,-9.280971344426273,26.87766322622299,17.638215732318162
1772732151113321500,8.429321533203124,-7.864885818117856,24.398836824965475,15.922827525961399
1772732151123349800,8.439349853515624,-11.44345157637596,23.96814005385637,18.80334204598665
1772732151133377500,8.44937744140625,-21.674756729233263,20.64712749967575,20.415780750000476
1772732151143405600,8.459405517578125,-33.471603225851055,15.039167206877469,21.650660398852825
1772732151153433600,8.46943359375,-40.2452299305439,9.444470300278066,21.945907081508636
1772732151163461600,8.479461669921875,-39.31476928184032,6.265459155890345,23.335600859975813
1772732151173489700,8.48948974609375,-29.68996404172182,0.27163842805325983,19.983966373038292
1772732151183517700,8.499517578125,-21.655612468302248,-2.3382129386916755,18.588968642944096
1772732151193544700,8.509544677734375,-17.595052297896146,-4.542533247505128,17.159764691865444
1772732151203572500,8.519572509765625,-16.077218461728094,-5.899779339092969,15.092384417802094
1772732151213600500,8.5296005859375,-16.463524302446842,-6.345455068147182,12.825427327811717
1772732151223628500,8.539628662109376,-17.337400894141197,-6.883778685760498,10.637639051604271
1772732151233656600,8.549656494140624,-17.361392010581493,-6.908046281054616,8.845832791477442
1772732151243684600,8.5596845703125,-16.37833257511258,-6.5196390841424465,7.220776013430952
1772732151253712600,8.569712646484374,-14.208338314270973,-6.1914090002954,5.859593459177017
1772732151263740400,8.579740478515625,-11.958866612088679,-5.8436184759318825,5.289594015839696
1772732151273768700,8.589768798828125,-10.160006341797112,-5.523628981685638,4.511115488195419
1772732151283796500,8.59979638671875,-9.273428089439868,-5.061848505526781,3.55921516110003
1772732151293824800,8.60982470703125,-9.53976724204123,-4.595752211995422,2.942935028102994
1772732151303852500,8.6198525390625,-10.435623610353469,-3.997349388733506,2.1866472894787785
1772732151313880600,8.629880615234375,-11.746413947975634,-3.4654528815582393,1.0913590666681527
1772732151323907600,8.639907470703125,-13.353839792263507,-3.2879730388879773,0.9124585435450077
1772732151333935600,8.649935546875,-15.181080938386916,-3.5322301235407587,1.7202303856909273
1772732151343963600,8.659963623046876,-16.77130781059265,-3.6396383588582277,3.0381963140308854
1772732151353991700,8.66999169921875,-18.92541125934124,-3.194896988044679,4.818731823080777
1772732151364019700,8.680019775390624,-22.639687802815438,-2.5028975971966982,6.3872577356100075
1772732151374047500,8.690047607421874,-28.2798751254797,-1.6759548983737826,8.367437865126133
1772732151384075500,8.700075439453125,-33.03281667178869,-0.7773746580556035,10.201323856091498
1772732151394103600,8.710103515625,-33.1260081657052,0.36824440658837554,10.239620561259985
1772732151404131600,8.720131591796875,-28.73658545876741,1.308335053424537,9.48801133584082
1772732151414159600,8.73015966796875,-24.053711720418928,0.9584697686135768,10.831155544579028
1772732151424187600,8.740187744140625,-22.130358809018134,0.5211491954505443,12.79595339604616
1772732151434215400,8.75021533203125,-22.222862905192375,1.1781686044625936,13.755154986065625
1772732151444243700,8.76024365234375,-23.860508531177043,2.067087866988033,13.881733201277255
1772732151454271500,8.770271484375,-25.17077046101093,3.5498213098108766,13.745586362731457
1772732151464298800,8.780298828125,-25.782227119374273,5.430683571484685,14.192299033617973
1772732151474326500,8.790326416015626,-25.63787826967239,6.786676740401983,15.236673646271228
1772732151484354800,8.800354736328124,-23.722755426478386,8.248517471191287,16.264189478582143
1772732151494382600,8.810382568359374,-22.35030738184452,10.080572155076265,16.60241254865527
1772732151504410600,8.82041064453125,-22.6025332534194,11.771757648068666,17.934093698614834
1772732151514438700,8.830438720703125,-22.778207800233364,13.497371480363606,18.961019163817166
1772732151524466400,8.840466552734375,-21.480852113723753,15.606442193686961,18.247714242351055
1772732151534494700,8.85049462890625,-20.812210509848594,17.627565743488073,19.33524176803231
1772732151544522500,8.8605224609375,-21.251205153703687,19.608902057301997,19.482215121018886
1772732151554550500,8.870550537109375,-20.896372309613227,22.011223895549772,17.923105856132505
1772732151564578600,8.88057861328125,-18.69157912259102,24.474696075809,16.133249561029672
1772732151574606600,8.890606689453126,-15.613000529289245,26.713012762248514,15.524750583428144
1772732151584634600,8.900634521484376,-12.194232534277438,27.534817805922028,15.173192230963705
1772732151594662700,8.91066259765625,-8.511967332091928,27.618472240686415,15.089285282742976
1772732151604690400,8.9206904296875,-5.52233777283132,27.069414463090894,14.479134446281194
1772732151614717700,8.9307177734375,-2.34631675017029,26.155650097644326,12.737006701558828
1772732151624745700,8.940745849609375,1.5993761010840535,24.463989972877503,10.561181250345706
1772732151634773800,8.950773681640625,6.206344703620672,22.131810761392114,8.813432743132115
1772732151644801500,8.960801513671875,10.633217728030681,19.187506198501584,7.44618577427268
1772732151654829800,8.970829833984375,13.78440563046932,16.701943766987323,6.016428865486383
1772732151664857600,8.980857666015625,15.86491543521881,15.180152717626093,4.338965608376264
1772732151674885600,8.9908857421875,16.575972285497187,14.981640900582073,2.7876439286261796
1772732151684913700,9.00091357421875,15.230155058157443,16.032924561971424,1.0641372977435588
1772732151694941400,9.01094140625,15.10222075216174,17.609825504136083,-1.6621417693376541
1772732151704969700,9.0209697265625,16.65317944381833,19.372495686149595,-5.868625491416454
1772732151714997500,9.03099755859375,17.331969516742227,19.819089114570616,-9.811522574472427
1772732151725025500,9.041025634765624,16.96991198209524,19.347865102761983,-9.6384812987715
1772732151735053600,9.051053466796875,15.762905844074487,19.42567782576084,-6.675305446672439
1772732151745080800,9.061080810546875,14.761534506845473,19.289615158367155,-3.3951579868435857
1772732151755108600,9.071108642578125,12.968529976844787,19.402128607869148,-0.9240800077557563
1772732151765136600,9.08113671875,10.455751037102937,19.844331107854842,-0.01645604476034641
1772732151775164700,9.09116455078125,8.917048015907406,20.161864441120624,-0.18412205716371535
1772732151785192700,9.101192626953125,8.529150522083043,20.318789863801,-0.013875965139269829
1772732151795220700,9.111220703125,9.241124487206339,20.261085862851143,1.5333236662447451
1772732151805248800,9.121248779296875,10.21361401334405,20.39805570821762,4.463011090239882
1772732151815276500,9.131276611328126,11.254470973265171,20.50072580909729,7.581330157777667
1772732151825304800,9.141304931640626,13.678189819806814,20.8334239782691,10.182008914768696
1772732151835332600,9.15133251953125,15.572280396366118,21.2501389857769,11.680608473634718
1772732151845360600,9.161360595703124,16.504717898100612,21.51701765208244,11.756236253809929
1772732151855388700,9.171388671875,16.48795731743574,21.829683087050913,11.055766263997555
1772732151865416400,9.18141650390625,14.801259783512354,21.91402491955757,10.00519922644496
1772732151875444500,9.191444580078125,13.080379409480095,21.95212873250246,9.187603324899078
1772732151885471200,9.20147119140625,11.78148526135683,21.70111866645813,8.746240782868862
1772732151895499300,9.211499267578125,10.49342113480568,21.329262206852434,8.461721830454469
1772732151905527300,9.22152734375,9.412587553805112,20.855271068418023,8.089358005848526
1772732151915555300,9.231555419921875,9.004854309654235,20.22955441403389,7.781129092022776
1772732151925583400,9.241583251953125,9.146919432333112,19.601668014395237,7.61478176100254
1772732151935611100,9.251611083984375,9.467208786308765,18.949364966380596,7.031098075705766
1772732151945639400,9.261639404296876,9.03399623298645,18.31788726425171,5.894421611452103
1772732151955667200,9.271667236328126,8.194179147282242,17.797931662499902,4.288392482219636
1772732151965695500,9.281695556640624,7.575771939128637,17.349961100506782,2.839191452772915
1772732151975723300,9.29172314453125,7.069741986876726,16.894971599662302,2.0111499989278614
1772732151985751300,9.301751220703125,6.313093598246574,16.444529679119587,1.7212665968708694
1772732151995779300,9.311779296875,5.214864645808935,15.879994930928945,1.641973718316853
1772732152005807400,9.321807373046875,4.221919191619754,15.17704539926052,1.4137445161402225
1772732152015834400,9.33183447265625,3.458730003044009,14.292963055372237,1.0554708839461207
1772732152025862400,9.3418623046875,3.6921208257675167,13.688795384973286,0.9623062780365347
1772732152035889400,9.351889404296875,4.775043488001823,13.619888437485693,1.479423441492021
1772732152045917200,9.361917236328125,6.431570924589037,14.259645307660103,2.4020544194832443
1772732152055945500,9.371945556640625,7.414961199447512,15.76026731226444,3.2717025798276067
1772732152065973200,9.38197314453125,7.064264432248473,16.63542517594099,3.6198952552512287
1772732152076001300,9.392001220703126,5.884589368745684,17.4968526204288,4.8107300106719135
1772732152086029300,9.402029296875,3.3973873533308505,18.818090702307224,6.691033761680126
1772732152096057300,9.412057373046874,0.6882353621393442,20.30854904029369,10.26169327685833
1772732152106085400,9.42208544921875,-2.7547283319741487,21.723524559533594,14.127107307261229
1772732152116113400,9.432113525390625,-8.460942078253627,21.21793416774273,14.571708685082196
1772732152126141200,9.44214111328125,-14.861181460511684,18.889173240268228,11.746242098540067
1772732152136169500,9.45216943359375,-18.488465949231387,16.842504914844035,8.608653682386874
1772732152146197200,9.462197265625,-16.822052493923902,16.130688186109065,8.160359295266867
1772732152156225500,9.4722255859375,-12.377304790127276,15.960370197892187,9.597969840162992
1772732152166253300,9.48225341796875,-9.510741054043173,14.73505566524267,11.14484623094201
1772732152176280300,9.4922802734375,-10.045729974275828,12.781610397917031,12.815384072703122
1772732152186308400,9.502308349609375,-16.26450862753391,10.712024138242006,15.610066229403017
1772732152196336400,9.51233642578125,-25.71816819643974,7.868467768257856,16.574714394390583
1772732152206364400,9.522364501953126,-31.14222270517349,5.462377517387271,15.67179407904148
1772732152216392200,9.53239208984375,-31.607436662912367,3.669848788204789,13.979572813260555
1772732152226420500,9.54242041015625,-30.213185951793193,1.3245290862478316,12.128539288139342
1772732152236448300,9.5524482421875,-29.2885751981616,-1.0193157208509742,11.090597923403978
1772732152246476300,9.562476318359375,-30.182926422607895,-2.8370442116111514,12.078742699313164
1772732152256504300,9.57250439453125,-31.46565269526243,-4.363673933175206,13.096021215248108
1772732152266532400,9.582532470703125,-30.304027667713164,-5.514788088104129,12.525873887872695
1772732152276560400,9.592560302734375,-26.742049471640584,-6.053381170308589,10.283488929080962
1772732152286588400,9.60258837890625,-23.182559000730514,-6.471205015841126,8.010809369790554
1772732152296616200,9.6126162109375,-20.68232039361,-6.6856058914124965,6.918019978058338
1772732152306643200,9.622643310546875,-18.780654413360356,-6.626691930150986,6.127780285471678
1772732152316671500,9.63267138671875,-16.68967815965414,-6.47127223585844,5.026711725693941
1772732152326699300,9.64269921875,-14.331224689227342,-6.245869489279389,4.158172695635259
1772732152336727300,9.652727294921876,-12.347669530320166,-5.943657059264183,3.585611877377331
1772732152346755300,9.66275537109375,-11.04555115945339,-5.437789019575715,2.9228344893604516
1772732152356783400,9.672783447265624,-10.113232900184393,-4.845569268862903,2.157502443537116
1772732152366811400,9.682811279296875,-9.24660671800971,-4.367374248997867,2.1446265953510997
1772732152376839400,9.69283935546875,-8.199507064306735,-4.107699230460822,2.39696177251935
1772732152386867200,9.7028671875,-7.081995903772115,-3.7881449127614495,2.366295123837888
1772732152396896300,9.712896240234375,-6.3001096135109655,-3.2858114769399163,2.4674969057306644
1772732152406924300,9.72292431640625,-5.995385492935776,-2.6035771087810398,2.593287769956887
1772732152416952300,9.732952392578126,-6.139560155114531,-2.031661456558853,2.3566183639541265
1772732152426980400,9.74298046875,-6.080501232424378,-1.5291037104621528,1.8580792058490216
1772732152437008400,9.75300830078125,-6.013103520455956,-0.8553652218393981,1.8016414254426956
1772732152447035400,9.763035400390624,-6.638354310894012,-0.15579729543328286,1.555688496657461
1772732152457063400,9.7730634765625,-7.436258839020133,0.43898251502588387,1.1627595845371483
1772732152467091200,9.78309130859375,-7.440372119557857,1.0505457025036216,1.0704201774053275
1772732152477119500,9.793119384765625,-6.789254481935501,1.6580251277990639,1.5786556768774986
1772732152487147300,9.803147216796875,-6.109268477225303,2.008766610922664,1.912359077569097
1772732152497175600,9.813175537109375,-5.503677496024966,2.2210142539829016,1.9734245177760719
1772732152507203300,9.823203369140625,-5.614635532778501,2.772133640283346,2.224162050489336
1772732152517231000,9.833231201171875,-6.691796562746167,3.263324043060839,2.2362644300848245
1772732152527259400,9.84325927734375,-6.706158850097656,3.277360167197883,2.1209601808205245
1772732152537287200,9.853287109375,-4.926179221364856,3.239974439394474,2.1277529097005723
1772732152547315500,9.8633154296875,-2.480672321385145,3.282029912574589,1.6864068804137409
1772732152557343200,9.87334326171875,-0.6788532012879848,3.330400560250878,1.655056487251818
1772732152567371300,9.883371337890624,-0.7304968792855739,3.5534716490119695,1.584615462064743
1772732152577398300,9.893398193359374,-1.3090396945625542,3.5355110449075697,1.1610495657488702
1772732152587426300,9.90342626953125,-1.5210323399484156,3.8051597604483365,1.0447880888249725
1772732152597454300,9.913454345703125,-1.4561077400952576,3.8773976059243083,1.1900224161244928
1772732152607482400,9.923482421875,-0.7233318099617958,3.8662101492166516,1.4114192880630492
1772732152617510400,9.933510498046875,0.586290652924776,3.945784036669135,0.9488668776836245
1772732152627538400,9.943538330078125,2.35634217736125,3.8762373299732804,0.18879079789342357
1772732152637566200,9.953566162109375,4.028370549941062,3.785475109030306,0.16188322775084524
1772732152647594500,9.963594482421875,4.692195693445205,3.758675364910066,0.35194008179102093
1772732152657622300,9.973622314453126,4.6776896137088535,3.593075052864849,0.36414245116226374
1772732152667650300,9.983650390625,4.381605895707011,3.4604999353259798,0.56732901855167
1772732152677678300,9.99367822265625,4.378279966154694,3.2856051407128573,0.668134165809676
1772732152687706000,10.0037060546875,4.862445292600989,3.2134660794362424,0.5175519746761769
1772732152697734400,10.013734375,5.106701792731881,3.096848117224872,0.48391887740455564
1772732152707762200,10.02376220703125,5.324727873063087,2.8040529193744064,0.3682281861059367
1772732152717789400,10.03378955078125,5.442635290563106,2.7249174233391877,0.11647944878982379
1772732152727817200,10.043817138671875,4.665450894382595,2.6347604748129845,-0.38058169091828165
1772732152737845500,10.053845458984375,4.642425408104062,2.1988576594933864,-0.5051694629650563
1772732152747873300,10.063873291015625,5.09310873618722,2.0044260975003243,0.008204815034521744
1772732152757901300,10.0739013671875,4.181631604894996,1.699564906542003,0.2564772636753507
1772732152767929300,10.083929443359375,3.0699978119611737,1.4369316227212547,-0.028607916920213028
1772732152777957400,10.093957275390625,2.9158547134757042,1.1440183514490723,-0.48473183775525536
1772732152787985400,10.1039853515625,3.1292946350604294,0.8967124006196856,-0.6376908044900744
1772732152798013400,10.114013427734376,3.093563396465778,0.351465998005867,-0.7652323117759078
1772732152808041200,10.124041259765624,2.897681927925348,-0.09978227048367261,-0.49966114787235855
1772732152818069500,10.134069580078124,2.1305969009548424,-0.6114318161830306,-0.4596018900107592
1772732152828097300,10.14409716796875,1.1137468395650387,-1.313165542320907,-0.17245995041532441
1772732152838125300,10.154125244140625,0.12917875309884547,-1.9223291213110087,-0.009421433415822683
1772732152848152300,10.16415234375,-1.0266489863485098,-2.5564406790748238,-0.1027130815048702
1772732152858180400,10.174180419921875,-2.2618501222401854,-3.4110558131992814,0.3614052082180977
1772732152868208400,10.18420849609375,-4.079955775749683,-4.471834448164701,1.308777244234085
1772732152878236400,10.194236328125,-7.315033675274252,-5.665385476806759,1.9843211748436091
1772732152888264400,10.204264404296875,-10.806874505281447,-7.023992043092846,1.7415373776137828
1772732152898292200,10.214292236328125,-14.025398160368203,-7.698830163520574,2.4411373065933586
1772732152908320500,10.224320556640626,-18.381840973246096,-8.329740294894576,2.8415935454785823
1772732152918348300,10.234348388671876,-22.283187902295587,-8.861976117026805,2.695071151129901
1772732152928376300,10.244376220703124,-24.33562428972721,-9.313867651855945,3.3123128226354717
1772732152938404400,10.254404296875,-25.058308449435234,-9.879090966832637,5.388709639108181
1772732152948432400,10.264432373046875,-25.060192948007582,-9.488996839746832,7.394192552185058
1772732152958460400,10.27446044921875,-23.449358172059057,-7.8843118185997,8.939511776649951
1772732152968488400,10.284488525390625,-20.818771183538434,-5.651795927393436,10.101896682655811
1772732152978515500,10.294515380859375,-18.23134762943983,-3.2383979838579893,10.357058023160695
1772732152988543200,10.304543212890625,-15.653627138710021,-0.8128934229433536,9.918740255653857
1772732152998571500,10.314571533203125,-12.427659012836218,1.9735271013677118,9.518978136512636
1772732153008599300,10.324599365234375,-9.7716640268147,4.532825215700268,9.015081104636192
1772732153018627300,10.33462744140625,-8.195742743337155,6.837065449902415,8.632325649875401
1772732153028655400,10.3446552734375,-7.137318562543392,9.766989020740985,8.36630506170392
1772732153038683400,10.354683349609376,-7.231361120331287,12.679397393155098,7.171306172341108
1772732153048711400,10.36471142578125,-7.251206807529926,15.359671080386638,5.810017235103249
1772732153058739500,10.374739501953124,-5.8291346080273385,17.7769391433537,4.578894308435917
1772732153068767200,10.384767333984374,-4.401796450820565,19.68949827353954,3.721145260199904
1772732153078795500,10.39479541015625,-2.652842659470439,20.858698704779147,2.7058371675550936
1772732153088823300,10.4048232421875,-0.42448271889984607,21.305411375665663,1.2595610856443642
1772732153098851300,10.414851318359375,1.4421557871103285,20.978142245805262,0.1921349754884839
1772732153108878300,10.42487841796875,4.217052462366223,20.062640681302547,-0.2384729482933879
1772732153118906400,10.43490625,7.674656676250696,19.51066263234615,-0.20015198546648025
1772732153128934400,10.444934326171875,11.538727475351095,18.785694161093232,-0.8077674582317471
1772732153138962200,10.454962158203125,15.723647015875576,17.87371375645399,-2.1462866375178096
1772732153148990500,10.464990478515626,18.076204998522996,16.865169166594743,-2.8354478823304174
1772732153159018200,10.475018310546876,18.00055266842842,15.785623871839045,-2.1605326050132514
1772732153169046500,10.485046630859374,16.909530870890617,14.78554198989868,-1.6731737432226537
1772732153179074300,10.49507421875,15.934747096335887,14.269229128563403,-1.7135457933604716
1772732153189102300,10.505102294921874,15.541409457284212,14.236947153639793,-2.105698022019863
1772732153199130400,10.51513037109375,15.6588878357172,14.795343252944946,-2.386827331995964
1772732153209158400,10.525158447265625,16.80788602140546,16.011029541027543,-2.80921190957278
1772732153219186400,10.5351865234375,18.460234711003302,17.409761196953056,-2.7290385949224234
1772732153229214500,10.54521435546875,20.850066485512254,18.653460112076996,-2.321865030480921
1772732153239242200,10.5552421875,23.80081715580225,20.15693341445923,-2.6959908963233232
1772732153249269200,10.565269287109375,25.916968767297266,22.075998273277282,-3.772672033819556
1772732153259297300,10.57529736328125,26.77963656723499,23.791885661327836,-4.921571435308456
1772732153269325300,10.5853251953125,26.104548855960367,24.97983521670103,-5.130281990283727
1772732153279353300,10.595353271484376,24.054534727239606,25.67863113582134,-3.840808873717487
1772732153289381400,10.60538134765625,21.717880416166782,26.27948222901821,-1.5531750525318084
1772732153299409400,10.615409423828124,19.95640032072067,26.639440161037445,0.4954268713034689
1772732153309437200,10.625437255859374,18.060540980923175,26.957401364326476,2.147989349782467
1772732153319465500,10.635465576171875,16.14123763717413,27.044740625083445,3.5945351885452865
1772732153329493200,10.6454931640625,15.18799232521057,27.396482517421244,4.375492965784669
1772732153339521500,10.655521484375,13.656845418483018,27.623246615481374,4.57110117034167
1772732153349549300,10.66554931640625,11.65144083133936,27.60342898533344,4.957195121875405
1772732153359577300,10.675577392578125,10.03050434809327,27.59897025235891,5.085310045135021
1772732153369605400,10.68560546875,7.924285517069697,27.48548649652004,5.160950684791803
1772732153379632000,10.695632080078125,5.963873917862773,27.191715147113797,5.011989957380295
1772732153389660400,10.705660400390625,4.8964691427558655,26.857413049876687,5.503877987033128
1772732153399688200,10.715688232421876,4.2057238436222075,26.683548182833192,6.976111517021059
1772732153409716500,10.725716552734376,3.7505683385610578,26.584106980872154,8.53391086835265
1772732153419744300,10.735744140625,4.2285207818418735,26.86192322077751,10.351263073146342
1772732153429772300,10.745772216796874,5.816223104006052,27.4751568256855,13.135195872294902
1772732153439800300,10.75580029296875,6.5531976548731325,27.602570907199382,14.788364061582088
1772732153449828400,10.765828369140625,1.2551105359762906,27.376194931674004,14.4391379514575
1772732153459856400,10.7758564453125,-10.725774431174992,26.729129199790954,15.051739103680848
1772732153469884400,10.785884521484375,-22.328334034967423,25.037338142120838,14.69976924780607
1772732153479912200,10.795912109375,-25.578359912776946,25.911801593792436,12.868362798696756
1772732153489940500,10.8059404296875,-19.610180991196632,24.24338439744711,7.769535100340843
1772732153499968300,10.81596826171875,-19.520889427328108,27.514462415635585,12.219905904716253
1772732153509996300,10.825996337890626,-30.081958449470996,27.37083135881424,17.235182044160364
1772732153520024300,10.8360244140625,-39.56035732283592,23.831467145609853,19.982563520503042
1772732153530051300,10.84605126953125,-42.581021487307545,19.278928929179905,18.146145380711555
1772732153540079400,10.856079345703124,-42.080853120565415,16.13856871022582,16.697798337745667
1772732153550107100,10.866107177734374,-39.26348099315166,13.008718194848298,15.272058263385295
1772732153560135400,10.876135498046875,-35.30223693702221,9.09712518159449,12.519701336717604
1772732153570163200,10.8861630859375,-32.70315334026813,4.700809792533517,10.671104098832606
1772732153580191500,10.89619140625,-30.947911262428757,0.32443865567483005,11.08000054154396
1772732153590219300,10.90621923828125,-26.919334960782525,-3.0753643074303865,11.392751316708326
1772732153600247300,10.916247314453125,-21.633094347023963,-5.694355550703406,10.487713863074779
1772732153610275300,10.926275390625,-17.89563332731724,-7.729753125050664,10.46667341313362
1772732153620303400,10.936303466796875,-15.384742393279074,-9.452605091416835,11.224773754137754
1772732153630331400,10.946331298828126,-13.367085058283806,-10.835906538498401,11.748370927262306
1772732153640359400,10.956359375,-11.683778920364379,-11.773192064785956,11.757829660481214
1772732153650387200,10.96638720703125,-9.880007497155665,-12.371267848050593,11.351126343899965
1772732153660414500,10.97641455078125,-8.718857685902714,-12.453207295590639,11.337823794734478
1772732153670442200,10.986442138671874,-8.767379432487488,-12.4091892901659,11.347252132815122
1772732153680470300,10.99647021484375,-9.850369899260997,-12.525071923840045,11.349930412113666
1772732153690498300,11.006498291015625,-12.127286073207854,-12.403766096073388,11.299147150337696
1772732153700526300,11.0165263671875,-17.183965067142246,-12.33906536810398,11.50546116556525
1772732153710554400,11.026554443359375,-24.76656889811754,-12.379303854990004,12.157758368360996
1772732153720582100,11.03658203125,-31.066103926610946,-12.286238617801665,10.080541759938
1772732153730610400,11.0466103515625,-34.02981929241419,-11.013038882905244,6.764696379262208
1772732153740638200,11.05663818359375,-37.3597586648941,-9.870537073498964,5.932058975929022
1772732153750666500,11.06666650390625,-40.46015161511898,-9.734519414290785,6.398599798357487
1772732153760694300,11.0766943359375,-41.33165037176609,-9.86899627379775,7.69016521102786
1772732153770722300,11.086722412109374,-41.025833195257185,-9.838920284485816,9.3911987288177
1772732153780750300,11.096750244140624,-40.08089978456497,-9.265098067989944,11.614351748394965
1772732153790777300,11.10677734375,-38.18420107133388,-7.6092288030505175,13.204314416706561
1772732153800805400,11.116805419921874,-36.43322366520166,-5.3278024582028385,13.823552230465411
1772732153810833400,11.12683349609375,-35.629863794279096,-2.556460552819073,15.257254662007092
1772732153820861400,11.136861328125,-33.438409396779534,0.9063270550526678,17.33586827774644
1772732153830889200,11.14688916015625,-29.258823033976554,5.387361147108674,18.74446666316986
1772732153840917200,11.156917236328125,-25.891476598644257,9.796977331769465,19.44723733114004
1772732153850945300,11.1669453125,-23.827992747497557,13.675645980542898,20.00774238542318
1772732153860973300,11.176973388671875,-21.49771907737255,17.25050119384527,19.691784923171994
1772732153871001300,11.18700146484375,-19.61881554855108,20.790700104308126,18.847868585455416
1772732153881030100,11.197030029296876,-18.183762871444223,24.251579394340514,17.91399900509119
1772732153891058000,11.207057861328124,-16.716466797858477,27.400041086685658,17.007109786111116
1772732153901086200,11.217086181640624,-13.299234926372765,29.254700985610484,15.79400591573715
1772732153911114000,11.227114013671875,-9.403309437850117,29.942196927559372,15.125256759834288
1772732153921142000,11.23714208984375,-7.2894590890347954,29.99215016825199,13.526357920873163
1772732153931169000,11.2471689453125,-5.354906153705715,29.502337191307543,10.93264841837287
1772732153941196800,11.25719677734375,-3.1777506229326127,29.063087695908546,8.667956350705028
1772732153951225000,11.26722509765625,-2.001591458596289,27.64632821586132,7.276982469299435
1772732153961252900,11.2772529296875,-0.8763929584294557,26.2469734596014,6.9487973936378955
1772732153971281200,11.28728125,0.4308171826183796,25.143606559753415,7.819331689167022
1772732153981309000,11.297308837890625,1.903596656051278,23.996335051727293,9.892165552461147
1772732153991337000,11.3073369140625,4.057162929183244,23.071607393717766,10.311452456283568
1772732154001365000,11.317364990234376,5.231905796980858,22.651291731369493,7.9680545161694285
1772732154011393000,11.32739306640625,5.659815567719936,22.024188591063023,5.016408942866325
1772732154021421000,11.337421142578124,5.221012647044659,21.29446678780317,2.029911836412549
1772732154031449000,11.347448974609375,3.2235704170823096,19.939685332763194,-0.822743785828352
1772732154041476900,11.357476806640625,2.197215445244312,18.726566264820097,-2.883265280038118
1772732154051503900,11.36750390625,2.096982800644636,17.87768850530386,-4.291921533128619
1772732154061532000,11.377531982421875,1.8259329861342906,16.816324179404972,-3.4051842908173797
1772732154071560000,11.387559814453125,2.180435136965662,15.696676006841658,-0.5130664267599583
1772732154081588000,11.397587890625,3.7941970524072643,15.05988733882308,3.7874265353590246
1772732154091616000,11.407615966796875,5.972525426352024,14.223732282757759,8.195748004034161
1772732154101644000,11.41764404296875,8.633670050221681,12.964269981312752,10.356032771766186
1772732154111671800,11.427671875,10.335057788276671,11.860832938838005,10.080676199972629
1772732154121700000,11.4377001953125,10.421066677212714,10.891339087384939,8.035014421242476
1772732154131728000,11.447727783203124,9.811540110129117,10.570961470603942,6.231079916426539
1772732154141756200,11.457756103515624,8.584004394298791,10.30097080975771,5.123080680602788
1772732154151784000,11.467783935546874,7.043245609617233,9.968520477867125,5.615030085054039
1772732154161812000,11.47781201171875,5.839246252197027,9.279246420329809,8.035795342487097
1772732154171840000,11.487840087890625,5.76667201437354,8.389732699042558,11.058373231625556
1772732154181868000,11.497867919921875,6.320478447800874,7.705873652291298,13.024918803542851
1772732154191895000,11.50789501953125,6.749150435084104,7.172657002428173,12.658010906255244
1772732154201922800,11.5179228515625,7.2346367810010905,6.727949241623282,11.258990496516226
1772732154211951000,11.527951171875,8.012092979860306,6.567400367748737,10.670409686827659
1772732154221979000,11.537978759765625,9.10229293962121,6.322716582116485,10.079957238048314
1772732154232007000,11.5480068359375,12.240278830659388,6.291870777475833,9.140204444864391
1772732154242035000,11.558034912109376,15.725333946049213,6.68804100960493,8.301976674178242
1772732154252063000,11.56806298828125,18.59612435991764,7.050704693451523,7.592477574735879
1772732154262091000,11.578091064453124,20.95091989235878,7.615195602500438,7.200261633190512
1772732154272119000,11.588119140625,21.987576477980614,8.24077197163105,7.003695104995369
1772732154282146800,11.598146728515625,21.511256604337692,9.033699295866489,6.865991100135445
1772732154292175000,11.608175048828125,20.264048219788073,9.866661693370341,6.761976014387607
1772732154302203000,11.618202880859375,20.063082579851148,10.740665710836648,6.73099284710288
1772732154312231200,11.628231201171875,20.684251653933522,11.805553534686565,7.685236522454023
1772732154322258000,11.6382578125,20.840239503502843,12.68472589470148,9.569797054123878
1772732154332286200,11.6482861328125,20.37464677557945,13.739427840101719,11.093971783751249
1772732154342314000,11.65831396484375,18.463100037306546,14.896071572107076,11.761228070747851
1772732154352342000,11.668342041015626,15.764217511194943,15.901714595305918,11.858856085807084
1772732154362370000,11.6783701171875,13.334040866816043,16.634375374627112,11.8987380143404
1772732154372397800,11.688397705078126,10.899586691248416,17.135591204595563,12.014962008798122
1772732154382426000,11.698426025390624,8.235570311334728,17.157237219214437,12.559612491345405
1772732154392454000,11.708453857421874,6.6426610681772225,16.89867045418024,13.876739046251773
1772732154402482000,11.71848193359375,6.380895799362659,16.90066367382407,14.412754971444606
1772732154412510000,11.728510009765625,6.985754374635219,17.125406495189665,15.864384689342975
1772732154422538000,11.7385380859375,7.7124284807622425,18.020165715914963,16.64589162489772
1772732154432566000,11.74856591796875,7.296099842223525,19.64580175515413,15.040408731371164
1772732154442594000,11.758593994140625,5.713299320626258,22.19660618190765,12.408871310257911
1772732154452621000,11.76862109375,2.6613737564504145,24.371156206357476,9.446202823159098
1772732154462649000,11.778649169921875,-1.7588959241718052,25.44015088100433,7.482016381588577
1772732154472677000,11.788677001953126,-4.703953935778141,26.50551918184757,8.01464032625556
1772732154482705200,11.798705078125,-5.322151300573348,26.988343615078925,10.641696802562475
1772732154492733000,11.80873291015625,-4.807361703282594,28.13617158794403,16.765217092502116
1772732154502761000,11.818760986328124,-5.380483078032731,28.531037167215345,25.375666426134107
1772732154512789000,11.8287890625,-10.453465556514262,27.6866882833004,31.96569714336395
1772732154522817000,11.838817138671875,-18.84608696273565,26.09029821228981,30.904708080518244
1772732154532845000,11.848844970703125,-25.429458806598184,23.935937573909758,23.542131148302552
1772732154542872800,11.858872802734375,-29.559400556266308,22.38838547582626,18.276997619980573
1772732154552901000,11.868901123046875,-34.63212233798504,20.42265472742319,17.02951918631792
1772732154562929000,11.878928955078125,-40.53780885529518,16.797388008266687,18.77900372354388
1772732154572957000,11.88895703125,-45.09420374715328,11.983065818321704,20.86284881019592
1772732154582985000,11.89898486328125,-47.35411033411026,7.086860879459977,19.95692872850895
1772732154593012000,11.909011962890625,-46.10184466617107,2.406177198501676,18.116003924947975
1772732154603040000,11.9190400390625,-42.308026383948324,-1.4904155217580497,15.877719971734285
1772732154613068000,11.929068115234376,-38.09794902129173,-5.017842190539836,13.66116737333536
1772732154623096000,11.939095947265624,-33.38189080622196,-7.747842908492684,12.112908003765344
1772732154633124000,11.9491240234375,-28.781544544434546,-9.708397715562581,11.305604948174953
1772732154643152000,11.95915185546875,-24.76568042484522,-11.117069750744104,10.749248830264806
1772732154653180200,11.96918017578125,-20.961534809875488,-11.95933189151287,9.69017875278294
1772732154663208000,11.9792080078125,-17.452904757630822,-12.402836706268786,8.271299211841821
1772732154673236000,11.989236083984375,-14.5613310834527,-12.543680762720108,6.8713044041126965
1772732154683264000,11.999263916015625,-12.232477801519632,-12.311789238643646,5.892904777148366
1772732154693291800,12.009291748046875,-10.287529144382477,-11.845505605846643,5.322121489956975
1772732154703320000,12.019320068359375,-8.616690273848176,-11.13099189311266,4.709249704098701
1772732154713347000,12.02934716796875,-7.339161569836735,-10.261752898091077,4.2294262062489985
1772732154723375000,12.039375,-6.604157442259788,-9.40315629311502,3.9920232252746817
1772732154733403000,12.04940283203125,-6.426860262680053,-8.377435527527332,3.3633301854282616
1772732154743431200,12.05943115234375,-6.415629843613505,-7.273545480588078,2.5196391809001564
1772732154753459000,12.069458984375,-6.199495276117324,-6.185637431156635,1.791871726578474
1772732154763487000,12.079487060546874,-5.786386184147,-5.131577290791273,1.3810662353754042
1772732154773515000,12.089514892578125,-5.151736281722783,-4.125158607044816,1.2004741059035062
1772732154783543000,12.09954296875,-4.355393011564016,-3.162475604650378,1.2946977193467317
1772732154793571000,12.109571044921875,-3.257771377369761,-2.297532553257048,1.6340407333604992
1772732154803599000,12.11959912109375,-2.049388105776906,-1.383057847584039,1.7900497718483208
1772732154813627000,12.129626953125,-1.1610323223531245,-0.50380803841874,1.5854218100115656
1772732154823655000,12.139655029296875,-0.4625695807099342,0.2263802133090794,1.3455620835348963
1772732154833683000,12.149682861328126,0.2658189281195402,0.8474589056942612,1.3918087247945368
1772732154843710000,12.1597099609375,0.8906997162014245,1.333130179724097,1.5420366956628857
1772732154853738000,12.169738037109376,1.3478385040342806,1.5152712922036646,1.6362163238339125
1772732154863766000,12.17976611328125,1.5848048471570013,1.7698247299432754,2.0964099691927434
1772732154873794000,12.1897939453125,1.1362480097085237,2.140646878065169,2.317888820326328
1772732154883821600,12.199821533203124,0.2858411409288645,2.3775533076941966,2.0523431561902163
1772732154893849600,12.209849609375,-0.23505963271856306,2.5208681381732223,1.5442951421141624
1772732154903877400,12.21987744140625,0.14894611436426639,2.6606051101654766,1.061700279854983
1772732154913905700,12.22990576171875,1.0187234540462493,2.8606159335955974,0.8478742815621196
1772732154923933400,12.239933349609375,1.5833382817357777,2.8542563354358075,0.46987551980912684
1772732154933961500,12.24996142578125,2.2280419606626034,2.6308675590276716,0.13597922689393163
1772732154943989500,12.259989501953125,2.986405921038985,2.51295634213537,0.35365444796085355
1772732154954017300,12.270017333984375,3.1749884647428988,2.3645466727353632,0.4300888683438301
1772732154964044500,12.28004443359375,3.004709054970741,2.1130499922178685,0.23987667761147022
1772732154974072600,12.290072509765626,2.8877853878110646,1.9814742609798908,0.08322101178318261
1772732154984100600,12.3001005859375,2.9689579426318407,1.9065069905400276,0.13371990365982056
1772732154994128400,12.31012841796875,2.8841543378323315,1.762074261946976,0.27742139536887406
1772732155004156700,12.32015673828125,2.8909821380257603,1.5072861386686562,0.2126179376773536
1772732155014184400,12.330184326171874,3.05137377551198,1.4179703171417117,-0.05690832052752375
1772732155024212500,12.34021240234375,3.1600656208992004,1.3847684508942066,-0.11460223847478627
1772732155034240500,12.350240478515625,2.863053097614646,1.4061710121460258,-0.05198956882581114
1772732155044268500,12.3602685546875,2.3372546150535345,1.2548792114384473,-0.7338795074611901
1772732155054296600,12.370296630859375,2.4112615160286426,1.2851416632331907,-0.9962373353414237
1772732155064324600,12.38032470703125,3.303874956896901,1.0238558484986424,-0.4977797180399298
1772732155074352400,12.390352294921875,2.9757220299392935,0.800254452253133,-0.6211060918487608
1772732155084380400,12.40038037109375,2.512991121187806,0.6586661533057689,-0.13443097453862426
1772732155094407700,12.41040771484375,1.7375293110162018,0.3171418497301638,1.253518882870674
1772732155104435500,12.420435546875,0.7491010419905185,-0.09109086837545037,1.2201821381971238
1772732155114463500,12.43046337890625,0.9555027355015278,0.10621551840156317,1.2533898496635258
1772732155124491500,12.440491455078124,1.289700203320384,0.15962781350687144,1.6136434036284684
1772732155134519600,12.45051953125,1.2952081530869006,-0.2602180393725633,1.4815509550400077
1772732155144547600,12.460547607421875,1.810447247710824,-0.3872274856083095,1.4544171566598116
1772732155154575600,12.47057568359375,2.1539485504478213,-0.2248977196663618,1.4698545258969067
1772732155164603400,12.480603271484375,1.91133280326128,-0.0549009262278676,0.4170087297573685
1772732155174631700,12.490631591796875,1.763805323523283,0.26969445437863465,-0.04860518708452582
1772732155184659500,12.500659423828125,1.6623223866015673,0.37607349277883767,-0.17278379380851983
1772732155194687500,12.5106875,1.6301064626514912,0.28841932085379957,-0.18634572456255555
1772732155204715500,12.520715576171876,1.5133634127557276,0.46851548350229855,-0.1802709346935153
1772732155214742500,12.530742431640626,1.5018255351752041,0.5240193440593779,-0.2329685056582093
1772732155224770600,12.5407705078125,1.6181243484348058,0.5763970354199409,-0.19946122672334313
1772732155234798300,12.55079833984375,1.6896838562577963,0.648524113997817,-0.3411659916572273
1772732155244826600,12.56082666015625,1.710439644038677,0.6164221718162298,-0.3004350450791418
1772732155254854400,12.5708544921875,1.6230781714498996,0.6017004035025835,-0.18819792830049992
1772732155264882700,12.580882568359375,1.4802917487591505,0.5736246480971574,-0.3373965561211109
1772732155274910500,12.590910400390625,1.509888430121541,0.5174564784124493,-0.37810697136782107
1772732155284938500,12.6009384765625,1.3778005115777254,0.5980076864644884,-0.3532767006896436
1772732155294966500,12.610966552734375,0.8614484872758388,0.5770508231535554,-0.4103327591247856
1772732155304994600,12.62099462890625,0.5035223533451557,0.5589864664137363,-0.47846821078322826
1772732155315022600,12.631022705078125,0.450247859275341,0.6220546247452498,-0.5190579953249543
1772732155325050600,12.641050537109376,0.47653673126399515,0.6829433932110667,-0.4568017378982156
1772732155335078400,12.651078369140626,0.401285967707634,0.6484361434534192,-0.3814531399905681
1772732155345105400,12.66110546875,0.15469956332445145,0.6045239364907146,-0.2546956226892769
1772732155355133400,12.671133544921876,0.03035071460008621,0.6514996226772666,-0.29321020839214323
1772732155365161500,12.681161376953124,0.20397592766880987,0.7088479420572519,-0.4039534333512187
1772732155375189500,12.691189453125,0.2979956891030073,0.7015402493923902,-0.4654104301590472
1772732155385217500,12.701217529296875,0.33190848009884355,0.6213090670749545,-0.41705797572657466
1772732155395245600,12.71124560546875,0.43904841986894605,0.5827613097548484,-0.2797433355104178
1772732155405273300,12.7212734375,0.5148042103379965,0.5382034983649849,-0.24589411127008495
1772732155415301600,12.731301513671875,0.6576303805172443,0.47294396746903655,-0.2645664438404143
1772732155425329400,12.741329345703125,0.9171189365714788,0.4521817499473691,-0.18933146237507462
1772732155435357700,12.751357666015625,0.9565338321149348,0.4266147624924779,-0.12499701043479144
1772732155445385500,12.761385498046875,0.8868652526050805,0.35210663399696346,-0.1009331940844655
1772732155455413500,12.77141357421875,0.8544944303542376,0.27812662102878094,0.01445325357057154
1772732155465440500,12.7814404296875,0.5872229653388261,0.2861754874497652,0.20406411740891633
1772732155475468300,12.79146826171875,0.13318389708697795,0.25355624339580535,0.29127229913212355
1772732155485496600,12.80149658203125,-0.23543138864040372,0.2648050749018788,0.25338812028728425
1772732155495524400,12.8115244140625,-0.33112697433233257,0.2408008067190647,0.2870593576122075
1772732155505552600,12.821552734375,-0.4915308867782354,0.23307810351252556,0.34302696322351695
1772732155515580400,12.831580322265625,-0.7664350386291742,0.2687731017500162,0.2833111840598285
1772732155525608400,12.8416083984375,-0.8047942876398563,0.330003523260355,0.2248166172541678
1772732155535636500,12.851636474609375,-0.6409487103074789,0.37136984513252974,0.09223580062687396
1772732155545664500,12.86166455078125,-0.45260815866589543,0.3772270467281341,-0.03689041856713593
1772732155555692500,12.871692626953125,-0.41484862911403175,0.40897330733984705,-0.0010556465327739716
1772732155565720600,12.881720458984375,-0.5766998177587985,0.39056174459755416,0.1426941412974149
