time,seconds_elapsed,z,y,x
1772641377496266200,0.057266357421875,-0.00899812996983528,-0.07776406155154109,-0.2826577616523951
1772641377506311200,0.067311279296875,0.024793080472946167,-0.10348923524282871,-0.22378880857639014
1772641377516356400,0.0773564453125,0.11131985580325127,-0.12025646484419703,-0.18311697177439926
1772641377526401300,0.0874013671875,0.1274871467500925,-0.11143957319278269,-0.14253274019062517
1772641377536446200,0.0974462890625,0.05602233147323131,-0.1182282469522208,-0.11088899010531604
1772641377546492200,0.1074921875,-0.00813420661687851,-0.12649229049384594,-0.10641842056252061
1772641377556537000,0.117537109375,-0.04238017508983612,-0.09756883221790194,-0.1122213346876204
1772641377566582300,0.127582275390625,-0.057065118524432176,-0.09195807966403663,-0.12680964934732764
1772641377576627200,0.137627197265625,-0.04144727815389633,-0.131269112974219,-0.1308065369637683
1772641377586672400,0.14767236328125,0.05961246491968632,-0.1916157373873517,-0.08151314841937274
1772641377596718000,0.157718017578125,0.15491232929229734,-0.2768030442748219,-0.06235986393168568
1772641377606763000,0.167762939453125,0.11362111848294734,-0.3333099443946034,-0.08227076185364275
1772641377616808200,0.17780810546875,0.07126432426869869,-0.32761841822210697,-0.1120411558151245
1772641377626853000,0.18785302734375,0.08814180931150913,-0.29017179054431613,-0.1682382958659902
1772641377636898300,0.197898193359375,0.06834639099538325,-0.30423600826468317,-0.15038736268114297
1772641377646944300,0.2079443359375,0.09335223743617534,-0.3148956417059526,-0.08960041062198579
1772641377656989200,0.2179892578125,0.11847381921112536,-0.332619441379793,-0.027025186906568705
1772641377667034000,0.2280341796875,0.10891162561774254,-0.3122112249275669,-0.012594473961368202
1772641377677079300,0.238079345703125,0.0773936208039522,-0.28053094222415237,0.00047075931690633295
1772641377687124200,0.248124267578125,0.05367664512991905,-0.28193817867357285,0.015241116012632845
1772641377697170200,0.258170166015625,-0.012538579055666924,-0.3292489055007696,0.05850443061254918
1772641377707215000,0.268215087890625,-0.061411623296141624,-0.3673149071859196,0.05381137742549181
1772641377717260000,0.278260009765625,-0.03921382001340389,-0.3639808308597654,0.031349004922434684
1772641377727305200,0.28830517578125,-0.015093524235486983,-0.3321334114285186,0.0017035890474915503
1772641377737350100,0.29835009765625,-0.040004093608260155,-0.32652748118024316,-0.03744885616749525
1772641377747396400,0.308396240234375,-0.06565934386849404,-0.3504323441091925,-0.05349485882222652
1772641377757441300,0.318441162109375,-0.06540273875892162,-0.3522011804126203,-0.07936199826747178
1772641377767486200,0.328486328125,-0.04675064525902271,-0.34929888309985396,-0.10463665171228348
1772641377777531100,0.33853125,-0.038107320076227184,-0.34516466937195506,-0.14494849609546362
1772641377787576300,0.348576416015625,-0.00874327842593193,-0.3566616669528186,-0.17130363825336098
1772641377797622300,0.358622314453125,0.005544190123677253,-0.39172735431082545,-0.2094705795623362
1772641377807667200,0.368667236328125,-0.025683891832828522,-0.42254970501065253,-0.25037037990130484
1772641377817712600,0.378712646484375,-0.035034488502144814,-0.47331616178229446,-0.2664095874890685
1772641377827757300,0.38875732421875,-0.010107552516460418,-0.5778147932633757,-0.2569408443327993
1772641377837802500,0.398802490234375,0.03191898683011531,-0.6877728591941297,-0.2430204555299133
1772641377847848400,0.408848388671875,0.11051555368304251,-0.7439202783517539,-0.22540932245030998
1772641377857893400,0.418893310546875,0.1854354778498411,-0.7571610143274068,-0.26291107784882184
1772641377867938600,0.4289384765625,0.25410861658155914,-0.7564541812323033,-0.2979009234916419
1772641377877983200,0.438983154296875,0.3679278879851103,-0.7485062179025262,-0.2877120493672788
1772641377888028400,0.4490283203125,0.46654432955980296,-0.7539176484920084,-0.25296602241769434
1772641377898073300,0.4590732421875,0.5200935489177704,-0.7765322158820926,-0.19816731445528565
1772641377908119600,0.46911962890625,0.534294508227706,-0.7787764876775443,-0.18457235821448265
1772641377918164500,0.47916455078125,0.6270744987338781,-0.7747352494627237,-0.1593527959577739
1772641377928209700,0.489209716796875,0.6787871503144502,-0.7511432153426111,-0.12145670747943221
1772641377938254300,0.49925439453125,0.672498863825202,-0.7340173084966838,-0.09147431473508477
1772641377948299500,0.509299560546875,0.6056295596450567,-0.7442004104673862,-0.12880970059074462
1772641377958345500,0.519345458984375,0.5073848739922047,-0.7461915112193673,-0.15343129695430396
1772641377968390400,0.529390380859375,0.43222178871929645,-0.7802284400515258,-0.15591156946271656
1772641377978435600,0.539435546875,0.4378741153925657,-0.8448761226594448,-0.12031550155505537
1772641377988480300,0.549480224609375,0.49180385850071906,-0.8960482376225292,-0.06712758979015052
1772641377998525400,0.559525390625,0.45332244441509245,-0.9388966878112405,0.021235899448022247
1772641378008571400,0.5695712890625,0.340324426266551,-1.0013182918675243,0.13134988659285007
1772641378018616300,0.5796162109375,0.16333528972268105,-1.1346131019830703,0.20504348383508622
1772641378028661500,0.58966162109375,-0.047988662621378894,-1.2884781141795216,0.22295517076384275
1772641378038706400,0.59970654296875,-0.2730027021437883,-1.4158870811268687,0.15988785268254577
1772641378048751400,0.60975146484375,-0.39958617805242536,-1.4531230251960456,-0.0016735227027907967
1772641378058797300,0.61979736328125,-0.35851708556115625,-1.41925553464666,-0.15975947706252336
1772641378068842500,0.629842529296875,-0.18261749781966208,-1.4444070731684564,-0.24539226269517092
1772641378078887400,0.639887451171875,-0.028251111972332,-1.4603494693182408,-0.26923202449865635
1772641378088932600,0.6499326171875,0.12223229496181011,-1.4370657704949379,-0.26144531614519656
1772641378098977300,0.659977294921875,0.23333061696887014,-1.3796812107577918,-0.25165702217835934
1772641378109023200,0.670023193359375,0.30587855130732056,-1.2549549070231616,-0.19472762233018873
1772641378119068400,0.680068359375,0.32772622597813605,-1.1290430467657744,-0.07850558236753567
1772641378129113300,0.69011328125,0.30019290688633915,-1.0207146278634667,0.07195442542470991
1772641378139158500,0.700158447265625,0.2882458639830351,-0.9264669028922915,0.22963607329986988
1772641378149203500,0.710203369140625,0.3214186502665281,-0.8819351027265191,0.401564967312105
1772641378159249700,0.720249755859375,0.3437567388027906,-0.9118271137736738,0.5794006011500954
1772641378169294300,0.73029443359375,0.27309622564613817,-0.8659558086324483,0.6285206058889627
1772641378179339500,0.740339599609375,0.20638123524487018,-0.726870067090541,0.5774238942496478
1772641378189384400,0.750384521484375,0.11861059733331203,-0.6035761342465877,0.5508731564544141
1772641378199429600,0.7604296875,-0.006233925953507423,-0.5595240073565393,0.5513352940734475
1772641378209475600,0.7704755859375,-0.10620528926849365,-0.5497910968387499,0.6153597302164882
1772641378219520300,0.780520263671875,-0.12547054623067377,-0.5011374309699982,0.6793589588530361
1772641378229565400,0.7905654296875,-0.04095861785411835,-0.45062662945985793,0.7200364216782152
1772641378239610400,0.8006103515625,0.06548924799859523,-0.4322180989248678,0.7186322539687157
1772641378249655600,0.810655517578125,0.07283025841116905,-0.4065533867165446,0.6859684401206672
1772641378259701500,0.820701416015625,0.13028992921113966,-0.4057337408967316,0.6217870598502456
1772641378269746400,0.830746337890625,0.2067635125607252,-0.3831819365445524,0.5330830500787124
1772641378279791400,0.840791259765625,0.19824410601854323,-0.3598553849602118,0.4501977730559185
1772641378289836300,0.850836181640625,0.1560427946269512,-0.35169454606473444,0.3595116130238399
1772641378299881500,0.860881591796875,0.13162439268529413,-0.3494464018117636,0.2757928625852801
1772641378309927400,0.870927490234375,0.1303805301040411,-0.3411434510318562,0.21915400664890183
1772641378319972600,0.88097265625,0.23015841667354106,-0.3653223451292142,0.16970701671168206
1772641378330017300,0.891017333984375,0.3456780622541904,-0.41948849080912765,0.17959060601284726
1772641378340062500,0.9010625,0.34751638359725473,-0.5579816002201289,0.2454819868052378
1772641378350107400,0.911107421875,0.2951215949714184,-0.7584507618770003,0.3449604520367458
1772641378360153300,0.9211533203125,0.24286124638020992,-0.9186093943249434,0.4312392074227333
1772641378370198500,0.931198486328125,0.17906418925225734,-0.9847667508434503,0.46303014742638915
1772641378380243500,0.941243408203125,0.05564589937627315,-0.9568764350075274,0.47829128331374376
1772641378390288400,0.951288330078125,-0.0581663577646017,-0.8535768040526658,0.4605598483227193
1772641378400333300,0.961333251953125,-0.20422025781869887,-0.6798644972223788,0.3806510298274457
1772641378410379500,0.971379638671875,-0.3662789517343044,-0.3874947217097506,0.24123251266721635
1772641378420424400,0.981424560546875,-0.41433541889488695,-0.10472867737729102,0.1286540807707701
1772641378430469600,0.9914697265625,-0.4555822060406208,0.05002530128182843,0.0038462042664876204
1772641378440514300,1.001514404296875,-0.5878139169692993,0.11464020499815232,-0.08052541602365672
1772641378450559500,1.0115595703125,-0.7321054835259914,0.17522755196513606,-0.1760518191611394
1772641378460604400,1.0216044921875,-0.831335673084855,0.2054532702123746,-0.31789749040305615
1772641378470650400,1.031650390625,-0.9863152223944663,0.2641997842187993,-0.5145856356838717
1772641378480695600,1.041695556640625,-1.2186205879688263,0.3138163220366463,-0.7530079863011837
1772641378490740500,1.051740478515625,-1.4885966357678173,0.2968243437686935,-0.9673771515600382
1772641378500785400,1.061785400390625,-1.7172066539555788,0.28277550628054887,-1.1573957924816756
1772641378510830300,1.071830322265625,-1.7713041548460722,0.26304124356713143,-1.2415040354281663
1772641378520876300,1.081876220703125,-1.6364169609725474,0.31084136134646834,-1.3241488547585905
1772641378530921500,1.09192138671875,-1.4348358194857835,0.4304271603874862,-1.39718311130926
1772641378540966400,1.10196630859375,-1.3603788366556167,0.46841837980337436,-1.3742469107493758
1772641378551011300,1.11201123046875,-1.0978320620745419,0.5948902485636994,-1.3389267371736466
1772641378561056300,1.12205615234375,-0.7321873165905475,0.7722967702694237,-1.3290737439401448
1772641378571102500,1.1321025390625,-0.41082887207865715,0.8882517385274171,-1.2984491808347403
1772641378581147400,1.1421474609375,-0.11323650307953358,0.9348091993018984,-1.2245746740676462
1772641378591192600,1.152192626953125,0.1912438718676567,0.9855264101043343,-1.1296830982349813
1772641378601237500,1.162237548828125,0.44476562847197054,1.0222435909964143,-1.0012423770871013
1772641378611282400,1.172282470703125,0.6871493204683065,1.0460368467770516,-0.8268367542304098
1772641378621328400,1.182328369140625,0.8993757746100425,1.082383659986779,-0.6751148915424943
1772641378631373300,1.192373291015625,1.0717115323901176,1.0908831927847116,-0.5900249806148931
1772641378641418500,1.20241845703125,1.170337910836935,1.0895216951731592,-0.5335682763123885
1772641378651463400,1.21246337890625,1.2331681687593459,1.04628234597072,-0.49847515295818445
1772641378661508400,1.22250830078125,1.341692840886116,1.0165725596226751,-0.45608891345374286
1772641378671554300,1.23255419921875,1.4499030402362345,0.9626592561926692,-0.41647535353302956
1772641378681599500,1.242599609375,1.5083172352820633,0.9477871926881373,-0.35189332003984597
1772641378691644400,1.25264453125,1.4976029490441083,0.9749745478864759,-0.3361308105016127
1772641378701689600,1.262689697265625,1.3970418031424283,0.9592106501087546,-0.33378855822440234
1772641378711734500,1.272734619140625,1.2929215034544468,0.9284750278443098,-0.35415132809970523
1772641378721780500,1.282780517578125,1.1172475411623715,0.8898278287377208,-0.36843412047419694
1772641378731825400,1.292825439453125,0.9005372196048498,0.788388511762023,-0.37014600242599843
1772641378741870300,1.302870361328125,0.7280220136046409,0.6544590570047497,-0.3683415833525359
1772641378751915500,1.31291552734375,0.6294505802154541,0.5150456909436733,-0.3557131340563297
1772641378761960400,1.32296044921875,0.5319003065675497,0.3916162220865488,-0.37308939893413334
1772641378772006400,1.33300634765625,0.45027708536982536,0.2873293336600065,-0.43147908059321344
1772641378782051300,1.34305126953125,0.38629298123717304,0.1839982846535742,-0.4892851536780595
1772641378792096300,1.35309619140625,0.33325054235756396,0.029554961112514138,-0.5098486337572335
1772641378802141400,1.363141357421875,0.3310089009106159,-0.09085190852042287,-0.5086116393081843
1772641378812186400,1.373186279296875,0.3448457030832767,-0.17763996513541785,-0.4981116168754175
1772641378822232800,1.38323291015625,0.3102338239073753,-0.23432222182210533,-0.49498891827762126
1772641378832277800,1.39327783203125,0.2503343587398529,-0.26235943531543016,-0.4694554677661508
1772641378842323000,1.403322998046875,0.21557868717908857,-0.2844357676429674,-0.42025352036487307
1772641378852368000,1.413367919921875,0.27885727339088917,-0.30388547779396174,-0.29428163701593874
1772641378862413000,1.4234130859375,0.36670448366999625,-0.33483426788505166,-0.19167218028232455
1772641378872457700,1.433457763671875,0.4758265371680259,-0.321971754104644,-0.10310637340508401
1772641378882503700,1.443503662109375,0.5855284363806247,-0.29034049817472696,-0.02115044965427369
1772641378892548900,1.453548828125,0.6076625267773866,-0.26306480710580943,0.0392632121130824
1772641378902593800,1.46359375,0.5215455012917518,-0.23765385046284646,0.06562796234954148
1772641378912639000,1.473638916015625,0.4021025447875261,-0.18627934479545802,0.045025428901612756
1772641378922683600,1.48368359375,0.30013328565359115,-0.14973353841491044,0.015719949038140474
1772641378932729600,1.4937294921875,0.2093611278384924,-0.13559143315274266,0.021059300772100685
1772641378942774800,1.50377490234375,0.12534428950250148,-0.13709047607146202,0.023139906438440085
1772641378952819700,1.51381982421875,0.035789106261730194,-0.15166903652213512,0.018880787689238787
1772641378962865000,1.523864990234375,-0.014222586619853973,-0.170359927662462,-0.007158347322046756
1772641378972909800,1.533909912109375,-0.08268997364640235,-0.18920498645119369,-0.031516835770010944
1772641378982956000,1.5439560546875,-0.1582300755381584,-0.27974954605549573,-0.06483860207013785
1772641378993000700,1.554000732421875,-0.21077041011452674,-0.41264074380621313,-0.0801836899138987
1772641379003046000,1.5640458984375,-0.28335224672257897,-0.49256556358821685,-0.10463548266850412
1772641379013090800,1.5740908203125,-0.38761750783920285,-0.5308233980510384,-0.17986695700250566
1772641379023136000,1.584135986328125,-0.43128889178335666,-0.5195890334617346,-0.2561732940264046
1772641379033182000,1.594181884765625,-0.47684945047497745,-0.5530380063381046,-0.2829243766993284
1772641379043226600,1.6042265625,-0.4752759175479412,-0.6110162941846996,-0.3098435094155371
1772641379053271800,1.614271728515625,-0.44672669941186904,-0.6911219504263252,-0.3283482303339988
1772641379063316700,1.624316650390625,-0.428082204696536,-0.7659692477483302,-0.3741982734914869
1772641379073362000,1.63436181640625,-0.3938882586717605,-0.8379285685438662,-0.40737105977497995
1772641379083408000,1.644407958984375,-0.3527349950283766,-0.9247383255340158,-0.4321203741714358
1772641379093453000,1.654453125,-0.2671785260349512,-0.9961129052441566,-0.4367899734176695
1772641379103497700,1.664497802734375,-0.20634674845337866,-1.0703850330267102,-0.4109123125784099
1772641379113543000,1.67454296875,-0.1859194619745016,-1.1147432301912457,-0.44224816575832665
1772641379123587800,1.684587890625,-0.15905951209962368,-1.151148933981359,-0.48127128550522025
1772641379133633000,1.694633056640625,-0.210514389526844,-1.184918517114222,-0.5190881712675094
1772641379143679000,1.704678955078125,-0.2267535766661167,-1.2006917672421782,-0.5455288728170097
1772641379153723600,1.7147236328125,-0.22588789974749088,-1.2268331205189227,-0.5506059568855911
1772641379163768800,1.724768798828125,-0.2763262936085462,-1.2141824593909083,-0.5515324240807443
1772641379173813800,1.734813720703125,-0.31323826642036434,-1.1300159103859215,-0.6088140349000692
1772641379183859000,1.74485888671875,-0.36532735009789463,-1.0432567145392297,-0.6629686728052795
1772641379193905000,1.75490478515625,-0.5164098919689655,-1.052324110352993,-0.6512284045204519
1772641379203949800,1.76494970703125,-0.7300818687438965,-1.2446588461972772,-0.5424018999028951
1772641379213994800,1.774994873046875,-0.7854220631718635,-1.4587547474727034,-0.4938591835953295
1772641379224039700,1.785039794921875,-0.712635643902421,-1.44032082676813,-0.5300494180038571
1772641379234084900,1.7950849609375,-0.6443687478840351,-1.247582770819962,-0.47536235372237856
1772641379244130800,1.805130859375,-0.7034516359716654,-1.04965313757807,-0.2191129987850785
1772641379254176000,1.815176025390625,-0.8403291268795728,-0.7867739892374723,0.0346907896310091
1772641379264220700,1.825220703125,-0.923179844045639,-0.5093976751193404,0.11535495653823018
1772641379274265900,1.835265869140625,-0.9500725271463394,-0.3424111694127321,0.2014404178418219
1772641379284310800,1.845310791015625,-1.116487662705779,-0.26904355272185054,0.32441103701554236
1772641379294356700,1.855356689453125,-0.8537930040866136,-0.0676632767025847,0.29340668081231414
1772641379304402000,1.86540185546875,-0.4807002806842327,0.21180618290305137,0.16823394848443568
1772641379314446800,1.87544677734375,-0.1662514694303274,0.42462541530616577,0.042154768836125726
1772641379324491800,1.88549169921875,0.1287239950686693,0.5529545658383518,-0.07871624770984054
1772641379334536700,1.89553662109375,0.25955226894021033,0.6824053408116102,-0.18605390200912952
1772641379344583000,1.9055830078125,0.2472410688996315,0.8012197170887142,-0.24798121974244713
1772641379354627800,1.9156279296875,0.09668927290439605,0.9071835988167672,-0.2721573373608291
1772641379364673000,1.925673095703125,-0.15806231775581836,1.0071914947498588,-0.2773210037343204
1772641379374717700,1.9357177734375,-0.4012696010947227,1.0828468205191195,-0.23751206737197933
1772641379384763000,1.945762939453125,-0.5818979709237814,1.1608984668403863,-0.1889263156402856
1772641379394808800,1.955808837890625,-0.6943050374418497,1.1838036877401172,-0.13241576225869356
1772641379404853800,1.965853759765625,-0.6238520295560359,1.2034115475948899,-0.08407156419791281
1772641379414899000,1.97589892578125,-0.4205120617032051,1.2122757489867508,-0.07859130615592003
1772641379424943900,1.98594384765625,-0.1975175453096628,1.2110026603110133,-0.07251227850317954
1772641379434988800,1.99598876953125,0.012888707667589186,1.2214029121637344,-0.11569777862653136
1772641379445033700,2.00603369140625,0.19280279174745082,1.2350900767326354,-0.14816490085870027
1772641379455079700,2.01607958984375,0.34985680924355983,1.2640857234619558,-0.08599208393171429
1772641379465124900,2.026124755859375,0.532819174978137,1.282851652599871,-0.023709303824231028
1772641379475169800,2.036169677734375,0.6787672765702009,1.3002715739563107,0.046896921861916775
1772641379485214700,2.046214599609375,0.7552467051386833,1.310756143091619,0.12830555046088993
1772641379495259600,2.056259765625,0.8229834398031234,1.2931824924781918,0.26965974839143453
1772641379505305900,2.066305908203125,0.9346481635212898,1.274290306612104,0.37919323223456736
1772641379515350800,2.076350830078125,1.0104290884315967,1.2494919654421508,0.4128629351895302
1772641379525396000,2.08639599609375,1.0395166512280702,1.2238915871743112,0.43600152645371854
1772641379535441000,2.09644091796875,1.0950228498727081,1.1686529534246772,0.3864160230949521
1772641379545485800,2.10648583984375,1.2055594463437795,1.087865379333496,0.33311814814954993
1772641379555531800,2.11653173828125,1.2092010177165269,0.9920713017031549,0.2472203183725476
1772641379565576700,2.12657666015625,1.147782380157709,0.8911286091379821,0.12897102863229812
1772641379575622000,2.136621826171875,1.069797223201394,0.8191996104154735,0.04649294417090714
1772641379585666800,2.146666748046875,0.9926374111533164,0.7620360730178654,0.02387202010527253
1772641379595711700,2.156711669921875,0.905719590678811,0.7464001855339855,0.01893171415887773
1772641379605757700,2.1667578125,0.8032564105480909,0.7215341128900646,0.01775119913741946
1772641379615803000,2.176802978515625,0.6498983249604702,0.7071594775136559,0.009073021836951375
1772641379625847800,2.186847900390625,0.5392582681149244,0.6544011162724346,0.0029872721824795007
1772641379635893000,2.19689306640625,0.4956915135890245,0.5888560829659923,-0.032282632510736584
1772641379645938000,2.20693798828125,0.5008253693461417,0.5102111834593117,-0.06620908670574427
1772641379655983900,2.21698388671875,0.5130582434535026,0.41242074437998233,-0.10167546381913124
1772641379666028800,2.22702880859375,0.549850389277935,0.29491529527697713,-0.13068930379226804
1772641379676073700,2.23707373046875,0.5319388850122689,0.1819784875300713,-0.15678616034016013
1772641379686119000,2.247118896484375,0.5006324771225452,0.06963162676664068,-0.21261757235117254
1772641379696163800,2.257163818359375,0.4034738331407308,-0.021146024640905668,-0.25482545961402353
1772641379706208800,2.267208740234375,0.3786088564753532,-0.10137520223092288,-0.27313502328656614
1772641379716254700,2.277254638671875,0.3862894741058349,-0.12831078375843352,-0.2736292365442961
1772641379726299600,2.287299560546875,0.39437691897153854,-0.1455040476189926,-0.25611440344601866
1772641379736344800,2.2973447265625,0.39779228037297726,-0.13479040070185436,-0.23114245927482843
1772641379746389800,2.3073896484375,0.39235798036456104,-0.11591629848172888,-0.23513854317367075
1772641379756435000,2.31743505859375,0.32026246596872804,-0.1236044418315403,-0.23170652289837598
1772641379766481000,2.32748095703125,0.1353869600892067,-0.17144684611633418,-0.2178850644253194
1772641379776525800,2.33752587890625,-0.012155132696032524,-0.23320191255528477,-0.17195969100929795
1772641379786570800,2.34757080078125,-0.12153086869418621,-0.29659057154543694,-0.10939853235185146
1772641379796616000,2.357615966796875,-0.038085108244419096,-0.32364805328641083,-0.09670059801600873
1772641379806660900,2.367660888671875,0.01868248863816261,-0.39945908107403666,-0.10086422050148248
1772641379816706800,2.377706787109375,-0.06889058087468147,-0.511611770972237,-0.08872194728702307
1772641379826752300,2.387752197265625,0.03745382460355758,-0.5378397065538912,-0.1793980243165046
1772641379836797200,2.397797119140625,0.059956163790822026,-0.631869624055922,-0.2832745783764869
1772641379846842400,2.40784228515625,0.0862391905605793,-0.7544746978528797,-0.3873970700215548
1772641379856887000,2.417886962890625,0.05673135652542114,-0.831477784969285,-0.47546011500842866
1772641379866933000,2.42793310546875,-0.009562193593382834,-0.9259117532275617,-0.4878712682921439
1772641379876978200,2.437978271484375,-0.07303425655066967,-0.9995813850723206,-0.4648309497706592
1772641379887023000,2.448023193359375,-0.07548632587790488,-1.0622429353643208,-0.3949386445075273
1772641379897068300,2.458068359375,-0.03238894242942333,-1.1024416016966103,-0.3417373618043959
1772641379907113000,2.468113037109375,0.05605623374283313,-1.1562455264680087,-0.33118411134704945
1772641379917159200,2.4781591796875,0.0802653768479824,-1.1844435930788517,-0.35811844163239
1772641379927204000,2.4882041015625,0.03877133694291115,-1.2145897250175475,-0.3503454695433378
1772641379937249300,2.498249267578125,-0.02430968087017536,-1.2188091693434864,-0.27917364586368204
1772641379947294200,2.508294189453125,-0.1260311027228832,-1.1832073292821645,-0.19480280645824968
1772641379957339400,2.51833935546875,-0.18406068236529827,-1.0860461280170828,-0.12672449181452392
1772641379967384000,2.528384033203125,-0.17012684955894947,-0.9834778800766915,-0.02613295077458024
1772641379977430000,2.538429931640625,-0.15083762719929217,-0.8662255654845387,0.08621135270558297
1772641379987475200,2.54847509765625,-0.17833762854337692,-0.7809177374899386,0.20930431961733847
1772641379997520100,2.55852001953125,-0.2212812827348709,-0.6785496152315288,0.3207522222470492
1772641380007565300,2.5685654296875,-0.2397597732335329,-0.5868141653422266,0.4125881368361413
1772641380017610000,2.57860986328125,-0.2286959429055452,-0.48458925094678995,0.4922150331174954
1772641380027656200,2.58865625,-0.19524667776823043,-0.3313848946161568,0.5266995595866814
1772641380037701000,2.598701171875,-0.17665303645730018,-0.21996577968951314,0.531705989571847
1772641380047746300,2.608746337890625,-0.2723153044015169,-0.1934210697762668,0.5970849090637639
1772641380057791200,2.618791259765625,-0.4471662598729133,-0.25807463413570075,0.7395717277534306
1772641380067836200,2.628836181640625,-0.49977732159793375,-0.3685067473189905,0.8691071853354573
1772641380077882400,2.63888232421875,-0.5395908610701561,-0.36656628077570347,0.8749266852691769
1772641380087927000,2.648927001953125,-0.5731979471176862,-0.31985067029744385,0.8380207038067281
1772641380097972200,2.65897216796875,-0.7259615739434957,-0.3804970813747495,0.8372446779329329
1772641380108017200,2.66901708984375,-0.8698796310126781,-0.3724727648731321,0.829984039280191
1772641380118062300,2.679062255859375,-0.9874164616346359,-0.1939549939898774,0.5697531769586727
1772641380128108300,2.6891083984375,-1.1279103894740343,0.13686605619844047,0.17305256427992136
1772641380138153000,2.699153076171875,-1.364117438662052,0.39722251766100525,-0.12494396507330238
1772641380148198100,2.7091982421875,-1.599020419514179,0.572979153267853,-0.2740267844945192
1772641380158243000,2.7192431640625,-1.8136919287204742,0.7545425023920833,-0.32368056731652467
1772641380168288300,2.729288330078125,-1.8222604351013898,0.9196673058800399,-0.34062589343115685
1772641380178334200,2.739334228515625,-1.5143722975373268,1.0777342267457395,-0.37812107295840974
1772641380188379400,2.74937939453125,-1.54237849483788,1.1380861118558794,-0.2916373695848509
1772641380198424000,2.759424072265625,-1.4756886388778685,1.241923283753544,-0.2877487281158566
1772641380208469200,2.76946923828125,-1.3059744617730378,1.3469519304580986,-0.30395985820442434
1772641380218514200,2.77951416015625,-1.2107891636908055,1.3007445982955395,-0.3047856415040791
1772641380228559400,2.789559326171875,-1.017254550537467,1.2350287019342183,-0.32035350525304673
1772641380238605300,2.799605224609375,-0.6772025114715099,1.1671410144917667,-0.35902810382321476
1772641380248650000,2.80964990234375,-0.28227614192366596,1.1258633938163518,-0.3854851719856262
1772641380258695200,2.819695068359375,0.18114216457009313,1.118255841422081,-0.3920956761665642
1772641380268740000,2.829739990234375,0.7104185523748398,1.1341497953202575,-0.402513536741212
1772641380278785300,2.839785400390625,1.136892737352848,1.1309941808335482,-0.38473391522690653
1772641380288831200,2.849831298828125,1.4341256253898143,1.138250289441645,-0.35501850285567343
1772641380298876200,2.859876220703125,1.6044722551792858,1.1143376450650393,-0.3183125740099698
1772641380308921000,2.869921142578125,1.6890730308830737,1.0211766193520277,-0.28430713629461823
1772641380318966300,2.87996630859375,1.7105600555479525,0.8917433800354599,-0.274673411834985
1772641380329011200,2.89001123046875,1.7355962971270082,0.7385857854560017,-0.3510118244975805
1772641380339057200,2.90005712890625,1.7806261099427938,0.6473478367600589,-0.5172857980206609
1772641380349102300,2.910102294921875,1.8321306717306374,0.5837990918373689,-0.722288365323469
1772641380359147000,2.92014697265625,1.7786773139625787,0.5295796450676397,-0.8752811977952718
1772641380369192200,2.930192138671875,1.6219915452569722,0.41231878184285015,-0.9248019653547555
1772641380379237000,2.940237060546875,1.3934388102144002,0.27627538540521634,-0.9114638334192335
1772641380389283000,2.950282958984375,1.1691951705425978,0.198329281817656,-0.9221149182278663
1772641380399328300,2.960328369140625,1.0468880567789076,0.1898065690735355,-0.9403248209182172
1772641380409373200,2.970373291015625,0.9216109872937202,0.1719920771752484,-0.920430837598443
1772641380419418000,2.980418212890625,0.804610163244605,0.18736964251650495,-0.8626797826364636
1772641380429463000,2.990463134765625,0.6829635592162608,0.21014193948525933,-0.7468652457624674
1772641380439509200,3.00050927734375,0.6087392160981894,0.2220295255525969,-0.6104548609096556
1772641380449554200,3.01055419921875,0.5628612620204687,0.210108895732183,-0.46744003629051145
1772641380459599400,3.020599365234375,0.6188420924395323,0.1914812060211785,-0.32782142998091873
1772641380469644300,3.030644287109375,0.690391663390398,0.15407657258789986,-0.1934791566390544
1772641380479689200,3.040689208984375,0.825203453940153,0.12740293906535952,-0.07227678924687206
1772641380489734100,3.050734130859375,0.9317185398101806,0.09153015484185889,-0.027431466152518985
1772641380499780000,3.060780029296875,1.0038292517751455,0.025248916215356437,-0.02569982005432248
1772641380509825300,3.0708251953125,1.0470382789045571,-0.07732785295820795,-0.02331613978818059
1772641380519870200,3.0808701171875,1.0872598146557808,-0.20966789223272353,-0.04317994716539979
1772641380529915100,3.0909150390625,1.1176596290946006,-0.3019732692307792,-0.09407594860084355
1772641380539960000,3.1009599609375,1.1285217993706465,-0.3691390173405409,-0.14544906602874397
1772641380550006300,3.11100634765625,1.121866433134675,-0.40937545839995143,-0.17747443584278225
1772641380560051200,3.12105126953125,1.0094289714783429,-0.4467454406449571,-0.18053718441426753
1772641380570096000,3.13109619140625,0.8385299685031176,-0.44471521345898507,-0.2113973098412156
1772641380580141300,3.141141357421875,0.6618652416080236,-0.44484402747042473,-0.25233072018884123
1772641380590186200,3.151186279296875,0.5011100315064192,-0.4627612308245152,-0.2691032104872167
1772641380600232200,3.161232177734375,0.24212299523353575,-0.48808947762008753,-0.25774996875859796
1772641380610277000,3.171277099609375,-0.0803437027812004,-0.5513005515536293,-0.22236462099216878
1772641380620322300,3.181322265625,-0.3722615332752466,-0.6190325735103338,-0.1965615597590804
1772641380630367200,3.1913671875,-0.5688561185210943,-0.6406253235720097,-0.23242519256174562
1772641380640412200,3.201412109375,-0.6948281845331191,-0.6070659856563434,-0.3288893514733761
1772641380650458000,3.2114580078125,-0.7857341978609561,-0.5877884172018617,-0.38649602952860296
1772641380660503000,3.2215029296875,-0.8741519015043974,-0.5793175259765238,-0.36181671162843704
1772641380670548200,3.23154833984375,-0.9378887528777122,-0.5808888669464737,-0.3060624565068632
1772641380680593200,3.24159326171875,-0.9690917003929614,-0.5775023663133383,-0.27778730607181784
1772641380690638300,3.251638427734375,-0.9384358653664588,-0.5551332250516862,-0.27458266481161114
1772641380700683000,3.26168310546875,-0.9126905987352132,-0.5440031976196915,-0.26891806317865846
1772641380710729200,3.271729248046875,-0.8493085521489381,-0.5358632919143885,-0.31029870583713054
1772641380720774100,3.281774169921875,-0.761733729070425,-0.5422395489480346,-0.32068434464260936
1772641380730819300,3.2918193359375,-0.6562585076421499,-0.6039950903110206,-0.33447387360744174
1772641380740864300,3.3018642578125,-0.5556476773798465,-0.606812193558365,-0.3389072529450059
1772641380750909200,3.3119091796875,-0.4217886575102806,-0.574385220673494,-0.333258871794492
1772641380760955100,3.321955078125,-0.3150841865479946,-0.5447803560046479,-0.3507410447321832
1772641380771000000,3.332,-0.2888064204752445,-0.5207184028178453,-0.33283860055580733
1772641380781045200,3.342045166015625,-0.2981552635788917,-0.4602419780125841,-0.3497546640433371
1772641380791090200,3.352090087890625,-0.35161154395639893,-0.39443854949828233,-0.3985054701436311
1772641380801135400,3.36213525390625,-0.452623940756917,-0.3323870939286426,-0.4276148063804954
1772641380811181300,3.372181396484375,-0.5312386277884245,-0.26868166060689835,-0.45466501813046634
1772641380821225200,3.38222509765625,-0.6285352189362049,-0.18205617414247244,-0.4905498398516327
1772641380831270100,3.392270263671875,-0.7491881357520819,-0.17596351982317865,-0.469686353912577
1772641380841315000,3.402315185546875,-0.9353437445700168,-0.32568734056167303,-0.369650254798308
1772641380851360000,3.412360107421875,-0.8323965803146361,-0.44543410231806335,-0.3630613048620522
1772641380861406200,3.42240625,-0.6308657077103853,-0.40130138447247443,-0.46520416699722406
1772641380871451100,3.432451171875,-0.4701730414509773,-0.3788743024785071,-0.524214501305297
1772641380881496000,3.44249609375,-0.4340957658976316,-0.4691652526479214,-0.5033364753842353
1772641380891541000,3.452541015625,-0.36184184606969355,-0.38457974757850166,-0.6352911229372025
1772641380901586200,3.462586181640625,-0.4032914623111486,-0.03155824549263343,-0.9828164935585111
1772641380911631000,3.472631103515625,-0.6586591390430927,0.3872857551341876,-1.2687854255855082
1772641380921677000,3.482677001953125,-0.9733271460056304,0.6560400425858796,-1.296065354438126
1772641380931722200,3.49272216796875,-1.2528069352090359,0.7555470032595097,-1.07049938012138
1772641380941767200,3.50276708984375,-1.4375082535654307,0.819790342850238,-0.7470936476908624
1772641380951812000,3.51281201171875,-1.530209333616495,0.9115162942588328,-0.4265428663000464
1772641380961857000,3.52285693359375,-1.3249088793456554,1.1021284440942107,-0.18466902352198958
1772641380971903000,3.532903076171875,-1.0458885243475438,1.2092445645973087,-0.007230828036367893
1772641380981948200,3.5429482421875,-0.7573357863724232,1.1879010400563477,0.0896079363413155
1772641380991993000,3.5529931640625,-0.5121557416558266,1.1363779196985064,0.05377886339537799
1772641381002038000,3.5630380859375,-0.3579997836887836,1.0589384869914502,-0.04876943773552775
1772641381012083000,3.5730830078125,-0.26422961310148235,0.9553202185414731,-0.18790201409384608
1772641381022129200,3.583129150390625,-0.1777893470108509,0.8970238046564162,-0.29078699983321127
1772641381032174000,3.593174072265625,-0.13100479948222638,0.8444579703126103,-0.3516918426509946
1772641381042219300,3.60321923828125,-0.03364624901413917,0.8307549505874514,-0.3471910241004079
1772641381052264200,3.61326416015625,0.22210370503365992,0.8109845205821097,-0.30316658893488346
1772641381062309000,3.62330908203125,0.4845411740213632,0.7907189274709672,-0.23511896169036625
1772641381072355000,3.63335498046875,0.7874030078560114,0.7617716499280184,-0.14369053192362188
1772641381082400000,3.64339990234375,1.067904541322589,0.7002431222539395,-0.08387414192967116
1772641381092445200,3.653445068359375,1.3606857106477022,0.6280800955798477,-0.027111878809332846
1772641381102490000,3.663489990234375,1.6105267329126596,0.5442492813352495,-0.002441547933220863
1772641381112535000,3.67353515625,1.7943156125992537,0.49749848994575435,0.005635886995121836
1772641381122581000,3.6835810546875,1.928335960510373,0.4542286725398153,0.019411752760782837
1772641381132626200,3.693626220703125,2.0080776057451963,0.4367600897360593,0.032948622138798234
1772641381142671000,3.703671142578125,1.9098393498331308,0.4113817932536825,0.06010470541603863
1772641381152716000,3.713716064453125,1.820398732882738,0.4195713102543726,0.08822071976661681
1772641381162761200,3.72376123046875,1.8080495389193296,0.44759179180860514,0.10348945443853735
1772641381172806100,3.73380615234375,1.7883879761159418,0.48629879481103266,0.182303134640865
1772641381182852000,3.74385205078125,1.7190771240025757,0.501619771126844,0.2779570731481537
1772641381192897000,3.75389697265625,1.6865952425926922,0.5593464588325471,0.351010947714746
1772641381202942200,3.763942138671875,1.6366519387722014,0.6653573215074837,0.3704544838532805
1772641381212987100,3.773987060546875,1.5162527044564484,0.775068426939845,0.3792716312330216
1772641381223032000,3.784031982421875,1.3469529533714055,0.8540886260323226,0.403636439823918
1772641381233078000,3.794078125,1.0413836141437292,0.8857236082892864,0.397226243988052
1772641381243123000,3.804123046875,0.7126321367710828,0.9060555446349083,0.34256497173495587
1772641381253168000,3.814168212890625,0.3799421509057283,0.8873601965151726,0.2812556397695094
1772641381263213000,3.824213134765625,0.14638766205310821,0.8078926920466124,0.2406037497770041
1772641381273258200,3.83425830078125,-0.007445055308938026,0.686820234644413,0.2243470269810408
1772641381283303000,3.844302978515625,-0.0734814157962799,0.575210748244822,0.16809322483949363
1772641381293349000,3.85434912109375,-0.009778466692566871,0.4612009957704693,0.0837184399113059
1772641381303394000,3.86439404296875,0.031189503511786457,0.32738800699971615,-0.03107150315530598
1772641381313439200,3.874439208984375,0.034734044250845905,0.18684698861557988,-0.13646942156367003
1772641381323484200,3.884484130859375,-0.027820903861522674,0.026413521281629798,-0.23725706969760357
1772641381333529000,3.894529052734375,-0.12772446263730525,-0.137261667919904,-0.2681385301735252
1772641381343575000,3.904574951171875,-0.1816618045300245,-0.2834303534600884,-0.2787018636334687
1772641381353620000,3.914619873046875,-0.17710370283424853,-0.35997378717549144,-0.22665128533542156
1772641381363665200,3.9246650390625,-0.07508534386157989,-0.38264300736226137,-0.18249438289664685
1772641381373710000,3.9347099609375,-0.014556348618865012,-0.3723532301466912,-0.07703596647270024
1772641381383755300,3.94475537109375,0.03136602912247181,-0.3678706779051572,0.07428827519975602
1772641381393801200,3.95480126953125,0.05173310984671116,-0.35769970476366575,0.22877887194864452
1772641381403846100,3.96484619140625,0.06437631832063198,-0.32310521511398255,0.34772790745608506
1772641381413891000,3.97489111328125,0.05248188238739967,-0.29336101503968237,0.3865669758729636
1772641381423936300,3.984936279296875,0.006757073044776916,-0.25923713857643305,0.4363774470940232
1772641381433981200,3.994981201171875,-0.058307227540016174,-0.2510324240066111,0.49514630079641936
1772641381444027100,4.005027099609375,-0.10836918930411338,-0.2681992473848164,0.5543045191425829
1772641381454072000,4.015072021484375,-0.18059797469079494,-0.29308285568542775,0.5665321325529367
1772641381464117000,4.025116943359375,-0.258887083029747,-0.32329839959852397,0.5311730152063071
1772641381474162200,4.035162109375,-0.32544892869591713,-0.38455848559476435,0.4713843900021165
1772641381484207000,4.04520703125,-0.4154670532733202,-0.45673035316243765,0.4107510941347107
1772641381494253000,4.055253173828125,-0.5116173969954252,-0.5227099419612438,0.358775882627815
1772641381504298200,4.06529833984375,-0.5461269848406315,-0.5892855969570577,0.31231256641019134
1772641381514343000,4.075343017578125,-0.5186199692338704,-0.696993838134408,0.22738018413186073
1772641381524388000,4.08538818359375,-0.4925006085932255,-0.8108400706101209,0.127140050345473
1772641381534433000,4.09543310546875,-0.42818215793967246,-0.9137383542224764,0.027247378289885816
1772641381544478200,4.105478271484375,-0.35415070704519747,-1.02344536800161,-0.06115209557712078
1772641381554524200,4.115524169921875,-0.2573486214160919,-1.1054009629588573,-0.10647581330556422
1772641381564569000,4.125569091796875,-0.14235679910182952,-1.153115338683501,-0.11651881268583238
1772641381574614000,4.135614013671875,-0.055900166398286814,-1.1396708237640558,-0.07701945372931658
1772641381584659200,4.1456591796875,0.0281944133490324,-1.0766928279340267,-0.013790698008611798
1772641381594704100,4.1557041015625,0.08522212247252464,-0.9870525967583059,0.08055690714046358
1772641381604750000,4.16575,0.15138006351292133,-0.9001650252915918,0.1704344176707789
1772641381614795300,4.175795166015625,0.23530980808734892,-0.7953126119367778,0.1946010733410716
1772641381624840000,4.18583984375,0.30148820739388466,-0.6682832188915461,0.1800936053652316
1772641381634885000,4.195885009765625,0.24571312867999076,-0.5301800951788201,0.14080061916839332
1772641381644930000,4.205929931640625,0.09386427861154079,-0.39053503925371913,0.12044676325190812
1772641381654975200,4.215975341796875,-0.09010463381707667,-0.27819248933922497,0.14725253525413573
1772641381665021200,4.226021240234375,-0.20147008232772348,-0.1669596542323008,0.20842435844503343
1772641381675066000,4.236066162109375,-0.2869453027784824,-0.14928955750707537,0.2791523473473266
1772641381685111000,4.246111083984375,-0.40497956152856346,-0.2375529108390212,0.343203744562529
1772641381695156200,4.25615625,-0.5247580335974693,-0.3853318445874378,0.30644688924718644
1772641381705201200,4.266201171875,-0.6419955890119076,-0.4965657026076689,0.23542952547688037
1772641381715247000,4.2762470703125,-0.6964058091133832,-0.5240012604134157,0.18948208635952324
1772641381725292300,4.286292236328125,-0.7031278108447789,-0.5311918660372495,0.22549539329856633
1772641381735337000,4.2963369140625,-0.7116074698984622,-0.5369092573033646,0.27371910678483546
1772641381745382100,4.306382080078125,-0.7271715342551469,-0.49346660408116877,0.22419855842106043
1772641381755427000,4.316427001953125,-0.7265618779242038,-0.3554101325217634,0.030163631062768398
1772641381765473000,4.32647314453125,-0.7992150262027978,-0.20259035506192594,-0.17243552836012094
1772641381775518200,4.336518310546875,-0.9981634810984135,-0.15254194689914582,-0.3899766016533598
1772641381785563000,4.34656298828125,-1.2063941436022518,-0.10220796326063573,-0.6026628187939524
1772641381795608000,4.356608154296875,-1.3032336386322974,0.004256817194260657,-0.7909873691488057
1772641381805653000,4.366653076171875,-1.3916624481916426,0.10056370318494737,-0.8958865442547946
1772641381815699200,4.37669921875,-1.4320067335397004,0.24018629154991358,-0.922311682908982
1772641381825744400,4.386744384765625,-1.4342407762020826,0.4622074328666553,-0.9603002719763666
1772641381835789300,4.396789306640625,-1.5099638334453105,0.6877214212678372,-0.9862455181591212
1772641381845834200,4.406834228515625,-1.5684475865960121,0.8665829275548458,-0.9499737429469823
1772641381855879400,4.41687939453125,-1.54504566822052,1.0205814299378544,-0.8500731067806482
1772641381865924400,4.42692431640625,-1.4065829539477825,1.190224222306907,-0.6834278887923807
1772641381875970300,4.43697021484375,-1.1267378385633229,1.3614498268879949,-0.49830984286125746
1772641381886015500,4.447015380859375,-0.7380091546118259,1.491142374727875,-0.29317974018864335
1772641381896060200,4.45706005859375,-0.3007008564084768,1.5419281207218765,-0.08409655250869691
1772641381906105300,4.467105224609375,0.18855857830643652,1.5210181652925907,0.14775847548227755
1772641381916150300,4.477150390625,0.7822831806242465,1.4943598754696548,0.3386514150204137
1772641381926196200,4.4871962890625,1.3275152624517679,1.4787182158321142,0.43875878927260636
1772641381936241400,4.497241455078125,1.7530156339615581,1.4796141417585313,0.47885406829565763
1772641381946286000,4.5072861328125,2.038807675051689,1.3962652658119796,0.4906904904313385
1772641381956331300,4.517331298828125,2.127752032917738,1.2672441874928773,0.44884668724052607
1772641381966376200,4.527376220703125,2.0612498084843156,1.1772636184468865,0.3140281746890396
1772641381976422400,4.53742236328125,1.8933312826246023,1.108699127721414,0.14528803024813533
1772641381986467300,4.54746728515625,1.6846341716527937,1.0662047516673803,0.027590017715096473
1772641381996512500,4.557512451171875,1.540149712872505,1.06758539237082,-0.07391582515817136
1772641382006557200,4.56755712890625,1.357308343169093,1.1105763197701424,-0.15575131913339718
1772641382016602400,4.577602294921875,1.1426374184846877,1.1434545800864695,-0.13866808238541706
1772641382026647300,4.587647216796875,1.0305687901407479,1.1269273697860538,-0.06225366361085325
1772641382036693200,4.597693359375,1.0274065267175436,1.0860374332539737,0.10663911410849541
1772641382046738400,4.607738525390625,1.1043412978380918,1.0343328188493848,0.28454101811572907
1772641382056783000,4.617783203125,1.1856781033098698,0.958381798069179,0.3810235164016485
1772641382066828300,4.627828369140625,1.2105787358105182,0.8619584826245903,0.43093927462808784
1772641382076873200,4.637873291015625,1.1760089422106743,0.7283189507246017,0.42428273934833705
1772641382086919400,4.64791943359375,1.0453256297677755,0.5622878825793043,0.3286148819135502
1772641382096964400,4.65796435546875,0.7944973500311374,0.38343532678373154,0.18064625254562122
1772641382107009500,4.668009521484375,0.5208586880713701,0.20858933974839747,0.013016699695121496
1772641382117054200,4.67805419921875,0.3602876023650169,0.007536167658492922,-0.1251305736865848
1772641382127099400,4.688099365234375,0.3049181818425655,-0.1398513190869242,-0.2204425486220978
1772641382137145300,4.698145263671875,0.23888474396467207,-0.24803864901810882,-0.34024317772388457
1772641382147190300,4.708190185546875,0.20025661488473415,-0.3439204779971391,-0.4289934743225574
1772641382157235500,4.7182353515625,0.24962416464388368,-0.4623378543132916,-0.45968061780277636
1772641382167280000,4.728280029296875,0.2925438534379005,-0.5649743817169219,-0.479155389329791
1772641382177325300,4.7383251953125,0.41188919478654856,-0.624210049213469,-0.444841689382866
1772641382187371300,4.748371337890625,0.5804729065567255,-0.6334501712456345,-0.39133660142757
1772641382197416200,4.758416259765625,0.6802127992033958,-0.6245775673516094,-0.3362652870688587
1772641382207461400,4.76846142578125,0.665253130480647,-0.576893367569521,-0.32724786787666377
1772641382217506300,4.77850634765625,0.5997293956905603,-0.5209773460149765,-0.3512050820473581
1772641382227551200,4.78855126953125,0.5115799875944853,-0.4926627403523773,-0.34953923119436947
1772641382237596200,4.79859619140625,0.4073410299628973,-0.4699787609878927,-0.3062717518759891
1772641382247642400,4.808642333984375,0.331862887391448,-0.4234107788193971,-0.2611357752719894
1772641382257687300,4.818687255859375,0.23959201545119285,-0.38742304471302774,-0.25961680381009355
1772641382267732500,4.828732421875,0.05088379954099655,-0.3543569702070206,-0.32571039264369755
1772641382277777400,4.83877734375,-0.13549626568257808,-0.34541287197936327,-0.3444891447305679
1772641382287822300,4.848822265625,-0.26411212420165536,-0.35055597048886117,-0.36499855653494595
1772641382297868300,4.858868408203125,-0.3381558500558138,-0.37038390283510086,-0.368339172199741
1772641382307913200,4.868913330078125,-0.39074586899280545,-0.3823644096165895,-0.42344848048128186
1772641382317958400,4.87895849609375,-0.46357495836019513,-0.4112460745774209,-0.5255885661374777
1772641382328003300,4.88900341796875,-0.6956739877074957,-0.45164574337452645,-0.6079687431823462
1772641382338048300,4.89904833984375,-0.9512035770028829,-0.42637894444260743,-0.6552591213412583
1772641382348093200,4.90909326171875,-1.0500240167170762,-0.3884263034714386,-0.6497701685361563
1772641382358139400,4.919139404296875,-0.9941495692819357,-0.41446251587327565,-0.5723392113965005
1772641382368184300,4.929184326171875,-0.842915636241436,-0.48467959611136463,-0.49900107652842995
1772641382378229500,4.9392294921875,-0.6564040535926818,-0.560230548190698,-0.43756008100733157
1772641382388274400,4.9492744140625,-0.4942325469523668,-0.6468097843606024,-0.3673536682937294
1772641382398319400,4.9593193359375,-0.3665916709452867,-0.7014004025302827,-0.30721294171623886
1772641382408365300,4.969365234375,-0.2796019542783499,-0.7248371730234473,-0.2282896088606678
1772641382418410200,4.97941015625,-0.20464462071061132,-0.7228965603496879,-0.1386692696955055
1772641382428455400,4.989455322265625,-0.15483049622774123,-0.6822806915186345,-0.07669310785178095
1772641382438500400,4.999500244140625,-0.08235854973495006,-0.6458318061739206,0.01521245617372915
1772641382448545300,5.009545166015625,-0.0835854611814022,-0.6061228961199522,0.0891974558442831
1772641382458591200,5.01959130859375,-0.1721253298997879,-0.5469616455664857,0.08676188099412246
1772641382468636200,5.02963623046875,-0.28126375001072884,-0.5025768891885877,0.05580477973241359
1772641382478681300,5.039681396484375,-0.3932885392129421,-0.4670192170625552,-0.0004466295226477086
1772641382488726300,5.049726318359375,-0.5670259804844856,-0.45986795706842093,-0.054854347139783204
1772641382498771500,5.059771484375,-0.6179770000427961,-0.5956017943665385,-0.026689342548325657
1772641382508816100,5.069816162109375,-0.5797901849895716,-0.7552829454958438,0.009380845677107572
1772641382518862300,5.0798623046875,-0.5165156904309988,-0.7610121367976069,-0.06247446675468236
1772641382528907300,5.0899072265625,-0.5196744467228651,-0.7001669152125716,-0.15259037088444455
1772641382538952400,5.099952392578125,-0.6248831261694431,-0.6616350130487233,-0.15225801539123057
1772641382548997400,5.109997314453125,-0.7303080787152052,-0.5899484447799622,-0.12477317508365958
1772641382559042300,5.120042236328125,-0.8597872760653495,-0.407754725330323,-0.12364263668376951
1772641382569088300,5.130088134765625,-0.9520984800159931,-0.17616949072405694,-0.14237815241711213
1772641382579133200,5.14013330078125,-1.0541782137870788,0.04127396741360426,-0.1589345522793941
1772641382589178400,5.150178466796875,-1.1014157657802104,0.25764928486309946,-0.14350852642022072
1772641382599223300,5.160223388671875,-1.0601578727185725,0.408951095508039,-0.1509384572252631
1772641382609268500,5.1702685546875,-0.9917273105710744,0.606436126787588,-0.18571358240516855
1772641382619314400,5.180314453125,-0.875305163192749,0.8175805578462779,-0.17138587317671625
1772641382629359400,5.190359375,-0.763037212884426,0.9882753434862941,-0.13565962128443643
1772641382639404300,5.200404296875,-0.7422644739687443,1.1205294123772531,-0.08676228285292163
1772641382649449500,5.210449462890625,-0.7833037558436393,1.220906872275099,-0.061535286208428436
1772641382659494400,5.220494384765625,-0.7450491362512112,1.2819710703730582,-0.1135205624516122
1772641382669539300,5.230539306640625,-0.6034709203064441,1.2845663475632667,-0.22591086049797013
1772641382679585300,5.240585205078125,-0.3688806586652994,1.254368339306861,-0.33099034234061836
1772641382689630200,5.250630126953125,-0.06899930194616317,1.1672802037667482,-0.4007336675871163
1772641382699675400,5.26067529296875,0.28225217652618884,1.0908321201846003,-0.4390036308791488
1772641382709720300,5.27072021484375,0.6078571725666523,1.055555201228708,-0.4288651717677712
1772641382719765500,5.280765625,0.9359300200253724,1.008043362338841,-0.34790048754401504
1772641382729811500,5.2908115234375,1.2050988430947065,0.937039223376289,-0.298183083167579
1772641382739856100,5.300856201171875,1.3694079462856052,0.9224662889488041,-0.2485080748944543
1772641382749901300,5.3109013671875,1.4143261154204607,0.9050589348129927,-0.22101253052977843
1772641382759946200,5.3209462890625,1.4509090024083853,0.9136651428557931,-0.15225264509636907
1772641382769991400,5.330991455078125,1.3673340626209973,0.9733188165687024,-0.08450345280915499
1772641382780037400,5.341037353515625,1.2919365840703247,1.0263391897469758,0.017811733685620126
1772641382790082300,5.351082275390625,1.2356272523492573,1.0606646531969308,0.15324877999424932
1772641382800127200,5.361127197265625,1.2686492319852114,1.0335058665059507,0.2977634147170931
1772641382810172400,5.37117236328125,1.353904672205448,1.007529129206389,0.39749892344959076
1772641382820217300,5.38121728515625,1.4614847569584846,0.9514484916746616,0.454384520688653
1772641382830263000,5.391262939453125,1.5449281793206928,0.8919248740822077,0.4424512871149927
1772641382840309200,5.401309326171875,1.560146206718683,0.8351059854038059,0.4193899623380974
1772641382850354200,5.411354248046875,1.531158597165346,0.8257138876803218,0.35300153701007364
1772641382860399400,5.4213994140625,1.4061772957563399,0.8216061601005494,0.26063666664343327
1772641382870444300,5.4314443359375,1.1965969722092151,0.8026023305535316,0.17659239231124518
1772641382880489200,5.4414892578125,0.9588181436598301,0.767503106252104,0.0873193870127201
1772641382890535200,5.45153515625,0.7306319038420915,0.7016878411695361,-0.016721929154917596
1772641382900580000,5.461580078125,0.5486790074110031,0.6530920795004814,-0.10241546853147447
1772641382910625300,5.471625244140625,0.3909270707786083,0.6016155747633427,-0.21792850170824676
1772641382920670200,5.481670166015625,0.24666648388206958,0.5120880101818591,-0.3424976055871695
1772641382930715100,5.491715087890625,0.1581868209183216,0.43614210396818814,-0.4707881411420181
1772641382940760000,5.501760009765625,0.04640753090977669,0.3131733114253729,-0.6512202212139964
1772641382950806000,5.511805908203125,-0.08299567859470844,0.12088416828848421,-0.8004236713401973
1772641382960851200,5.521851318359375,-0.1597644454985857,-0.04675312947705388,-0.8995945319272577
1772641382970896100,5.531896240234375,-0.2026677676796913,-0.20014453281238673,-0.9695314069844782
1772641382980941300,5.54194140625,-0.18344868794679642,-0.2951854539878666,-0.982009634155035
1772641382990986000,5.551986083984375,-0.16172200930714606,-0.382998104410246,-0.9638133215986192
1772641383001032200,5.5620322265625,-0.14223404950499532,-0.43573476527631283,-0.9141026574902236
1772641383011077000,5.5720771484375,-0.09050210870206356,-0.487628691707924,-0.7834723904088139
1772641383021122300,5.582122314453125,0.017193126863241193,-0.5038987123768777,-0.6339133317779749
1772641383031167200,5.592167236328125,0.1797849047422409,-0.4636752769295126,-0.514922210694477
1772641383041212200,5.602212158203125,0.36789398571550846,-0.38650209394320845,-0.4211686259157955
1772641383051258000,5.612258056640625,0.4742331304967403,-0.3232455003675073,-0.3512425279809162
1772641383061303000,5.622302978515625,0.49086511634588237,-0.2989402764767408,-0.2754321943130344
1772641383071348200,5.63234814453125,0.47369478583633895,-0.29863749413788315,-0.15983561103865504
1772641383081393200,5.64239306640625,0.4212076427519321,-0.3086278134828433,-0.02956201190780848
1772641383091438300,5.652438232421875,0.42261517146229743,-0.2780621409578249,0.06758826610445975
1772641383101483000,5.66248291015625,0.4559299965649843,-0.2276089879190549,0.12116409947471693
1772641383111529200,5.672529296875,0.4150210630714893,-0.1958757694520056,0.15868176482841373
1772641383121574100,5.68257421875,0.30279461381733414,-0.21590985536221413,0.15408351378533988
1772641383131619300,5.692619384765625,0.12170038004219531,-0.2557822854148224,0.16197693391628562
1772641383141664300,5.702664306640625,-0.08236848660707473,-0.2659957459911704,0.1673220943365246
1772641383151709200,5.712709228515625,-0.19371055424213407,-0.2529974039366469,0.1693338360177353
1772641383161755100,5.722755126953125,-0.24657179133594034,-0.25531649453397837,0.15777002027835696
1772641383171800000,5.732800048828125,-0.2672743876248598,-0.29739191452357916,0.08828300788048654
1772641383181845200,5.74284521484375,-0.25205226857364177,-0.38434181063678113,-0.004104549241997301
1772641383191890200,5.75289013671875,-0.2239209835886955,-0.5158185019470751,-0.06533277879524976
1772641383201935400,5.762935302734375,-0.18179566004276274,-0.6456183095537126,-0.11956775192767381
1772641383211980000,5.77297998046875,-0.1395773975163698,-0.7468506327152252,-0.1368870624538511
1772641383222026000,5.78302587890625,-0.1170043311804533,-0.8414867724820971,-0.17485749481003732
1772641383232071200,5.7930712890625,-0.08425707683265209,-0.9042217533364891,-0.1917373910056427
1772641383242116000,5.8031162109375,-0.049860886234045027,-0.9504738014236092,-0.1791908113066107
1772641383252161300,5.813161376953125,-0.030560557958483694,-0.9536470246322453,-0.1432848737321794
1772641383262206000,5.8232060546875,-0.04418868581652641,-0.9295163535907864,-0.10426927970461547
1772641383272252200,5.833252197265625,-0.027331659039855002,-0.8809111665062606,-0.0578395734956488
1772641383282297000,5.843297119140625,-0.03341770095527172,-0.8261150158271193,-0.007731617165356874
1772641383292342300,5.85334228515625,-0.0007768295913934707,-0.7357239662840962,0.019362981715612113
1772641383302387200,5.86338720703125,0.03378536522388458,-0.6607995120726525,0.04150041484693065
1772641383312432400,5.873432373046875,0.04690963521301746,-0.5396569851089269,0.09970078447898849
1772641383322478300,5.883478271484375,0.008475567400455474,-0.4190674523854628,0.1882783000603318
1772641383332523000,5.89352294921875,-0.0733247639298439,-0.3095837625008076,0.2722876857422292
1772641383342568200,5.903568115234375,-0.16219956369102,-0.18953491252530366,0.316587065391615
1772641383352613000,5.913613037109375,-0.30014205348193645,-0.0948850730266422,0.3600526976305991
1772641383362658300,5.923658203125,-0.47103754932582376,-0.08745547101516277,0.4515328575845807
1772641383372703000,5.933702880859375,-0.5811427686423063,-0.22733517594635486,0.6010189605770633
1772641383382749200,5.943749267578125,-0.6138175422757863,-0.44101274221185593,0.6852132378391921
1772641383392794000,5.953794189453125,-0.5439139849662781,-0.5871120523102581,0.6212433814276009
1772641383402839300,5.96383935546875,-0.46981648309826846,-0.6206082983944564,0.5488989337719976
1772641383412884200,5.97388427734375,-0.47206864593923087,-0.6919072555851191,0.5935522048929706
1772641383422929400,5.983929443359375,-0.6273176598399877,-0.7803287586208433,0.5626071411289274
1772641383432975400,5.993975341796875,-0.8022866887331008,-0.5935227961353957,0.18841949862930923
1772641383443020000,6.00402001953125,-0.9502508063226938,-0.2525777172198519,-0.3049929275792092
1772641383453065200,6.014065185546875,-1.1882166818767785,-0.04793726122770458,-0.5680077580634504
1772641383463110100,6.024110107421875,-1.3988491448253393,0.07892510468754917,-0.6366223715409636
1772641383473155300,6.0341552734375,-1.4125602747917174,0.20596187732163815,-0.5923082327138632
1772641383483200000,6.044199951171875,-1.2921131096810101,0.3748487002242356,-0.6056769424507394
1772641383493246000,6.054245849609375,-1.1572072111070155,0.5237195573952048,-0.701749508228898
1772641383503291100,6.064291015625,-1.0501935280650854,0.6336067500468343,-0.8745853975508362
1772641383513336000,6.074336181640625,-0.8204670730680227,0.7119862400829792,-1.034850339917466
1772641383523381200,6.08438134765625,-0.6546054797381162,0.7672548305794596,-1.0677361259531228
1772641383533426200,6.09442626953125,-0.7009294240176678,0.6279834302723407,-0.7675492834813893
1772641383543472400,6.104472412109375,-0.41162206828296183,0.7727468521244824,-0.4908009285358712
1772641383553517000,6.11451708984375,-0.023092121773958203,0.9839183903858065,-0.24371815547049044
1772641383563562200,6.124562255859375,0.3273790199756622,1.0745609304718673,0.009992620899900793
1772641383573607200,6.134607177734375,0.7326917589813471,1.1649411663599312,0.2093930573467165
1772641383583652400,6.14465234375,1.1247340975254774,1.2907159562341868,0.3582397299245
1772641383593697000,6.154697021484375,1.4149842870682476,1.3668173452705144,0.465609277199395
1772641383603743000,6.164742919921875,1.5935294208824633,1.4481979898840187,0.5066179082076996
1772641383613788200,6.1747880859375,1.6317939773470163,1.5277221929758786,0.47944626203514634
1772641383623833000,6.1848330078125,1.5668191086113452,1.5277838600352405,0.4193970861986279
1772641383633878300,6.194878173828125,1.448205004146695,1.4256978426538407,0.36714177910871804
1772641383643923200,6.204923095703125,1.37048112847507,1.274341598407924,0.2541869425147772
1772641383653969400,6.214969482421875,1.295795013064146,1.1391037644658237,0.11384095351239666
1772641383664014000,6.22501416015625,1.2995710244715213,1.029720064356923,-0.04885788320396095
1772641383674059300,6.235059326171875,1.2164607795864344,0.9157374190852046,-0.1982106786729768
1772641383684104200,6.245104248046875,1.0422206494897603,0.8209338137969374,-0.35358777593281115
1772641383694149400,6.2551494140625,0.7991051360875367,0.764210640577972,-0.47842155862990765
1772641383704195300,6.2651953125,0.5021159936785697,0.7424898071572185,-0.4774542114350944
1772641383714240000,6.275239990234375,0.21947394105195997,0.7220632513307035,-0.45444571282397955
1772641383724285200,6.28528515625,0.0055085342884063715,0.7077355969011783,-0.43151301939543335
1772641383734330000,6.295330078125,-0.1729535974174738,0.7179309738315641,-0.4646603424441069
1772641383744375300,6.305375244140625,-0.22353169201016423,0.7549568553466349,-0.541792974224314
1772641383754420200,6.315420166015625,-0.2511141109406948,0.6783963974311947,-0.5996077420722693
1772641383764466200,6.325466064453125,-0.25007015484571454,0.5458945643242449,-0.6178733204726129
1772641383774511000,6.335510986328125,-0.19361644621789453,0.4164691429879516,-0.6151669110581278
1772641383784556000,6.34555615234375,-0.164234284389019,0.27380466617643834,-0.591994855915755
1772641383794601200,6.355601318359375,-0.1009393315643072,0.15122722930507734,-0.6010083295851946
1772641383804646100,6.365646240234375,0.001264320847392082,0.005597619077656418,-0.5963835923939943
1772641383814692400,6.3756923828125,0.13271686409711836,-0.1460300990534015,-0.5596613700006157
1772641383824736800,6.38573681640625,0.33880408483147617,-0.24616311920350417,-0.48834527901206165
1772641383834782000,6.395781982421875,0.6023983226388693,-0.3244064339056611,-0.43377917422913015
1772641383844827000,6.405826904296875,0.7797101152658462,-0.3785349875215441,-0.39263676077332343
1772641383854872000,6.4158720703125,0.8852373591423034,-0.42510300622265784,-0.4266378876397386
1772641383864917000,6.4259169921875,0.8887287083894014,-0.37623419976588335,-0.45914859328530727
1772641383874963000,6.435962890625,0.8426683834820985,-0.32155590331275014,-0.47062772641591727
1772641383885008000,6.4460078125,0.7887719581216573,-0.2784626297838054,-0.40971784209683537
1772641383895052800,6.456052734375,0.6891799495130777,-0.2670510271977633,-0.33372455307748167
1772641383905098000,6.466097900390625,0.574147795188427,-0.29003572480818257,-0.26986685180347414
1772641383915143000,6.476142822265625,0.43802842917144297,-0.32633535614162684,-0.23481939422190187
1772641383925189000,6.486189208984375,0.31433599852919575,-0.31469580828491595,-0.2872842158766463
1772641383935233800,6.49623388671875,0.19439912102818488,-0.28649576891269535,-0.33491938888523726
1772641383945279000,6.506279052734375,0.0873240631878376,-0.3042693260123953,-0.37662973842211067
1772641383955324000,6.516323974609375,-0.04498071297705173,-0.3102897188130766,-0.4565895564522594
1772641383965369000,6.526369140625,-0.1590051515638828,-0.32298374415878206,-0.545752890831232
1772641383975414000,6.5364140625,-0.1993137810766697,-0.34552484445385634,-0.57070116186589
1772641383985460000,6.5464599609375,-0.21365502564013003,-0.358420310655795,-0.5669789264723658
1772641383995505000,6.5565048828125,-0.24472236407697198,-0.34360406899172813,-0.5631989695422351
1772641384005549800,6.5665498046875,-0.21683482472002505,-0.3279879821868613,-0.5591751208536326
1772641384015595000,6.576594970703125,-0.2375818446725607,-0.37938692817576225,-0.5549731391191483
1772641384025640000,6.586639892578125,-0.25650983250439163,-0.45829858885984864,-0.5055492560628801
1772641384035686100,6.59668603515625,-0.22314532304108142,-0.5514035370040684,-0.49491146912723777
1772641384045730800,6.606730712890625,-0.1287672496885061,-0.6702198860425501,-0.4917082891717553
1772641384055776000,6.61677587890625,-0.03804594527781009,-0.7739456334549933,-0.46749037823826073
1772641384065821000,6.626821044921875,0.017164485290646552,-0.8324151388846337,-0.4552996627721935
1772641384075865900,6.636865966796875,0.04557341817319393,-0.8920479890052229,-0.417142658335343
1772641384085912000,6.646912109375,0.061050973290205,-0.9420750986516475,-0.3734273621842265
1772641384095957000,6.65695703125,0.10669161148071288,-0.9622422728896141,-0.3064417381480336
1772641384106002000,6.667001953125,0.14613047242164612,-0.956970543031767,-0.2496964992277324
1772641384116046800,6.677046875,0.16483751097917557,-0.9171000126753002,-0.22213768036849796
1772641384126092000,6.687092041015625,0.1300005908757448,-0.8611481160897761,-0.2056529209703207
1772641384136137000,6.697136962890625,0.04055822035968303,-0.8050533039022236,-0.1739731497235596
1772641384146183000,6.707182861328125,-0.061573535859584805,-0.7499339126180857,-0.14568068282753227
1772641384156227800,6.717227783203125,-0.18431904104053973,-0.6237878782786429,-0.11933460075892507
1772641384166272800,6.727272705078125,-0.32137013494968414,-0.4644936075750738,-0.11562624776028096
1772641384176318000,6.73731787109375,-0.4378291072070598,-0.36926019603479654,-0.0911505626734346
1772641384186363000,6.74736279296875,-0.5410708704948425,-0.33382322767898437,-0.07339607560038566
1772641384196409000,6.7574091796875,-0.6260305426388979,-0.36355982896871863,-0.03577895019389689
1772641384206454000,6.7674541015625,-0.6303805545419454,-0.3941455213684588,-0.02208243327476084
1772641384216499000,6.7774990234375,-0.5961877775609493,-0.4413948003320023,-0.04780592646561563
1772641384226543900,6.7875439453125,-0.5578197607219219,-0.4595092067586258,-0.10151574321277439
1772641384236589000,6.797589111328125,-0.6163859314590692,-0.4386896695591509,-0.24444844250641762
1772641384246634000,6.807634033203125,-0.6911269919276237,-0.447816321279481,-0.32345351709499953
1772641384256680000,6.817679931640625,-0.7067904250055551,-0.46789289462454614,-0.3076887425344437
1772641384266724900,6.827724853515625,-0.6795569656431675,-0.42360392677132036,-0.3196125506926328
1772641384276769800,6.837769775390625,-0.6748696846097707,-0.26973873191177844,-0.3901791019555181
1772641384286815000,6.84781494140625,-0.7891103962957858,-0.07634860526304692,-0.4295063192155212
1772641384296860000,6.85785986328125,-0.8778127620995044,0.04716536353975534,-0.39930451156683267
1772641384306906000,6.867906005859375,-0.8996803105145692,0.1603626671200618,-0.32186529805548486
1772641384316951000,6.877950927734375,-0.9679150578290223,0.3387487013824284,-0.23124328930079935
1772641384326996000,6.887995849609375,-0.8733920230478048,0.44581959450431163,-0.22123305967897175
1772641384337041000,6.898041015625,-0.9831903683722019,0.5577870640287176,-0.11164499610438942
1772641384347086000,6.908086181640625,-0.889469882145524,0.7401550075341016,-0.04782631166651845
1772641384357131000,6.918131103515625,-0.7561293331921101,0.8306975213117898,0.016242548140138386
1772641384367177000,6.928177001953125,-0.736106535860896,0.924364085394144,0.03707899994179606
1772641384377222000,6.938221923828125,-0.603299655392766,1.0127791586890815,-0.05480835257358849
1772641384387266800,6.948266845703125,-0.6188701494902372,1.0292365186236798,-0.1321365069258958
1772641384397312000,6.95831201171875,-0.5503811351537704,0.9876977627940475,-0.25698892125822603
1772641384407357000,6.96835693359375,-0.460910123065114,0.9122223967015742,-0.3554814441923052
1772641384417403000,6.97840283203125,-0.332284327673912,0.902099646615982,-0.49105048285014924
1772641384427448000,6.988447998046875,-0.19542787955403326,0.8870453584123402,-0.6221377729840576
1772641384437492700,6.99849267578125,-0.09732114106714725,0.843297913557291,-0.687095106063038
1772641384447538000,7.008537841796875,0.05594575910568237,0.7520091845221817,-0.6813209065757692
1772641384457582800,7.018582763671875,0.25043197389543054,0.6742199154641478,-0.6243345523759722
1772641384467628000,7.0286279296875,0.5548790310949087,0.6416068088900297,-0.5115846637696028
1772641384477674000,7.038674072265625,0.8965887742400169,0.614015987457335,-0.3425616837993264
1772641384487719000,7.048718994140625,1.1948919218569993,0.5973997836992144,-0.16913038586750626
1772641384497763800,7.058763916015625,1.3902256933867931,0.575620425024256,-0.020843685260042547
1772641384507809000,7.06880908203125,1.5571452713370322,0.6178179370235651,0.05169971903376281
1772641384517854000,7.07885400390625,1.7057091083854437,0.6606589345581829,0.12836962867304683
1772641384527900000,7.08889990234375,1.7940671907961367,0.6644285162247717,0.21017222502566874
1772641384537945000,7.098945068359375,1.8250328224241732,0.6706141460571438,0.3078098846960813
1772641384547989800,7.10898974609375,1.722133588963747,0.656242944746837,0.388030326423794
1772641384558035000,7.119034912109375,1.61373400452137,0.6632200902830809,0.4015821741752326
1772641384568080000,7.129079833984375,1.5470289509922266,0.6349738006163388,0.44218796000368893
1772641384578125000,7.139125,1.3790379444181917,0.6042794602103531,0.4956844993263483
1772641384588171000,7.1491708984375,1.221898002204299,0.6521046028330921,0.5167163275696337
1772641384598216000,7.1592158203125,1.1325029779613018,0.6980509459719061,0.5491941173262894
1772641384608260900,7.1692607421875,0.912314166638255,0.6931645621698349,0.5375740413550287
1772641384618306000,7.17930615234375,0.7246189271628857,0.73460029601641,0.4856777037706226
1772641384628351000,7.18935107421875,0.5998387012839317,0.8069086494453251,0.4677040940541774
1772641384638397000,7.19939697265625,0.3953483943521976,0.862596780528128,0.4075066688533872
1772641384648442000,7.209442138671875,0.15556114858984946,0.8930105504270642,0.35774763555862005
1772641384658486800,7.21948681640625,-0.08147299907207489,0.9066466423958539,0.2869740174163133
1772641384668532000,7.229531982421875,-0.34293723911345003,0.8713435660853981,0.19326821730211377
1772641384678577000,7.239576904296875,-0.5961807632982731,0.8279487340603023,0.07310776017829776
1772641384688622000,7.2496220703125,-0.7719991024971008,0.7536494260098785,-0.024350012880563734
1772641384698668000,7.25966796875,-0.9039379679590464,0.6501656706597656,-0.11249774047620593
1772641384708713000,7.269712890625,-0.9128279613792896,0.5554882855670527,-0.2797804526504129
1772641384718758000,7.2797578125,-0.8584551506787538,0.43126379387471825,-0.44170624090135097
1772641384728802800,7.289802734375,-0.8234072181731462,0.22959391465857623,-0.5619650438331067
1772641384738848000,7.299847900390625,-0.68475570333004,0.004427205325104296,-0.6220802706431597
1772641384748894000,7.30989404296875,-0.45418929037749767,-0.1556424701977521,-0.6557130756538361
1772641384758939100,7.319939208984375,-0.15414192944169045,-0.21763605810031295,-0.7068188473824412
1772641384768983800,7.32998388671875,0.09760346513986587,-0.252155290556699,-0.7429694804329424
1772641384779029000,7.340029052734375,0.23033318871855735,-0.28582495697904375,-0.7126153317667544
1772641384789074000,7.350073974609375,0.31038813768625256,-0.29130729738026856,-0.6112495184186846
1772641384799119000,7.360119140625,0.42072248958349223,-0.2816977940464392,-0.4587443233333528
1772641384809165000,7.3701650390625,0.46617958790063857,-0.30257114379238337,-0.30337299822717906
1772641384819210000,7.3802099609375,0.4239963966876268,-0.3141629069846123,-0.22172442339248954
1772641384829254400,7.39025439453125,0.45123160961568354,-0.3095002124032005,-0.21180530612021684
1772641384839299300,7.40029931640625,0.558242954570055,-0.32310276742856947,-0.20103519804179668
1772641384849344300,7.41034423828125,0.7067319728165865,-0.3429354490151629,-0.09474836796969174
1772641384859390200,7.42039013671875,0.9748381350904702,-0.24618249975740908,-0.08825666786283254
1772641384869435400,7.430435302734375,1.1168015509605407,-0.26651578780990093,-0.0000763531718403101
1772641384879480300,7.440480224609375,1.1121528483718632,-0.30172260067164897,0.05287665385864675
1772641384889525500,7.450525390625,0.8704851956903934,-0.32901104162428524,0.08728000485040247
1772641384899570200,7.460570068359375,0.6798632551133632,-0.42023598470818246,0.1263151803612709
1772641384909615400,7.470615478515625,0.48277591791450974,-0.5150566507291049,0.2027521580275148
1772641384919661300,7.480661376953125,0.38204409162104125,-0.5225345488617197,0.15029000325389205
1772641384929706200,7.490706298828125,0.428501891413331,-0.5270684659643098,0.008525178695842623
1772641384939751400,7.50075146484375,0.3806313022136688,-0.6250326176427304,-0.08546228790394961
1772641384949796000,7.510796142578125,0.3299479936808348,-0.7720305205486714,-0.18913469769395888
1772641384959841300,7.52084130859375,0.2104407397687435,-0.8417492228105664,-0.266523788453266
1772641384969887200,7.53088720703125,0.09561258358359337,-0.8829673683837056,-0.32537294085025786
1772641384979932400,7.540932373046875,-0.008716974940896034,-0.9243778216585516,-0.3549591738838702
1772641384989977300,7.550977294921875,-0.13097791147530077,-0.9389172191426157,-0.27727767604924736
1772641385000022500,7.5610224609375,-0.18380349273383617,-0.9409815312612801,-0.19214198975116015
1772641385010067200,7.571067138671875,-0.15288053120374678,-0.9119226831026375,-0.137642556996271
1772641385020112400,7.5811123046875,-0.18021335928738116,-0.888133518975228,-0.08571838155686855
1772641385030158300,7.591158447265625,-0.1331038175880909,-0.8141205535855144,-0.02164031553044915
1772641385040203300,7.601203369140625,-0.13808511313199995,-0.7330504362259059,0.045657150933891534
1772641385050248400,7.61124853515625,-0.14212357486784458,-0.6910743118923157,0.06829356482960283
1772641385060293000,7.621293212890625,-0.24119828160405157,-0.6829113906376063,0.09565116202831268
1772641385070338300,7.63133837890625,-0.34079262830018997,-0.6661613313667476,0.11366013531908392
1772641385080384300,7.64138427734375,-0.2826327002763748,-0.5529192022640258,0.12681976888254284
1772641385090429200,7.65142919921875,-0.30205636267066,-0.4313985992355272,0.18534801876209675
1772641385100474400,7.661474365234375,-0.2841080335259437,-0.3264015897782519,0.24698015294112263
1772641385110519300,7.671519287109375,-0.35848785946667194,-0.2666224995873868,0.336752997520566
1772641385120564200,7.681564208984375,-0.4874269585907459,-0.1857824646566063,0.35696576446592804
1772641385130609200,7.691609130859375,-0.6401812330663204,-0.1450238628866151,0.36249914093464614
1772641385140655400,7.7016552734375,-0.9170844497799873,-0.20501834939382968,0.4313378454916179
1772641385150700300,7.7117001953125,-1.006243327179551,-0.30694106597229837,0.48327634171731765
1772641385160745500,7.721745361328125,-0.8631430162340402,-0.37564587848391384,0.5362499531444161
1772641385170790100,7.7317900390625,-0.6064560735970735,-0.44633580039814114,0.5871188473772257
1772641385180835300,7.74183544921875,-0.5397188713639974,-0.5471659724995493,0.5665173003099858
1772641385190881300,7.75188134765625,-0.5643114608287811,-0.646729193405062,0.36386524165607986
1772641385200926200,7.76192626953125,-0.6808131031841039,-0.7085054122298956,-0.02209675406105816
1772641385210971400,7.771971435546875,-0.7725608280330896,-0.5757662632357329,-0.5561504392702132
1772641385221016300,7.782016357421875,-0.8822165500164032,-0.3699775870565325,-0.9419083637826144
1772641385231061200,7.792061279296875,-1.1028010826587675,-0.1970731625430286,-1.0366489137720316
1772641385241106200,7.802106201171875,-1.2757879978239535,-0.006635711687430739,-0.902885317100957
1772641385251152400,7.81215234375,-1.3880226303845644,0.1996514155331999,-0.6145658764250577
1772641385261197300,7.822197265625,-1.3987830938518047,0.488085130238533,-0.36446671468056735
1772641385271242500,7.832242431640625,-1.3069172955811024,0.7706317596666514,-0.18008776014633476
1772641385281287400,7.842287353515625,-1.0984124923110008,0.9619041269764304,0.0014560440272092818
1772641385291332400,7.852332275390625,-0.8987626111477612,0.9908366453416645,0.12854264715239405
1772641385301378300,7.86237841796875,-0.6901543475031853,0.9978974505733698,0.1813159867670387
1772641385311423200,7.87242333984375,-0.45103871739208695,1.0367937290702014,0.16326375885643063
1772641385321468400,7.882468505859375,-0.22162790421545503,1.0694956829715518,0.12740290253274142
1772641385331513300,7.892513427734375,0.04428337836265564,1.105286542798951,0.13717552400641142
1772641385341558300,7.902558349609375,0.30510873597860333,1.1398037294287233,0.14166392146684229
1772641385351603200,7.912603271484375,0.5249684614777564,1.1799915090408175,0.1632020187318325
1772641385361649200,7.922649169921875,0.6800584854245185,1.2379106871113181,0.1532228418353945
1772641385371694300,7.9326943359375,0.8013754191070794,1.2963549850344658,0.08386442425325512
1772641385381739300,7.9427392578125,0.9904168124943971,1.3456766498252748,0.009294701763615012
1772641385391784400,7.952784423828125,1.3096756543785333,1.350220576865226,-0.010734744504094123
1772641385401829000,7.9628291015625,1.5825415784001349,1.2640125120952725,-0.014630509833618998
1772641385411875300,7.972875244140625,1.6749650105535983,1.138083554572612,-0.024670623137056827
1772641385421920300,7.982920166015625,1.6270570119529961,1.05155093402341,-0.0643076369985938
1772641385431965400,7.99296533203125,1.5861585998535155,0.9751268889039755,-0.1275633537914604
1772641385442010400,8.00301025390625,1.669099917912483,0.8812376219816506,-0.10265446491912007
1772641385452055300,8.01305517578125,1.8267168299883603,0.7127050558768212,-0.022606457148864865
1772641385462100200,8.023100341796875,1.7135644980609417,0.6835106717050076,-0.039789647139981385
1772641385472146200,8.033146240234375,1.2862281432956457,0.7094948616586625,-0.1805511398743838
1772641385482191400,8.04319140625,0.9269891732007265,0.7234408232942223,-0.36106070562936365
1772641385492236300,8.053236328125,0.7002548857569694,0.6990687447123229,-0.44023280734792347
1772641385502281500,8.063281494140625,0.412272641146183,0.7140507713973522,-0.45831893752813335
1772641385512326100,8.073326171875,0.16843407416641712,0.7810770197048783,-0.4967942141339183
1772641385522372400,8.083372314453126,0.044458150407671926,0.8484753161951899,-0.5558073249209672
1772641385532417300,8.093417236328126,0.015721885266900062,0.8774220092162489,-0.6017838440023362
1772641385542462500,8.10346240234375,-0.07426292156279087,0.8705702436253427,-0.5702696385808289
