time,seconds_elapsed,z,y,x
1772639319283824600,0.05482470703125,0.0019156117923557758,-0.004234692547470331,-0.007756989449262619
1772639319293869800,0.064869873046875,0.0014050838071852922,-0.0015494271647185087,-0.007850732654333115
1772639319303914800,0.074914794921875,0.002042910782620311,-0.0046450854279100895,-0.008518386632204056
1772639319313960000,0.0849599609375,0.002005093963816762,-0.003335609333589673,-0.005449626594781876
1772639319324006000,0.095005859375,0.0016911072889342904,-0.0032770195975899696,-0.007897337898612022
1772639319334050600,0.105050537109375,0.0027316042687743902,-0.003824033075943589,-0.007305583450943232
1772639319344095700,0.115095703125,0.0014998923288658261,-0.0033545177429914474,-0.006097573786973953
1772639319354140700,0.125140625,0.0017963021527975798,-0.004727909807115793,-0.00717562111094594
1772639319364185900,0.135185791015625,0.0011893677292391658,-0.003382480936124921,-0.006748716346919537
1772639319374230500,0.14523046875,0.0009962886106222868,-0.0044264402240514755,-0.0080885523930192
1772639319384275700,0.155275634765625,0.001648496720008552,-0.0034645062405616045,-0.0054754591546952724
1772639319394321700,0.16532177734375,0.002570216776803136,-0.004507400095462799,-0.00606321869418025
1772639319404366800,0.175366943359375,0.0027691549621522427,-0.003936684690415859,-0.004865328781306744
1772639319414411800,0.185411865234375,0.0007874967413954437,-0.0049524144269526005,-0.003932423423975706
1772639319424457000,0.19545703125,0.002017078222706914,-0.0041185785084962845,-0.007957525551319122
1772639319434501600,0.205501708984375,0.0024684839881956577,-0.0031547807157039642,-0.006048304960131645
1772639319444546800,0.215546875,0.0020450414158403873,-0.0036362800747156143,-0.006742857396602631
1772639319454591700,0.225591796875,0.0012370382901281118,-0.0020367854740470648,-0.00637933611869812
1772639319464637700,0.2356376953125,0.0016500946367159486,-0.003962250892072916,-0.0065047708339989185
1772639319474683000,0.245682861328125,0.0014096111990511417,-0.003242132253944874,-0.007278951816260815
1772639319484727800,0.255727783203125,0.0018170748371630907,-0.0033039175905287266,-0.005593703594058752
1772639319494772700,0.265772705078125,0.002210689941421151,-0.00395639194175601,-0.006333795841783285
1772639319504817700,0.275817626953125,0.0013944311067461967,-0.0035627768374979496,-0.0073109096847474575
1772639319514862800,0.28586279296875,0.0015140071045607328,-0.0034000577870756388,-0.005662679206579924
1772639319524907800,0.29590771484375,0.002600044244900346,-0.0034969968255609274,-0.006839263718575239
1772639319534953700,0.30595361328125,0.0007627293234691024,-0.002602973720058799,-0.007501858286559582
1772639319544998700,0.31599853515625,0.0027566379867494106,-0.003579288488253951,-0.004935103934258223
1772639319555043600,0.326043701171875,0.0009547432418912649,-0.0036418726667761803,-0.006767092272639275
1772639319565088800,0.3360888671875,0.0013712616637349129,-0.003995806910097599,-0.0062432484701275826
1772639319575133700,0.3461337890625,0.0005976133397780359,-0.0034940673504024744,-0.00818069837987423
1772639319585179000,0.356178955078125,0.0009062737226486206,-0.0041185785084962845,-0.006132727488875389
1772639319595223600,0.3662236328125,0.003078614128753543,-0.004357730504125357,-0.0070280819199979305
1772639319605268700,0.376268798828125,0.0012956279097124934,-0.0035297537688165903,-0.0062757390551269054
1772639319615314700,0.386314697265625,0.0010242518037557602,-0.0038919434882700443,-0.005717007908970118
1772639319625360000,0.39635986328125,0.0007691209320910275,-0.005273858085274696,-0.005931925028562546
1772639319635404800,0.40640478515625,0.001728924224153161,-0.004260258749127388,-0.007164702285081148
1772639319645449700,0.41644970703125,0.0013137373607605696,-0.004634432960301638,-0.008216651156544685
1772639319655494700,0.42649462890625,0.0023217438720166683,-0.0030605047941207886,-0.005966546013951302
1772639319665539800,0.436539794921875,0.0015598133904859424,-0.0030037793330848217,-0.007456318475306034
1772639319675585800,0.446585693359375,0.0024700819049030542,-0.0032802154310047626,-0.007481884676963091
1772639319685630700,0.456630615234375,0.00152332813013345,-0.004141747951507568,-0.005922870244830847
1772639319695676000,0.466676025390625,0.0012210593558847904,-0.004385427106171846,-0.007508249953389168
1772639319705720600,0.476720458984375,0.0019683423452079296,-0.0041396175511181355,-0.00672208471223712
1772639319715765800,0.486765869140625,0.0002921487612184137,-0.0036993969697505236,-0.007260842248797417
1772639319725810700,0.496810791015625,0.0019331886433064938,-0.0037800907157361507,-0.005604622419923544
1772639319735855900,0.50685595703125,0.002481267089024186,-0.003179814200848341,-0.005164934787899256
1772639319745901800,0.51690185546875,0.0029710223898291588,-0.0041036647744476795,-0.00640863087028265
1772639319755946800,0.52694677734375,0.0019353191601112485,-0.003838147735223174,-0.00734313391149044
1772639319765991700,0.53699169921875,0.0022032330743968487,-0.004397944081574678,-0.006704241503030062
1772639319776036900,0.547036865234375,0.0009733853512443602,-0.003966512158513069,-0.004342017695307732
1772639319786081800,0.557081787109375,0.0005693838465958834,-0.00492125516757369,-0.006716225761920214
1772639319796126700,0.567126708984375,0.0027505126781761646,-0.004602741450071335,-0.007284544408321381
1772639319806171600,0.577171630859375,0.0014674017438665032,-0.004278368316590786,-0.006654973141849041
1772639319816217600,0.587217529296875,0.001916410750709474,-0.004139084834605455,-0.009194829501211643
1772639319826262800,0.5972626953125,0.001449292292818427,-0.00430153775960207,-0.006139651406556368
1772639319836307700,0.6073076171875,0.0008202536264434457,-0.0037494644057005644,-0.006523945834487677
1772639319846353000,0.617352783203125,0.0013571468880400062,-0.00387330143712461,-0.007077616639435291
1772639319856397600,0.6273974609375,0.0011547466274350882,-0.0027409254107624292,-0.006444050930440426
1772639319866442800,0.63744287109375,0.0023257385473698378,-0.004598213825374842,-0.0064893243834376335
1772639319876487000,0.64748681640625,0.0015414375811815262,-0.0027590349782258272,-0.0041763694025576115
1772639319886533000,0.657533203125,0.003665042342618108,-0.003919640555977821,-0.007333280518651009
1772639319896578000,0.667578125,0.0008929579053074121,-0.004428570624440908,-0.0071010529063642025
1772639319906623200,0.677623291015625,0.0012748552253469825,-0.003719370812177658,-0.0052229915745556355
1772639319916668200,0.687668212890625,0.0012359730899333954,-0.004341484978795052,-0.00726483715698123
1772639319926713300,0.69771337890625,0.004290885291993618,-0.002671683207154274,-0.0051833102479577065
1772639319936758000,0.707758056640625,0.001710548298433423,-0.004997155629098415,-0.00734260119497776
1772639319946803200,0.71780322265625,0.0031766186002641916,-0.004341484978795052,-0.006877879612147808
1772639319956848000,0.72784814453125,0.0035414716694504023,-0.0033811493776738644,-0.005421929527074099
1772639319966894000,0.73789404296875,0.0024684839881956577,-0.003023753175511956,-0.00564004248008132
1772639319976939300,0.747939208984375,0.0004394215648062527,-0.004465854726731777,-0.0070485882461071014
1772639319986984000,0.75798388671875,0.0018775284988805652,-0.004992628004401922,-0.006333529483526945
1772639319997029000,0.768029052734375,0.0006303702248260379,-0.004171309061348438,-0.007397995330393314
1772639320007074000,0.778073974609375,0.0008703210623934865,-0.0034794199746102095,-0.005563343409448862
1772639320017119200,0.788119140625,0.0008495483780279756,-0.0031433289404958487,-0.007922638207674026
1772639320027164200,0.7981640625,0.0009001484140753746,-0.00478410255163908,-0.006643255241215229
1772639320037210000,0.808210205078125,0.003227484878152609,-0.0027915253303945065,-0.006552441511303186
1772639320047255000,0.818255126953125,0.001564873498864472,-0.004027232062071562,-0.007102384231984615
1772639320057300000,0.828300048828125,0.0032080437522381544,-0.003486344125121832,-0.006307696923613548
1772639320067345200,0.83834521484375,0.0018197379540652037,-0.003825897118076682,-0.006174805108457804
1772639320077390000,0.84839013671875,0.003169428091496229,-0.004029628820717335,-0.004861067980527878
1772639320087435000,0.85843505859375,0.0012887036427855492,-0.002011485630646348,-0.0076422072015702724
1772639320097480000,0.86847998046875,0.001543834456242621,-0.0033806166611611843,-0.007190534844994545
1772639320107526100,0.878526123046875,0.0006482133758254349,-0.0021971079986542463,-0.006529538426548243
1772639320117571000,0.888571044921875,0.002743322169408202,-0.004022172186523676,-0.006337524391710758
1772639320127616300,0.8986162109375,0.0007190534961409867,-0.004187820944935083,-0.005558816250413656
1772639320137661200,0.9086611328125,0.002020007697865367,-0.003938815090805292,-0.00720624765381217
1772639320147706000,0.9187060546875,0.0021606225054711103,-0.005332979839295149,-0.0073657711036503315
1772639320157751000,0.9287509765625,0.0021174794528633356,-0.003111637430265546,-0.004727909807115793
1772639320167796200,0.938796142578125,0.00037497308221645653,-0.003546797903254628,-0.0070853400975465775
1772639320177842200,0.94884228515625,0.000639691308606416,-0.00404480891302228,-0.006225405260920525
1772639320187887000,0.95888720703125,0.0025422535836696625,-0.0046512107364833355,-0.006178533658385277
1772639320197932000,0.96893212890625,0.002162220422178507,-0.0038306908681988716,-0.006521548610180616
1772639320207977000,0.97897705078125,0.0026490462478250265,-0.002924683503806591,-0.00774553744122386
1772639320218022100,0.989022216796875,0.003471164032816887,-0.004452805500477552,-0.005447229836136103
1772639320228067000,0.999067138671875,0.001064731739461422,-0.005228051450103521,-0.006761766038835049
1772639320238112300,1.0091123046875,0.0023465112317353487,-0.004455468617379665,-0.007831024937331676
1772639320248158200,1.019158203125,0.0030594393610954285,-0.004325506277382374,-0.0054277884773910046
1772639320258203100,1.029203125,0.0013749900972470641,-0.0016823188634589314,-0.006105030421167612
1772639320268248000,1.039248046875,0.0011941614793613553,-0.003887682454660535,-0.00595456175506115
1772639320278293200,1.049293212890625,0.002573678968474269,-0.0031276163645088673,-0.004676776938140392
1772639320288338200,1.059338134765625,0.0020841897930949926,-0.0006756439688615501,-0.005881324876099825
1772639320298383400,1.06938330078125,0.0026413232553750277,-0.003652791725471616,-0.005354018881917
1772639320308428000,1.079427978515625,0.0012937636347487569,-0.004169445019215345,-0.00751996785402298
1772639320318474000,1.089473876953125,0.001651426195167005,-0.0036107138730585575,-0.007097324356436729
1772639320328519200,1.099519287109375,0.002198705682530999,-0.0033755565527826548,-0.005540706682950258
1772639320338564000,1.109564208984375,0.0015227955300360918,-0.003900465788319707,-0.007811051327735186
1772639320348609300,1.119609375,0.0005195827106945217,-0.004662662278860807,-0.005200620740652084
1772639320358654000,1.129654052734375,0.0026908579748123884,-0.003908189013600349,-0.008552475832402706
1772639320368699100,1.13969921875,0.0014263890916481614,-0.004385427106171846,-0.005795304663479328
1772639320378744000,1.149744140625,0.0017161410069093108,-0.003513508476316929,-0.007738613523542881
1772639320388790000,1.1597900390625,0.0018367822049185634,-0.002493251347914338,-0.0049066077917814255
1772639320398835200,1.169835205078125,0.0033505228348076344,-0.0036338833160698414,-0.005656553898006678
1772639320408880000,1.179880126953125,0.0007707187905907631,-0.0031055121216923,-0.006758836563676596
1772639320418925000,1.189925048828125,0.0034679684322327375,-0.004000600427389145,-0.006265352945774794
1772639320428970000,1.199969970703125,0.0019209380261600018,-0.004235757514834404,-0.006419016979634762
1772639320439015200,1.21001513671875,0.0019443739438429475,-0.003040797309949994,-0.006570551078766584
1772639320449060000,1.22006005859375,0.0006849650526419282,-0.0037204360123723745,-0.006617955397814512
1772639320459105000,1.23010498046875,0.0014961638953536749,-0.003070891136303544,-0.005879727192223072
1772639320469151000,1.24015087890625,0.001885784324258566,-0.002566488226875663,-0.007803328335285187
1772639320479196200,1.250196044921875,0.0017161410069093108,-0.003938282374292612,-0.005842176266014576
1772639320489241000,1.260240966796875,0.0038067223504185677,-0.0036075180396437645,-0.007849933579564095
1772639320499286300,1.270286376953125,0.0027350664604455233,-0.0035896748304367065,-0.005912750028073788
1772639320509331200,1.280331298828125,0.0015872439835220575,-0.003314570290967822,-0.006066947244107723
1772639320519376100,1.290376220703125,0.0016578177455812693,-0.00452843913808465,-0.00628985371440649
1772639320529421000,1.300421142578125,0.0009664611425250769,-0.004308728501200676,-0.005543369799852371
1772639320539467000,1.310467041015625,0.002752376953139901,-0.003349191276356578,-0.007514907978475094
1772639320549512200,1.32051220703125,0.00005193164179218002,-0.0037555897142738104,-0.007321029901504517
1772639320559557000,1.33055712890625,0.002173938322812319,-0.004192081745713949,-0.006068544927984476
1772639320569602000,1.34060205078125,0.00010972223390126601,-0.004798217210918665,-0.007481351960450411
1772639320579647000,1.35064697265625,0.0014889733865857124,-0.0031353395897895098,-0.005501558072865009
1772639320589692200,1.360692138671875,0.0028628981672227383,-0.004867193289101124,-0.007291468791663647
1772639320599737000,1.370737060546875,0.000886566296685487,-0.004092745948582888,-0.0049705239944159985
1772639320609783300,1.380783203125,0.0017190704820677638,-0.0051963599398732185,-0.007515707053244114
1772639320619828200,1.390828125,0.0020596887916326523,-0.0029760824982076883,-0.007902397774159908
1772639320629873200,1.400873046875,0.0011235876008868217,-0.0032296155113726854,-0.00615163566544652
1772639320639918000,1.41091796875,0.0017560884589329362,-0.004515389446169138,-0.0065164887346327305
1772639320649963300,1.42096337890625,0.0006689860601909459,-0.005883987993001938,-0.007409446872770786
1772639320660008200,1.43100830078125,0.0009092031978070736,-0.003626160090789199,-0.006937534548342228
1772639320670053000,1.44105322265625,0.0009664611425250769,-0.002585396869108081,-0.005641906522214413
1772639320680099000,1.45109912109375,0.00065460498444736,-0.002529204124584794,-0.004801679402589798
1772639320690144000,1.46114404296875,0.0015297196805477142,-0.004138552118092775,-0.004995557479560375
1772639320700189200,1.471189208984375,0.0015624766238033772,-0.004006193019449711,-0.006905310321599245
1772639320710234000,1.481234130859375,0.0017473000334575772,-0.004494350403547287,-0.006996656768023968
1772639320720279300,1.491279296875,0.0022509037517011166,-0.003094060579314828,-0.007046990562230349
1772639320730324000,1.501323974609375,0.001981125446036458,-0.0040855552069842815,-0.00592473428696394
1772639320740369200,1.511369140625,0.00042211104300804436,-0.00341603672131896,-0.00654525076970458
1772639320750415000,1.5214150390625,0.001347559504210949,-0.0034165694378316402,-0.0068152956664562225
1772639320760460000,1.5314599609375,0.0021518340799957514,-0.004795820452272892,-0.006344182416796684
1772639320770505200,1.541505126953125,0.0017062872648239136,-0.0035412053111940622,-0.007243798114359379
1772639320780550000,1.5515498046875,0.0013539510546252131,-0.004391286056488752,-0.006257096771150827
1772639320790595000,1.561594970703125,0.0012540825409814715,-0.0041521345265209675,-0.007301056291908026
1772639320800640000,1.571639892578125,0.0026282735634595156,-0.004226436838507652,-0.005961752496659756
1772639320810685200,1.581685302734375,0.0016040218761190772,-0.003703924361616373,-0.006900783162564039
1772639320820731100,1.591731201171875,0.0015283881220966578,-0.003157443832606077,-0.0054395063780248165
1772639320830776300,1.6017763671875,0.0013291836949065328,-0.004716191906481981,-0.007141266483813524
1772639320840821000,1.611821044921875,0.002290318487212062,-0.004057325888425112,-0.005852562841027975
1772639320850866200,1.6218662109375,0.0023148194886744022,-0.0034847462084144354,-0.0067633637227118015
1772639320860911000,1.6319111328125,0.0009227853151969612,-0.004765726625919342,-0.007346063386648893
1772639320870956500,1.64195654296875,0.0012996225850656629,-0.004820588044822216,-0.0073418025858700275
1772639320881001500,1.65200146484375,0.0010093380697071552,-0.004516987595707178,-0.006637929007411003
1772639320891047400,1.66204736328125,0.0016200009267777205,-0.0021403825376182795,-0.00694818701595068
1772639320901092600,1.672092529296875,0.001990180229768157,-0.004067978356033564,-0.00515801040455699
1772639320911137500,1.682137451171875,0.001178182428702712,-0.0037952708080410957,-0.006317018065601587
1772639320921182500,1.692182373046875,0.0007177218794822693,-0.004373176954686642,-0.006474677007645369
1772639320931227400,1.702227294921875,0.001743305241689086,-0.0023872575256973505,-0.009290437214076519
1772639320941272600,1.7122724609375,0.0019411781104281545,-0.0029734193813055754,-0.006130596622824669
1772639320951317500,1.7223173828125,0.0007427555974572897,-0.003725496120750904,-0.0057255299761891365
1772639320961362700,1.73236279296875,0.0029577065724879503,-0.0038903458043932915,-0.005846437532454729
1772639320971408600,1.74240869140625,0.002290851203724742,-0.004291417542845011,-0.006430202629417181
1772639320981453300,1.752453369140625,0.0010399643797427416,-0.003931891173124313,-0.008699482306838036
1772639320991498500,1.76249853515625,0.00336117553524673,-0.004536428488790989,-0.006667223758995533
1772639321001543400,1.77254345703125,0.0022298647090792656,-0.002719353651627898,-0.006713029928505421
1772639321011588600,1.782588623046875,0.0013539510546252131,-0.004715126473456621,-0.007476558443158865
1772639321021633300,1.79263330078125,0.0006506102508865297,-0.0040943436324596405,-0.006855775602161884
1772639321031678500,1.802678466796875,0.0005797701887786388,-0.003980893176048994,-0.006042446009814739
1772639321041724400,1.812724365234375,0.002597380895167589,-0.004489024169743061,-0.005422728601843119
1772639321051769600,1.82276953125,0.0014759238110855222,-0.0027486486360430717,-0.008423312567174435
1772639321061814500,1.832814453125,0.0023931164760142565,-0.003681021276861429,-0.006392918061465025
1772639321071859700,1.842859619140625,0.001416002749465406,-0.004489556886255741,-0.007207845337688923
1772639321081904400,1.852904296875,0.0019678096286952496,-0.004206462763249874,-0.0054605454206466675
1772639321091949600,1.862949462890625,0.0006884271278977394,-0.004051999654620886,-0.008563661016523838
1772639321101994500,1.872994384765625,0.0023209447972476482,-0.0055180699564516544,-0.006670419592410326
1772639321112040400,1.88304052734375,0.001430916483514011,-0.004914863966405392,-0.006679208017885685
1772639321122085600,1.893085693359375,-0.00040480049210600555,-0.0019465044606477022,-0.00774766830727458
1772639321132130300,1.90313037109375,0.003111371072009206,-0.0023638217244297266,-0.007001183927059174
1772639321142175500,1.913175537109375,0.00177925790194422,-0.004041879437863827,-0.00723527604714036
1772639321152220400,1.923220458984375,0.0028826056513935328,-0.00358807691372931,-0.005802229046821594
1772639321162265600,1.933265625,0.00036991306114941835,-0.0023521038237959146,-0.006993993651121855
1772639321172310500,1.943310546875,0.0018192053539678454,-0.003184075467288494,-0.006503439508378506
1772639321182356500,1.9533564453125,0.002367816399782896,-0.00267754215747118,-0.007678425870835781
1772639321192401400,1.9634013671875,0.0033135050907731056,-0.0036943370942026377,-0.006023005116730928
1772639321202446300,1.9734462890625,0.0020823257509618998,-0.0031225562561303377,-0.007232612930238247
1772639321212491500,1.983491455078125,0.002499110298231244,-0.0033657029271125793,-0.005873868241906166
1772639321222536400,1.993536376953125,0.0014626081101596355,-0.00304612354375422,-0.0072898706421256065
1772639321232581400,2.003581298828125,0.0007648598402738571,-0.004275705199688673,-0.0057494984939694405
1772639321242626300,2.013626220703125,0.0015132081462070346,-0.0034559841733425856,-0.006185458041727543
1772639321252671500,2.02367138671875,0.0025422535836696625,-0.004323109518736601,-0.006932474672794342
1772639321262717400,2.033717529296875,0.002210689941421151,-0.0027893949300050735,-0.006915164180099964
1772639321272762600,2.0437626953125,0.001945705502294004,-0.00424135010689497,-0.005486377980560064
1772639321282807600,2.0538076171875,0.0019686087034642696,-0.0027774106711149216,-0.00700810831040144
1772639321292852500,2.0638525390625,0.0016849819803610444,-0.003826163476333022,-0.006732737645506859
1772639321302897400,2.0738974609375,0.0012514194240793586,-0.003939614165574312,-0.00472631212323904
1772639321312942600,2.083942626953125,0.003026682650670409,-0.004098871257156134,-0.004868258256465197
1772639321322987500,2.093987548828125,0.0024399880785495043,-0.003180346917361021,-0.00592526700347662
1772639321333033500,2.104033447265625,0.0013004215434193611,-0.004351871553808451,-0.006201170384883881
1772639321343078400,2.114078369140625,0.0032229574862867594,-0.0035334820859134197,-0.00797110702842474
1772639321353123300,2.124123291015625,0.0030301446095108986,-0.0028429245576262474,-0.007757255341857672
1772639321363168500,2.13416845703125,0.0024628913961350918,-0.0044320328161120415,-0.00754926260560751
1772639321373213400,2.14421337890625,0.0020237360149621964,-0.004566522315144539,-0.0073071811348199844
1772639321383258600,2.154258544921875,0.0006237123161554337,-0.004549211822450161,-0.005854160524904728
1772639321393303300,2.16430322265625,0.0017784589435905218,-0.003427221905440092,-0.00785366166383028
1772639321403349500,2.174349609375,0.0018580874893814325,-0.004022438544780016,-0.0057279267348349094
1772639321413394400,2.18439453125,0.0029614351224154234,-0.003832821501418948,-0.006869890261441469
1772639321423439600,2.194439697265625,-0.0003249056462664157,-0.003459712490439415,-0.0065226140432059765
1772639321433484500,2.204484619140625,0.0018820558907464147,-0.003859453136101365,-0.006706372369080782
1772639321443529700,2.21452978515625,0.0011464908020570874,-0.004038683604449034,-0.006895722821354866
1772639321453574400,2.224574462890625,0.0012306467397138476,-0.004418716765940189,-0.007783088367432356
1772639321463619600,2.23461962890625,0.002037051832303405,-0.001954493811354041,-0.00743314903229475
1772639321473665500,2.24466552734375,0.0024016385432332754,-0.0037875475827604532,-0.006690126843750477
1772639321483710500,2.25471044921875,0.0024716798216104507,-0.003290335414931178,-0.007429154124110937
1772639321493755600,2.264755615234375,0.0014506238512694836,-0.0033510555513203144,-0.006459231022745371
1772639321503800300,2.27480029296875,0.002502572489902377,-0.003460777923464775,-0.005686647724360228
1772639321513845500,2.284845458984375,0.00040240364614874125,-0.003990747034549713,-0.006174805108457804
1772639321523890400,2.294890380859375,0.0013044163351878524,-0.001544100814498961,-0.004737230949103832
1772639321533935600,2.304935546875,0.0023582291323691607,-0.002814162289723754,-0.008127435110509396
1772639321543981600,2.314981689453125,0.00034887410583905876,-0.0036661075428128242,-0.006594785954803228
1772639321554026500,2.325026611328125,0.00034408041392453015,-0.005920739844441414,-0.004580636974424124
1772639321564071400,2.335071533203125,0.0026072347536683083,-0.003044259501621127,-0.006648581475019455
1772639321574116400,2.345116455078125,0.0015603461069986224,-0.004391552414745092,-0.006960171274840832
1772639321584161500,2.35516162109375,0.0035265579354017973,-0.003697799053043127,-0.0065505774691700935
1772639321594206500,2.36520654296875,0.0008053398923948407,-0.003668504301458597,-0.005753759294748306
1772639321604251400,2.37525146484375,0.001740642124786973,-0.0022178804501891136,-0.005562278442084789
1772639321614297300,2.38529736328125,0.0009374326909892261,-0.003562244353815913,-0.006296778097748756
1772639321624342500,2.395342529296875,0.0014863101532682776,-0.002671416848897934,-0.006955644115805626
1772639321634387500,2.405387451171875,0.0014484933344647288,-0.0034519892651587725,-0.007368966471403837
1772639321644432600,2.4154326171875,0.0011353056179359555,-0.0037862160243093967,-0.007032875902950764
1772639321654477600,2.4254775390625,0.001207477180287242,-0.0036163064651191235,-0.0057676080614328384
1772639321664522500,2.4355224609375,0.001163268811069429,-0.003974501509219408,-0.007378553971648216
1772639321674567400,2.4455673828125,0.0015483618481084704,-0.003477555699646473,-0.006479204632341862
1772639321684613400,2.45561328125,0.0015403723809868097,-0.004787831101566553,-0.007457916159182787
1772639321694658600,2.465658447265625,0.001838912721723318,-0.005139101762324572,-0.006354568526148796
1772639321704703500,2.475703369140625,0.002627208363264799,-0.003064233111217618,-0.006533532869070768
1772639321714748400,2.48574853515625,0.0010223875287920237,-0.002894589677453041,-0.006493319291621447
1772639321724793300,2.49579345703125,0.002013616031035781,-0.003998736385256052,-0.0073468624614179134
1772639321734838500,2.505838623046875,0.00273133791051805,-0.003810983384028077,-0.008115717209875584
1772639321744883500,2.515883544921875,0.0005661880713887513,-0.004156395327299833,-0.008015049621462822
1772639321754928600,2.5259287109375,0.0020703414920717478,-0.0031854070257395506,-0.00714792450889945
1772639321764974600,2.535974609375,0.0027590349782258272,-0.003926032222807407,-0.006900250446051359
1772639321775019500,2.54601953125,0.0021515677217394114,-0.0029971215408295393,-0.005486644338816404
1772639321785064400,2.556064453125,0.0018847191240638494,-0.0018540926976129413,-0.00678307143971324
1772639321795109600,2.566109619140625,0.002231995342299342,-0.0034432008396834135,-0.0052442969754338264
1772639321805154600,2.576154541015625,0.001449292292818427,-0.003266899613663554,-0.006620618514716625
1772639321815199500,2.586199462890625,0.0015134743880480528,-0.005591306835412979,-0.006647250149399042
1772639321825245400,2.596245361328125,0.0006823018775321543,-0.002886067610234022,-0.006987601984292269
1772639321835290400,2.606290283203125,0.0006095975404605269,-0.0036304211243987083,-0.004737230949103832
1772639321845335600,2.61633544921875,0.001939580193720758,-0.0023995081428438425,-0.007437143474817276
1772639321855380500,2.62638037109375,0.0001691107318038121,-0.0021696772892028093,-0.0037987329997122288
1772639321865425700,2.63642578125,0.0013994910987094045,-0.003317766124382615,-0.006764162797480822
1772639321875470600,2.646470703125,0.0009584716754034162,-0.0034439999144524336,-0.006888266187161207
1772639321885515800,2.656515869140625,0.002013616031035781,-0.0031843415927141905,-0.0072778863832354546
1772639321895560700,2.666560791015625,0.0016386429779231548,-0.002628007438033819,-0.006246710661798716
1772639321905606700,2.676606689453125,0.001734516816213727,-0.0037987329997122288,-0.006682403851300478
1772639321915651600,2.686651611328125,0.0015899071004241705,-0.004406732507050037,-0.006052832584828138
1772639321925696500,2.696696533203125,0.0018064221367239952,-0.0040943436324596405,-0.007080546114593744
1772639321935741700,2.70674169921875,0.002516420790925622,-0.003949734382331371,-0.007682953495532274
1772639321945786600,2.71678662109375,0.0013627394801005721,-0.004336425103247166,-0.005805957596749067
1772639321955831800,2.726831787109375,0.002111886627972126,-0.0037641117814928293,-0.005694371182471514
1772639321965876500,2.73687646484375,0.0022740731947124004,-0.003655987558886409,-0.007069360930472612
1772639321975922700,2.746922607421875,0.000496945867780596,-0.0032629049383103848,-0.007364972028881311
1772639321985967600,2.756967529296875,0.0027507790364325047,-0.00478436890989542,-0.005937251262366772
1772639321996012800,2.7670126953125,0.002621882129460573,-0.0035350800026208162,-0.005535380449146032
1772639322006057700,2.7770576171875,0.0002234392159152776,-0.004040015395730734,-0.005939115304499865
1772639322016102700,2.7871025390625,0.0017963021527975798,-0.005108475685119629,-0.006612629164010286
1772639322026147600,2.797147705078125,0.002046372974291444,-0.003949734382331371,-0.006503173150122166
1772639322036192800,2.80719287109375,0.0029499835800379515,-0.00355878216214478,-0.007133010774850845
1772639322046238700,2.81723876953125,0.002983805723488331,-0.0033835461363196373,-0.0071095749735832214
1772639322056283600,2.82728369140625,0.0011946940794587135,-0.004583566449582577,-0.007296795025467873
1772639322066328800,2.837328857421875,0.0021606225054711103,-0.003910319413989782,-0.0068089039996266365
1772639322076373500,2.84737353515625,0.0026437200140208006,-0.00364693277515471,-0.0071766865439713
1772639322086418700,2.857418701171875,0.0005201153689995408,-0.004209392238408327,-0.004552141297608614
1772639322096463600,2.867463623046875,0.0021816615480929613,-0.001469532260671258,-0.00469462014734745
1772639322106508800,2.8775087890625,0.0024375913199037313,-0.004818190820515156,-0.006110090296715498
1772639322116554800,2.8875546875,0.0010753844399005175,-0.003826962551102042,-0.00788242369890213
1772639322126599400,2.897599365234375,0.0014375743921846151,-0.003796602366492152,-0.005823001731187105
1772639322136644600,2.90764453125,0.0026575683150440454,-0.0044141896069049835,-0.007408115081489086
1772639322146689500,2.917689453125,0.000532632227987051,-0.003733219113200903,-0.0072928001172840595
1772639322156734700,2.927734619140625,0.0000476705827168189,-0.003910852130502462,-0.008476043120026588
1772639322166779600,2.937779541015625,0.0005046690348535776,-0.004501008428633213,-0.007529555354267359
1772639322176824600,2.947824462890625,0.0017712684348225594,-0.003043726785108447,-0.005371329374611378
1772639322186870500,2.95787060546875,0.0012191950809210539,-0.0035092474427074194,-0.00640809815376997
1772639322196915700,2.967915771484375,0.002192580606788397,-0.002639458980411291,-0.008168181404471397
1772639322206960600,2.977960693359375,0.0016713999211788177,-0.004798749927431345,-0.0065412563271820545
1772639322217005800,2.988005859375,0.0017323862994089723,-0.0043830303475260735,-0.00555269094184041
1772639322227050500,2.998050537109375,0.002161954063922167,-0.004502606578171253,-0.00589677132666111
1772639322237095700,3.008095703125,0.001157143502496183,-0.0034738273825496435,-0.006109025329351425
1772639322247140600,3.018140625,0.0022887205705046654,-0.003766775131225586,-0.006139118690043688
1772639322257186600,3.0281865234375,0.0023060310631990433,-0.0036253612488508224,-0.006730340886861086
1772639322267231700,3.038231689453125,0.0006026733317412436,-0.004308195784687996,-0.005900499876588583
1772639322277276700,3.048276611328125,0.0021997711155563593,-0.0039145806804299355,-0.006971622817218304
1772639322287321600,3.058321533203125,0.001326786819845438,-0.0043952809646725655,-0.0047260457649827
1772639322297366500,3.068366455078125,0.0024469124618917704,-0.003590740030631423,-0.006589459255337715
1772639322307411700,3.07841162109375,0.0027920580469071865,-0.0031225562561303377,-0.006422212813049555
1772639322317456600,3.08845654296875,0.0018618159228935838,-0.0049249837175011635,-0.007863515987992287
1772639322327502800,3.0985029296875,0.002929743379354477,-0.0034738273825496435,-0.004983573220670223
1772639322337547500,3.108547607421875,0.0005640574963763356,-0.003069559345021844,-0.007216367404907942
1772639322347592700,3.1185927734375,0.0014183996245265007,-0.004319647327065468,-0.0075663067400455475
1772639322357637600,3.1286376953125,0.0004996090428903699,-0.003951332066208124,-0.0073529877699911594
1772639322367682800,3.138682861328125,0.0012626046082004905,-0.003591006388887763,-0.008244614116847515
1772639322377727700,3.148727783203125,0.0017188041238114238,-0.00430180411785841,-0.005447229836136103
1772639322387772700,3.158772705078125,0.002156095113605261,-0.00404454255476594,-0.006792924832552671
1772639322397818600,3.168818603515625,0.00021758026559837162,-0.004544417839497328,-0.00535561703145504
1772639322407863600,3.178863525390625,0.002478870330378413,-0.0027020431589335203,-0.00618199585005641
1772639322417908700,3.18890869140625,0.0013691311469301581,-0.004234958905726671,-0.00774766830727458
1772639322427953700,3.19895361328125,0.0025217472575604916,-0.0027742148377001286,-0.005300755612552166
1772639322437998800,3.208998779296875,0.002427471335977316,-0.003537210635840893,-0.007006510626524687
1772639322448043500,3.21904345703125,0.001026115962304175,-0.005269863177090883,-0.00669225724413991
1772639322458088700,3.229088623046875,0.0017608820926398039,-0.004592887591570616,-0.005328719038516283
1772639322468134700,3.239134765625,0.0019941749051213264,-0.004366252571344376,-0.007276022341102362
1772639322478179600,3.2491796875,0.003013899317011237,-0.0031382690649479628,-0.006080795545130968
1772639322488224800,3.259224853515625,0.002578738844022155,-0.0036333505995571613,-0.006864031311124563
1772639322498269400,3.26926953125,0.0030341395176947117,-0.0029819414485245943,-0.006459231022745371
1772639322508314600,3.279314697265625,0.001972603378817439,-0.0047260457649827,-0.005495432764291763
1772639322518359600,3.289359619140625,0.001163002452813089,-0.0041558630764484406,-0.006902380846440792
1772639322528404700,3.29940478515625,0.0022301310673356056,-0.004282096866518259,-0.005687180440872908
1772639322538450700,3.30945068359375,0.0021853898651897907,-0.003323891432955861,-0.006846188101917505
1772639322548496000,3.319495849609375,0.0005914880894124508,-0.00375985074788332,-0.006150570698082447
1772639322558540500,3.32954052734375,0.001582716591656208,-0.004605937283486128,-0.005556685384362936
1772639322568585700,3.339585693359375,0.0010894992155954242,-0.0037971350830048323,-0.007213704288005829
1772639322578630700,3.349630615234375,0.0028503811918199062,-0.0037060549948364496,-0.006068811286240816
1772639322588675800,3.35967578125,0.0013230583863332868,-0.004977181553840637,-0.007122624199837446
1772639322598720500,3.369720458984375,0.0022980417124927044,-0.00310497940517962,-0.0057383133098483086
1772639322608766500,3.379766357421875,0.0006791060441173613,-0.005254416726529598,-0.006449377164244652
1772639322618811600,3.389811767578125,0.0023670175578445196,-0.002121740486472845,-0.007017429452389479
1772639322628856600,3.399856689453125,0.0023177489638328552,-0.003961984533816576,-0.006685866042971611
1772639322638901800,3.40990185546875,0.0009512811084277928,-0.004623514134436846,-0.004400873556733131
1772639322648946700,3.41994677734375,0.0046541402116417885,-0.003715908620506525,-0.0049103363417088985
1772639322658991600,3.42999169921875,0.001773398951627314,-0.003471430391073227,-0.005776130128651857
1772639322669036500,3.44003662109375,0.0007566040731035173,-0.0029862024821341038,-0.006628075148910284
1772639322679082800,3.450082763671875,-0.00009427589975530282,-0.005819539539515972,-0.006298375781625509
1772639322689127700,3.460127685546875,0.0008080030675046146,-0.0035814191214740276,-0.00646562222391367
1772639322699172600,3.470172607421875,0.001984853995963931,-0.0032506543211638927,-0.007895739749073982
1772639322709217500,3.480217529296875,0.0026325348298996687,-0.003596598980948329,-0.006622216198593378
1772639322719262700,3.4902626953125,0.0008146609761752188,-0.004006459377706051,-0.004823251161724329
1772639322729307600,3.5003076171875,0.0004213120846543461,-0.004808337427675724,-0.0060946443118155
1772639322739352600,3.5103525390625,0.0035004590172320604,-0.0037710361648350954,-0.007836617529392242
1772639322749397800,3.520397705078125,0.0005107942852191627,-0.0016887104138731956,-0.006640592124313116
1772639322759443700,3.530443603515625,0.0025955168530344963,-0.003590473672375083,-0.007811317685991526
1772639322769488600,3.540488525390625,0.0021851237397640944,-0.004519650712609291,-0.006476275157183409
1772639322779533600,3.550533447265625,0.0016253271605819464,-0.003932689782232046,-0.005576393101364374
1772639322789578800,3.560578857421875,0.0011800467036664486,-0.0038096518255770206,-0.007513842545449734
1772639322799623700,3.570623779296875,0.002897519152611494,-0.0035233621019870043,-0.005358280148357153
1772639322809668600,3.580668701171875,0.001454618526622653,-0.0031302794814109802,-0.004503138829022646
1772639322819713500,3.590713623046875,0.002423742786049843,-0.0032687638886272907,-0.00595536082983017
1772639322829759500,3.600759521484375,0.002130262553691864,-0.004236822947859764,-0.00452843913808465
1772639322839804700,3.6108046875,0.0016948357224464417,-0.0025957829784601927,-0.008636897429823875
1772639322849849600,3.620849609375,0.0010524812387302518,-0.002883404493331909,-0.007692274637520313
1772639322859894800,3.630894775390625,0.0011707255616784096,-0.0030535804107785225,-0.005475192796438932
1772639322869939500,3.640939453125,0.0017241304740309715,-0.0034322820138186216,-0.0065263425931334496
1772639322879985000,3.65098486328125,0.00401737866923213,-0.004181961994618177,-0.006217682268470526
1772639322890029800,3.66102978515625,0.0016532903537154198,-0.0024474449455738068,-0.00768801337108016
1772639322900076000,3.671075927734375,0.0014500912511721253,-0.004024036228656769,-0.006926349364221096
1772639322910121000,3.681120849609375,0.002121474128216505,-0.0044440170750021935,-0.007642473094165325
1772639322920166000,3.691165771484375,0.0014479606179520488,-0.0035502600949257612,-0.006280798930674791
1772639322930210800,3.7012109375,0.0017222663154825568,-0.004718322306871414,-0.005197691265493631
1772639322940256000,3.711256103515625,0.0017134778900071979,-0.004287955816835165,-0.005555886775255203
1772639322950301000,3.721301025390625,0.0011749867117032409,-0.004712996073067188,-0.006363889668136835
1772639322960345900,3.731345947265625,0.00032410668791271746,-0.004841094370931387,-0.006322877015918493
1772639322970392000,3.74139208984375,0.001440237509086728,-0.003938016481697559,-0.00515721132978797
1772639322980436700,3.751436767578125,0.0023704797495156527,-0.0029377329628914595,-0.009019593708217144
1772639322990482000,3.76148193359375,0.003132410114631057,-0.003313771216198802,-0.007404652889817953
1772639323000526800,3.77152685546875,0.0011856392957270145,-0.004832572303712368,-0.0064714811742305756
1772639323010572000,3.781572021484375,0.0027198863681405783,-0.004789695143699646,-0.006795587949454784
1772639323020617000,3.791616943359375,0.0014554174849763513,-0.0043534692376852036,-0.007597732357680798
1772639323030662000,3.801661865234375,0.0018927085911855102,-0.0028943235520273447,-0.00672288378700614
1772639323040707800,3.811707763671875,0.0046514770947396755,-0.004748948849737644,-0.006755374372005463
1772639323050752800,3.821752685546875,0.0019262643763795495,-0.003965180367231369,-0.0062829297967255116
1772639323060798000,3.8317978515625,0.0005030711181461811,-0.003887682454660535,-0.007104780990630388
1772639323070843000,3.8418427734375,0.0024322650860995054,-0.002406698651611805,-0.006130862981081009
1772639323080887800,3.8518876953125,0.0014817827614024282,-0.002825347473844886,-0.007444866932928562
1772639323090932700,3.8619326171875,0.0019470370607450604,-0.0036722328513860703,-0.005625395104289055
1772639323100978000,3.87197802734375,0.0026756778825074434,-0.005023787263780832,-0.006313555873930454
1772639323111023900,3.88202392578125,0.0028695559594780207,-0.0038061898667365313,-0.005351089406758547
1772639323121069000,3.892069091796875,0.0001448759576305747,-0.004254666157066822,-0.005526325665414333
1772639323131114000,3.902114013671875,0.00046312372433021665,-0.0032445292454212904,-0.006508233025670052
1772639323141159000,3.912158935546875,0.0010554107138887048,-0.004430434666574001,-0.0065471152774989605
1772639323151203800,3.922203857421875,0.00024580975878052413,-0.0027840686962008476,-0.006813697516918182
1772639323161249000,3.9322490234375,0.0029406624380499125,-0.003376355627551675,-0.0065622953698039055
1772639323171294000,3.9422939453125,0.0016889767721295357,-0.0033747577108442783,-0.006600910797715187
1772639323181340000,3.95233984375,0.0024567660875618458,-0.0029891319572925568,-0.0068206219002604485
1772639323191384800,3.962384765625,0.00045087316539138556,-0.004536162130534649,-0.007180947344750166
1772639323201429800,3.9724296875,0.0029348034877330065,-0.003555319970473647,-0.005898369010537863
1772639323211475000,3.982474853515625,0.002296443795785308,-0.0039084553718566895,-0.006767358630895615
1772639323221520000,3.992519775390625,0.0012596751330420375,-0.0031755531672388315,-0.006951649207621813
1772639323231565000,4.00256494140625,0.0016141419764608145,-0.00433163158595562,-0.007387608755379915
1772639323241609700,4.012609619140625,0.002234658459201455,-0.004560397006571293,-0.007333280518651009
1772639323251656000,4.022656005859375,0.0008759136544540524,-0.0029529130551964045,-0.006478671915829182
1772639323261700900,4.032700927734375,0.002606435678899288,-0.004505802411586046,-0.005532717332243919
1772639323271746000,4.04274609375,0.0012096078135073185,-0.004569451790302992,-0.00566986994817853
1772639323281791000,4.052791015625,0.002659432590007782,-0.003371029393747449,-0.007237672805786133
1772639323291836000,4.0628359375,0.0019345202017575502,-0.004325506277382374,-0.006903446279466152
1772639323301880800,4.072880859375,0.0011771172285079956,-0.004031759686768055,-0.00555215822532773
1772639323311926000,4.082926025390625,0.00079735042527318,-0.004090082831680775,-0.006986536551266909
1772639323321972000,4.092971923828125,0.0014468954177573323,-0.0036970002111047506,-0.00598545465618372
1772639323332017000,4.103016845703125,0.0005118595436215401,-0.00430127140134573,-0.006400108803063631
1772639323342062000,4.11306201171875,0.0007185208378359675,-0.004988100845366716,-0.007184942252933979
1772639323352106800,4.123106689453125,0.0004439489566721022,-0.004070641472935677,-0.00535588338971138
1772639323362152000,4.13315185546875,0.0005744438385590911,-0.004274107050150633,-0.005873335525393486
1772639323372196900,4.14319677734375,0.002551840851083398,-0.0032261533197015524,-0.007048055995255709
1772639323382242000,4.153241943359375,0.0017305220244452357,-0.003453853540122509,-0.007419566623866558
1772639323392288000,4.1632880859375,0.003418699838221073,-0.0037316211964935064,-0.007291202433407307
1772639323402333000,4.1733330078125,0.0033606430515646935,-0.003156378399580717,-0.006060555577278137
1772639323412377900,4.1833779296875,0.0025632926262915134,-0.003153715282678604,-0.006468551699072123
1772639323422422800,4.1934228515625,0.001312139444053173,-0.00506852800026536,-0.007062170654535294
1772639323432468000,4.203468017578125,0.0020426444243639708,-0.004456267226487398,-0.00646668765693903
1772639323442513000,4.213512939453125,0.0007123955874703825,-0.002865294925868511,-0.0059838565066456795
1772639323452557800,4.223557861328125,0.003323891432955861,-0.0032447953708469868,-0.0057590859942138195
1772639323462603800,4.233603759765625,0.0009089368977583945,-0.0035233621019870043,-0.0062887887470424175
1772639323472649000,4.24364892578125,0.0017811221769079566,-0.004517253953963518,-0.006992395501583815
1772639323482694000,4.25369384765625,0.0011060107499361038,-0.0021875204984098673,-0.006613694131374359
1772639323492739000,4.263739013671875,0.000675377668812871,-0.0044291033409535885,-0.005161738954484463
1772639323502784000,4.273783935546875,0.0009275790071114898,-0.005309277679771185,-0.005945773329585791
1772639323512829000,4.283828857421875,0.0011225224006921053,-0.003769704606384039,-0.006327404174953699
1772639323522873900,4.293873779296875,0.00020106865849811584,-0.00430260319262743,-0.006839796435087919
1772639323532919800,4.303919921875,0.002299905987456441,-0.0049494849517941475,-0.00618093041703105
1772639323542965000,4.313965087890625,0.0004897553008049726,-0.0038067223504185677,-0.007190268486738205
1772639323553010000,4.324010009765625,0.0005033374181948602,-0.004327903036028147,-0.006172941066324711
1772639323563054800,4.334054931640625,0.0015598133904859424,-0.004573180340230465,-0.005814213305711746
1772639323573099800,4.344099853515625,0.0006428870838135481,-0.0046237800270318985,-0.005400890484452248
1772639323583145000,4.35414501953125,0.0018556906143203378,-0.004294347018003464,-0.006947122048586607
1772639323593190000,4.36418994140625,0.0019443739438429475,-0.003712446428835392,-0.0054845139384269714
1772639323603235800,4.37423583984375,0.0029800771735608578,-0.004167846869677305,-0.006834736559540033
1772639323613281000,4.384281005859375,0.0014362427173182368,-0.004258394706994295,-0.007303985767066479
1772639323623326000,4.394325927734375,0.00253453035838902,-0.004768922459334135,-0.005717274267226458
1772639323633371000,4.404370849609375,0.0012918994762003422,-0.003451456781476736,-0.005921272095292807
1772639323643415800,4.414415771484375,0.0010338390711694956,-0.003552124137058854,-0.004742024466395378
1772639323653461000,4.4244609375,0.0018034926615655422,-0.004000067710876465,-0.005477323196828365
1772639323663506000,4.434505859375,0.0021960425656288862,-0.004568119999021292,-0.005893575493246317
1772639323673552000,4.4445517578125,0.0013811152894049883,-0.0037816886324435472,-0.0059814597479999065
1772639323683596800,4.4545966796875,0.0008186557097360492,-0.004038417246192694,-0.008955145254731178
1772639323693642000,4.46464208984375,0.0020266654901206493,-0.002883404493331909,-0.00833649281412363
1772639323703687000,4.47468701171875,0.0013915016315877438,-0.0032059133518487215,-0.005855758674442768
1772639323713732000,4.484732177734375,0.0014112089993432164,-0.002843723399564624,-0.004036286845803261
1772639323723776800,4.49477685546875,0.0007728493656031787,-0.004399808589369059,-0.006134058814495802
1772639323733822000,4.504822021484375,0.0011052117915824056,-0.002493784064427018,-0.006307696923613548
1772639323743868000,4.514867919921875,0.002101234160363674,-0.0036093820817768574,-0.007131945341825485
1772639323753912800,4.524912841796875,0.0005166532355360687,-0.003719370812177658,-0.006964166183024645
1772639323763958000,4.5349580078125,0.0008202536264434457,-0.002545981900766492,-0.00652660895138979
1772639323774002700,4.545002685546875,0.0008609999786131084,-0.003004844533279538,-0.004732437431812286
1772639323784047900,4.5550478515625,0.0028961875941604376,-0.0046237800270318985,-0.005614742636680603
1772639323794092800,4.5650927734375,0.0027332021854817867,-0.004633633885532618,-0.008012119680643082
1772639323804138000,4.575137939453125,0.00031904669594950974,-0.0034322820138186216,-0.007544735446572304
1772639323814184000,4.585183837890625,0.0014972290955483913,-0.004332430195063353,-0.007925300858914852
1772639323824229000,4.59522900390625,0.0029739518649876118,-0.003522030543535948,-0.00700944010168314
1772639323834273800,4.605273681640625,0.00009960222087102011,-0.0032418658956885338,-0.007104780990630388
1772639323844319000,4.615319091796875,0.0016069513512775302,-0.0031457259319722652,-0.008314388804137707
1772639323854364000,4.625364013671875,0.002532133599743247,-0.0035832831636071205,-0.007090932689607143
1772639323864409000,4.6354091796875,0.001925199176184833,-0.005034439731389284,-0.005609150044620037
1772639323874453500,4.64545361328125,0.0015339808305725455,-0.0025273398496210575,-0.008233428932726383
1772639323884499500,4.65549951171875,0.0018961706664413214,-0.004175836686044931,-0.0063154203817248344
1772639323894544600,4.665544677734375,0.00224877311848104,-0.004341484978795052,-0.0057588196359574795
1772639323904589600,4.675589599609375,0.001023186487145722,-0.003834951901808381,-0.005106877535581589
1772639323914634800,4.685634765625,0.0012237224727869034,-0.0031302794814109802,-0.007285077124834061
1772639323924679700,4.6956796875,0.0015986956423148513,-0.004939098376780748,-0.006893059704452753
1772639323934724600,4.705724609375,0.0003051982494071126,-0.0034967304673045874,-0.007164968643337488
1772639323944769500,4.71576953125,0.00290444353595376,-0.0033771544694900513,-0.006102100946009159
1772639323954814700,4.725814697265625,0.0007906925166025758,-0.0038125813007354736,-0.006842459551990032
1772639323964860700,4.735860595703125,0.0015875103417783976,-0.004323109518736601,-0.006461361423134804
1772639323974905900,4.74590576171875,0.002781938062980771,-0.0025590313598513603,-0.006422212813049555
1772639323984950500,4.755950439453125,0.0026117621455341578,-0.0033894050866365433,-0.005854160524904728
1772639323994995700,4.76599560546875,0.00039601203752681613,-0.005646700505167246,-0.006061887368559837
1772639324005040600,4.77604052734375,0.00014221279707271606,-0.0048980857245624065,-0.006074137985706329
1772639324015085800,4.7860859375,0.0012159993639215827,-0.0036133769899606705,-0.005507683381438255
1772639324025130800,4.796130859375,0.0030157635919749737,-0.00424348097294569,-0.00606534956023097
1772639324035176700,4.8061767578125,0.0011041465913876891,-0.00421418622136116,-0.006651244591921568
1772639324045221600,4.8162216796875,0.002825880190357566,-0.004284227266907692,-0.008112520910799503
1772639324055266600,4.8262666015625,0.0022498385515064,-0.003976631909608841,-0.007437676191329956
1772639324065311700,4.836311767578125,0.002442651428282261,-0.0034024545457214117,-0.007620369084179401
1772639324075356700,4.846356689453125,0.0033995250705629587,-0.004246410448104143,-0.005936185829341412
1772639324085401900,4.85640185546875,0.0020471718162298203,-0.003802461316809058,-0.007464840542525053
1772639324095446500,4.866446533203125,0.000598145998083055,-0.004151335451751947,-0.005961486138403416
1772639324105492500,4.876492431640625,0.00022903185163158923,-0.004960403777658939,-0.006385195069015026
1772639324115537700,4.88653759765625,0.0026405241806060076,-0.003862116253003478,-0.005811283830553293
1772639324125582600,4.89658251953125,0.000966727442573756,-0.0034117756877094507,-0.006602242588996887
1772639324135627800,4.906627685546875,0.001458080718293786,-0.003540406236425042,-0.0040852888487279415
1772639324145672400,4.91667236328125,0.001886050682514906,-0.003376621985808015,-0.005053082015365362
1772639324155717600,4.926717529296875,0.0029792783316224813,-0.0034461303148418665,-0.006099704187363386
1772639324165762600,4.936762451171875,0.0032799490727484226,-0.0034226945135742426,-0.006340720225125551
1772639324175808800,4.946808837890625,0.0019896477460861206,-0.004598480183631182,-0.007670170161873102
1772639324185853700,4.956853759765625,0.001222390914335847,-0.004224039614200592,-0.006172941066324711
1772639324195899000,4.96689892578125,0.0014253237750381231,-0.0034735610242933035,-0.00675351032987237
1772639324205943600,4.976943603515625,0.0019086875254288316,-0.003811516100540757,-0.0071753547526896
1772639324215988700,4.98698876953125,0.0010599381057545543,-0.004731638357043266,-0.006514358334243298
1772639324226033700,4.99703369140625,0.0006860303110443056,-0.003555053612217307,-0.007099721115082502
1772639324236078800,5.007078857421875,0.00105301383882761,-0.002808569697663188,-0.006639526691287756
1772639324246124800,5.017124755859375,0.002781405346468091,-0.005963882897049189,-0.0070919981226325035
1772639324256169500,5.02716943359375,0.0020037624053657055,-0.004240018781274557,-0.006432066671550274
1772639324266214700,5.037214599609375,0.000606934423558414,-0.004059989005327225,-0.00842917151749134
1772639324276259600,5.047259521484375,0.0011688614031299949,-0.003769171889871359,-0.00720464950427413
1772639324286304800,5.0573046875,0.001050084363669157,-0.0033281524665653706,-0.0065223476849496365
1772639324296349700,5.067349609375,0.0033044503070414066,-0.003236273303627968,-0.0044104610569775105
1772639324306394600,5.07739453125,0.001371794263832271,-0.003379551460966468,-0.0076363482512533665
1772639324316440600,5.087440673828125,0.0013491574209183455,-0.005021656397730112,-0.0054549528285861015
1772639324326485800,5.09748583984375,0.0015624766238033772,-0.002698314841836691,-0.007439274340867996
1772639324336530700,5.10753076171875,0.002511627273634076,-0.002913498319685459,-0.006325007416307926
1772639324346575600,5.11757568359375,0.000278300343779847,-0.004747084807604551,-0.00552259711548686
1772639324356620500,5.12762060546875,0.002772883279249072,-0.0036613137926906347,-0.006435262504965067
1772639324366665700,5.137665771484375,0.002034388715401292,-0.00387383415363729,-0.007779626175761223
1772639324376710700,5.147710693359375,0.0013193299528211355,-0.0033931334037333727,-0.006865363102406263
1772639324386756600,5.157756591796875,0.0019353191601112485,-0.004322576802223921,-0.006419549696147442
1772639324396801800,5.1678017578125,-0.000007456851108145202,-0.004775047767907381,-0.006869623903185129
1772639324406846700,5.1778466796875,0.0018871158827096224,-0.0025417208671569824,-0.0065284729935228825
1772639324416891600,5.1878916015625,0.0013470269041135907,-0.0032626385800540447,-0.008016647771000862
1772639324426936600,5.1979365234375,0.0016972325975075364,-0.003375822911038995,-0.005626194179058075
1772639324436981800,5.207981689453125,0.0015630092239007354,-0.003344397759065032,-0.006616090890020132
1772639324447026700,5.218026611328125,0.0001483380765421316,-0.0027563716284930706,-0.006042446009814739
1772639324457072600,5.22807275390625,0.0010748518398031592,-0.004005394410341978,-0.0059537626802921295
1772639324467117600,5.23811767578125,0.0024802018888294697,-0.002965163439512253,-0.005350290797650814
1772639324477162500,5.24816259765625,0.0018895127577707171,-0.00498064374551177,-0.00598492193967104
1772639324487207700,5.258207763671875,0.001324123702943325,-0.003552923211827874,-0.007297860458493233
1772639324497252600,5.268252685546875,0.0024738102219998837,-0.002612028270959854,-0.005483182147145271
1772639324507297800,5.2782978515625,0.002088450826704502,-0.004432565066963434,-0.006252569612115622
1772639324517342500,5.288342529296875,0.003343865042552352,-0.00336197461001575,-0.004231496714055538
1772639324527388700,5.298388671875,0.0017041567480191588,-0.003466104157269001,-0.00615136930719018
1772639324537433600,5.30843359375,0.0019406455103307962,-0.0027478495612740517,-0.007011037785559893
1772639324547478800,5.318478759765625,0.002552639925852418,-0.0034522556234151125,-0.006648847833275795
1772639324557523700,5.328523681640625,0.0019326560432091355,-0.0031824775505810976,-0.007099721115082502
1772639324567568600,5.338568603515625,0.002013616031035781,-0.00415399856865406,-0.006340720225125551
1772639324577613600,5.348613525390625,0.0021137509029358625,-0.0028727517928928137,-0.006624612957239151
1772639324587658800,5.35865869140625,0.002785133896395564,-0.00567013630643487,-0.006452572997659445
1772639324597704700,5.36870458984375,0.00038695731200277805,-0.0035241609439253807,-0.006052033510059118
1772639324607749600,5.37874951171875,0.00024101608141791075,-0.004792624618858099,-0.006457632873207331
1772639324617794800,5.388794921875,0.00105301383882761,-0.004111388232558966,-0.005587045568972826
1772639324627839500,5.398839599609375,0.0014799186028540134,-0.004521248396486044,-0.005785983521491289
1772639324637884700,5.408884765625,0.002439721953123808,-0.002293247962370515,-0.005790244787931442
1772639324647929600,5.4189296875,0.0010668623726814985,-0.004766792058944702,-0.006101301871240139
1772639324657974800,5.428974853515625,0.0012357067316770554,-0.004522580187767744,-0.007692806888371706
1772639324668020700,5.439020751953125,0.002261290093883872,-0.004844556096941233,-0.005682653281837702
1772639324678065700,5.449065673828125,0.0018109495285898447,-0.004762264434248209,-0.006044842768460512
1772639324688110600,5.459110595703125,0.0014056164072826505,-0.003528155852109194,-0.005928995553404093
1772639324698155500,5.469155517578125,0.00038056570338085294,-0.0032535837963223457,-0.004493019077926874
1772639324708200700,5.47920068359375,0.001802693703211844,-0.0032376048620790243,-0.005238703917711973
1772639324718245600,5.48924560546875,0.001868473831564188,-0.0036970002111047506,-0.005946039687842131
1772639324728290600,5.49929052734375,0.0020064255222678185,-0.001966744428500533,-0.005943909287452698
1772639324738335500,5.50933544921875,0.0027627632953226566,-0.004715659189969301,-0.006271477788686752
1772639324748381700,5.519381591796875,0.0021915151737630367,-0.0036429380998015404,-0.0067969197407364845
1772639324758426600,5.529426513671875,0.0006937534781172872,-0.0035659726709127426,-0.005301821045577526
1772639324768471800,5.539471923828125,0.003194994293153286,-0.0045585329644382,-0.007348726503551006
1772639324778516700,5.549516845703125,0.0019560917280614376,-0.004335892386734486,-0.005386243108659983
1772639324788561700,5.559561767578125,0.0017536915838718414,-0.003996339626610279,-0.006738596595823765
1772639324798606600,5.569606689453125,0.0026200178544968367,-0.0036487970501184464,-0.005711148958653212
1772639324808651800,5.57965185546875,0.0010215885704383254,-0.003422162029892206,-0.006703176535665989
1772639324818697700,5.58969775390625,0.002927080262452364,-0.0028003137558698654,-0.006127933505922556
1772639324828742700,5.59974267578125,0.0024375913199037313,-0.0035952674224972725,-0.007002515718340874
1772639324838787600,5.60978759765625,0.002311623888090253,-0.00367143377661705,-0.008272044360637665
1772639324848832500,5.61983251953125,0.0011446266435086727,-0.0035180358681827784,-0.0068243504501879215
1772639324858877700,5.629877685546875,0.0012229235144332051,-0.002892725635319948,-0.007000918034464121
1772639324868922600,5.639922607421875,0.000749679864384234,-0.003460777923464775,-0.006173207424581051
1772639324878967600,5.649967529296875,0.002049302449449897,-0.00379021093249321,-0.006626743823289871
1772639324889013500,5.660013427734375,0.0029198897536844015,-0.0036887445021420717,-0.006957241799682379
1772639324899058700,5.67005859375,0.0018724685069173574,-0.004144943784922361,-0.007413441315293312
1772639324909103400,5.680103271484375,0.00019467707898002118,-0.003841077210381627,-0.008407599292695522
1772639324919148500,5.6901484375,0.003067961661145091,-0.005100752227008343,-0.006398777011781931
1772639324929193500,5.700193359375,0.0010460896883159876,-0.004129497334361076,-0.007558850105851889
1772639324939238700,5.71023876953125,0.0007877630414441228,-0.0036341496743261814,-0.006189718842506409
1772639324949283600,5.72028369140625,0.0012887036427855492,-0.003910319413989782,-0.007366836071014404
1772639324959329500,5.73032958984375,0.0012540825409814715,-0.005182245280593634,-0.008204134181141853
1772639324969374500,5.74037451171875,-0.0005613943794742227,-0.00461552431806922,-0.006200105417519808
1772639324979419400,5.75041943359375,0.0008713863207958639,-0.00290417717769742,-0.00714606000110507
1772639324989464600,5.760464599609375,0.0021193434949964285,-0.0029430591966956854,-0.0059508332051336765
1772639324999509500,5.770509521484375,0.0016655409708619118,-0.004239752423018217,-0.006119145080447197
1772639325009554400,5.780554443359375,0.0012913667596876621,-0.0025656893849372864,-0.005449626594781876
1772639325019599400,5.790599365234375,0.0017265273490920663,-0.0028362665325403214,-0.006400641519576311
1772639325029645600,5.8006455078125,0.0017899106023833156,-0.004281297791749239,-0.005599029827862978
1772639325039690500,5.8106904296875,0.0040887510403990746,-0.0034591800067573786,-0.007239803206175566
1772639325049735400,5.8207353515625,0.000553404854144901,-0.003481284249573946,-0.005869873333722353
1772639325059780600,5.830780517578125,0.0018895127577707171,-0.003123355330899358,-0.005316734779626131
1772639325069825500,5.840825439453125,0.0026320021133869886,-0.004975317511707544,-0.005144960712641478
1772639325079870500,5.850870361328125,0.0011448930017650127,-0.003026149934157729,-0.0067844027653336525
1772639325089915400,5.860915283203125,0.0024413196370005608,-0.0043835630640387535,-0.007574030198156834
1772639325099961600,5.870961669921875,0.001621332485228777,-0.0028913940768688917,-0.005938316695392132
1772639325110006500,5.881006591796875,0.0017180051654577255,-0.0035689021460711956,-0.007337008602917194
1772639325120051500,5.891051513671875,0.00031878036679700017,-0.004375307355076075,-0.006618488114327192
1772639325130096400,5.901096435546875,0.0020732709672302008,-0.00440939562395215,-0.0073045180179178715
1772639325140141600,5.9111416015625,0.001169127761386335,-0.004314587451517582,-0.005977198481559753
1772639325150186500,5.9211865234375,0.0007864314829930663,-0.003799265483394265,-0.0070856064558029175
1772639325160231700,5.931231689453125,0.0032719597220420837,-0.00464721629396081,-0.007216101046651602
1772639325170277600,5.941277587890625,0.0036461339332163334,-0.0026197514962404966,-0.006361492909491062
1772639325180322300,5.951322265625,0.0014298511669039726,-0.0019827233627438545,-0.006313555873930454
1772639325190367500,5.961367431640625,0.0022927154786884785,-0.002793922321870923,-0.005627259146422148
1772639325200412400,5.971412353515625,0.0009835053933784366,-0.0041244374588131905,-0.006502107717096806
1772639325210457600,5.98145751953125,0.0019273296929895878,-0.004102333448827267,-0.005812082905322313
1772639325220502300,5.991502197265625,0.002752110594883561,-0.004747883416712284,-0.006851247977465391
1772639325230547500,6.00154736328125,0.0013731258222833276,-0.0032077773939818144,-0.005900233518332243
1772639325240593400,6.011593505859375,0.0019033611752092838,-0.004863997455686331,-0.008841694332659245
1772639325250638600,6.021638671875,0.0015161376213654876,-0.0035502600949257612,-0.005980394314974546
1772639325260683500,6.03168359375,-0.000008255799002654385,-0.0034232272300869226,-0.0075849490240216255
1772639325270728700,6.041728759765625,0.002097239252179861,-0.003975034225732088,-0.006923952605575323
1772639325280773400,6.0517734375,0.0030391993932425976,-0.0032029838766902685,-0.005452289711683989
1772639325290818600,6.061818603515625,-0.0004021373169962317,-0.003918042406439781,-0.007711449172347784
1772639325300863500,6.071863525390625,-0.0003731088654603809,-0.0036418726667761803,-0.006986270658671856
1772639325310909400,6.081909423828125,0.00017496968212071806,-0.0028298748657107353,-0.009830792434513569
1772639325320954600,6.09195458984375,0.0013257216196507215,-0.0033622407354414463,-0.006527673918753862
1772639325330999300,6.101999267578125,0.0006982808117754757,-0.004771851934492588,-0.0051715923473238945
1772639325341044500,6.11204443359375,0.0034133736044168472,-0.0028154938481748104,-0.00572925852611661
1772639325351089400,6.12208935546875,0.0001757686259225011,-0.00695005152374506,-0.00654551712796092
1772639325361134600,6.132134521484375,0.002633333671838045,-0.0035398737527430058,-0.007494135294109583
1772639325371179500,6.142179443359375,-0.00027616979787126184,-0.004372644238173962,-0.006666158325970173
1772639325381224400,6.152224365234375,0.0006788397440686822,-0.005261607468128204,-0.006335127633064985
1772639325391270400,6.1622705078125,0.0012865731259807944,-0.0038482677191495895,-0.006586796138435602
1772639325401315300,6.1723154296875,0.0016463662032037973,-0.006311691831797361,-0.007445399183779955
1772639325411360500,6.182360595703125,0.0009331716573797166,-0.003367567202076316,-0.007144995033740997
1772639325421405400,6.192405517578125,0.0015334481140598655,-0.004732437431812286,-0.005526325665414333
1772639325431450600,6.20245068359375,0.0014974954538047314,-0.005572664551436901,-0.0068299430422484875
1772639325441495300,6.212495361328125,0.0025121597573161125,-0.0020122844725847244,-0.005691175349056721
1772639325451540500,6.22254052734375,0.0025363946333527565,-0.005052815657109022,-0.0073196981102228165
1772639325461586400,6.23258642578125,0.003772367723286152,-0.003344131400808692,-0.007103449665009975
1772639325471631600,6.242631591796875,0.000016245283404714428,-0.004821120295673609,-0.0068118334747850895
1772639325481676500,6.252676513671875,-0.0017411747248843312,-0.0025539714843034744,-0.008143946528434753
1772639325491721500,6.262721435546875,0.000984836951829493,-0.0027443873696029186,-0.0060118199326097965
1772639325501766400,6.272766357421875,0.0014018879737704992,-0.002665025182068348,-0.0070366039872169495
1772639325511811600,6.2828115234375,0.0014839133946225047,-0.004228567238897085,-0.0064834654331207275
1772639325521856500,6.2928564453125,0.003079413203522563,-0.003879160387441516,-0.007181746419519186
1772639325531902500,6.30290234375,0.0005123922019265592,-0.0032658344134688377,-0.00663553224876523
1772639325541947600,6.31294775390625,0.0016980315558612347,-0.0036669063847512007,-0.006155896931886673
1772639325551992300,6.322992431640625,0.000969656917732209,-0.0021704763639718294,-0.006855242885649204
1772639325562037500,6.33303759765625,0.001315335277467966,-0.004240018781274557,-0.005834985990077257
1772639325572082400,6.34308251953125,0.0016138756182044744,-0.004237355664372444,-0.007200921420007944
1772639325582127600,6.353127685546875,0.0019049590919166803,-0.003198190126568079,-0.005884254351258278
1772639325592172300,6.36317236328125,0.0024429175537079573,-0.004209125880151987,-0.006204632576555014
1772639325602218500,6.373218505859375,0.0016050871927291155,-0.0027134947013109922,-0.007470699492841959
1772639325612263400,6.383263427734375,0.0008317052270285785,-0.00532445777207613,-0.004639759194105864
1772639325622308600,6.39330859375,0.002700445242226124,-0.003974767867475748,-0.0068115671165287495
1772639325632353500,6.403353515625,0.0016554208705201745,-0.002837598090991378,-0.005876797717064619
1772639325642398700,6.413398681640625,0.00046099317842163146,-0.003372893435880542,-0.008259793743491173
1772639325652443400,6.423443359375,0.002150502521544695,-0.0037063213530927896,-0.005509547423571348
1772639325662488600,6.433488525390625,0.0012538161827251315,-0.005170793738216162,-0.006968959700316191
1772639325672534500,6.443534423828125,0.0013526194961741567,-0.003459446132183075,-0.005939648021012545
1772639325682579500,6.453579345703125,0.0011936287628486753,-0.004189152270555496,-0.006908506155014038
1772639325692624600,6.463624755859375,0.0013933659065514803,-0.0031904669012874365,-0.007093063089996576
1772639325702669300,6.47366943359375,0.0019678096286952496,-0.004305799026042223,-0.005853361915796995
1772639325712714500,6.483714599609375,0.001275920425541699,-0.0037175065372139215,-0.006325806491076946
1772639325722759400,6.493759521484375,0.0009158611064776778,-0.0035366779193282127,-0.006946589332073927
1772639325732804600,6.5038046875,0.000966727442573756,-0.0046365633606910706,-0.007756190374493599
1772639325742850600,6.5138505859375,0.0009584716754034162,-0.003838414093479514,-0.00694818701595068
1772639325752895500,6.5238955078125,0.0021635519806295633,-0.004633633885532618,-0.005909554194658995
1772639325762940400,6.5339404296875,0.0014823154779151082,-0.003001915058121085,-0.008620918728411198
1772639325772985300,6.5439853515625,0.0024668860714882612,-0.004806739278137684,-0.006434996146708727
1772639325783030500,6.554030517578125,0.002379800658673048,-0.0034786208998411894,-0.007349525578320026
1772639325793075500,6.564075439453125,0.0010990865994244814,-0.003858920419588685,-0.0036035231314599514
1772639325803120400,6.574120361328125,0.0016045545926317573,-0.003879160387441516,-0.004735100548714399
1772639325813166300,6.584166259765625,0.0019294602097943425,-0.004191282670944929,-0.007244064472615719
1772639325823211500,6.59421142578125,0.0016223976854234934,-0.002266882685944438,-0.006618488114327192
1772639325833256400,6.60425634765625,0.0021369203459471464,-0.003413107246160507,-0.006414223462343216
1772639325843301600,6.614301513671875,0.0017150756902992725,-0.0038040592335164547,-0.006940464023500681
1772639325853346600,6.6243466796875,0.002551840851083398,-0.003465837799012661,-0.005616340320557356
1772639325863391500,6.6343916015625,0.001570998691022396,-0.004506334662437439,-0.00660543842241168
1772639325873436400,6.6444365234375,0.002801911672577262,-0.00418515782803297,-0.0068312743678689
1772639325883481000,6.654481201171875,0.0022746059112250805,-0.0037763623986393213,-0.006608634255826473
1772639325893527000,6.664527099609375,0.0019981698133051395,-0.004606203176081181,-0.006245112512260675
1772639325903572000,6.674572021484375,0.0018924422329291701,-0.0038458709605038166,-0.006963633466511965
1772639325913617200,6.6846171875,0.003238936420530081,-0.004078364931046963,-0.005429386626929045
1772639325923662000,6.694662109375,0.002767024328932166,-0.002567820018157363,-0.006868292577564716
1772639325933707000,6.70470703125,0.0031369375064969063,-0.0036093820817768574,-0.0068144965916872025
1772639325943752000,6.714751953125,0.001026382320560515,-0.0035294874105602503,-0.005780124571174383
1772639325953797000,6.724797119140625,0.0034320156555622816,-0.005352687556296587,-0.0065380604937672615
1772639325963843000,6.734843017578125,0.0016668725293129683,-0.00353428116068244,-0.005357481073588133
1772639325973888300,6.74488818359375,0.0013265205780044198,-0.0029257487040013075,-0.009490440599620342
1772639325983933200,6.75493310546875,0.003165699541568756,-0.004514058120548725,-0.0054823835380375385
1772639325993978000,6.76497802734375,0.001324123702943325,-0.003972371108829975,-0.006191316992044449
1772639326004023000,6.77502294921875,0.0010524812387302518,-0.0025249430909752846,-0.004574245307594538
1772639326014068200,6.785068115234375,-0.000215716048842296,-0.0034794199746102095,-0.006996390409767628
1772639326024113200,6.795113037109375,0.0013195963110774755,-0.003768905531615019,-0.006836600601673126
1772639326034159000,6.8051591796875,0.002226402750238776,-0.0028240159153938293,-0.005792108830064535
1772639326044204300,6.815204345703125,0.001969407545402646,-0.0041313618421554565,-0.006189985200762749
1772639326054249000,6.8252490234375,0.0006732470938004553,-0.004065315239131451,-0.007267233915627003
1772639326064294100,6.835294189453125,0.002029328839853406,-0.005403021350502968,-0.00569996377453208
1772639326074339000,6.845339111328125,0.0031190942972898483,-0.004589958116412163,-0.006073605269193649
1772639326084384300,6.85538427734375,0.0006114617572166026,-0.003448527306318283,-0.005828594323247671
1772639326094429000,6.865428955078125,0.0004996090428903699,-0.0036370791494846344,-0.007760451175272465
1772639326104475100,6.87547509765625,0.0008804410463199019,-0.0031875374261289835,-0.006411560345441103
1772639326114520000,6.88552001953125,0.001065264455974102,-0.004080228973180056,-0.006344448775053024
1772639326124565200,6.895565185546875,0.0014612764352932572,-0.00469462014734745,-0.007376423571258783
1772639326134610200,6.905610107421875,0.0015965650090947747,-0.002686596941202879,-0.005562278442084789
1772639326144655000,6.915655029296875,0.0017976337112486362,-0.003719104453921318,-0.007831291295588017
1772639326154700000,6.925699951171875,0.0011113371001556516,-0.003687146585434675,-0.008737032301723957
1772639326164745200,6.9357451171875,0.0021315941121429205,-0.0028658276423811913,-0.007371097337454557
1772639326174791200,6.945791259765625,-0.0004013383586425334,-0.005875998642295599,-0.006196376867592335
1772639326184836000,6.955836181640625,0.0012887036427855492,-0.003801928833127022,-0.008447280153632164
1772639326194881300,6.96588134765625,0.001678057829849422,-0.005605687852948904,-0.006250971462577581
1772639326204926000,6.975926025390625,0.002787530655041337,-0.0037020600866526365,-0.0067998492158949375
1772639326214971100,6.98597119140625,0.0022298647090792656,-0.002290584845468402,-0.00589730404317379
1772639326225016000,6.99601611328125,0.0011195929255336523,0.020540162920951843,0.00729493098333478
1772639326235061200,7.006061279296875,0.0009166600648313761,0.004868258256465197,-0.0011488876771181822
1772639326245106200,7.016106201171875,0.00119629199616611,0.002472478663548827,-0.0025039040483534336
1772639326255152000,7.026152099609375,-0.00008841694943839684,0.002794188680127263,-0.0006407565670087934
1772639326265197000,7.036197021484375,0.002537459833547473,-0.014914500527083874,-0.01278503704816103
1772639326275242000,7.046241943359375,0.0007590008899569511,-0.020002203062176704,-0.01516084372997284
1772639326285287200,7.056287109375,0.001240766723640263,-0.019059179350733757,-0.014728612266480923
1772639326295332000,7.06633203125,0.002566488226875663,-0.019464245066046715,-0.013849502429366112
1772639326305377000,7.076376953125,0.0013789847726002336,0.011451326310634613,0.0007954862085171044
1772639326315422000,7.086421875,0.0017504957504570484,-0.010354369878768921,-0.008865130133926868
