time,seconds_elapsed,z,y,x
1772735080171343600,0.073343505859375,0.034305005183815955,0.03040478287488222,-0.0790664128543809
1772735080181370600,0.08337060546875,0.06063479370474815,0.058627399405092,-0.06458636260842904
1772735080191397400,0.0933974609375,0.04711246430873871,0.04747859420739114,-0.00708120869891718
1772735080201424400,0.10342431640625,0.04524959304630756,0.024411716472543775,0.02301419769953936
1772735080211451600,0.11345166015625,0.05416062925457954,-0.02136526144873351,0.04134657599208876
1772735080221478400,0.123478515625,0.05904723225235939,-0.042177382526732976,0.0631181714856997
1772735080231505400,0.13350537109375,0.04690495903789997,-0.0335005934657529,0.08784280809862538
1772735080241532700,0.14353271484375,0.06710778911113739,-0.014256890748254954,0.06320024201227352
1772735080251559400,0.153559326171875,0.05005962367653846,0.013560652112402021,0.033413262242171914
1772735080261585400,0.16358544921875,0.050368835756182666,0.011495645873993635,-0.012630860449001193
1772735080271612400,0.1736123046875,0.04737725272476673,0.046670748423226174,-0.04151530188880861
1772735080281639400,0.183639404296875,0.04122983601093292,0.03013184768501669,-0.05191692371470853
1772735080291666400,0.19366650390625,0.053480830296874046,0.02079798295479268,-0.06808549330318346
1772735080301693400,0.203693359375,0.056741293397545814,-0.014678002237156033,-0.06710360612636432
1772735080311720400,0.213720458984375,0.034708909809589385,-0.04155811811722815,-0.029025055486895143
1772735080321747500,0.22374755859375,0.03842646902799606,-0.045771680691651995,0.00039446094399318095
1772735080331774500,0.2337744140625,0.05910451539754867,-0.04015051634162664,0.003505377772450447
1772735080341801500,0.243801513671875,0.04571253438293934,-0.015065394119545817,0.04659793891534209
1772735080351828200,0.253828125,0.05646598358750343,-0.021584311026893555,0.07287533966191112
1772735080361855500,0.26385546875,0.05103109905719757,0.004005874640494585,0.05983324979720637
1772735080371882500,0.273882568359375,0.04929857617616653,-0.000772591807693243,0.04013723673494533
1772735080381909200,0.2839091796875,0.05056640415489674,-0.020209917401149868,0.006945234294328838
1772735080391936500,0.2939365234375,0.03613455869853496,-0.039113757172413166,0.005967055178247391
1772735080401962500,0.30396240234375,0.049156537356972695,-0.048806262614578,-0.017188596818596125
1772735080411989500,0.313989501953125,0.04652969598472118,-0.031053054183162745,-0.02779503876790404
1772735080422016300,0.324016357421875,0.04360650201439857,-0.006296908187121152,-0.024845267317909744
1772735080432043500,0.33404345703125,0.053937926414608955,0.014819675730168819,-0.017330909632425753
1772735080442070500,0.344070556640625,0.057203065690398215,0.025224165366590022,0.012959434816241264
1772735080452097500,0.35409765625,0.04397942698001861,0.026216793133132157,0.016276212947722524
1772735080462124300,0.364124267578125,0.05561608875989914,-0.004868446286581457,0.02192302319565788
1772735080472151600,0.374151611328125,0.05354629674851894,-0.023543628401122986,0.03414263596264645
1772735080482178600,0.384178466796875,0.06180792913734912,-0.033346316219493743,0.02437394174542278
1772735080492205300,0.394205322265625,0.04849135144650936,-0.02631860953979194,-0.007964804866723716
1772735080502232600,0.404232666015625,0.032311201018095016,-0.01576521295197308,-0.01935222285958007
1772735080512259600,0.414259521484375,0.03166998050510883,0.00406005251314491,-0.022309775757230817
1772735080522286300,0.424286376953125,0.0410737686663866,0.028647198617830872,-0.03710855482984334
1772735080532313300,0.434313232421875,0.06484452035427093,0.034705804537050425,-0.012595679537765681
1772735080542339600,0.444339599609375,0.044967853495478625,0.02058799346592277,-0.023425682843569665
1772735080552366600,0.45436669921875,0.034544659158587454,0.002899228572845459,-0.030115736800432204
1772735080562393300,0.464393310546875,0.05030395382642746,-0.028353074509464202,-0.0009583601707592606
1772735080572420400,0.47442041015625,0.051065585848689074,-0.02398625760208815,0.0212430233085528
1772735080582447600,0.484447509765625,0.047475452402234074,-0.01534983708411455,0.013754585515614598
1772735080592474400,0.494474365234375,0.04147065902948379,-0.0025174992462620137,0.015358824108168481
1772735080602501400,0.50450146484375,0.04172375700771808,0.01069718897268176,0.022922062436677514
1772735080612528600,0.514528564453125,0.049454058998823165,0.031156587622873485,0.026477106303442268
1772735080622555400,0.524555419921875,0.042832595032453534,-0.0019154051672667263,0.02151380307395011
1772735080632582400,0.53458251953125,0.04774842412471771,-0.009530337150394915,0.004469473564252257
1772735080642609400,0.544609375,0.054956748068332666,-0.03444211209956556,0.00915359452618286
1772735080652636400,0.554636474609375,0.06381693087220192,-0.03817125215791166,0.013888568892516195
1772735080662663400,0.564663330078125,0.043643911415338514,-0.02093538213148713,0.003943257733061909
1772735080672690400,0.5746904296875,0.049040802022814745,-0.002803001656755805,0.01192415521806106
1772735080682716400,0.58471630859375,0.04335808021128178,0.024060491882078348,-0.006886453311797231
1772735080692743400,0.594743408203125,0.03556523437798023,0.02799465299323201,0.00024886019453406334
1772735080702770400,0.6047705078125,0.04051847287118435,0.025268735160678624,-0.01475906811673194
1772735080712797400,0.61479736328125,0.049504327881336206,0.0030390754349529743,-0.0207623636521399
1772735080722824400,0.624824462890625,0.05162497329711914,0.015113215316645801,-0.009586944442149251
1772735080732851500,0.6348515625,0.050017538100481033,0.04153996140602976,-0.010995477799512446
1772735080742878500,0.64487841796875,0.04120703965723514,0.013024499409087002,-0.011894344601687043
1772735080752905500,0.654905517578125,0.0343248789280653,-0.0219309325074777,-0.03319143618503585
1772735080762932500,0.664932373046875,0.044617140361666675,-0.0514573251126334,-0.014992073155008256
1772735080772959500,0.67495947265625,0.05372457592487335,-0.03605879004858434,0.001435731891542673
1772735080782987500,0.684987548828125,0.04800795184373855,-0.011830101992748678,0.01335480907568708
1772735080793014500,0.6950146484375,0.04245207128226757,0.029916524433903396,0.01749517854973674
1772735080803041500,0.70504150390625,0.05799743093848228,0.0491930699750781,0.037033845625817775
1772735080813068500,0.715068603515625,0.06395020186305046,0.04774762040711939,0.04001326329540461
1772735080823094500,0.725094482421875,0.028923312145471572,0.016552271676436067,0.01909696945687756
1772735080833121500,0.73512158203125,0.036706221106648444,-0.028943806944228708,0.010112959343940018
1772735080843148500,0.7451484375,0.037626843082904815,-0.053123395161330696,-0.02075251811156049
1772735080853175600,0.755175537109375,0.05156827467381954,-0.0440515423681587,-0.002405106646660715
1772735080863202600,0.76520263671875,0.05023147311210632,-0.05517956050615758,0.01931218311013654
1772735080873229600,0.7752294921875,0.05501110860407352,-0.0224352287678048,-0.005884692390728741
1772735080883256600,0.785256591796875,0.04631225384175777,0.005823007065057754,-0.006860095027834177
1772735080893283600,0.79528369140625,0.04225801001489162,0.03567209228593856,0.009309351343475282
1772735080903310600,0.805310546875,0.0513823967128992,0.033273433646373446,0.01482460763361305
1772735080913337300,0.81533740234375,0.04467325446307659,0.008399944880977273,0.008959514992497862
1772735080923364600,0.825364501953125,0.04245207128226757,-0.007140336741320788,0.005441168140619993
1772735080933391600,0.8353916015625,0.052664837738871574,-0.02949300179220736,0.014972747400030493
1772735080943418600,0.845418701171875,0.0461193616181612,-0.012211064134351909,-0.0008213993854820728
1772735080953445600,0.855445556640625,0.051805006039142606,0.0008307517357170581,-0.013095336155593395
1772735080963472600,0.86547265625,0.045806642407178876,0.008817512705922126,-0.03938329482879489
1772735080973498600,0.87549853515625,0.04039689231812954,0.010219707654044032,-0.019083635051269084
1772735080983525600,0.885525634765625,0.04158171818852424,0.01162577505968511,-0.0002975764407776296
1772735080993552600,0.895552734375,0.0384334832906723,0.0027683687347918747,0.0022347915810532865
1772735081003579600,0.90557958984375,0.0592383709102869,-0.03336538624614477,0.021573570437170564
1772735081013606700,0.915606689453125,0.05087795432209968,-0.0368605348855257,0.016249142277706415
1772735081023633400,0.92563330078125,0.045801966232061384,-0.03861760768592357,0.03689153281198814
1772735081033660700,0.93566064453125,0.05103694427609443,-0.02049461609404534,0.032098343718703834
1772735081043687700,0.945687744140625,0.043531098690629,0.0050208969019353384,0.032363004270568485
1772735081053714400,0.95571435546875,0.04321662591397762,0.039968656968697905,-0.0038028080827556547
1772735081063741700,0.96574169921875,0.04590601112842559,0.0423679001301527,-0.005642079273890704
1772735081073768700,0.975768798828125,0.05862286936044692,0.03050627048797905,-0.01622123135747388
1772735081083795500,0.98579541015625,0.0430868620544672,0.00866780203692615,-0.013542714596912264
1772735081093822500,0.995822509765625,0.041755905711650845,-0.024849450302682815,-0.011325805732421576
1772735081103849700,1.005849609375,0.03324585151970386,-0.02361939705107361,-0.019589027290139345
1772735081113876500,1.01587646484375,0.038948447075486184,-0.02415763211362064,-0.015202683698385953
1772735081123902500,1.02590234375,0.04987842189073562,-0.05781224709730595,0.012429163864441215
1772735081133929500,1.035929443359375,0.040728900751471515,-0.010503018107451498,0.002784223891049623
1772735081143956700,1.045956787109375,0.04160217645466328,0.029202019488997755,0.003693904348183423
1772735081153983500,1.0559833984375,0.05011866038739681,0.03160725399982184,0.010713208525720982
1772735081164010500,1.066010498046875,0.057442719665169714,0.014810652173496782,0.016916483612637964
1772735081174037500,1.07603759765625,0.04457856191694736,0.03709017892293632,-0.0010253975249826907
1772735081184064500,1.086064453125,0.05564765294194221,-0.0008328340949490666,-0.015398060140013693
1772735081194091500,1.096091552734375,0.03934299935102462,-0.027499636017903683,-0.031086335398256778
1772735081204118500,1.106118408203125,0.05521218413412571,-0.020619667245820164,-0.03875456847120076
1772735081214145500,1.1161455078125,0.05447977820634842,-0.026510223121754824,-0.03430462159132585
1772735081224172500,1.126172607421875,0.06945698258578777,0.022377836024761198,-0.030247528220247476
1772735081234199600,1.136199462890625,0.05524608640372753,0.046677653088048096,0.02238622026061639
1772735081244226600,1.1462265625,0.03085924864411354,0.046547268174029884,0.03523855970688164
1772735081254253600,1.156253662109375,0.07500058818757534,0.01738601908683777,0.068332435535267
1772735081264280600,1.166280517578125,0.05674830766022205,-0.02937825283873826,0.07503213410330936
1772735081274306600,1.176306640625,0.03415361401438713,-0.06023417701460421,0.04467144609848037
1772735081284333600,1.18633349609375,0.04118365878164768,-0.05661456174533814,0.018725469263363628
1772735081294360600,1.196360595703125,0.042969373154640195,-0.0584903655545786,-0.024122560800239442
1772735081304387600,1.2063876953125,0.05148936421871185,-0.03841284236144274,-0.031297914056014266
1772735081314414600,1.21641455078125,0.04370645525753498,0.005935125670023262,-0.0306034655184485
1772735081324441600,1.226441650390625,0.05103519071042537,0.03826937877014279,-0.03589459419650957
1772735081334468600,1.236468505859375,0.04100654864907265,0.06298745777811855,-0.00963803530856967
1772735081344495600,1.24649560546875,0.0489426023453474,0.071728142388165,0.021653704734984784
1772735081354522400,1.2565224609375,0.052692894789576526,0.05345664570368826,0.0044800132245756685
1772735081364549600,1.266549560546875,0.0636211160391569,0.018274346228688954,-0.009298135829716921
1772735081374576600,1.27657666015625,0.04641688326001167,-0.024516199760325253,-0.010731529633700847
1772735081384603400,1.286603271484375,0.057043491214513777,-0.07547054378688335,-0.018522220042534173
1772735081394630700,1.296630615234375,0.0625759909003973,-0.0629000352229923,-0.040616836945433166
1772735081404657700,1.30665771484375,0.052536242923140526,-0.036569260321371255,-0.02924911003373563
1772735081414684400,1.316684326171875,0.06434767674803733,-0.0022607480062171816,-0.04147897020010277
1772735081424710400,1.32671044921875,0.04833353053629398,0.047621546342037614,-0.02959839839544147
1772735081434737700,1.336737548828125,0.04309329179525375,0.058827013630419964,-0.009241455472726375
1772735081444764700,1.3467646484375,0.03890636149942875,0.04945073453057557,-0.0038893721213564274
1772735081454791400,1.35679150390625,0.04983341370522976,0.00962155909780413,0.010655158195551484
1772735081464818400,1.366818359375,0.041165538603067396,-0.02564096600655466,0.04720699245808646
1772735081474845700,1.376845703125,0.0547895748078823,-0.055565198822878296,0.0636783991843462
1772735081484872700,1.386872802734375,0.0507552047252655,-0.04614263289589435,0.06955569371990859
1772735081494899500,1.3968994140625,0.03863105168938637,-0.025237353641726076,0.05835758775407448
1772735081504926700,1.4069267578125,0.048043023157119745,0.01426543938089162,0.031164131608512252
1772735081514953700,1.41695361328125,0.04623158982098102,0.027039507692866026,0.004347801679652184
1772735081524980500,1.42698046875,0.058933250483870506,0.026695480028167365,0.024481384175270793
1772735081535007500,1.437007568359375,0.050402153503894806,0.008597549812309443,-0.010968863787222652
1772735081545034800,1.44703466796875,0.040537762093544004,-0.03843699042201042,-0.019560239587072283
1772735081555061500,1.4570615234375,0.054336570343375204,-0.05361461274437606,-0.016720577448047697
1772735081565088500,1.467088623046875,0.04193593845367431,-0.06833897487390786,-0.008530841251648961
1772735081575114500,1.477114501953125,0.05886018524765968,-0.02217248617839068,-0.015127335173543541
1772735081585141800,1.487141845703125,0.040001170998811716,0.009163147805817425,-0.008712718890886753
1772735081595168500,1.49716845703125,0.053007952088117594,0.040473428153060376,-0.0005994637304916978
1772735081605195500,1.507195556640625,0.044025019687414166,0.034078137625381345,-0.005433149230945855
1772735081615222800,1.517222900390625,0.04970657245516777,0.03406286699101329,-0.012710684219561516
1772735081625249500,1.52724951171875,0.058090954440832135,0.0031999285524711013,-0.012830018016602843
1772735081635276500,1.537276611328125,0.043435237100720406,-0.011403072219714521,-0.011627199831791222
1772735081645303600,1.547303466796875,0.04315291302800178,-0.02350450196713209,-0.015767057849187402
1772735081655330600,1.55733056640625,0.035973230656981464,-0.026664938759431243,-0.015686065034847707
1772735081665357600,1.567357666015625,0.049286301216483114,-0.0047581177799031135,-0.012168832427822053
1772735081675384600,1.577384521484375,0.042835517641901966,0.005354001313820481,0.009020853258296846
1772735081685411600,1.58741162109375,0.04446458014845848,0.010435651959665119,0.012659757749922573
1772735081695438600,1.5974384765625,0.05327683215737342,0.021437997891381382,0.010717628972511738
1772735081705465600,1.607465576171875,0.04369359577596187,0.010121581041812896,0.02476637512911111
1772735081715492600,1.61749267578125,0.05880348662436008,0.015387538745999336,0.04024873428540304
1772735081725519600,1.62751953125,0.04833353053629398,0.006479461679793894,0.03692790103331208
1772735081735545600,1.637545654296875,0.03726794664263725,-0.014317388763837516,0.010127901184745132
1772735081745572600,1.647572509765625,0.057173255074024196,-0.009632738078944384,0.014913400161918252
1772735081755599600,1.657599609375,0.04296002080440521,-0.018962803416885436,0.010965776780992746
1772735081765626600,1.667626708984375,0.048048283854126926,-0.025888693689927456,0.0019038791262544692
1772735081775653600,1.677653564453125,0.060011108848452566,-0.004476597424782812,-0.014183113125991076
1772735081785678600,1.6876787109375,0.02889408605098724,-0.0015879998438060282,0.0002981609626673162
1772735081795705900,1.697705810546875,0.04176350449621677,-0.008890212615951895,-0.016378613876271993
1772735081805732600,1.707732666015625,0.06571136631667614,-0.01305372550357133,-0.030894374756421893
1772735081815759600,1.717759521484375,0.04507014482617378,0.013487221550010144,-0.014077880919538438
1772735081825787000,1.727786865234375,0.04282791885733604,0.009451865086704493,-0.0303354622320272
1772735081835814000,1.73781396484375,0.046124622315168375,0.013125256369821727,-0.01889014003947377
1772735081845840600,1.747840576171875,0.05436112026274204,0.01213891221359372,0.009143968181312084
1772735081855867600,1.75786767578125,0.034603111347556115,0.014532821612805127,0.026156075921840966
1772735081865895000,1.76789501953125,0.04552957903146743,-0.009323416401445865,-0.0015347170202992856
1772735081875921700,1.777921630859375,0.0480669885545969,-0.010238960343785583,-0.0011280541818588972
1772735081885947600,1.78794775390625,0.051796822732686994,-0.01291599753331393,0.007249916329327971
1772735081895974700,1.797974609375,0.051772272813320155,-0.018346388551592825,-0.007065499673131853
1772735081906002000,1.808001953125,0.04799859949350357,-0.0005778729531913995,-0.012132391141261904
1772735081916028700,1.818028564453125,0.053204935964941975,0.00035754473339766265,-0.012509426026418805
1772735081926055700,1.8280556640625,0.043621699583530425,0.007310578741692006,-0.012657054336182772
1772735081936083000,1.8380830078125,0.050509705531597136,0.016156586889736355,-0.007239595864713191
1772735081946109700,1.848109619140625,0.04138882596492767,-0.008843195136450231,0.015171959766559303
1772735081956136700,1.85813671875,0.04363455906510353,-0.01178151361066848,0.017312223198264837
1772735081966163700,1.868163818359375,0.04873568159639835,-0.009937347048707306,0.019187606882397085
1772735081976190700,1.878190673828125,0.04036415909230709,-0.020114457670040428,0.02302707544742152
1772735081986217700,1.8882177734375,0.04948620770275593,0.017366437603533267,0.014268161060940473
1772735081996244700,1.89824462890625,0.04259586366713047,0.014521204240247606,0.007834657414723186
1772735082006271700,1.908271728515625,0.05305763644874096,0.0165660079408437,-0.018085253397375343
1772735082016298800,1.918298828125,0.0421153866738081,0.010540208312682807,-0.018608455287571997
1772735082026325800,1.92832568359375,0.04676525830626487,-0.009295322818122804,-0.012493041147198528
1772735082036352500,1.9383525390625,0.05590659613907337,-0.0012912453869357704,-0.020517942170705645
1772735082046378800,1.948378662109375,0.05562076493501663,-0.006026018823869526,-0.01106004920201376
1772735082056405800,1.95840576171875,0.055496846294403074,0.014379676877707243,-0.002985262888483703
1772735082066432800,1.968432861328125,0.05369827243983745,-0.002926737634278834,0.0091774868584238
1772735082076459500,1.97845947265625,0.043968905586004255,0.004808094401471317,0.00558156299199909
1772735082086486800,1.98848681640625,0.03930792803764343,0.004188501198403537,0.018038199385255575
1772735082096513800,1.998513671875,0.04123626575171947,-0.006683605949766934,-0.006734660283569246
1772735082106540800,2.008540771484375,0.04302899438738823,-0.014634784149937331,-0.00012196414554491638
1772735082116567800,2.01856787109375,0.054693713217973706,-0.01180467529054731,0.005402699293754995
1772735082126594800,2.0285947265625,0.05978139174580574,-0.00017948475275188683,0.0006161774032749235
1772735082136621800,2.038621826171875,0.05379296498596668,-0.002793941567465663,-0.006230857213586569
1772735082146648600,2.048648681640625,0.06561608924865722,-0.006364785791561007,0.017067271993868052
1772735082156675800,2.05867578125,0.06890285583436488,-0.0064660907415673135,-0.005241864442545921
1772735082166702800,2.068702880859375,0.03359422656595707,-0.021349808151274918,0.00037255963943898674
1772735082176729600,2.0787294921875,0.05977496200501919,-0.01763655978180468,0.008364435176178813
1772735082186756900,2.0887568359375,0.034494390276074406,-0.016518844330869614,0.003849241040367633
1772735082196783900,2.098783935546875,0.04886953710913658,-0.01762844954058528,0.006630743251368403
1772735082206809900,2.108809814453125,0.058147068542242046,-0.01870725775323808,0.015559753507748245
1772735082216836600,2.118836669921875,0.03660217621028423,-0.005116173969954252,0.012465258091129363
1772735082226863600,2.128863525390625,0.05232406147718429,0.006988507180474698,0.01687931167371571
1772735082236891000,2.138890869140625,0.04903144967257976,-0.0005742562239989638,0.0011572620100341736
1772735082246917600,2.148917724609375,0.05502630617320537,0.0036027371997013687,0.01673248708155006
1772735082256944600,2.158944580078125,0.05084872822761535,0.013448496974818407,0.01497488455818966
1772735082266972000,2.168971923828125,0.0390349563151598,0.0008066036751493811,0.00630067104678601
1772735082276998700,2.17899853515625,0.037243396723270414,-0.020440109427832066,-0.006969711148459464
1772735082287025700,2.189025634765625,0.05416588995158672,-0.014211371106095612,-0.008391597177740186
1772735082297053000,2.199052978515625,0.057167994377017015,-0.012564663344994186,-0.006188497642893344
1772735082307079700,2.20907958984375,0.06031272214353084,0.01428973357193172,0.011997494448907672
1772735082317106700,2.219106689453125,0.05596972450315952,0.014494571961648762,0.013665829519927501
1772735082327133700,2.2291337890625,0.04145253885090351,0.03499481407888234,0.008595796246640384
1772735082337160700,2.23916064453125,0.04878478143513203,0.022643464691005647,0.021025635964516547
1772735082347187700,2.249187744140625,0.04773790273070335,0.0016836057053878902,0.0034798414723947644
1772735082357214700,2.259214599609375,0.04071253413856029,-0.009542758240550757,0.003016425211727619
1772735082367242000,2.269241943359375,0.05164017086625099,-0.009656959204748272,-0.006322389688249677
1772735082377267700,2.279267822265625,0.035330256578326225,-0.023907493277452885,0.0017602694044820963
1772735082387294700,2.289294677734375,0.04206628683507442,-0.02493259854149073,-0.01834872663915157
1772735082397321700,2.29932177734375,0.05238543627560138,-0.015547405482828616,-0.01705755431745201
1772735082407348700,2.3093486328125,0.033676644152402874,0.013112068094685674,-0.0011214783105999231
1772735082417375700,2.319375732421875,0.04669920733273029,0.025118732230737805,0.003991919180378317
1772735082427402800,2.32940283203125,0.0549292755395174,0.03687127547524869,0.003744191497005522
1772735082437429800,2.3394296875,0.04460544992387294,-0.032255927166901524,-0.0006269545256160199
1772735082447456800,2.349456787109375,0.03891746741533279,-0.0713994218904525,-0.021646544341836122
1772735082457483800,2.35948388671875,0.05148761065304279,-0.01640997712891549,-0.055839120393432674
1772735082467510800,2.3695107421875,0.048047699332237244,0.20512659554127602,-0.09829444307871163
1772735082477537500,2.37953759765625,0.05373743540644645,0.36012386317066847,-0.11188521633474155
1772735082487564800,2.389564697265625,0.052390696972608564,0.09165434747710824,-0.13164759089779107
1772735082497591800,2.399591796875,0.04730068035721779,-0.1836330315377563,-0.10358195502758026
1772735082507618600,2.40961865234375,0.050290509822964666,-0.33489819996673614,0.0031880919842049477
1772735082517645800,2.419645751953125,0.05208265393674373,-0.29936862142402676,0.11006364519707858
1772735082527672800,2.4296728515625,0.058065819999575614,-0.13142317102476953,0.200701910966821
1772735082537698800,2.43969873046875,0.04190320522785187,0.07476732742097228,0.21690511347725985
1772735082547725600,2.4497255859375,0.06568915448486805,0.2046565668767318,0.16952665517609566
1772735082557752800,2.4597529296875,0.04234101212322712,0.23044077727887777,0.07083123008105903
1772735082567779800,2.46977978515625,0.05551145934164524,0.17280531152058393,-0.003913063524197787
1772735082577806600,2.479806640625,0.05431961920857429,0.04594824283495545,-0.04277112890249118
1772735082587833600,2.48983349609375,0.03263034996986389,-0.07708554123546928,-0.08910760387005284
1772735082597860900,2.49986083984375,0.034142508098483085,-0.1885576284583658,-0.09666147158201784
1772735082607888000,2.509887939453125,0.04581716380119324,-0.22633732401542364,-0.09406310738557949
1772735082617914600,2.51991455078125,0.06077975513339042,-0.15776530757062135,-0.07352443295409902
1772735082627942000,2.52994189453125,0.05658464153110981,-0.007112645016796887,-0.015731073220353574
1772735082637969000,2.539968994140625,0.06167115101516246,0.1410517078526318,0.02151926470035687
1772735082647995600,2.54999560546875,0.04864858783483505,0.23521135268155485,0.08557371238917112
1772735082658022700,2.560022705078125,0.05449029960036277,0.19671857695169745,0.08833892105249687
1772735082668050000,2.5700498046875,0.04910860656201839,0.0622566592855379,0.05686210676562041
1772735082678076700,2.58007666015625,0.044026773253083226,-0.10153305967375635,0.001568966349773109
1772735082688103700,2.590103759765625,0.04747252979278564,-0.21005817019194364,-0.028676369913388042
1772735082698131000,2.600130859375,0.036702713975310323,-0.19592958199847488,-0.06917053032722324
1772735082708157000,2.610156982421875,0.03864741830229759,-0.08871350825224071,-0.0994854612278752
1772735082718183700,2.62018359375,0.06063888535797596,0.0288175136834383,-0.05036178496088832
1772735082728210700,2.630210693359375,0.05540156922638416,0.1395963214125484,-0.027188085850700733
1772735082738238000,2.640238037109375,0.0450736519575119,0.1767362212287262,0.02497815471626818
1772735082748264700,2.6502646484375,0.047620998352766036,0.11843743272349237,0.07758094180328771
1772735082758291700,2.660291748046875,0.03280921366810798,-0.024586963441595434,0.08291209196448325
1772735082768318700,2.670318603515625,0.045833530414104456,-0.12221063111927359,0.08841883615460246
1772735082778345700,2.680345703125,0.05392623597681522,-0.1676905988553539,0.08924427239438518
1772735082788373200,2.690373291015625,0.055424950101971626,-0.11056147518400102,0.06880916793523356
1772735082798400300,2.700400146484375,0.04540215325951576,-0.019838526805490253,0.014887790796626358
1772735082808427000,2.710427001953125,0.0435965651422739,0.08038056419286876,-0.02837028137259185
1772735082818454300,2.720454345703125,0.04732756836414337,0.12274320362601429,-0.07609996426422148
1772735082828481300,2.730481201171875,0.05495265641510486,0.1146860808333382,-0.12799697770206256
1772735082838508000,2.740508056640625,0.0435877973139286,0.053651364558190105,-0.1303363439024426
1772735082848535300,2.750535400390625,0.057656654676795004,-0.03506890222840011,-0.0976671049606055
1772735082858562300,2.760562255859375,0.0470341383755207,-0.08643650323096662,-0.06623199265729636
1772735082868589000,2.770589111328125,0.05451894117295742,-0.11783526557926088,-0.03563734976612031
1772735082878615000,2.780614990234375,0.05856149456202984,-0.08505396283138543,0.03205021199434995
1772735082888642300,2.790642333984375,0.03625964638292789,-0.009921528425067662,0.07535437006130814
1772735082898669300,2.80066943359375,0.04851823945343494,0.05965977466013282,0.11521673537762835
1772735082908696000,2.810696044921875,0.055984922072291374,0.10340265293791889,0.1068281704071909
1772735082918723000,2.82072314453125,0.048041854113340374,0.09939648603647946,0.0841551873607561
1772735082928750300,2.830750244140625,0.04414776928424835,0.03568042172286659,0.0594371996843256
1772735082938777000,2.840777099609375,0.04131459168493747,-0.04283621176164597,-0.0010843794369138776
1772735082948804000,2.85080419921875,0.044756256571412086,-0.08785349388942122,-0.035990510585345324
1772735082958831400,2.860831298828125,0.043265141230821605,-0.11395937399398536,-0.07035334690362215
1772735082968858400,2.8708583984375,0.06377309173047542,-0.06563746083024889,-0.09682018754137679
1772735082978885000,2.880885009765625,0.05718377646803856,0.025593729331344364,-0.08416024712836369
1772735082988912000,2.890912109375,0.04446107301712036,0.07008662225883454,-0.037396870251931245
1772735082998939400,2.900939453125,0.04176818067133426,0.09413209923487156,-0.02687048953520134
1772735083008966100,2.910966064453125,0.032789924445748325,0.03780037301890552,0.010412124953605235
1772735083018993200,2.9209931640625,0.04895312373936176,-0.014553535607270896,0.035783133178669956
1772735083029020400,2.9310205078125,0.032495909935235975,-0.06504428071007132,0.029351218701340255
1772735083039047200,2.941047119140625,0.05389876344799995,-0.08910937570203095,0.034815566788148136
1772735083049074200,2.95107421875,0.04805705168247223,-0.06325122328083962,0.02723565131947398
1772735083059100200,2.96110009765625,0.04476034822463989,-0.02606565769203007,0.007121723372396081
1772735083069127200,2.971127197265625,0.04101823908686637,0.04348192578665912,-0.015774419171735644
1772735083079154200,2.981154296875,0.041914895665645595,0.080635379204154,-0.019305954298749563
1772735083089181200,2.99118115234375,0.03263561066687107,0.07114139200877398,-0.013514913274534046
1772735083099208200,3.001208251953125,0.049095747080445284,0.021321093513444064,-0.008251695516705513
1772735083109235200,3.011235107421875,0.04207037848830223,-0.033769546600244935,0.014799728920683264
1772735083119262200,3.02126220703125,0.04177870206534862,-0.08075918824691325,0.03639189446046948
1772735083129289200,3.031289306640625,0.04028641768097877,-0.09001783231645823,0.023662560339365153
1772735083139316000,3.04131591796875,0.03549976792633533,-0.045783261531591415,0.016691680147126315
1772735083149343200,3.05134326171875,0.051202363970875735,0.02450297495257109,-0.004002367509156465
1772735083159370200,3.061370361328125,0.057032969820499414,0.07094517531692981,-0.0035935309799388047
1772735083169397000,3.07139697265625,0.05178220968544483,0.07906674164794385,-0.008644183699321002
1772735083179424300,3.08142431640625,0.044893034693598746,0.043763300011307,-0.04719767664046958
1772735083189451300,3.091451171875,0.04938859254717826,-0.001871419895067811,-0.0533981569821015
1772735083199478300,3.101478271484375,0.049987142962217325,-0.05045761001817882,-0.05481363153690472
1772735083209505000,3.111505126953125,0.027092005065083503,-0.09242050954401493,-0.04672236901260912
1772735083219532300,3.1215322265625,0.044597266617417336,-0.06765490159988403,-0.011865794360637665
1772735083229559300,3.131559326171875,0.05686462751626968,-0.02411613105945289,0.0028365933991037306
1772735083239585300,3.141585205078125,0.06179916130900383,0.01883888477627188,0.025959877496305853
1772735083249612000,3.151612060546875,0.0543149430334568,0.06192750039640814,0.058014327274356035
1772735083259639300,3.161639404296875,0.032165655067563054,0.05636358265895396,0.051501200786978
1772735083269666300,3.171666259765625,0.036056817287206645,0.027016565208695827,0.04958380459202453
1772735083279693000,3.181693115234375,0.03800736683309078,-0.023132234588637945,0.03996706779981032
1772735083289720300,3.19172021484375,0.039356443354487416,-0.07642656587008387,0.018666779612377286
1772735083299747300,3.201747314453125,0.04833996027708053,-0.08512012340277433,-0.009715831518825144
1772735083309774000,3.211774169921875,0.037571898025274275,-0.05586933286860585,-0.032773229039274154
1772735083319801000,3.221801025390625,0.05029693956375122,0.000007014262676239014,-0.03531566179739311
1772735083329828400,3.231828369140625,0.04102233074009418,0.03484685697555542,-0.05254201507680118
1772735083339855000,3.241855224609375,0.04849719666540622,0.08149188643563539,-0.03682734500197694
1772735083349882000,3.251882080078125,0.05762099884152412,0.058230435976758595,-0.014519085348397492
1772735083359909400,3.261909423828125,0.04924246207475662,0.010356120450049638,0.0038481450618244703
1772735083369936100,3.27193603515625,0.047747839602828024,-0.02839673098810017,0.0009233436563052237
1772735083379963100,3.281963134765625,0.04371113143265247,-0.06185271812714636,0.008348744416702539
1772735083389990100,3.291990234375,0.03831833247840404,-0.06612655952144414,0.02777207801742479
1772735083400017200,3.30201708984375,0.053877720659971234,-0.036247371423244475,0.026196992454119026
1772735083410044200,3.312044189453125,0.03606558511555195,0.009140351452119649,0.017301025950815528
1772735083420070100,3.322070068359375,0.03591185585856437,0.046070590572990476,0.022503051573317497
1772735083430097200,3.33209716796875,0.05565992790162563,0.05620484843328595,0.028163470221497115
1772735083440124200,3.342124267578125,0.04414192406535148,0.03665562343057245,0.008158226813282817
1772735083450151200,3.352151123046875,0.06090542733967304,0.0026303119709715247,0.001530588834453374
1772735083460178200,3.36217822265625,0.054174073258042334,-0.048059937759302555,-0.01781916807340458
1772735083470205200,3.372205078125,0.045645314365625377,-0.06719933985210955,-0.005841291640419513
1772735083480232200,3.382232177734375,0.04280395345985889,-0.0599438522985205,-0.004900138332787901
1772735083490259200,3.39225927734375,0.04819382980465889,-0.0260962354933843,0.0002547054134309292
1772735083500286200,3.4022861328125,0.04923720137774944,0.021454401036910712,0.008212952675204723
1772735083510313200,3.412313232421875,0.03771685945391655,0.046743813659437,-0.0033781711962074037
1772735083520340200,3.42234033203125,0.04789455459713936,0.04770093172118067,-0.0008480499303899705
1772735083530367200,3.4323671875,0.05672492678463459,0.01273589172605425,-0.00024000103464350103
1772735083540394200,3.442394287109375,0.04625380165278911,-0.007492730375565588,-0.004704506162833422
1772735083550421200,3.452421142578125,0.04506371508538723,-0.03154737703874707,-0.01579416505182162
1772735083560448300,3.4624482421875,0.04237316082715988,-0.03426438091248274,-0.004065441074315459
1772735083570475000,3.47247509765625,0.05224865815341472,-0.04427307616434991,-0.0007183226034976542
1772735083580502300,3.482502197265625,0.05478606767654419,-0.0028297800658270717,0.003064794398099184
1772735083590529300,3.492529296875,0.05747253028154373,0.025828268739581106,0.019192465720605106
1772735083600556000,3.50255615234375,0.06255319454669953,0.030876857366040348,0.025342257054615763
1772735083610582000,3.51258203125,0.04489537278115749,0.025788009794428943,0.023130261827260256
1772735083620609300,3.522609375,0.060008770760893816,0.0074060019401833415,0.03423552014417946
1772735083630636300,3.53263623046875,0.05043137959837913,-0.023870376137457787,0.021249964505992827
1772735083640663000,3.5426630859375,0.05732055459022522,-0.032084041198715565,-0.022159170039091257
1772735083650690300,3.552690185546875,0.052988078343868254,-0.0336862522309646,-0.0033249431716278195
1772735083660717300,3.56271728515625,0.060464697834849354,-0.012873656228929758,-0.014656466258782893
1772735083670744000,3.572744140625,0.04085983365476131,-0.0029710151674225923,-0.014141064082551747
1772735083680771000,3.58277099609375,0.06480068121254444,0.02076601691395044,-0.022116280745435504
1772735083690798300,3.59279833984375,0.05178220968544483,0.025008476789295672,-0.023599925165623425
1772735083700825000,3.6028251953125,0.05447568655312061,0.02322805964592844,-0.03391295539261773
1772735083710852000,3.61285205078125,0.040113399201631546,-0.002680873114429414,-0.003549326512031257
1772735083720879400,3.62287939453125,0.04146306024491787,-0.049129430154338474,0.021589389060810208
1772735083730906400,3.63290625,0.03832359317541122,-0.053231129852123554,0.019807547145336866
1772735083740933000,3.64293310546875,0.05537877287268638,-0.023769326915778217,0.017405381374433634
1772735083750960000,3.652960205078125,0.03966799352169036,-0.00035604689605534077,0.012969280356820672
1772735083760987400,3.6629873046875,0.0451958170324564,0.03459390512779355,0.008822353277821094
1772735083771014100,3.67301416015625,0.054613633719086646,0.03554123244788498,-0.004157594603486359
1772735083781041200,3.683041259765625,0.057301849889755244,0.02663819688297808,0.000153089936170727
1772735083791068700,3.693068603515625,0.059248892304301255,-0.006642360623925924,-0.00893101955037564
1772735083801094700,3.7030947265625,0.04743219778239727,-0.021005561290867624,-0.005595500185806304
1772735083811121700,3.71312158203125,0.052231122496724125,-0.03139171155299991,-0.00793506731558591
1772735083821148700,3.723148681640625,0.060765142086148256,-0.04076382593438029,-0.00865760943647474
1772735083831175700,3.73317578125,0.05477729984819889,-0.015092866648361085,-0.007773995002359152
1772735083841202700,3.74320263671875,0.04026186776161193,0.014606909762322902,-0.0038136217377148568
1772735083851229700,3.753229736328125,0.04743745847940445,0.01924907301235944,0.007181052344199269
1772735083861256700,3.763256591796875,0.04998363583087921,0.026261545590311287,-0.002231521911732852
1772735083871283700,3.77328369140625,0.0642015462756157,0.006134557232260703,0.000025463234819471834
1772735083881310700,3.783310791015625,0.044299160453677176,-0.012373707350157201,-0.009760492644459008
1772735083891337700,3.793337646484375,0.0456488214969635,-0.030131591956689952,-0.0048550388157367706
1772735083901364700,3.80336474609375,0.04325871149003505,-0.02267090068720281,0.013263660193514078
1772735083911391700,3.813391845703125,0.050149640047550195,-0.01577675725929439,-0.017058175371959805
1772735083921418800,3.823418701171875,0.043563831916451454,-0.00016724632568657397,0.010979275583382695
1772735083931445500,3.833445556640625,0.06286942088901996,0.027466099074482917,0.0157440788323991
1772735083941472800,3.84347265625,0.03399053240716457,0.03464117833562195,0.01582536390768364
1772735083951499800,3.853499755859375,0.05029752408564091,0.0033357202939689155,0.014005564601998775
1772735083961526500,3.863526611328125,0.05119710327386856,-0.004992474525049329,0.012957133261300623
1772735083971553800,3.8735537109375,0.05553776282668113,-0.008147467957250774,0.0038959479926154016
1772735083981580800,3.883580810546875,0.06586275748610496,-0.01618018696103245,-0.017281992456782608
1772735083991607600,3.893607666015625,0.06585983487665653,-0.010938742643594741,-0.00412290688259527
1772735084001633500,3.903633544921875,0.03083820585608482,-0.015694558868557213,-0.007902023562509566
1772735084011660800,3.913660888671875,0.04206044161617756,0.010126293749548494,-0.012170147602073848
1772735084021687800,3.923687744140625,0.05821838021278381,0.020885186314210293,-0.0045098238409496845
1772735084031714600,3.933714599609375,0.04355155695676803,0.015235782250389455,-0.024945147495809943
1772735084041741600,3.943741455078125,0.036519758623838425,0.0029782486258074638,-0.00821576568679884
1772735084051768800,3.953768798828125,0.04504617942869663,-0.0005015197813510895,0.008028042828664183
1772735084061795600,3.963795654296875,0.054175826823711394,-0.0006403437301516533,0.013732391950115561
1772735084071822600,3.973822509765625,0.044458150407671926,-0.0007723726119846105,0.004398856013454497
1772735084081849900,3.983849853515625,0.043269232884049415,-0.0037854002902284263,0.011792144602537155
1772735084091876900,3.993876953125,0.044617724883556364,-0.003700169692188501,0.02217807566896081
1772735084101903600,4.003903564453125,0.05673077200353145,0.01229687925428152,0.004067687830328941
1772735084111930600,4.0139306640625,0.05522679718136787,0.023498181824199854,0.005345818007364869
1772735084121958000,4.0239580078125,0.041459553113579746,0.01830550855193287,0.013674506016727535
1772735084131984600,4.033984619140625,0.031138065585494038,-0.00024765461813658476,-0.007572079222090542
1772735084142011600,4.04401171875,0.023511223968863487,-0.020687654448114334,-0.012336736340634523
1772735084152039000,4.054038818359375,0.054634091985225675,-0.023336780717410147,-0.006278112155105918
1772735084162065700,4.064065673828125,0.04430968184769153,-0.026453524498455224,0.00017687267055734992
1772735084172092700,4.0740927734375,0.04670972872674465,-0.0025976152777671814,0.005833455393835902
1772735084182119700,4.08411962890625,0.04116904573440552,0.01542787075638771,0.00456339892540127
1772735084192146700,4.094146728515625,0.046402854734659195,0.029082229034230113,-0.010734397444222122
1772735084202172700,4.104172607421875,0.0640612610220909,0.028090551115758717,-0.003052629036270082
1772735084212199700,4.11419970703125,0.05043839386105537,0.011497253309190273,0.0005729958486743271
1772735084222226700,4.124226806640625,0.05462649320065975,0.0012662205435335636,-0.003610098522249609
1772735084232253700,4.134253662109375,0.054176411345601076,-0.016776874212548136,0.004682842320296913
1772735084242280700,4.14428076171875,0.041913726621866224,-0.02780387966148555,0.002401270721759647
1772735084252307700,4.1543076171875,0.049998248878121376,-0.011868643904849886,0.01206694295592606
1772735084262334500,4.16433447265625,0.04506137699782848,-0.012334690514020622,0.00209993142131716
1772735084272361700,4.17436181640625,0.049395022287964815,0.005899835160933435,-0.0026962533466517924
1772735084282388700,4.184388671875,0.050288171735405916,0.019196064183488487,0.015674557260144502
1772735084292415700,4.194415771484375,0.04909048638343811,0.011849573878198861,0.0071266735421493645
1772735084302442800,4.20444287109375,0.048044776722788805,0.0036229762701317668,0.005730305546615273
1772735084312469800,4.2144697265625,0.046400516647100445,0.0008399214228615164,0.0007929039433598518
1772735084322496800,4.224496826171875,0.051642508953809736,-0.027038777040503916,0.008081983239296823
1772735084332523500,4.2345234375,0.04236556204259395,-0.01640614120401442,0.002226882269233465
1772735084342550800,4.24455078125,0.04954758250117302,-0.005763239701837301,-0.0038642194137908517
1772735084352577800,4.254577880859375,0.044607203489542,-0.003153970518894493,-0.004167202682048082
1772735084362604500,4.2646044921875,0.04640168569087982,0.019948599583841858,-0.014878529777936637
1772735084372631800,4.2746318359375,0.05568038616776466,0.023684315513446925,-0.012255341667495668
1772735084382658800,4.284658935546875,0.04041325893104076,0.0032175372743979093,0.0034591457442380486
1772735084392685600,4.294685546875,0.039515433308482166,-0.0009130962569266557,0.0016068141421303151
1772735084402712600,4.304712646484375,0.04371230047643184,-0.018578699470125137,0.002568407449591905
1772735084412738800,4.31473876953125,0.06332300987541675,-0.024978446977213024,0.003676204294711351
1772735084422765800,4.324765869140625,0.03878770355582237,-0.019152663433179257,0.006361461323313415
1772735084432792600,4.33479248046875,0.055845221340656274,-0.012754961752705275,0.005591024940088391
1772735084442819600,4.344819580078125,0.04222235417962074,-0.00647423751540482,0.0035319552521221338
1772735084452846800,4.354846923828125,0.0414659828543663,0.007542926192842424,-0.011828257095534353
1772735084462873600,4.36487353515625,0.06510813972651958,0.013423289468325673,-0.007183299100212753
1772735084472900600,4.374900634765625,0.06301321327388286,0.0011885156648233533,-0.010490249957423656
1772735084482927900,4.384927978515625,0.05718669907748699,-0.011645977597497402,0.005982307546306401
1772735084492954600,4.39495458984375,0.05166062913239002,-0.016830686759017405,-0.0009077259620651602
1772735084502981600,4.404981689453125,0.05435936669707298,-0.012108115216530858,0.0036220446883700784
1772735084513008600,4.415008544921875,0.05720598829984665,-0.008127959539182484,-0.008075991889927536
1772735084523035600,4.42503564453125,0.04822831659615039,0.0029415698772296307,-0.012730393567029387
1772735084533062700,4.435062744140625,0.04643441891670227,0.014378398236073552,-0.008374353781994432
1772735084543089700,4.445089599609375,0.043590719923377035,0.008062529620155691,-0.0055528483541682355
1772735084553116700,4.45511669921875,0.052716860187053675,-0.0003299626067280769,0.01514211261756718
1772735084563143700,4.465143798828125,0.06454582966864109,-0.0026037892902269957,0.005268167927581817
1772735084573170700,4.475170654296875,0.05108545959293842,-0.016231405691616237,-0.0048593313983641565
1772735084583197700,4.48519775390625,0.05871697738468647,-0.021181429314427076,0.005453333502449095
1772735084593224700,4.495224609375,0.05617138455510139,-0.00020140432361513374,0.01769420825317502
1772735084603251700,4.505251708984375,0.05422258857488632,-0.004768273847736418,0.01161402982296422
1772735084613278700,4.51527880859375,0.06275076294541358,-0.011402962621860205,0.0020104265069589016
1772735084623305700,4.5253056640625,0.05332008677721023,-0.0004012012120336294,0.004899279816262423
1772735084633332700,4.535332763671875,0.05885317098498344,-0.00440853715725243,0.00022652049856260417
1772735084643358700,4.545358642578125,0.05121931510567665,-0.007356500242650508,0.003447327442280948
1772735084653385700,4.5553857421875,0.045535424250364304,-0.006368987042643129,-0.009365520243812353
1772735084663412700,4.565412841796875,0.056009471991658205,-0.010352138394676148,0.0019630071686580776
1772735084673439700,4.575439697265625,0.04717500815093517,0.0021845774974673985,-0.006427037372812628
1772735084683466800,4.585466796875,0.03550385957956314,-0.012642441288940608,0.0066790576388128095
1772735084693493500,4.595493408203125,0.050317982351779936,0.004215279607474804,-0.010144943651091308
1772735084703520800,4.605520751953125,0.05211188003122806,0.01256933952011168,-0.01925327426344156
1772735084713547800,4.6155478515625,0.05540975253283977,0.0036796383608132597,-0.011130831149592995
1772735084723574500,4.625574462890625,0.04299275403022766,-0.0020705591963604093,-0.0014231646709144115
1772735084733601800,4.635601806640625,0.05092705416083335,0.007864888156205415,-0.0035826807923614976
1772735084743628800,4.64562890625,0.06275251651108264,-0.009763963243179023,-0.007593012412264942
1772735084753655600,4.655655517578125,0.05018412683904171,-0.00869129251036793,-0.002969188536517322
1772735084763682600,4.6656826171875,0.03806406545639038,-0.00966079512964934,0.01821951076891273
1772735084773709800,4.675709716796875,0.062300681090354915,-0.006029416357353329,0.01257171414028853
1772735084783736600,4.685736572265625,0.04313946902453899,0.0022231194095686077,-0.002709916545823216
1772735084793763600,4.695763671875,0.05001929166615009,-0.00033978988099843264,-0.012301391032617539
1772735084803790600,4.70579052734375,0.057498833766579625,0.011365626286156475,-0.007809340310376137
1772735084813817600,4.715817626953125,0.05016366857290268,0.013421207109093666,0.0010904255852103232
1772735084823844600,4.7258447265625,0.046722003686428065,-0.002554433723166585,-0.005431048605404794
1772735084833871600,4.73587158203125,0.048510640668869016,-0.02050130156315863,-0.009079086251556873
1772735084843898600,4.745898681640625,0.04522387408316135,-0.0008108779914677142,-0.019045768992602824
1772735084853925400,4.75592529296875,0.03909399302601814,-0.006391235407069325,-0.0037210115508176382
1772735084863951600,4.76595166015625,0.04208440701365471,0.00701970603633672,0.00035392800420522687
1772735084873978600,4.775978515625,0.06063946987986564,0.005428272126428783,0.013905191233754157
1772735084884005600,4.786005615234375,0.06542495059072971,0.0008641060160472988,-0.006427694959938526
1772735084894032400,4.796032470703125,0.03220657159984112,0.0044301644671708345,0.0057470740183256565
1772735084904059600,4.8060595703125,0.04342705379426479,-0.010088299826718865,0.0028613807804882523
1772735084914086700,4.816086669921875,0.048965983220934865,-0.00725234574843198,0.00834753884030506
1772735084924113400,4.826113525390625,0.05076280350983142,-0.015487199728190898,-0.0038859745878726242
1772735084934140700,4.836140625,0.06752163060903549,-0.00007533025853335857,0.011389409020543098
1772735084944167700,4.846167724609375,0.05016133048534393,0.0006533858748152851,0.004747322391252964
1772735084954194400,4.8561943359375,0.050606736165285104,0.014303798629902302,0.0029202165619470178
1772735084964221400,4.866221435546875,0.04491933817863464,0.0045145182823762295,-0.012386110174003987
1772735084974248700,4.876248779296875,0.047610476958751674,-0.01170293194912374,0.003645991819538176
1772735084984275500,4.886275390625,0.04118190521597862,-0.0008875234242528676,-0.011605462924018501
1772735084994302500,4.896302490234375,0.05121346988677978,-0.0008629004396498202,0.0005337780831381678
1772735085004329700,4.906329833984375,0.05121931510567665,-0.011655439545586704,-0.0008572926827706396
1772735085014356700,4.916356689453125,0.053615854853391647,-0.0141397306419909,-0.007303546212706714
1772735085024383500,4.926383544921875,0.0428512997329235,0.014361593231745063,-0.004248451224714517
1772735085034410500,4.936410400390625,0.050336687052249904,0.001389116270840168,-0.01212696604747325
1772735085044437800,4.946437744140625,0.056471244284510606,0.003333637934736907,0.002710610665567219
1772735085054464500,4.956464599609375,0.05468026921451091,0.005508242027461529,0.0036851182535290717
1772735085064491500,4.966491455078125,0.06081424192488193,0.0034228871207684277,-0.0011961509820073843
1772735085074518800,4.976518798828125,0.06350187357366084,0.0067132339030504225,-0.008346570725925265
1772735085084545500,4.986545654296875,0.06335632762312889,-0.00024206512756645677,-0.018120361243374645
1772735085094571500,4.996571533203125,0.045700259423255916,-0.018070530752278862,0.007598912430088966
1772735085104598500,5.0065986328125,0.056173138120770454,-0.015067768739722669,0.009246862300205974
1772735085114625800,5.016625732421875,0.06395137090682983,-0.00782974377758801,0.004617448933888227
1772735085124652500,5.026652587890625,0.05796411319077015,0.0030334128791466354,0.0010012859970331192
1772735085134679600,5.036679443359375,0.04703764550685882,0.0027632907008752227,0.010232950728107244
1772735085144706600,5.04670654296875,0.04134790943264961,0.0004281257515773177,0.00559648656649515
1772735085154733600,5.056733642578125,0.032520459854602814,0.006678089524433016,-0.007831004152912647
1772735085164760600,5.066760498046875,0.04868365914821624,-0.0034281843503937122,-0.0058769840083085
1772735085174787600,5.07678759765625,0.0636480040460825,-0.010221205491386354,0.0001461304724216461
1772735085184814600,5.086814697265625,0.04001110787093639,0.0005709317557513713,-0.008088047653902322
1772735085194841600,5.096841552734375,0.043161096334457395,0.003317636648006737,-0.01620166814047843
1772735085204868600,5.10686865234375,0.05618073690533638,0.005140760421939194,0.0017372355887666344
1772735085214895400,5.116895263671875,0.04495440949201584,0.014890622074529528,-0.012794179518241435
1772735085224922600,5.126922607421875,0.0501888030141592,0.004164426203072071,0.0072180598863400515
1772735085234949600,5.13694970703125,0.05362812981307506,-0.005475180008076131,0.0031838176678866147
1772735085244976600,5.1469765625,0.055423196536302566,-0.005864617717079818,0.003750968297664076
1772735085255003600,5.157003662109375,0.048693596020340915,-0.01359649061076343,-0.002784516151994467
1772735085265030700,5.16703076171875,0.036726094850897784,-0.004933510879427195,-0.013817275488283485
1772735085275057700,5.1770576171875,0.04106558535993099,0.004507942411117256,0.00401913598086685
1772735085285084400,5.18708447265625,0.04794657704532146,-0.004983998957648873,0.009566431377083063
1772735085295111700,5.197111572265625,0.046748307171463964,0.0033408713931217787,-0.0003420183707028627
1772735085305138700,5.207138671875,0.04331131846010685,0.01929554250258952,0.009602324674371629
1772735085315165400,5.21716552734375,0.0560316838234663,-0.007033405768126249,-0.0047989064480178055
1772735085325192700,5.227192626953125,0.045852819636464114,-0.009225143658742309,-0.0028384017636999487
1772735085335219700,5.2372197265625,0.04136076891422272,-0.005529102152399719,-0.020732479970529676
1772735085345245700,5.24724560546875,0.05422551118433475,-0.008844656441174447,-0.0030959201887249947
1772735085355272400,5.2572724609375,0.043005613511800767,-0.0011802227605134249,0.0013339702838100493
1772735085365299500,5.267299560546875,0.045102293530106544,-0.006256685774587095,0.007401417096611112
1772735085375326700,5.27732666015625,0.06351297948956489,-0.008581950384378433,0.0008480316640809178
1772735085385353500,5.287353515625,0.048693596020340915,-0.006213796480931341,-0.00862600872181356
1772735085395380500,5.29738037109375,0.056171969076991075,0.0015150807380676268,-0.0013698453147895633
1772735085405407700,5.30740771484375,0.0594604892283678,0.007129596151597798,0.0046521914537064725
1772735085415434500,5.3174345703125,0.05437281070053577,-0.0066375017857179044,0.0113901031402871
1772735085425461500,5.32746142578125,0.050935237467288966,0.005115845176391303,-0.0028790260350331663
1772735085435488500,5.337488525390625,0.0549772063344717,0.004426182411797344,-0.003614025778695941
1772735085445515500,5.347515625,0.05183949283063411,-0.00501172721479088,0.0025144670389592645
1772735085455542500,5.35754248046875,0.0386731372654438,-0.01323295452799648,0.012194021668005733
1772735085465569500,5.367569580078125,0.046753567868471145,-0.016490860345400867,0.005815590943582355
1772735085475596500,5.377596435546875,0.04466039498150348,-0.005536627871729433,-0.0034887554312124846
1772735085485623600,5.38762353515625,0.058875967338681216,0.004303140554018319,0.006616185003053396
1772735085495650600,5.397650634765625,0.058581952828168866,-0.006521181929670274,-0.0027449147939682004
1772735085505677600,5.407677490234375,0.051095980986952776,-0.0033636677468195557,0.002776314579229802
1772735085515704600,5.41770458984375,0.050047933238744735,0.004689582588337362,-0.005927837412711232
1772735085525731600,5.427731689453125,0.05513327367901802,-0.006946823463216424,-0.001273764529172331
1772735085535758600,5.437758544921875,0.05393967998027801,-0.016158267390169203,-0.005059036955237389
1772735085545785600,5.44778564453125,0.04301964203715324,-0.005858187976293266,0.007681403081770986
1772735085555812600,5.4578125,0.03135083155333996,-0.013269158352538942,0.013496281639300285
1772735085565839600,5.467839599609375,0.040025720918178555,0.003786788529716432,0.00461774119483307
1772735085575866400,5.477866455078125,0.04406593621969223,0.0001850377107039094,-0.00707384737636894
1772735085585893600,5.4878935546875,0.03987491427063942,-0.00739478642642498,-0.0027579934712499378
1772735085595920600,5.497920654296875,0.0481061515212059,-0.0015077011492103337,0.017192524075042456
1772735085605947400,5.507947509765625,0.04690963521301746,-0.0053763227434828875,-0.0019583492598496378
1772735085615973400,5.517973388671875,0.054694297739863396,-0.013002251044660806,0.007083692916948348
1772735085626000600,5.528000732421875,0.0439233128786087,-0.004000906204432249,-0.0022816629300825295
1772735085636027600,5.538027587890625,0.05889174942970275,-0.0022999109728261825,0.006576163519918918
1772735085646054400,5.548054443359375,0.0615869798630476,0.0018979791084304451,-0.006804802910331636
1772735085656081700,5.55808154296875,0.053952539461851114,0.0023128435196354984,-0.004471099265757948
1772735085666108700,5.568108642578125,0.05276011480689048,-0.001066971644386649,-0.0020528956755064428
1772735085676135400,5.578135498046875,0.046777533265948294,0.006317877909913659,-0.005192088750377297
1772735085686162400,5.588162353515625,0.049022097322344776,0.0024096184249967336,-0.0010168854249641298
1772735085696189700,5.598189697265625,0.045882045730948444,0.008625606863014399,-0.001906363344285637
1772735085706216400,5.608216552734375,0.055012277647852895,0.0028886341135948893,0.011932996111642568
1772735085716243500,5.618243408203125,0.05696107362806797,-0.001619490960612893,0.008521799428667872
1772735085726270700,5.628270751953125,0.05546352854669094,0.0011911825459450483,-0.0031498423330485817
1772735085736297700,5.638297607421875,0.04992693720757961,0.018220862475782633,0.008938472204469144
1772735085746324500,5.648324462890625,0.05082885448336601,-0.00569653114117682,-0.0014692505686543882
1772735085756351500,5.6583515625,0.043052375262975694,-0.007997026635892688,0.0035661863152869045
1772735085766378800,5.668378662109375,0.046044542816281314,0.001880406919121742,0.00045815556365996594
1772735085776405500,5.678405517578125,0.04365443280935287,0.012399645509012043,-0.004455499837826937
1772735085786432000,5.688431884765625,0.03588146072030067,-0.00896207227576524,-0.004970664552040397
1772735085796459000,5.698458984375,0.040675709259510036,-0.009998137325234711,0.0024843093627132475
1772735085806486000,5.708486083984375,0.05578676915168762,0.003582534661889076,0.0035817674769088623
1772735085816513000,5.718512939453125,0.05084405205249786,0.0037511692270636556,-0.02513274248978123
1772735085826540000,5.7285400390625,0.037078561550378794,-0.0031566374000161885,-0.010871741821989417
1772735085836567000,5.738567138671875,0.04665595271289348,0.003068812986090779,-0.011592658241372554
1772735085846594000,5.748593994140625,0.0482978747010231,0.005745375251583754,-0.008663125861808656
1772735085856621000,5.75862109375,0.0503892940223217,0.0032755145393311975,-0.008472845720406621
1772735085866648000,5.76864794921875,0.04170797491669655,0.009397942942380905,-0.0034447518927045164
1772735085876674000,5.778674072265625,0.04185585895478725,0.014130999346263705,-0.004066792781185358
1772735085886701000,5.788701171875,0.05367664512991905,-0.015152926272526382,-0.002320442304201424
1772735085896728000,5.79872802734375,0.05232113886773586,-0.0033511370588093993,0.004694258763454854
1772735085906755000,5.808755126953125,0.04857902972996234,-0.003326075682789087,-0.015556922229845076
1772735085916782000,5.818781982421875,0.05321195022761822,0.006252594121359288,0.009604516631457954
1772735085926809000,5.82880908203125,0.03719838853776455,-0.010579663540236652,-0.0035484497291967273
1772735085936836000,5.838836181640625,0.04498246654272079,0.001844970279559493,0.0033497853519394993
1772735085946863000,5.848863037109375,0.03674830668270588,-0.005590330820344388,0.014158417076151817
1772735085956890000,5.85889013671875,0.04736848489642143,0.0013620090682059526,-0.006899915581569075
1772735085966917000,5.868917236328125,0.05470189652442932,0.0068152329728007315,-0.015817034470755605
1772735085976943900,5.87894384765625,0.050664603832364076,0.006538352260179818,-0.014134141151420771
1772735085986971100,5.88897119140625,0.05500467886328697,-0.002892871897295117,-0.006073328564316034
1772735085996998100,5.898998046875,0.04452946207821369,0.010630918803438544,-0.005599445708561688
1772735086007025000,5.90902490234375,0.04004267205297947,-0.0026399200495332478,-0.0059219921938143665
1772735086017052200,5.91905224609375,0.04498480463027954,-0.017518047968670725,-0.008964008504524827
1772735086027079200,5.9290791015625,0.05456278031468391,-0.01732157554849982,-0.010904201053176075
1772735086037106000,5.93910595703125,0.052316462692618367,0.005084244461730122,-0.003990841468144208
1772735086047133000,5.9491328125,0.05845335801243782,0.0014323708906769752,-0.011718202583491802
1772735086057160200,5.95916015625,0.044539398950338364,0.00340001770183444,-0.0030267639426514504
1772735086067187000,5.96918701171875,0.04992810625135898,-0.0004244724897667765,-0.021552491116523742
1772735086077214000,5.9792138671875,0.045889644515514375,-0.003510711534693837,-0.00441630033859983
1772735086087241200,5.9892412109375,0.04095160359144211,-0.024060601479932664,0.0031432847280986605
1772735086097268200,5.999268310546875,0.05262625929415226,-0.010232530602999031,0.0005411759383045137
1772735086107295000,6.009294921875,0.052628597381711,0.0005781286815181374,-0.0021793715993873772
1772735086117322000,6.019322021484375,0.059660395714640616,-0.008192220414429902,0.007158986642863601
1772735086127349200,6.029349365234375,0.05007891289889812,0.003216697024181485,-0.004180993745382875
1772735086137376000,6.0393759765625,0.04244388797581196,0.007067381102964281,-0.0175583799790591
1772735086147403000,6.049403076171875,0.03840250363051891,0.003082439652644098,-0.017269224306754767
1772735086157430300,6.05943017578125,0.04932487966120243,0.00438186834603548,-0.014461710871662944
1772735086167456300,6.069456298828125,0.05232406147718429,-0.008622866916656494,0.010204309155512601
1772735086177483000,6.07948291015625,0.03840601076185703,0.0055501449404284356,-0.008344689296092838
1772735086187510000,6.089510009765625,0.06130056413710117,-0.0087099972108379,-0.01633066481500864
1772735086197537300,6.099537353515625,0.053522915872931474,-0.006694675333052873,-0.00007633490553125739
1772735086207564000,6.10956396484375,0.03271569016575813,0.0072286726118996735,0.0010818221536464988
1772735086217591000,6.119591064453125,0.052912675020098686,-0.0005794803883880376,0.003926653658133
1772735086227618000,6.1296181640625,0.041834231644868845,-0.012324242185242473,-0.0034376280321739613
1772735086237645000,6.13964501953125,0.038543957927823065,-0.0013576616866514085,-0.003591302490234375
1772735086247672000,6.149672119140625,0.0407908600717783,-0.01265460665076971,-0.0025304865919984878
1772735086257699000,6.159698974609375,0.05500818599462509,-0.00839519564062357,-0.003998495051637292
1772735086267726000,6.16972607421875,0.06562777968645095,0.0024159751005470753,0.00725525009157136
1772735086277753000,6.179753173828125,0.05380991612076759,0.0025900164932012555,-0.003787701845169067
1772735086287780000,6.189780029296875,0.03091244013607502,0.0008778422804549336,-0.000467526180204004
1772735086297807000,6.19980712890625,0.05186053561866283,-0.0032350363984704014,0.012186349818203598
1772735086307834000,6.209834228515625,0.05201075774431228,-0.002217639516852796,-0.0010498013138771057
1772735086317861000,6.219861083984375,0.03959025211036205,-0.0029576076965779066,-0.019711831685900686
1772735086327888100,6.22988818359375,0.04033551751971245,0.001610065545141697,-0.00788220461718738
1772735086337915100,6.2399150390625,0.062032385542988774,0.010599646882340311,0.0044321189622394735
1772735086347942100,6.249942138671875,0.04751578441262245,-0.0016059008266776798,-0.00743097198465839
1772735086357969200,6.25996923828125,0.050208092236518856,-0.009270882496610284,-0.01072776677403599
1772735086367996000,6.269995849609375,0.0478185667514801,-0.0018248408069834112,-0.010312664900813251
1772735086378023200,6.280023193359375,0.05560147571265697,-0.0003249941706657409,-0.007999839647486805
1772735086388050200,6.29005029296875,0.04916998136043548,-0.004283632135950029,-0.007850841364543884
1772735086398077000,6.300076904296875,0.049019759234786034,-0.004897708913683891,0.007562197148893028
1772735086408104200,6.310104248046875,0.04093465245664119,0.007956621560268103,-0.01087325792564079
1772735086418131200,6.320131103515625,0.04736848489642143,-0.018723733964003623,-0.008519150813855231
1772735086428158000,6.330157958984375,0.038245851764082905,-0.004517331293970346,0.009561061082221567
1772735086438185000,6.34018505859375,0.04034545439183712,-0.010893588327616452,-0.0016254457773640751
1772735086448212200,6.350212158203125,0.04902385088801384,0.003753507314622402,-0.0028211766342632473
1772735086458239000,6.360239013671875,0.04034370082616806,-0.010317907331511379,0.009776219936553388
1772735086468266000,6.370265869140625,0.043183308166265484,-0.006884900675527751,-0.016043335773609578
1772735086478292000,6.3802919921875,0.047075054907798765,-0.002880596937611699,-0.006132146079465746
1772735086488319200,6.3903193359375,0.04767360532283783,-0.0009301569895818829,-0.01988547121975571
1772735086498346000,6.400345947265625,0.057253919094800945,-0.006073145901225507,-0.0016475297450087964
1772735086508373000,6.410373046875,0.05007599028944969,0.005412526568025351,0.005371573503129184
1772735086518400300,6.420400146484375,0.057415247136354444,-0.006184899180009961,-0.005236092288885265
1772735086528427000,6.430427001953125,0.057117725494503974,0.003426028925925493,-0.011552326230984181
1772735086538454000,6.4404541015625,0.05143325011730194,0.005358166032284498,-0.004308638713043183
1772735086548481000,6.45048095703125,0.05217910004854202,0.001327230015769601,-0.006727792151365429
1772735086558508000,6.460508056640625,0.05232932217419147,0.0024192630361765622,-0.011620861422549932
1772735086568535000,6.47053515625,0.041404023534059524,-0.00996127591356635,-0.013440423266217113
1772735086578562000,6.48056201171875,0.053670799911022186,0.004298245183192193,-0.0075950582388788455
1772735086588589300,6.49058935546875,0.05426642771661281,0.0039013548200950024,-0.005377473520953208
1772735086598616000,6.500615966796875,0.05096972425878048,-0.0011188479620963334,-0.011740925871953368
1772735086608643000,6.51064306640625,0.06039864686131477,0.00009531360063701868,0.0021324271851219235
1772735086618670000,6.520670166015625,0.03615793957412243,-0.004370470169186592,0.006327979178819805
1772735086628697000,6.530697021484375,0.055308045724034305,-0.005075805426947772,0.002128298999276012
1772735086638724000,6.54072412109375,0.05276303741633892,0.0024246333310380575,-0.016627072212006894
1772735086648751000,6.550751220703125,0.036003041273355484,-0.0138224448537454,-0.012482885079365224
1772735086658777000,6.560777099609375,0.048422962385416025,-0.006457542108930647,-0.0010604323057457803
1772735086668804000,6.57080419921875,0.05021744458675384,-0.00039791327640414237,-0.010238850745931267
1772735086678831000,6.5808310546875,0.054105684196949,0.0016401318898424506,-0.017566873812768606
1772735086688858000,6.590858154296875,0.05230477225482463,-0.0025736498802900313,-0.011894782993104308
1772735086698884900,6.600884765625,0.044677346116304396,0.003943878787569702,0.0030063056765124202
1772735086708912000,6.610912109375,0.05724807387590408,0.009096987234428524,0.0010340374891646205
1772735086718939100,6.620939208984375,0.04587327790260315,-0.011895751107484101,-0.010752316693402826
1772735086728966000,6.6309658203125,0.058745034435391426,0.013078311955556273,-0.0014182145011611281
1772735086738993200,6.6409931640625,0.048721068549156185,-0.004977569216862321,-0.008445921180862933
1772735086749020200,6.651020263671875,0.05336158783137798,-0.0026203385662287473,-0.005502086281310767
1772735086759047000,6.661046875,0.04662789566218853,0.00028349311649799344,0.010750362198334187
1772735086769073000,6.671072998046875,0.03555179037451744,0.005786474446952343,0.0021480814119800924
1772735086779100200,6.68110009765625,0.049019759234786034,-0.006195310976170003,0.011997348318435252
1772735086789127000,6.691126953125,0.05560089119076728,-0.011159618852660058,0.005783314375486225
1772735086799154000,6.70115380859375,0.057695817643404,-0.00318297741767019,-0.017337996960338203
1772735086809181000,6.711180908203125,0.051560091367363926,-0.006764452633634209,-0.0050099736491218206
1772735086819208000,6.7212080078125,0.032256840482354165,0.011796053592674433,0.0027781960090622303
1772735086829235200,6.731235107421875,0.04018412635028362,0.0040323973212391135,-0.0027392705044709145
1772735086839262000,6.741261962890625,0.056490533506870264,0.0016747282791882753,0.009391111342795192
1772735086849289000,6.7512890625,0.045265959659218785,-0.012902736192941664,-0.007664543278515339
1772735086859316000,6.76131591796875,0.057387774607539174,0.017173033923283218,-0.010585161699261516
1772735086869343000,6.771343017578125,0.05005903915464878,-0.02349701278042048,-0.011271372131444513
1772735086879370000,6.781369873046875,0.04227905280292034,-0.012980660267360509,0.007727105387020856
1772735086889397000,6.79139697265625,0.046320437148213385,0.002993226999230683,0.005976352729555219
1772735086899424000,6.801424072265625,0.05829261449277401,-0.004090995640680194,0.00029993279464542866
1772735086909451000,6.811450927734375,0.05170972897112369,-0.013665025802329181,0.008491112029459328
1772735086919478000,6.82147802734375,0.042885786524415014,-0.001554682096093893,-0.011864460920076817
1772735086929505000,6.831505126953125,0.05335749617815017,0.011289930701442063,-0.008469228991214186
1772735086939532000,6.841531982421875,0.05694587605893611,-0.005679799202084541,0.005324738686718046
1772735086949559000,6.85155908203125,0.04781973579525947,-0.003750475107319653,-0.01167593434434384
1772735086959585800,6.861585693359375,0.05171323610246181,-0.014226203349046408,-0.010001589657645672
1772735086969613000,6.871613037109375,0.05096738617122173,-0.0035768355734646317,-0.006786554867587983
1772735086979640000,6.88164013671875,0.03615560148656368,0.00023457594085484742,-0.0031855712335556743
1772735086989666800,6.891666748046875,0.05292261189222335,-0.005300700224004686,-0.013027239355444907
1772735086999694000,6.901694091796875,0.04933072488009929,0.0044101811250671745,-0.013174301409628242
1772735087009721000,6.91172119140625,0.04468611394464969,0.004244030777923763,-0.0061424665440805255
1772735087019748000,6.921748046875,0.06533727230727672,0.00545114154536277,0.0050428895380347965
1772735087029774800,6.93177490234375,0.047827919101715084,-0.008646430455334484,-0.00613196341637522
1772735087039803100,6.94180322265625,0.04064414507746696,0.004603804001025855,-0.003879526580777019
1772735087049830000,6.951829833984375,0.044832828938961025,0.011886106496304272,0.00104618458468467
1772735087059857000,6.96185693359375,0.05186579631567001,-0.012822656694054602,0.011652553468756377
1772735087069884200,6.97188427734375,0.05620236421525478,-0.0059910205757245415,-0.017340097585879264
1772735087079911000,6.981910888671875,0.05171323610246181,0.005252915559522807,0.0030478615296073257
1772735087089938000,6.99193798828125,0.0506681109637022,0.005477883421815931,0.0025994053760543465
1772735087099965200,7.001965087890625,0.05800386067926883,-0.003733450907282531,-0.01584076240621507
1772735087109992000,7.011991943359375,0.0593517681568861,0.004576623733155429,0.002465129738207906
1772735087120019000,7.02201904296875,0.04708148464858532,-0.003259659383073449,-0.00883360532419756
1772735087130046000,7.0320458984375,0.0512695839881897,0.019829758977144955,-0.018033322280738503
1772735087140073000,7.042072998046875,0.05321311927139759,-0.0005897460540756583,-0.00400989322848618
1772735087150099000,7.052098876953125,0.04558160147964954,-0.008560761465877293,-0.00534346165349707
1772735087160126000,7.0621259765625,0.040193478700518606,0.00655815293919295,-0.014941932136658578
1772735087170153000,7.072153076171875,0.05694996771216392,0.0028976942028850314,-0.013420586054585874
1772735087180180000,7.082179931640625,0.05874854156672954,0.010841748542524874,-0.0015609291737899184
1772735087190207000,7.09220703125,0.04857552259862423,0.009675700437836348,-0.004288783235102892
1772735087200234000,7.10223388671875,0.04124678714573383,0.004364734548144043,0.009578578472603112
1772735087210261000,7.112260986328125,0.044082302832603455,0.002264072474464774,0.008322806257847697
1772735087220288000,7.1222880859375,0.051416298982501024,-0.009545498186908662,0.0046891076643019915
1772735087230315000,7.13231494140625,0.044528877556324,0.0051763066593557595,-0.000060077890474349254
1772735087240342000,7.142342041015625,0.05350596473813057,0.00754215900786221,-0.005011069627664983
1772735087250369000,7.152369140625,0.03734627257585525,-0.0032214462645351887,0.0036402379321865733
1772735087260396000,7.16239599609375,0.04078969102799892,0.004412446147389709,-0.008099518895987421
1772735087270423000,7.172423095703125,0.04557575626075268,-0.0003286474324762821,-0.024307689842488614
1772735087280450000,7.182449951171875,0.06563070229589939,-0.0012085355395451188,0.010851667148340493
1772735087290477000,7.19247705078125,0.04887655137181282,-0.013540778368152677,0.009406710770726204
1772735087300504000,7.202504150390625,0.0414005164027214,-0.01724993508439511,0.0019451427184045314
1772735087310530800,7.21253076171875,0.05815642089247703,-0.003596818915568292,-0.01153079025261104
1772735087320558000,7.22255810546875,0.053665539214015005,-0.0015645824356004595,-0.010058160416781902
1772735087330585000,7.232585205078125,0.047830841711163516,-0.0018670725135132669,-0.014014789088070391
1772735087340611800,7.24261181640625,0.03944821329116821,0.0008955240676179528,-0.006806118084583431
1772735087350639000,7.25263916015625,0.03720540280044079,0.004064363362081349,0.015891889805253596
1772735087360666000,7.262666015625,0.04050210625827312,0.006610650311410427,0.004460906665306538
1772735087370692900,7.27269287109375,0.05187339510023593,-0.0059871481182053685,-0.010480477482080459
1772735087380719900,7.282719970703125,0.03735913205742836,-0.015105872260406612,0.008502455407381057
1772735087390747100,7.2927470703125,0.050822424742579454,-0.006377462610043585,-0.009279668591264634
1772735087400774000,7.30277392578125,0.07072422604262829,-0.003752265205606818,0.0019296894209459422
1772735087410801000,7.31280078125,0.04723170677423477,0.00005932897180318832,-0.01490852305740118
1772735087420828200,7.322828125,0.04798574001193046,-0.010611885309405624,-0.004987469556368887
1772735087430855000,7.33285498046875,0.06953530851900577,0.005183211324177682,-0.007911540309526026
1772735087440882000,7.3428818359375,0.05621639274060726,0.006059190441109239,-0.011197850237507372
1772735087450909000,7.352908935546875,0.0493348165333271,-0.0071964873753488055,-0.005630352303478866
1772735087460936200,7.362936279296875,0.05248012882173061,-0.006308160233497619,-0.009822799024637788
1772735087470963000,7.372962890625,0.05681611219942569,0.0010503858357667922,-0.007322196114249527
1772735087480990000,7.382989990234375,0.03242635183036327,-0.0014695976285263896,-0.009273640709277243
1772735087491017200,7.393017333984375,0.029735213050246238,-0.0043897593915462494,-0.010622972959000616
1772735087501044000,7.4030439453125,0.04155599922537803,0.009067468878999351,0.00689967811955139
1772735087511071000,7.413071044921875,0.05546820472180843,-0.004849924249202013,-0.010954250739980489
1772735087521098000,7.423097900390625,0.06055120707452297,-0.00760028240326792,0.0072800557392649345
1772735087531125000,7.433125,0.05007891289889812,0.010064480559714139,-0.005986527063697576
1772735087541152000,7.443152099609375,0.04888122754693031,0.0025971038211137056,0.010375975927989929
1772735087551179000,7.453178955078125,0.05486731621921062,-0.008471658410318196,-0.018378518989216535
1772735087561205000,7.463205078125,0.04648761040866375,0.002318286879733205,-0.009239245249330997
1772735087571232000,7.47323193359375,0.04993044433891773,-0.0032347806701436637,-0.0004795819441787898
1772735087581259000,7.483259033203125,0.0586111789226532,-0.013813786623254418,0.0019117336391471325
1772735087591286000,7.4932861328125,0.0425987862765789,-0.0025060280041769144,-0.005030468447878957
1772735087601312800,7.503312744140625,0.04619184233248234,0.009345810896344483,-0.0014784202557988463
1772735087611340000,7.513340087890625,0.05007949742078781,-0.0010601765774190426,0.012297262846771627
1772735087621367000,7.523366943359375,0.049779053169488906,0.0003802680218592286,-0.0028513708431273698
1772735087631393800,7.533393798828125,0.0446902055978775,0.0021011369977146387,-0.006487973779812454
1772735087641421000,7.543421142578125,0.043942017579078674,-0.006232720377109945,-0.0002950556901283562
1772735087651448000,7.553447998046875,0.050824762830138204,-0.012792480751499533,-0.006365169384051114
1772735087661474800,7.563474853515625,0.04454349060356617,-0.0030098128078505397,-0.014804880019836127
1772735087671501800,7.573501708984375,0.04648702588677406,-0.010914594583027064,0.00013403817582875488
1772735087681529000,7.583529052734375,0.04214753537774086,-0.006186616213060915,-0.004453033886104822
1772735087691556000,7.59355615234375,0.04259761723279953,0.009359145301952957,0.00040584085453301664
1772735087701582800,7.603582763671875,0.04244564154148102,0.0025325872175395486,0.002397124269604683
1772735087711610000,7.613610107421875,0.053964814421534536,-0.007660342027433216,-0.007828392070718108
1772735087721637000,7.62363720703125,0.056660044854879375,-0.008655125218443572,-0.012170695591345428
1772735087731664000,7.633663818359375,0.0485766916424036,-0.00600369739420712,-0.00655855479799211
1772735087741691000,7.64369091796875,0.05605272661149501,-0.005530453859269618,0.0026288871988654136
1772735087751718100,7.65371826171875,0.05111527020931243,-0.0013177680676802993,-0.011585315185133368
1772735087761745000,7.663744873046875,0.041839492341876026,-0.007069682657904922,-0.0155540544193238
1772735087771772000,7.67377197265625,0.04243687371313572,-0.005894318735599518,-0.001480173821467906
1772735087781799200,7.683799072265625,0.04887129067480564,0.004584405180811882,-0.007603953931387513
1772735087791827000,7.693826904296875,0.04108779719173908,0.00278926539234817,-0.00331590134864673
1772735087801854000,7.70385400390625,0.04423310948014259,-0.0062009369993582366,-0.0038369478143751618
1772735087811881000,7.713880859375,0.0548597174346447,-0.007482647372968494,0.009790431124996394
1772735087821908000,7.723907958984375,0.04588263025283813,0.002492474402859807,-0.005918868654966354
1772735087831935000,7.73393505859375,0.06652852791845798,-0.00006100947223603725,-0.014341372427623717
1772735087841962000,7.7439619140625,0.03599310440123081,0.0187586956795305,-0.0031332930570468305
1772735087851989000,7.753989013671875,0.035242578294873234,-0.008852510954067111,-0.012584043898899108
1772735087862016000,7.76401611328125,0.059636430317163466,-0.00546491434238851,-0.008532795746717602
1772735087872043000,7.77404296875,0.05634381851255894,0.00020746873822063207,0.0011988361294381319
1772735087882070000,7.784070068359375,0.04078676841855049,-0.005290069232136011,-0.00398039313936606
1772735087892097000,7.794096923828125,0.040486324167251585,0.0011850450661033392,0.007353851627837866
1772735087902124000,7.8041240234375,0.059039048945903776,-0.0032383243340998887,-0.009275302943401039
1772735087912151000,7.814151123046875,0.054552258920669554,-0.0013553235990926623,-0.015094200088921933
1772735087922178000,7.824177978515625,0.04109013527929783,-0.0031337314484640956,-0.003996540556568652
1772735087932205000,7.834205078125,0.05351531708836555,0.0011638561476022004,0.0008720153278671205
1772735087942231800,7.844231689453125,0.04573708430230617,0.0003850537948310375,-0.00774184629842639
1772735087952259000,7.854259033203125,0.04932780227065086,-0.006668152652308345,-0.006087631084304303
1772735087962286000,7.8642861328125,0.049177580145001405,-0.01805328735653311,0.008564816586486996
1772735087972312800,7.874312744140625,0.054716509571671484,0.0011881503386422991,-0.0009662329499609768
1772735087982340000,7.884340087890625,0.06175006147027015,-0.0049930955795571205,0.0005738543651998043
1772735087992367000,7.8943671875,0.04842939212620258,-0.007745864886417985,-0.014637597161531447
1772735088002393900,7.904393798828125,0.04588321477472782,0.0058368894599378105,0.02070692540416494
1772735088012420900,7.9144208984375,0.050071898636221884,-0.0006342793155461549,-0.005029427268262952
1772735088022448000,7.9244482421875,0.054714171484112735,-0.008045834213681519,-0.01614657695237547
1772735088032474000,7.93447412109375,0.05232113886773586,-0.010286014355905353,0.009399842638522386
1772735088042500900,7.9445009765625,0.05157587345838546,-0.0016883184131234884,-0.016979411047324536
1772735088052527900,7.95452783203125,0.035112229913473125,-0.012375935839861631,-0.008989928397070615
1772735088062555100,7.96455517578125,0.03840250363051891,-0.002851991897635162,0.01135762564279139
1772735088072582000,7.974581787109375,0.03780453773736953,-0.003209938489831984,0.0007032163659110665
1772735088082609000,7.98460888671875,0.03751052322685718,-0.007987491622567176,-0.007205985856056213
1772735088092636200,7.99463623046875,0.06130231770277023,0.010603409742005169,0.0034954956992529333
1772735088102663200,8.0046630859375,0.04409808492362499,0.009108787270076572,0.009231335937511175
1772735088112690000,8.01468994140625,0.0496311691313982,0.0015579334991052745,0.006438563413824885
1772735088122717000,8.024717041015625,0.04798574001193046,-0.0007307254273444414,0.0010384579359553753
1772735088132744200,8.034744140625,0.05502221451997757,0.003359722224064171,0.002770962550677359
1772735088142771000,8.04477099609375,0.06056172846853733,0.0033388986317440866,0.0000659048430621624
1772735088152798000,8.0547978515625,0.049041386544704434,-0.009397723746672273,0.0038325639002025126
1772735088162825200,8.0648251953125,0.03796586577892303,-0.0011366028144955635,-0.01949360409164801
1772735088172852000,8.07485205078125,0.04395312349498272,-0.0029774083755910396,0.011858853163197637
1772735088182879000,8.08487890625,0.046941199395060536,-0.002135514191351831,0.013614464658871292
1772735088192906000,8.094906005859375,0.05516659142673015,0.004822890111804009,-0.005741703723464161
1772735088202933000,8.10493310546875,0.04408814805150032,0.005927636483311653,-0.0011600750216282903
1772735088212960000,8.1149599609375,0.04887772041559219,-0.00692830142583698,0.004642948701325804
1772735088222987000,8.124987060546875,0.04992810625135898,-0.010725757480040192,0.0063201063996180884
1772735088233014000,8.135013916015625,0.05487608404755592,0.002191482162289321,0.008872786557115615
1772735088243041000,8.145041015625,0.05562310302257537,-0.005926869298331439,-0.0022166531361639498
1772735088253068000,8.155068115234375,0.06519581800997257,-0.005120740547217428,0.003824892050400376
1772735088263094800,8.1650947265625,0.043050037175416944,0.005387465192005038,0.001291829908825457
1772735088273122000,8.1751220703125,0.05292670354545116,-0.0010543313585221767,0.0142835230268538
1772735088283149000,8.185149169921875,0.05472352383434772,0.002826272934488952,0.0007446808874607086
1772735088293175800,8.19517578125,0.045590953829884526,0.0032828575955703852,-0.014522428082954137
1772735088303203000,8.205203125,0.051425651332736015,0.0015064590401947498,-0.005160835095588117
1772735088313230000,8.21522998046875,0.03855740193128586,0.00228632083889097,0.002775784856267273
1772735088323257000,8.225257080078125,0.04634498706758022,0.008679675137810408,-0.007222845659311861
1772735088333283800,8.235283935546875,0.055925885361433024,-0.0038389571083709594,-0.000597527501732111
1772735088343311000,8.24531103515625,0.04889700963795185,0.0011019333599135278,-0.0015852781637571752
1772735088353338000,8.255338134765625,0.05892156004607677,-0.008985599281825124,-0.0001391162097454071
1772735088363364900,8.26536474609375,0.055475803506374356,-0.009221563462167978,-0.010695471939630805
1772735088373392100,8.27539208984375,0.06056582012176513,0.00016121844369918108,-0.00001819324381649494
1772735088383419100,8.285419189453124,0.059818801146745676,0.008110350817255675,-0.00048414852144196627
1772735088393446000,8.29544580078125,0.042611645758152,-0.003945340092293918,-0.013758658902533352
1772735088403473000,8.305472900390624,0.05203530766367912,-0.0027281463222578167,0.004012961968407035
1772735088413500200,8.315500244140624,0.056523266732692715,-0.0014226166816428303,0.004280088471993804
1772735088423527000,8.32552685546875,0.041858197042346,-0.004249474138021469,-0.007174312076158821
1772735088433554000,8.335553955078124,0.05338204609751701,0.0026879969749599693,-0.0038698819695971902
1772735088443581200,8.345581298828124,0.042611645758152,-0.0027695743111893533,0.015846516293566672
1772735088453608000,8.35560791015625,0.03512625843882561,-0.008813749846257268,0.0073631857117637985
1772735088463635000,8.365635009765626,0.05353285274505615,-0.003563976091891527,-0.009132314276136458
1772735088473662000,8.375661865234376,0.05383095890879631,-0.0150990406608209,-0.00892959477826953
1772735088483689000,8.38568896484375,0.04320551999807357,-0.004663754027336836,-0.017179554995615035
1772735088493716000,8.395716064453126,0.05816343515515327,-0.004496799962595105,0.004266352207586169
1772735088503743000,8.405742919921876,0.04619418042004108,-0.007407901636324822,-0.00734490113640204
1772735088513770000,8.41577001953125,0.04124854071140289,-0.009372881566360592,-0.0008337839430198073
1772735088523797000,8.425796875,0.06055646777153015,0.01261774523910135,-0.01586067268308252
1772735088533824000,8.435823974609375,0.043048283609747884,0.003221409731917083,-0.01430060202581808
1772735088543851000,8.44585107421875,0.05516717594861984,-0.013350589558295906,-0.01019141314132139
1772735088553878000,8.4558779296875,0.05905658460259437,0.0055006797755137084,-0.00012782763075083493
1772735088563905000,8.465905029296875,0.045295770275592805,0.007951981917768716,-0.0016543796109035611
1772735088573931000,8.475930908203125,0.05278174211680889,-0.011935023671947419,0.012411536876205354
1772735088583958000,8.4859580078125,0.04515256241261959,0.005034633166342973,0.009405285998620092
1772735088593985000,8.495985107421875,0.04859364277720451,0.00920274916384369,-0.011713763870391995
1772735088604012000,8.506011962890625,0.04918634797334671,0.005417495004087686,0.00045168929025530814
1772735088614039000,8.5160390625,0.05143032750785351,-0.0056136751633137465,-0.001992598589323461
1772735088624065800,8.526065673828125,0.03901157543957233,-0.0007912599755451082,0.004293843002710491
1772735088634093000,8.536093017578125,0.03826221837699413,0.00036251316945999857,-0.007984240219555796
1772735088644120000,8.5461201171875,0.04738485150933265,-0.0021748232884332536,-0.009175715026445687
1772735088654146800,8.556146728515625,0.051423897767066955,-0.008028627350553869,0.0008743168828077613
1772735088664174000,8.566174072265625,0.04903028062880039,0.004974610074795782,-0.001431329711060971
1772735088674201000,8.576201171875,0.048132455006241796,0.0024957623384892938,-0.007531637613847851
1772735088684227800,8.586227783203125,0.06234744284152984,0.001426050747744739,0.003090184567682445
1772735088694254800,8.5962548828125,0.037058103284239766,-0.01254935617800802,0.0028744777240790427
1772735088704282000,8.6062822265625,0.04184709112644195,0.005081504515372217,-0.00348258141875267
1772735088714308900,8.616308837890625,0.046185412591695785,-0.00035918870121240615,-0.018643216073699294
1772735088724335900,8.6263359375,0.04738134437799454,-0.004741933830082416,-0.006538224396016448
1772735088734363100,8.636363037109374,0.044991818892955775,0.00287891643717885,0.004552201677951962
1772735088744390000,8.646389892578124,0.047537411722540855,0.0011290040299296378,0.0241418500225991
1772735088754417000,8.6564169921875,0.05187748675346374,-0.005588832983002066,-0.00338138606660068
1772735088764444000,8.66644384765625,0.05292319641411304,-0.003271203690394759,-0.006557148292195052
1772735088774471200,8.67647119140625,0.059954994747042654,-0.00832121708896011,-0.007215557401999831
1772735088784498000,8.686497802734374,0.04558510861098766,-0.0027039982616901396,0.009797244458273053
1772735088794524200,8.696524169921876,0.047230537730455394,-0.0019096330136060713,0.0027207667334005234
1772735088804551200,8.70655126953125,0.04034662343561649,-0.0004223535979166627,0.007077792899124324
1772735088814578200,8.716578125,0.04109305788874626,-0.006683496351912618,-0.013455712166894226
1772735088824605200,8.726605224609376,0.047829088145494456,-0.005952770924568176,0.0146841945159249
1772735088834632200,8.736632080078126,0.04798164835870266,-0.006176642808318138,-0.0032719343427568674
1772735088844659200,8.7466591796875,0.047535658156871795,0.011002345931716263,-0.01175897298529744
1772735088854686200,8.756686279296876,0.036459552869200704,0.00043050037175416944,-0.012530286151356995
1772735088864713200,8.766713134765626,0.02957856118381023,0.008171871746145188,-0.002074687382206321
1772735088874740200,8.776740234375,0.04693476965427398,-0.0026421850718557835,0.0016982918178662656
1772735088884767200,8.786767333984375,0.05605974087417125,-0.006732157799229026,0.00966572703309357
1772735088894794200,8.796794189453125,0.053066404277086254,0.006454108042828738,-0.0032921551468782125
1772735088904821200,8.8068212890625,0.04439268395602703,0.0011874927515164017,-0.00020197057919576762
1772735088914848000,8.816847900390625,0.043045945522189134,-0.007589103422127663,0.010967548612970859
1772735088924875300,8.826875244140625,0.04932546418309212,-0.0023288448063656687,0.001282075699791312
1772735088934902300,8.83690234375,0.044833413460850714,-0.0012040054949000478,-0.0009632738078944385
1772735088944929000,8.846928955078125,0.04768061958551407,-0.006042056643217802,0.011748469857592135
1772735088954956300,8.856956298828125,0.05291852023899555,-0.0004415332224220037,0.008355868277233093
1772735088964983300,8.8669833984375,0.03496551491916179,-0.004768383445590735,-0.0032824922693893313
1772735088975010000,8.877010009765625,0.04364040428400039,0.005590842276997864,0.005377875379752367
1772735088985037000,8.887037109375,0.05860182657241821,-0.006578574672713875,-0.010436784470826388
1772735088995064300,8.897064208984375,0.03734802614152431,-0.007318762048147618,-0.007279726945701986
1772735089005091000,8.907091064453125,0.053963060855865476,-0.002820537313446402,0.006490275334753096
1772735089015118000,8.9171181640625,0.04573299264907837,-0.002536788468621671,0.0004826324177905917
1772735089025145300,8.927145263671875,0.04274725483655929,-0.017806655651703477,-0.004250679714418948
1772735089035172400,8.93717236328125,0.04948679222464561,-0.007094269109889865,0.0028217246235348282
1772735089045199000,8.94719921875,0.043052959784865376,-0.006480667256191373,-0.0024305333488620815
1772735089055226000,8.95722607421875,0.04335808021128178,0.008770129900239407,-0.00307286810670048
1772735089065253400,8.96725341796875,0.048295536613464356,-0.013244133509136736,0.0009474917168729006
1772735089075280100,8.977280029296875,0.03857201497852802,-0.005055383693426847,0.001450198808312416
1772735089085307100,8.98730712890625,0.05518237351775169,-0.004425634422525763,0.000862114988360554
1772735089095334400,8.99733447265625,0.058770168876647946,-0.0009591638883575796,-0.005909918163530528
1772735089105361200,9.007361083984375,0.036624972563982006,-0.012452544740028678,0.010837784753460436
1772735089115388200,9.01738818359375,0.049042555588483805,-0.011919131983071565,0.011152842052001505
1772735089125415200,9.027415283203124,0.03842003928720951,0.0019525953724980354,0.003899528189189732
1772735089135442200,9.037442138671874,0.054582069537043566,-0.011382833149284123,-0.004543305985443294
1772735089145469200,9.04746923828125,0.04963935243785381,-0.0035586057970300317,-0.011681523834913969
1772735089155496200,9.05749609375,0.035871523848176,0.0009175532363355159,-0.003719038789439946
1772735089165523200,9.067523193359374,0.05083703778982162,0.007683138381130993,0.0032685368092730638
1772735089175550200,9.07755029296875,0.04919277771413326,-0.0028904972771182655,-0.010938943572994322
1772735089185577200,9.0875771484375,0.04770400046110153,0.010294343792833387,-0.004886822193488479
1772735089195604000,9.09760400390625,0.049349429580569266,-0.014690021468512712,0.0027819954013451934
1772735089205631200,9.10763134765625,0.047853053542971605,-0.018696078772097825,-0.004796330898441374
1772735089215658200,9.117658203125,0.0595259556800127,-0.003205408445186913,0.004542611865699291
1772735089225685000,9.12768505859375,0.026906711626052855,0.0037198973059654234,-0.0044419645028188825
1772735089235712300,9.137712158203126,0.05324000727832317,-0.0006079758305102586,0.013270857119280844
1772735089245739300,9.1477392578125,0.0580313332080841,-0.014810140716843306,0.0012020144672133027
1772735089255766300,9.157766357421876,0.04037351144254207,0.008364727437123656,-0.0008982092150487005
1772735089265793000,9.16779296875,0.04770692307054996,0.008225063238106668,0.015530856206826866
1772735089275819300,9.1778193359375,0.05129822556078434,0.00014887041877955197,0.005511566495709121
1772735089285846300,9.18784619140625,0.043667292290925974,-0.00010883066933602093,0.0004612243035808205
1772735089295873300,9.197873291015625,0.04501052359342575,-0.001466455823369324,-0.012134692696202546
1772735089305900000,9.207900146484375,0.04859948799610138,-0.009567052431590855,-0.007410257990192621
1772735089315927300,9.21792724609375,0.03318038506805897,-0.005978380289860069,-0.0006197028009220958
1772735089325954300,9.227954345703125,0.062358548757433886,-0.011033544787578285,-0.012140428317245095
1772735089335981000,9.23798095703125,0.051286535122990605,0.0081928780015558,-0.009303524390887469
1772735089346008300,9.24800830078125,0.04111351615488529,0.0010849822251126169,-0.002650404910929501
1772735089356035300,9.258035400390625,0.04036883526742458,-0.00422821215428412,0.004934990450460463
1772735089366062000,9.26806201171875,0.047698155242204665,-0.00812934777867049,-0.018895108475536108
1772735089376089000,9.278089111328125,0.0511386510848999,-0.005800064580887556,-0.0130876095068641
1772735089386116400,9.288116455078125,0.04500701646208763,-0.008404840251803398,-0.006532433976046741
1772735089396143000,9.29814306640625,0.04426408914029598,0.013822116060182452,-0.0031927498930133876
1772735089406170000,9.308170166015625,0.042918519750237465,-0.005442044923454523,-0.006197849993128329
1772735089416197400,9.318197265625,0.040080081453919406,-0.0023179215535521504,-0.0007960274822078645
1772735089426224000,9.32822412109375,0.06207797825038433,0.007249350073747336,-0.0029785774193704126
1772735089436251100,9.338251220703125,0.04546703518927097,-0.002962612665258348,-0.005077558992616832
1772735089446278100,9.348278076171875,0.04232523003220558,-0.0035414719991385935,-0.0020803316717036067
1772735089456305200,9.35830517578125,0.05205050523281097,0.0021458163896575567,0.01145503986896947
1772735089466332200,9.368332275390625,0.04442074100673198,0.00664868076685816,0.011530936383083463
1772735089476359200,9.378359130859375,0.05130348625779152,0.004421579301916063,0.0038190833641216157
1772735089486386200,9.38838623046875,0.050102878296375275,-0.011282989504002035,0.0015754326231777666
1772735089496413200,9.3984130859375,0.0510036265283823,-0.018510712267830968,0.0016123671000823378
1772735089506440200,9.408440185546874,0.061034606677293775,0.0023425080055370926,-0.0025667269491590557
1772735089516467200,9.41846728515625,0.05130348625779152,0.008061689369939267,-0.010188636662345379
1772735089526494200,9.428494140625,0.04876432316899299,-0.0031996362915262576,-0.0007774141132831573
1772735089536521200,9.438521240234374,0.05340834958255291,-0.000556428306363523,-0.011636753111425787
1772735089546548200,9.44854833984375,0.04652385076582431,-0.002350873975083232,0.007564498703833669
1772735089556575200,9.4585751953125,0.04742284543216228,-0.0028061799945309756,-0.006558043341338634
1772735089566602200,9.468602294921874,0.054603112325072284,0.00025561872888356444,-0.0004402180481702089
1772735089576629200,9.478629150390624,0.0505634815454483,0.009961531641893088,-0.0011173683910630642
1772735089586656000,9.488656005859376,0.05715045872032642,0.0064417234852910035,0.01069746296731755
1772735089596683300,9.498683349609376,0.03231061649620533,0.005690430193953216,0.012483122541382908
1772735089606710300,9.508710205078126,0.05101180983483791,-0.002179134137369692,0.0005381254646927118
1772735089616737000,9.518737060546876,0.04322890087366104,-0.00284516029804945,-0.007727361115347594
1772735089626764300,9.528764404296876,0.044129064583778375,-0.00781206199042499,0.012488785097189247
1772735089636791300,9.538791259765626,0.04697627070844173,0.0021305822879076003,-0.001816346973273903
1772735089646818000,9.548818115234376,0.04862696052491665,0.0033685631176456807,0.0013263714992441237
1772735089656845000,9.558844970703126,0.05910217730998993,-0.005349873127974569,-0.0017524331578984856
1772735089666872300,9.568872314453126,0.04548457084596157,-0.004970701084658503,0.0012995200249366463
1772735089676899000,9.578899169921876,0.05984919628500938,-0.006115304542519152,-0.00921644889563322
1772735089686926000,9.588926025390625,0.058503626894950866,-0.004397358176112175,0.006257580823730677
1772735089696953300,9.598953369140625,0.0477314729899168,-0.01192037409208715,0.011492339672055095
1772735089706980400,9.60898046875,0.04474398161172866,0.011020721838623284,-0.013351612471602856
1772735089717007000,9.619007080078125,0.04743921204507351,-0.00405870080627501,-0.012929861661884933
1772735089727034000,9.6290341796875,0.049985973918437954,-0.0014193287460133432,-0.008871873241662978
1772735089737061400,9.639061279296875,0.05043547125160694,-0.0072647668385878205,-0.0018855214856564999
1772735089747088100,9.649088134765625,0.060163084539771074,-0.0014301789335906506,-0.003122004478052258
1772735089757115100,9.659115234375,0.0579226121366024,-0.0025116174947470427,0.011673249196913092
1772735089767142400,9.669142333984375,0.049393268722295755,0.004228650545701385,0.00688948551909998
1772735089777169200,9.679169189453125,0.05912205105423927,0.0066182856285944575,-0.011468246410414575
1772735089787196200,9.689196044921875,0.052687634092569345,-0.012905987595953046,-0.011575086052063852
1772735089797223400,9.699223388671875,0.06062193422317504,-0.018414960275776684,0.014349647065624594
1772735089807250200,9.709250244140625,0.04236439299881458,-0.003932553675957024,-0.019594580248091367
1772735089817277200,9.719277099609375,0.04296118984818458,0.006836714152246713,-0.0075024663182906804
1772735089827304200,9.72930419921875,0.041158524340391155,-0.0016846286186948417,0.004279248221777379
1772735089837331200,9.739331298828125,0.04953823015093803,-0.0061691536216065285,0.00039732875451445576
1772735089847358200,9.749358154296875,0.04429857593178749,-0.014266937218233942,0.005697627119719982
1772735089857385200,9.75938525390625,0.04773790273070335,0.004919811147637665,-0.004399257872253656
1772735089867412200,9.769412109375,0.04504617942869663,-0.011501125766709447,0.0047298597997985775
1772735089877439200,9.779439208984375,0.054473348465561865,0.0076260378990322345,0.02630016056764871
1772735089887466200,9.78946630859375,0.04025777610838413,-0.001904006990417838,0.012007358255796134
1772735089897493200,9.7994931640625,0.051931847289204594,0.004995981656387448,0.0014499248136766254
1772735089907520300,9.809520263671875,0.06435702909827232,-0.0008898980444297194,-0.00281788869863376
1772735089917547300,9.81954736328125,0.05014204126298427,-0.0147763480450958,-0.003537964867800474
1772735089927574300,9.82957421875,0.04579904362261295,-0.009720197166688739,-0.01510227379752323
1772735089937601300,9.839601318359374,0.04175122953653335,0.00012030191142112016,-0.011312781854066997
1772735089947628300,9.849628173828124,0.06015607027709484,0.005789871980436146,-0.01789228810854256
1772735089957655300,9.8596552734375,0.045941082441806794,0.0019303104754537343,0.02014989430960268
1772735089967682000,9.86968212890625,0.0435486343473196,-0.0031219314128160475,0.0020152122799307107
1772735089977709300,9.879709228515624,0.037860651838779444,-0.016007314612157642,-0.012594108635187149
1772735089987736300,9.889736328125,0.02768646382689476,-0.0037571240438148377,-0.009528821046743541
1772735089997763000,9.89976318359375,0.05207622419595718,-0.008093472747690976,-0.007842785922251641
1772735090007790300,9.909790283203124,0.044595513051748276,0.004480652545392513,-0.0063986149959266185
1772735090017817300,9.9198173828125,0.03487549854815006,0.005380633592419326,0.0007511471608653665
1772735090027844000,9.929843994140626,0.03802081083655357,0.0007712401008233428,-0.0011338628681376575
1772735090037871000,9.93987109375,0.051041620451211925,-0.002352810203842819,-0.00427108318163082
1772735090047898400,9.9498984375,0.04954699797928333,-0.0032014629224315283,-0.007573558793123811
1772735090057925000,9.959925048828126,0.05642915870845318,0.002084478123858571,0.00728076812531799
1772735090067952000,9.9699521484375,0.05867255372107029,-0.00023917905073612928,0.005274086211714893
1772735090077979400,9.9799794921875,0.049100423255562776,-0.00406052743718028,-0.022819917236454785
1772735090088006100,9.990006103515626,0.04880582422316074,-0.0010982435654848814,-0.008338277821615338
1772735090098033200,10.000033203125,0.0425245519965887,0.010235270549356936,-0.02417485724305734
1772735090108060400,10.010060302734376,0.05105681802034378,-0.0014042042421177029,-0.011545750359725207
1772735090118087200,10.020087158203125,0.04717267006337642,0.006513217818923295,-0.003379796897713095
1772735090128114200,10.0301142578125,0.0546545502513647,0.003352781026624143,0.0045235418390482665
1772735090138141200,10.04014111328125,0.039244799673557276,0.007320296418108046,-0.0022376776578836143
1772735090148168400,10.05016845703125,0.0518137738674879,0.0017182386273518204,-0.0028995573664084076
1772735090158195200,10.0601953125,0.04238835839629173,-0.0012239888370037077,0.0011360730915330349
1772735090168222200,10.07022216796875,0.038951369684934616,-0.005754471873492002,0.005288005139213055
1772735090178249500,10.08024951171875,0.053315995123982426,0.0016909122290089725,0.0007539236398413777
1772735090188276200,10.090276123046875,0.05944879879057407,0.005222264692932367,-0.006567596620973199
1772735090198303200,10.10030322265625,0.06378653573393821,-0.014122341115772723,0.004091488831024617
1772735090208330200,10.110330322265625,0.057656070154905315,-0.00046162616237998004,0.0031964396874420344
1772735090218357200,10.120357177734375,0.05392039075791835,-0.0010866992581635712,-0.023045560952182857
1772735090228384300,10.13038427734375,0.04539280090928077,-0.011200791113264857,-0.009403386302478611
1772735090238411300,10.140411376953125,0.0473392588019371,0.005238521707989275,-0.008004716752003878
1772735090248438300,10.150438232421875,0.044644028368592256,0.002045863146521151,-0.013397899298742412
1772735090258465300,10.16046533203125,0.033274493092298504,-0.00400726287998259,-0.009642912413086742
1772735090268492300,10.1704921875,0.05272621253728866,0.006164513979107141,0.0002636924374848604
1772735090278519000,10.18051904296875,0.06230535726547241,0.005341543691046536,-0.006601553689502179
1772735090288546300,10.19054638671875,0.047637949487566944,-0.009248049610294401,-0.010325597447622566
1772735090298573300,10.2005732421875,0.04538987829983234,0.0048448096826672555,0.0009474003853276371
1772735090308600000,10.21060009765625,0.04045300641953945,0.0011499006874859333,-0.0006700630149804055
1772735090318627300,10.22062744140625,0.04644084865748882,-0.004926642747223377,-0.004722078352142125
1772735090328654300,10.230654296875,0.06813713215887546,0.003048098991625011,-0.01716696950867772
1772735090338681300,10.240681396484375,0.04913666361272335,0.0036173502469435334,-0.014311269550304859
1772735090348708000,10.2507080078125,0.04913958622217178,-0.01432491448316723,-0.008717650794330983
1772735090358735400,10.2607353515625,0.039863808354735374,0.0006678162589669227,0.003363211089093238
1772735090368762400,10.270762451171874,0.05198737686872482,-0.002689677475392818,-0.004568312562536448
1772735090378789000,10.2807890625,0.05213759899437427,-0.008305325400084256,-0.01181561680966988
1772735090388816400,10.29081640625,0.06290916837751866,0.014557115803845225,0.008128690191544592
1772735090398843400,10.300843505859374,0.04480652545392513,-0.0016625263847410679,-0.004381831813417375
1772735090408870100,10.3108701171875,0.042564299485087394,0.0030817090002819895,0.004956946553941815
1772735090418897200,10.320897216796874,0.06112111591696739,-0.014282901972346006,-0.002387370060570538
1772735090428924400,10.33092431640625,0.04765548514425754,0.0027617197982966898,-0.013171378800179809
1772735090438950400,10.340950439453126,0.04794891513288021,-0.0035379283351823685,0.003148782887123525
1772735090448978200,10.350978271484376,0.04465571880638599,0.006895385536924004,0.0011937032965943218
1772735090459005400,10.36100537109375,0.05154255571067333,0.00024389175847172736,-0.004988529002293944
1772735090469031400,10.371031494140626,0.04690320547223091,0.013334807467274367,-0.0062879759619943795
1772735090479059200,10.38105908203125,0.044811201629042625,0.004997771754674613,0.005175758670084178
1772735090489086200,10.391086181640626,0.05767945103049278,-0.001956467830017209,-0.014646419788803905
1772735090499112200,10.4011123046875,0.04795066869854927,0.00996302947923541,-0.0013257687110453844
1772735090509140200,10.41114013671875,0.04989712659120559,-0.0019619477227330205,-0.00008753215298056601
1772735090519166200,10.421166259765625,0.05767126772403717,0.0003585311140865087,0.003304174378234893
1772735090529193200,10.431193115234375,0.052580666586756704,-0.00020863778200000524,-0.0052676930035464465
1772735090539220200,10.44122021484375,0.04584755893945694,0.003847907599806785,-0.010512918446958064
1772735090549247200,10.451247314453125,0.03612579087018966,0.009468487427942453,-0.009992693965137004
1772735090559274200,10.461274169921875,0.04465747237205505,0.016850122111849487,0.004204191957879811
1772735090569301200,10.47130126953125,0.048998716446757316,-0.002868687304109335,0.006272413066681474
1772735090579328300,10.481328369140625,0.039866730964183805,-0.00808459532149136,0.0014668028832413255
1772735090589355300,10.491355224609375,0.04375964674949646,0.0003470233393833041,-0.00036755467075854536
1772735090599382300,10.50138232421875,0.05214344421327114,0.006118884739093482,-0.009244524212647228
1772735090609409300,10.5114091796875,0.03313829949200153,-0.007213146249204874,-0.008307700020261108
1772735090619436300,10.521436279296875,0.034489714100956914,0.012621471566148101,-0.006286331994179636
1772735090629463300,10.53146337890625,0.04585691128969192,-0.018105492467805743,-0.024552787177357822
1772735090639490000,10.541489990234375,0.05633095903098583,-0.01856251552030444,-0.010459599090833216
1772735090649517300,10.551517333984375,0.04600362628400326,0.0011381371844559906,-0.0007205510932020842
1772735090659543300,10.561543212890625,0.05109247385561466,-0.010045337467826902,0.004070519108232111
1772735090669570300,10.5715703125,0.052589434415102,-0.008617606219649314,-0.006372749902307987
1772735090679597000,10.58159716796875,0.04480652545392513,-0.012727891082689166,-0.015841474792268127
1772735090689624300,10.591624267578124,0.043159342768788335,-0.00006773147396743297,0.0007496127909049392
1772735090699651300,10.6016513671875,0.03866846109032631,-0.008434870063886046,-0.009559106587152928
1772735090709678000,10.611677978515624,0.05737140799462795,-0.006008775428123772,0.001098334897030145
1772735090719705300,10.621705322265624,0.06635024874210357,-0.003424129229784012,-0.001860240913927555
1772735090729732400,10.631732421875,0.04120820870101451,-0.013069288398884236,-0.008403324148152024
1772735090739759000,10.641759033203124,0.05227613068222999,-0.004018916785158217,0.009507778258714824
1772735090749786000,10.6517861328125,0.05886661498844623,-0.0015509923016652463,-0.01242346477601677
1772735090759813400,10.6618134765625,0.055877954566478726,-0.002215337961912155,-0.010696458320319652
1772735090769840000,10.671840087890626,0.03163841632306576,-0.0018712737645953893,-0.020423377488739788
1772735090779867100,10.6818671875,0.05767477485537529,0.0015481427574530243,-0.026414160602446644
1772735090789894400,10.691894287109376,0.03478080600202083,0.01643496543969959,-0.0028405206555500626
1772735090799921200,10.701921142578126,0.04196399550437927,0.000007635317184031009,-0.00580934386588633
1772735090809948000,10.711947998046876,0.056174891686439514,0.0041736324228346345,0.003566624706704169
1772735090819975000,10.721974853515626,0.047044075247645374,-0.014950462502986192,-0.02027474453197792
1772735090830002000,10.732001953125,0.060060793209075924,0.0022044877743348477,0.0053055225295946
1772735090840029000,10.74202880859375,0.0673860215306282,-0.0016992781985551118,-0.026957820758782326
1772735090850056000,10.752055908203126,0.04149579347074032,-0.010872764735296367,0.008720372474379836
1772735090860083000,10.7620830078125,0.05182078813016414,-0.0013802753772586584,-0.006453194727376103
1772735090870110000,10.77210986328125,0.04867781392931938,0.004249364540167153,-0.013084869560506194
1772735090880137000,10.782136962890625,0.048078094470500946,-0.015161657568253576,-0.005346475594490766
1772735090890164000,10.7921640625,0.051964580515027045,0.0010335808314383028,-0.007136939207836986
1772735090900191000,10.80219091796875,0.05061667303740978,-0.0000196545485407114,-0.0006518697711639106
1772735090910218000,10.812218017578125,0.05286065257191658,-0.006188004452548921,-0.002161872475314885
1772735090920245000,10.822244873046875,0.04133563447296619,0.0094795933438465,-0.004814944267366081
1772735090930271700,10.832271728515625,0.04328150784373283,0.005642572464235126,-0.01298323581693694
1772735090940299000,10.842299072265625,0.05091711728870869,-0.004623714277893305,-0.002439008916262537
1772735090950326000,10.852325927734375,0.05151742126941681,-0.004278590634651482,-0.0023114187475293873
1772735090960353000,10.86235302734375,0.05032032043933868,0.0032495033152401447,-0.0013407653507776557
1772735090970380000,10.872380126953125,0.046427989175915715,-0.005912840772978961,-0.003998787312582135
1772735090980407000,10.882406982421875,0.03760872290432453,-0.01076232663076371,-0.011695406229794024
1772735090990434000,10.89243408203125,0.04314531424343586,0.0030651962568983434,-0.008530457659158856
1772735091000460800,10.902460693359375,0.05047288065254688,-0.013487513810954987,0.013686927106883375
1772735091010488000,10.912488037109375,0.04568623089790344,-0.004024067884311079,-0.008650467309635132
1772735091020515000,10.92251513671875,0.05915361523628235,0.014840499322488904,-0.00023253011424094437
1772735091030541800,10.932541748046875,0.05017652805447578,0.0042152430748566986,-0.012854914995841682
1772735091040570000,10.942570068359375,0.05182137265205383,0.0025894685039296746,-0.015319332347996532
1772735091050596900,10.952596923828125,0.05615910959541797,-0.014610563024133444,-0.03856512858001515
1772735091060624000,10.962623779296875,0.03685878131985664,-0.008297470887191594,-0.04583890070896596
1772735091070651100,10.972651123046875,0.05540799896717071,-0.02716233035493642,-0.021581351884827016
1772735091080678000,10.982677978515625,0.038651509955525395,-0.022164814328588543,0.027000746585056183
1772735091090705000,10.992704833984375,0.060651160317659374,0.04637841441314667,0.06788180569093674
1772735091100732000,11.00273193359375,0.06529167959988116,0.04701897733900696,0.09524517504330723
1772735091110759000,11.012759033203125,0.05198036260604858,0.013979863905161618,0.05018821849226951
1772735091120786000,11.022785888671875,0.050336687052249904,-0.03366944722663611,0.020454576344601808
1772735091130813000,11.03281298828125,0.05542378105819225,-0.06331248848140239,0.003992649832740426
1772735091140840000,11.04283984375,0.048392567247152324,-0.04898428606260568,-0.015203195155039428
1772735091150867000,11.052866943359374,0.06410451564192772,-0.008313216445595026,-0.03747563457656652
1772735091160894000,11.06289404296875,0.05662438901960849,0.018412001133710144,-0.046079504531808195
1772735091170921000,11.0729208984375,0.04854045128524303,-0.00830744429193437,-0.07598422893006354
1772735091180948000,11.082947998046874,0.04495031783878803,0.011093385216034948,-0.04260391910942271
1772735091190975000,11.09297509765625,0.054826984208822246,0.029179259667918084,-0.006611563626863062
1772735091201002000,11.103001953125,0.050038580888509744,0.05171177479773759,0.03198388702617958
1772735091211029000,11.113029052734374,0.036274259430170055,0.03872727860547602,0.044355000560451295
1772735091221056000,11.123055908203124,0.05048866274356842,0.01046199197731912,0.04279734105598181
1772735091231083000,11.1330830078125,0.04854454293847084,-0.025606333084590732,0.04879263594802469
1772735091241109800,11.14310986328125,0.05752747533917427,-0.015274908684380351,0.02084680879889056
1772735091251137000,11.153136962890626,0.053038931748270984,-0.037624687658436594,-0.01278457143967971
1772735091261164000,11.1631640625,0.042861236605048175,-0.00598689238987863,-0.03913938480401411
1772735091271190800,11.173190673828126,0.047349195674061775,0.03398508904706687,-0.05343887258497998
1772735091281218000,11.183218017578126,0.0433089803725481,0.046228009624406693,-0.056022696799412366
1772735091291245000,11.1932451171875,0.048694765064120286,0.03455455949809402,-0.04772354541178792
1772735091301271800,11.203271728515626,0.062464931741356845,0.018789529209211467,-0.029044527372345325
1772735091311298800,11.213298828125,0.04705225855410099,-0.0066625996943563215,-0.009913673912174998
1772735091321326000,11.223326171875,0.04316226537823677,-0.03153616152498871,0.029060967050492763
1772735091331352800,11.233352783203125,0.05932488014996051,-0.026278971649147567,0.05626759320488199
1772735091341379800,11.2433798828125,0.04466273306906223,-0.00833754716925323,0.06502630666196346
1772735091351407000,11.253406982421875,0.06396715299785137,0.009343034417368471,0.03540405246689916
1772735091361433900,11.263433837890625,0.07009878762066364,0.04724080339614302,0.004333480893354863
1772735091371460900,11.2734609375,0.03882803556621074,0.02081785669904202,-0.05018310392573475
1772735091381487900,11.28348779296875,0.04287000443339348,-0.004565006360597908,-0.05303235587701201
1772735091391515100,11.29351513671875,0.06367606109678745,-0.0156836721483618,-0.06946269994052126
1772735091401542000,11.3035419921875,0.04647299736142158,-0.025138605974987148,-0.061733055536542084
1772735091411569000,11.31356884765625,0.03540215277075767,-0.02607139331307262,-0.05694783055400476
1772735091421596200,11.32359619140625,0.050368251234292984,0.004485730579309165,-0.02485366982007399
1772735091431623000,11.333622802734375,0.05186170466244221,0.009717895611748099,0.009611914486624299
1772735091441650000,11.34364990234375,0.05499941816627979,0.018514730855822562,0.03318540830304846
1772735091451677000,11.353677001953125,0.04138239622414112,0.023014124634303152,0.047279089579917485
1772735091461704000,11.363703857421875,0.06128653561174869,0.006781805627234279,0.05086836450984701
1772735091471731000,11.37373095703125,0.04692249469459057,0.00015537322480231524,0.03295421162936836
1772735091481758000,11.383758056640625,0.03928863881528377,0.008912497512996196,-0.008206358537636696
1772735091491785000,11.393784912109375,0.04662088139951229,-0.009420008643716574,-0.023962712329719214
1772735091501812000,11.40381201171875,0.043780105015635486,-0.017675759281031787,-0.04166283886702731
1772735091511839000,11.4138388671875,0.03659165481626987,-0.014481749012693761,-0.042157289586775004
1772735091521865700,11.42386572265625,0.05095277312397956,-0.010262085491046308,-0.04395334269069135
1772735091531893000,11.43389306640625,0.050500937703251834,0.003702105920948088,-0.04592204894777387
1772735091541920000,11.443919921875,0.05678630158305168,0.0053571431189775465,-0.004046407580282539
1772735091551946800,11.45394677734375,0.05199848278462887,0.008128690191544592,0.014085351839940995
1772735091561974000,11.46397412109375,0.06412029773294925,-0.0047353579588234425,0.0399264435284771
1772735091572001000,11.4740009765625,0.04511515301167965,0.011954933948814868,0.0451111526899971
1772735091582028000,11.484028076171874,0.043616438886523244,0.002035743611305952,0.025080263383872807
1772735091592054800,11.4940546875,0.048103813433647155,-0.00287358267493546,0.015337507325503975
1772735091602082000,11.50408203125,0.06516776095926761,0.009441891681961715,-0.0005958652676083147
1772735091612109000,11.514109130859374,0.04541676630675792,-0.007273534666933119,-0.026788729535881427
1772735091622135800,11.5241357421875,0.05619476543068885,-0.025568485292233524,-0.019312913762498645
1772735091632163000,11.5341630859375,0.03704115214943886,-0.022655885781161487,-0.026247370934486387
1772735091642190000,11.544190185546874,0.044372810211777684,0.0004205269670113921,-0.008937942481506615
1772735091652216800,11.554216796875,0.06397650534808635,0.009730535897612571,-0.00445248589683324
1772735091662243800,11.564243896484374,0.05739361982643604,0.02110964271984994,0.00851489476384595
1772735091672271000,11.57427099609375,0.04482172302305698,0.028291115189157424,0.018937340182065963
1772735091682297900,11.5842978515625,0.05424772301614284,0.03295753609761595,0.015596194794308394
1772735091692324900,11.594324951171876,0.05170855992734432,0.01989738085325807,-0.0006127433371730149
1772735091702352100,11.60435205078125,0.04766776010394096,-0.00438409683573991,-0.012314487976208328
1772735091712379000,11.61437890625,0.041085459104180336,-0.01091989181265235,-0.0420883890690282
1772735091722406000,11.624406005859376,0.05245791698992252,-0.031045893790014087,-0.06846355110164731
1772735091732433000,11.634432861328126,0.056498132291436194,-0.024909509926848112,-0.06831517387321219
1772735091742460000,11.6444599609375,0.0336059170037508,-0.011255918833985924,-0.07211471228664741
1772735091752487000,11.65448681640625,0.04662789566218853,0.010934577925130725,-0.05574053712347522
1772735091762514000,11.664513916015625,0.05664893893897533,0.011245945429243146,-0.036132202344667165
1772735091772541000,11.674541015625,0.059793666705489155,-0.008006086725182831,-0.019697821426857262
1772735091782568000,11.68456787109375,0.06158931795060634,-0.010651669330522417,-0.005265281850751489
1772735091792595000,11.694594970703125,0.05740355669856071,-0.015367007414624094,0.023255020718090234
1772735091802622700,11.704622802734375,0.05186521179378032,-0.013348068807646631,0.03323476387010887
1772735091812649700,11.714649658203125,0.04392974261939525,-0.013421353239566086,0.04231770431287586
1772735091822676700,11.7246767578125,0.046320437148213385,0.009931611427664756,0.05506009884495288
1772735091832703500,11.734703369140625,0.042430443972349165,0.019652539246715603,0.016118592966906726
1772735091842730800,11.744730712890625,0.05245616342425346,0.011834412841685116,-0.005953921702038496
1772735091852757800,11.7547578125,0.05305296027362346,0.007613251482695341,-0.008151614409405738
1772735091862784500,11.764784423828125,0.049768531775474543,0.0052343204569071525,-0.0062962323336862025
1772735091872811800,11.774811767578125,0.0436316364556551,-0.0012021788639947771,-0.009800660258065908
1772735091882838800,11.7848388671875,0.04453413825333118,0.0014594050280749796,-0.023016371390316634
1772735091892865500,11.794865478515625,0.035412089642882345,-0.009623422261327504,-0.00704434728724882
1772735091902892500,11.804892578125,0.038711715710163117,-0.002923303568176925,-0.012308715822547674
1772735091912919800,11.814919921875,0.04739245029389858,0.014605667653307317,-0.018043259152863173
1772735091922946800,11.82494677734375,0.04829904374480247,0.013054894547350704,-0.0074189710196107626
1772735091932973600,11.8349736328125,0.05219546666145324,0.013189772973395884,0.004798486322909593
1772735091943000800,11.845000732421875,0.05848258410692215,0.005865567565150559,-0.003969944810587912
1772735091953027800,11.85502783203125,0.04935585932135582,-0.004692432132549584,-0.009153283998928964
1772735091963054600,11.8650546875,0.04097498446702957,-0.011820713109895586,-0.020852306957915425
1772735091973081600,11.87508154296875,0.04322013304531574,-0.02676708395965397,-0.010662574317026883
1772735091983108900,11.88510888671875,0.04307049544155597,-0.00807487764507532,-0.02460552201159298
1772735091993135600,11.895135498046875,0.04231470863819122,0.02063807968534529,0.002263761947210878
1772735092003162600,11.90516259765625,0.06340893459320068,0.011709069428965449,0.01145213552583009
1772735092013190000,11.91518994140625,0.04739361933767795,0.015792393219843506,0.02043892211774364
1772735092023216600,11.925216552734375,0.03976619319915771,-0.002729607626982033,0.02226409171829
1772735092033243600,11.93524365234375,0.04949848266243934,-0.01667502127327025,0.019345263395830987
1772735092043270700,11.945270751953124,0.05428747050464153,-0.0028486674293875694,0.02688082826612517
1772735092053297700,11.955297607421874,0.05324760606288909,-0.005239179295115173,0.02020830996595323
1772735092063324700,11.96532470703125,0.04906301385462284,0.0010466229761019348,0.0032773594365455207
1772735092073351700,11.9753515625,0.05639467191696167,-0.0027094050891697404,-0.02647995584765449
1772735092083378700,11.985378662109374,0.04576864848434925,0.008446998893097043,-0.01198803250081837
1772735092093405700,11.99540576171875,0.04576806396245956,0.006435038016177713,-0.010268588297069073
1772735092103432700,12.0054326171875,0.0415834717541933,0.004813683892041444,-0.01976991854868829
1772735092113459700,12.015459716796874,0.051014147922396655,-0.005744425403513014,-0.022804153411742297
1772735092123486700,12.02548681640625,0.051314007651805875,0.0002637289701029658,-0.019650529952719806
1772735092133513700,12.035513671875,0.03874503345787525,-0.005182298008725047,-0.023437062754109502
