time,seconds_elapsed,z,y,x
1772735080171343600,0.073343505859375,-0.0009530151728540659,-0.0007690009661018848,-0.0030358785297721624
1772735080181370600,0.08337060546875,-0.0003304246929474175,9.052455425262451e-7,-0.002017771592363715
1772735080191397400,0.0933974609375,-0.0030181431211531162,0.001510104862973094,-0.0000816730607766658
1772735080201424400,0.10342431640625,-0.00018187658861279488,-0.0015474704559892416,0.0010331261437386274
1772735080211451600,0.11345166015625,0.0019143455429002643,-0.0005977321416139603,0.0003636854235082865
1772735080221478400,0.123478515625,0.002467217855155468,0.00045901001431047916,0.00006541138282045722
1772735080231505400,0.13350537109375,0.0019735083915293217,0.0008360587526112795,0.0022153034806251526
1772735080241532700,0.14353271484375,-0.0012955217389389873,-0.0015386820305138826,0.00041234330274164677
1772735080251559400,0.153559326171875,0.00040984415682032704,-0.0013696728274226189,0.0007963344105519354
1772735080261585400,0.16358544921875,-0.0001875028683571145,0.000055118463933467865,0.00014945253496989608
1772735080271612400,0.1736123046875,-0.002344793640077114,-0.0004561345558613539,-0.0008899819804355502
1772735080281639400,0.183639404296875,0.0006307561998255551,0.00012283679097890854,0.00031270156614482403
1772735080291666400,0.19366650390625,0.0009260039660148323,0.002207251498475671,0.0010391519172117114
1772735080301693400,0.203693359375,0.00003544293576851487,-0.0017022689571604133,-0.001021069474518299
1772735080311720400,0.213720458984375,0.001060526934452355,0.001179504906758666,-0.0013248734176158905
1772735080321747500,0.22374755859375,-0.0017014374025166035,-0.0014271968975663185,-0.002150187036022544
1772735080331774500,0.2337744140625,-0.0006957102450542152,-0.0005546303000301123,-0.000823876413051039
1772735080341801500,0.243801513671875,-0.0005313932197168469,0.002762869466096163,0.0008544476586394012
1772735080351828200,0.253828125,0.00038687456981278956,0.0010089664719998837,0.0009290938032791018
1772735080361855500,0.26385546875,0.001199405058287084,-0.0008323430083692074,0.00015011918731033802
1772735080371882500,0.273882568359375,0.002295461017638445,-0.0002788831479847431,0.0006969423848204315
1772735080381909200,0.2839091796875,-0.0005317507893778384,-0.0007238974794745445,-0.0009507554350420833
1772735080391936500,0.2939365234375,0.0010418902384117246,0.0013033964205533266,-0.000029172049835324287
1772735080401962500,0.30396240234375,0.0005795654142275453,0.0018690519500523806,-0.00032931030727922916
1772735080411989500,0.313989501953125,-0.00010989510337822139,0.000839773565530777,-0.0006609303527511656
1772735080422016300,0.324016357421875,0.00030715594766661525,0.0011644125916063786,0.0006669217254966497
1772735080432043500,0.33404345703125,-0.0012909636134281754,0.00047345971688628197,0.0020357135217636824
1772735080442070500,0.344070556640625,-0.0016739261336624622,0.0008340519852936268,-0.0019805997144430876
1772735080452097500,0.35409765625,0.002541925525292754,-0.0007470669224858284,0.0024607540108263493
1772735080462124300,0.364124267578125,-0.0006781024858355522,0.00023643858730793,-0.00023543034330941737
1772735080472151600,0.374151611328125,-0.001440255669876933,-0.000044286251068115234,0.002735554240643978
1772735080482178600,0.384178466796875,0.0004290170909371227,-0.0008954324293881655,-0.0017505406867712736
1772735080492205300,0.394205322265625,0.00009857032273430377,9.87667590379715e-7,0.0019302142318338156
1772735080502232600,0.404232666015625,0.0012152338167652488,0.00002149399369955063,-0.0006304151029326022
1772735080512259600,0.414259521484375,-0.001312939333729446,0.0006926381029188633,-0.00001998065272346139
1772735080522286300,0.424286376953125,-0.00014913803897798061,0.0006452337838709354,-0.0010583470575511456
1772735080532313300,0.434313232421875,0.001456017722375691,0.0004066468682140112,0.00031551014399155974
1772735080542339600,0.444339599609375,-0.002434860449284315,0.0008926738519221544,-0.0002892937045544386
1772735080552366600,0.45436669921875,-0.0005835319170728326,-0.0005601404700428247,0.001175474375486374
1772735080562393300,0.464393310546875,-0.00035236956318840384,-0.0005207257345318794,-0.0011052567278966308
1772735080572420400,0.47442041015625,0.0030739428475499153,-0.00030367798171937466,0.0015244144015014172
1772735080582447600,0.484447509765625,-0.0014297289308160543,0.00009260023944079876,0.001446383772417903
1772735080592474400,0.494474365234375,-0.0022100131027400494,0.00031581451185047626,-0.0015420769341289997
1772735080602501400,0.50450146484375,-0.00027655818848870695,-0.0006128298118710518,0.0005897834780625999
1772735080612528600,0.514528564453125,-0.0013401141623035073,-0.0026277091819792986,0.0002522856811992824
1772735080622555400,0.524555419921875,-0.00020986859453842044,-0.0017240986926481128,0.0015348639572039247
1772735080632582400,0.53458251953125,0.0024076071567833424,0.00014471588656306267,0.0005011107423342764
1772735080642609400,0.544609375,0.0010187686420977116,-0.0008326643146574497,-0.0020041249226778746
1772735080652636400,0.554636474609375,0.0008300173212774098,0.0002918981481343508,-0.0010344727197661996
1772735080662663400,0.564663330078125,0.0010324176400899887,-0.0003089108504354954,0.0013581111561506987
1772735080672690400,0.5746904296875,-0.00033265817910432816,0.00102224200963974,-0.0008060486288741231
1772735080682716400,0.58471630859375,-0.0007148217991925776,-0.00038417335599660873,0.0024374150671064854
1772735080692743400,0.594743408203125,0.0007377556758001447,-0.0012787843588739634,0.0002713919384405017
1772735080702770400,0.6047705078125,-0.0016548282001167536,0.0018360486719757318,0.0004069468122906983
1772735080712797400,0.61479736328125,0.001463356427848339,-0.0007217943202704191,0.0014644109178334475
1772735080722824400,0.624824462890625,-0.0009337547235190868,0.0007986042182892561,-0.0008248424273915589
1772735080732851500,0.6348515625,-0.004409436602145433,-0.00027590664103627205,0.00204205559566617
1772735080742878500,0.64487841796875,-0.0006980551988817751,-0.00035846466198563576,0.0019978471100330353
1772735080752905500,0.654905517578125,0.0014643907779827714,0.00027062883600592613,-0.0013760351575911045
1772735080762932500,0.664932373046875,-0.0005508232279680669,0.0029020982328802347,-0.00007135260966606438
1772735080772959500,0.67495947265625,0.0011402647942304611,-0.00037998706102371216,-0.00021458929404616356
1772735080782987500,0.684987548828125,0.00005476034857565537,0.0008487955201417208,-0.00009607861284166574
1772735080793014500,0.6950146484375,-0.0008610173827037215,0.0009273113682866096,-0.001008731429465115
1772735080803041500,0.70504150390625,-0.0006932382239028811,-0.0005297039169818163,0.00035826920066028833
1772735080813068500,0.715068603515625,-0.0011370123829692602,0.002741225529462099,-0.0006975277792662382
1772735080823094500,0.725094482421875,-0.001345005352050066,0.0007161577232182026,0.0010116889607161283
1772735080833121500,0.73512158203125,0.0024948609061539173,-0.00033085630275309086,-0.001665390096604824
1772735080843148500,0.7451484375,0.0006879059947095811,-0.0016619041562080383,0.000888048845808953
1772735080853175600,0.755175537109375,0.002584409900009632,-0.0006714216433465481,-0.0009431814542040229
1772735080863202600,0.76520263671875,0.0010451027192175388,0.002425301820039749,-0.00214799540117383
1772735080873229600,0.7752294921875,0.0012044325703755021,0.0005081344861537218,0.0010264408774673939
1772735080883256600,0.785256591796875,0.0011964431032538414,0.0016753978561609983,0.0007785006309859455
1772735080893283600,0.79528369140625,0.0004918396007269621,-0.0005109410267323256,0.0001963916001841426
1772735080903310600,0.805310546875,-0.00013187277363613248,0.0019982890225946903,0.00006696197669953108
1772735080913337300,0.81533740234375,-0.00046114675933495164,0.0019209161400794983,0.0010238511022180319
1772735080923364600,0.825364501953125,0.001090677222236991,0.0008697663433849812,0.0003623217926360667
1772735080933391600,0.8353916015625,0.00019607567810453475,0.0021178736351430416,-0.00012135150609537959
1772735080943418600,0.845418701171875,-0.0005458809901028872,-0.0014920411631464958,0.0009569624089635909
1772735080953445600,0.855445556640625,-0.0013221845729276538,-0.0016762495506554842,0.00016993371536955237
1772735080963472600,0.86547265625,0.00031725745066069067,0.00044256122782826424,-0.002928387839347124
1772735080973498600,0.87549853515625,-0.0018999582389369607,-0.0018668979173526168,0.00034938380122184753
1772735080983525600,0.885525634765625,0.00033736327895894647,-0.0003020244184881449,0.00009904667967930436
1772735080993552600,0.895552734375,-0.0009896792471408844,-0.0002822158858180046,-0.0009120117174461484
1772735081003579600,0.90557958984375,0.00012938100553583354,0.0006554829888045788,-0.0005969597841612995
1772735081013606700,0.915606689453125,-0.0005708006792701781,7.636845111846924e-7,0.0008405966800637543
1772735081023633400,0.92563330078125,-0.0005204669432714581,0.0013097075279802084,0.0002640223829075694
1772735081033660700,0.93566064453125,0.0014554758090525866,-0.0006934115663170815,0.0007094023749232292
1772735081043687700,0.945687744140625,0.0021513598039746284,-0.0015687926206737757,0.0004753106040880084
1772735081053714400,0.95571435546875,0.0013314703246578574,0.0002506182063370943,0.0006867141928523779
1772735081063741700,0.96574169921875,0.000779663329012692,-0.0016269104089587927,0.0018806093139573932
1772735081073768700,0.975768798828125,-0.0026115034706890583,0.0031158654019236565,-0.00006240958464331925
1772735081083795500,0.98579541015625,0.0012356990482658148,-0.0008501140400767326,0.00007580849342048168
1772735081093822500,0.995822509765625,-0.002356218872591853,-0.0013385652564466,0.0023573036305606365
1772735081103849700,1.005849609375,-0.0002198310539824888,0.0010103429667651653,-0.0005998704000376165
1772735081113876500,1.01587646484375,-0.0005270699039101601,0.0013691806234419346,0.0004939520149491727
1772735081123902500,1.02590234375,-0.00022959480702411383,0.00018913368694484234,-0.0016506914980709553
1772735081133929500,1.035929443359375,0.0010594063205644488,0.0017623761668801308,0.0020210021175444126
1772735081143956700,1.045956787109375,0.0022556984331458807,-0.0013676369562745094,0.0021733350586146116
1772735081153983500,1.0559833984375,-0.0012751768808811903,0.0013612902257591486,0.0007075137109495699
1772735081164010500,1.066010498046875,0.0002550754579715431,-0.00024326401762664318,0.0013021975755691528
1772735081174037500,1.07603759765625,0.0000013734388630837202,-0.001298982184380293,-0.0014347857795655727
1772735081184064500,1.086064453125,0.0021388265304267406,0.0011077167000621557,-0.0008459609234705567
1772735081194091500,1.096091552734375,0.001015037763863802,-0.003818209283053875,0.0005388496210798621
1772735081204118500,1.106118408203125,0.0014699057210236788,-0.00006421725265681744,0.0007580277742817998
1772735081214145500,1.1161455078125,-0.0008348738774657249,0.013579445891082287,0.003020797623321414
1772735081224172500,1.126172607421875,-0.00124846282415092,0.0028407827485352755,-0.0003275946364738047
1772735081234199600,1.136199462890625,-0.0018080727895721793,0.0020652622915804386,0.003539838595315814
1772735081244226600,1.1462265625,-0.00046504061901941895,0.00021782750263810158,0.0005011720350012183
1772735081254253600,1.156253662109375,-0.0010188705055043101,0.0014884562697261572,-0.0010909016709774733
1772735081264280600,1.166280517578125,0.00005278548633214086,-0.000308378366753459,0.002170671708881855
1772735081274306600,1.176306640625,0.001023861113935709,-0.0016488637775182724,0.0006358243408612907
1772735081284333600,1.18633349609375,0.0029557181987911463,-0.0011777505278587341,0.00187392788939178
1772735081294360600,1.196360595703125,0.002281544031575322,-0.007206976413726807,-0.0008064025896601379
1772735081304387600,1.2063876953125,0.0021670281421393156,-0.0003927461802959442,0.0009584742947481573
1772735081314414600,1.21641455078125,0.0024783825501799583,-0.0009228449780493975,0.00015304540283977985
1772735081324441600,1.226441650390625,-0.003749153343960643,0.0014188725035637617,-0.00048211851390078664
1772735081334468600,1.236468505859375,0.0002864321868401021,-0.00002468959428369999,-0.002660465659573674
1772735081344495600,1.24649560546875,-0.0021226631943136454,-0.0004987323191016912,0.0005576982512138784
1772735081354522400,1.2565224609375,0.0002534089726395905,-0.001962139271199703,0.0037582851946353912
1772735081364549600,1.266549560546875,-0.0016797797288745642,-0.002827133983373642,-0.0006476484704762697
1772735081374576600,1.27657666015625,-0.0005316838505677879,0.001352834515273571,-0.0005452905315905809
1772735081384603400,1.286603271484375,0.0019820737652480602,0.00040395045652985573,0.0029812671709805727
1772735081394630700,1.296630615234375,-0.0002496694214642048,-0.00025350204668939114,-0.000282748049357906
1772735081404657700,1.30665771484375,0.00009254677570424974,-0.0017179744318127632,-0.0018976889550685883
1772735081414684400,1.316684326171875,-0.0022653047926723957,-0.00032982928678393364,-0.0008921209955587983
1772735081424710400,1.32671044921875,-0.0005643439944833517,0.0024033726658672094,0.00020776456221938133
1772735081434737700,1.336737548828125,-0.0007749544456601143,0.0017974907532334328,0.0013820384629070759
1772735081444764700,1.3467646484375,-0.00027241589850746095,0.00144968181848526,0.002184981480240822
1772735081454791400,1.35679150390625,-0.0010968378046527505,0.0008796378970146179,-0.00021956447744742036
1772735081464818400,1.366818359375,-0.0019099009223282337,0.0005653849802911282,0.0007876430754549801
1772735081474845700,1.376845703125,-0.0012433277443051338,0.00047532119788229465,-0.0018349322490394115
1772735081484872700,1.386872802734375,0.002316519618034363,-0.000574497040361166,0.002760352101176977
1772735081494899500,1.3968994140625,-0.0013466583332046866,-0.00010631326586008072,0.001731040421873331
1772735081504926700,1.4069267578125,0.0014685691567137837,0.00045614619739353657,-0.0016109603457152843
1772735081514953700,1.41695361328125,0.0006903934990987182,-0.0037543114740401506,0.0007081203511916101
1772735081524980500,1.42698046875,-0.0015376070514321327,-0.0006578539032489061,0.00012462172890082002
1772735081535007500,1.437007568359375,-0.0011758629698306322,0.0007971804589033127,-0.00274474173784256
1772735081545034800,1.44703466796875,0.0008753037545830011,-0.0005562377627938986,0.0003557103336788714
1772735081555061500,1.4570615234375,0.001254660775884986,-0.0018807912711054087,-0.001633615349419415
1772735081565088500,1.467088623046875,0.002412869594991207,0.00022789952345192432,-0.0009065723279491067
1772735081575114500,1.477114501953125,0.0012198707554489374,-0.0011197011917829514,-0.0007188742165453732
1772735081585141800,1.487141845703125,0.0014249342493712902,0.0005871190223842859,-0.0019250198965892196
1772735081595168500,1.49716845703125,0.0018049082718789577,0.00035794940777122974,-0.0010745336767286062
1772735081605195500,1.507195556640625,0.0009891821537166834,0.0003584816586226225,-0.002047386486083269
1772735081615222800,1.517222900390625,0.0010969367576763034,-0.0019679151009768248,0.000987337902188301
1772735081625249500,1.52724951171875,-0.0018919289577752352,-0.00026748678646981716,0.0004051709547638893
1772735081635276500,1.537276611328125,-0.0003614102606661618,-0.0007420619949698448,-0.0001242654980160296
1772735081645303600,1.547303466796875,0.0015558149898424745,-0.0018063407624140382,0.001092172577045858
1772735081655330600,1.55733056640625,0.00047661593998782337,0.0009728348813951015,0.00020675407722592354
1772735081665357600,1.567357666015625,-0.00039743349771015346,-0.0012367900926619768,-0.00042681192280724645
1772735081675384600,1.577384521484375,0.0018036800902336836,0.000528647331520915,-0.00197701551951468
1772735081685411600,1.58741162109375,-0.0005697290180251002,-0.0009462113957852125,-0.00046114425640553236
1772735081695438600,1.5974384765625,0.001087648211978376,0.0010224166326224804,-0.0015031944494694471
1772735081705465600,1.607465576171875,-0.00008147949120029807,-0.00033526308834552765,-0.002398282987996936
1772735081715492600,1.61749267578125,0.0012912064557895064,-0.0005609232466667891,0.002101573161780834
1772735081725519600,1.62751953125,-0.000885128800291568,0.0014617473352700472,0.000016317993868142366
1772735081735545600,1.637545654296875,-0.00010848736565094441,0.0005999936256557703,0.0016444036737084389
1772735081745572600,1.647572509765625,0.0006510461680591106,0.000023153144866228104,0.0020753031130880117
1772735081755599600,1.657599609375,-0.0015244192909449339,0.00000367150641977787,0.0007679567206650972
1772735081765626600,1.667626708984375,0.00008759206684771925,0.00017571169883012772,0.0007844683714210987
1772735081775653600,1.677653564453125,0.0010458914330229163,-0.00019470090046525002,0.002137316856533289
1772735081785678600,1.6876787109375,-0.00016451525152660906,0.0010814859997481108,0.0009021427249535918
1772735081795705900,1.697705810546875,0.0011468181619420648,0.0005156055558472872,-0.0002226220676675439
1772735081805732600,1.707732666015625,0.0012267129495739937,0.0002809809520840645,0.0006330516189336777
1772735081815759600,1.717759521484375,-0.0016087351832538843,-0.0009220291394740343,0.0005022793193347752
1772735081825787000,1.727786865234375,-0.0006204361561685801,-0.0007894036825746298,-0.002143038669601083
1772735081835814000,1.73781396484375,0.0033215375151485205,-0.00014501996338367462,-0.00168740120716393
1772735081845840600,1.747840576171875,0.0005398657522164285,-0.0006020183209329844,-0.0005451714969240129
1772735081855867600,1.75786767578125,-0.00010268227924825624,0.0012486281339079142,0.001973097212612629
1772735081865895000,1.76789501953125,-0.00011946019367314875,0.00001372024416923523,-0.0005502477288246155
1772735081875921700,1.777921630859375,-0.0017069391906261444,0.001820768928155303,-0.0005710694822482765
1772735081885947600,1.78794775390625,-0.0021333114709705114,-0.00046049454249441624,-0.000507153628859669
1772735081895974700,1.797974609375,-0.001956068677827716,0.000016337493434548378,-0.00007707200711593032
1772735081906002000,1.808001953125,0.0013113636523485184,-0.00004837731830775738,-0.001876037335023284
1772735081916028700,1.818028564453125,-0.0006206019315868616,0.0009717203211039305,-0.0010241603013128042
1772735081926055700,1.8280556640625,-0.00057133351219818,0.002190649276599288,-0.0008739579352550209
1772735081936083000,1.8380830078125,-0.0008837024215608835,-0.0003918563015758991,-0.0017908012960106134
1772735081946109700,1.848109619140625,-0.0016397738363593817,-0.001703463145531714,0.0002028410672210157
1772735081956136700,1.85813671875,-0.0008183461031876504,0.0006732258480042219,-0.0021031585056334734
1772735081966163700,1.868163818359375,-0.0005541605059988797,-0.0004788574296981096,0.0015464373864233494
1772735081976190700,1.878190673828125,-0.0006144384387880564,0.0009528952650725842,0.0009445889154449105
1772735081986217700,1.8882177734375,-0.0004975256742909551,-0.00004898570477962494,0.0014287515077739954
1772735081996244700,1.89824462890625,-0.000127609891933389,0.0002709943801164627,-0.0011231403332203627
1772735082006271700,1.908271728515625,0.0008622871246188879,-0.0014494077768176794,0.0005770217394456267
1772735082016298800,1.918298828125,-0.0012986778747290373,0.000022267689928412437,-0.00037069024983793497
1772735082026325800,1.92832568359375,0.000767136225476861,-0.0013865444343537092,0.0007987037533894181
1772735082036352500,1.9383525390625,0.0018655428430065513,-0.00024936976842582226,0.0017418947536498308
1772735082046378800,1.948378662109375,0.001061268150806427,0.0006142931524664164,0.0007365514757111669
1772735082056405800,1.95840576171875,0.00004411370900925249,0.0009548345115035772,0.0011196560226380825
1772735082066432800,1.968432861328125,0.002263059373944998,0.0005300601478666067,0.00373061909340322
1772735082076459500,1.97845947265625,-0.0012801862321794033,0.00015377020463347435,-0.0007753036334179342
1772735082086486800,1.98848681640625,-0.00026578811230137944,-0.00015169428661465645,-0.00023361665080301464
1772735082096513800,1.998513671875,0.000019902276108041406,-0.0015838283579796553,-0.0000308914459310472
1772735082106540800,2.008540771484375,0.0012058079009875655,-0.00036276900209486485,0.00043995544547215104
1772735082116567800,2.01856787109375,-0.003698754822835326,0.0025233940687030554,-0.001483327243477106
1772735082126594800,2.0285947265625,-0.00016607169527560472,0.0010075231548398733,0.0018568093655630946
1772735082136621800,2.038621826171875,-0.0037847396451979876,-0.00008859299123287201,0.0007296803523786366
1772735082146648600,2.048648681640625,-0.0014496799558401108,0.0007756026461720467,-0.002675970084965229
1772735082156675800,2.05867578125,-0.00003843363811029121,0.00064326380379498,-0.0009776039514690638
1772735082166702800,2.068702880859375,0.0011248351074755192,0.00006375997327268124,-0.0009051659144461155
1772735082176729600,2.0787294921875,0.0002924613072536886,0.00014943303540349007,-0.000999030889943242
1772735082186756900,2.0887568359375,0.002260803710669279,0.00001547602005302906,-0.00006639191997237504
1772735082196783900,2.098783935546875,-0.00045901117846369743,0.0012230346910655499,0.0011052347254008055
1772735082206809900,2.108809814453125,-0.0017985810991376638,0.0005439287051558495,0.0010421178303658962
1772735082216836600,2.118836669921875,-0.00033669936237856746,0.0005320175550878048,0.00148775614798069
1772735082226863600,2.128863525390625,0.00038448465056717396,-0.0015431176871061325,-0.0005812536110170186
1772735082236891000,2.138890869140625,0.0010492524597793818,-0.001910358783788979,0.0015036369441077113
1772735082246917600,2.148917724609375,-0.00029457866912707686,0.00018235319294035435,-0.00010677656973712146
1772735082256944600,2.158944580078125,0.0015069905202835798,0.000248973723500967,0.0018361679976806045
1772735082266972000,2.168971923828125,0.0014404114335775375,-0.0016120432410389185,0.00006756262155249715
1772735082276998700,2.17899853515625,0.0008972379728220403,-0.0005927125457674265,-0.0004824276838917285
1772735082287025700,2.189025634765625,0.001527075539343059,0.00018493062816560268,0.00063024100381881
1772735082297053000,2.199052978515625,-0.0005051415064372122,0.0004477307666093111,0.0026933280751109123
1772735082307079700,2.20907958984375,0.0018560171592980623,0.00046157906763255596,-0.0013996842317283154
1772735082317106700,2.219106689453125,0.0021139292512089014,-0.0005862414836883545,-0.0017083557322621346
1772735082327133700,2.2291337890625,0.0011005965061485767,-0.00008290400728583336,-0.00048516588867641985
1772735082337160700,2.23916064453125,-0.000832397781778127,-0.0001254333183169365,0.0010248315520584583
1772735082347187700,2.249187744140625,0.0018866898026317358,-0.001968607073649764,-0.0022231596522033215
1772735082357214700,2.259214599609375,0.002409636043012142,0.0006558694876730442,0.0028740265406668186
1772735082367242000,2.269241943359375,0.0002657913137227297,-0.0008442893158644438,0.00012804107973352075
1772735082377267700,2.279267822265625,0.002045184839516878,-0.0012373337522149086,0.0006625885725952685
1772735082387294700,2.289294677734375,-0.0005106509779579937,-0.00043785269372165203,-0.0017238701693713665
1772735082397321700,2.29932177734375,-0.001729251816868782,-0.001036729197949171,0.0018919715657830238
1772735082407348700,2.3093486328125,0.00027850523474626243,-0.00008171983063220978,0.002052559982985258
1772735082417375700,2.319375732421875,-0.003827623324468732,-0.0002722470089793205,0.0005322345532476902
1772735082427402800,2.32940283203125,-0.0004123857361264527,0.00012775976210832596,-0.0009772451594471931
1772735082437429800,2.3394296875,0.000046262197429314256,0.00124176568351686,-0.000303623266518116
1772735082447456800,2.349456787109375,0.0028654844500124454,0.00015040230937302113,0.000025809742510318756
1772735082457483800,2.35948388671875,-0.0012249101419001818,0.0000921422615647316,0.0005267720553092659
1772735082467510800,2.3695107421875,-0.005076640285551548,0.0005856258794665337,0.0009920261800289154
1772735082477537500,2.37953759765625,-0.005955104250460863,-0.00015630340203642845,-0.0010210233740508556
1772735082487564800,2.389564697265625,-0.0037052659317851067,-0.00006868550553917885,-0.0004902553628198802
1772735082497591800,2.399591796875,0.0008935523219406605,-0.0003740685060620308,-0.0021373212803155184
1772735082507618600,2.40961865234375,0.004417180549353361,0.0007553778123110533,-0.0013112087035551667
1772735082517645800,2.419645751953125,0.0027303756214678288,0.000040531158447265625,-0.0008984844898805022
1772735082527672800,2.4296728515625,0.0009109039092436433,0.00042109680362045765,0.0009542765910737216
1772735082537698800,2.43969873046875,-0.001111260149627924,0.0014366819523274899,-0.00020005775149911642
1772735082547725600,2.4497255859375,-0.0012625276576727629,-0.0012898624408990145,0.001883599441498518
1772735082557752800,2.4597529296875,0.00008956991950981319,0.003029329003766179,0.001213584328070283
1772735082567779800,2.46977978515625,-0.00058474246179685,-0.0007795242127031088,0.0021792463958263397
1772735082577806600,2.479806640625,-0.0011213542893528938,0.0012546663638204336,-0.001370662939734757
1772735082587833600,2.48983349609375,-0.0016324148746207356,0.0009918122086673975,0.001106609357520938
1772735082597860900,2.49986083984375,-0.0015420584240928292,0.0012177503667771816,-0.001975888619199395
1772735082607888000,2.509887939453125,-0.0013441855553537607,-0.0003604388330131769,-0.0008546978351660073
1772735082617914600,2.51991455078125,0.0021607703529298306,0.0013755406253039837,-0.0008924119756557047
1772735082627942000,2.52994189453125,-0.0002826799754984677,0.0032567973248660564,-0.0009712415048852563
1772735082637969000,2.539968994140625,0.0007343479664996266,0.002756706904619932,0.001186494017019868
1772735082647995600,2.54999560546875,-0.0017658276483416557,-0.0005639884620904922,0.0017169956117868423
1772735082658022700,2.560022705078125,-0.0028958069160580635,-0.0004103241953998804,0.003738601226359606
1772735082668050000,2.5700498046875,-0.00030082277953624725,0.0001345586497336626,0.0017023482359945774
1772735082678076700,2.58007666015625,-0.0016586148412898183,-0.00027239974588155746,-0.0020338334143161774
1772735082688103700,2.590103759765625,-0.002045039553195238,0.0018208448309451342,-0.0011251629330217838
1772735082698131000,2.600130859375,0.002633478259667754,0.0009160654153674841,-0.002565207425504923
1772735082708157000,2.610156982421875,0.0028603796381503344,0.000264123547822237,-0.0014538703253492713
1772735082718183700,2.62018359375,0.0017595372628420591,0.0008977253455668688,0.00018529442604631186
1772735082728210700,2.630210693359375,-0.0010815230198204517,0.0003560383338481188,0.002432203385978937
1772735082738238000,2.640238037109375,-0.0032953221816569567,0.00017828866839408875,0.0007268974441103637
1772735082748264700,2.6502646484375,-0.0009562678169459105,0.0007290302310138941,0.0010416831355541945
1772735082758291700,2.660291748046875,-0.003026931546628475,-0.000264342175796628,0.00037880620220676064
1772735082768318700,2.670318603515625,0.000005876121576875448,-0.0006531637627631426,0.003008411265909672
1772735082778345700,2.680345703125,0.0011528884060680866,0.0021017990075051785,-0.0011866488493978977
1772735082788373200,2.690373291015625,0.0008125365129671991,0.0017308206297457218,0.0005987343611195683
1772735082798400300,2.700400146484375,-0.0005579001153819263,-0.00004136795178055763,-0.0002775833709165454
1772735082808427000,2.710427001953125,0.0022701104171574116,0.0002462533302605152,-0.0017495125066488981
1772735082818454300,2.720454345703125,-0.002833417383953929,0.0003064137417823076,-0.0018597990274429321
1772735082828481300,2.730481201171875,-0.0024904021993279457,-0.000870969844982028,-0.0006075805868022144
1772735082838508000,2.740508056640625,-0.0012051607482135296,-0.0005465967115014791,0.0003594132140278816
1772735082848535300,2.750535400390625,-0.001992124831303954,0.0005053516943007708,-0.001891224179416895
1772735082858562300,2.760562255859375,-0.002314674900844693,0.0002449487801641226,-0.0030192763078957796
1772735082868589000,2.770589111328125,0.00027231976855546236,0.00021219183690845966,-0.001208326779305935
1772735082878615000,2.780614990234375,0.0008658822625875473,-0.0006163311190903187,-0.0016208661254495382
1772735082888642300,2.790642333984375,0.0003779910912271589,0.0009464120958000422,-0.00006052004755474627
1772735082898669300,2.80066943359375,-0.0020336962770670652,-0.0008085365407168865,-0.0026018961798399687
1772735082908696000,2.810696044921875,-0.0001314002729486674,-0.0004780383314937353,0.0003550115507096052
1772735082918723000,2.82072314453125,0.00029047048883512616,-0.0022624777629971504,0.00099616136867553
1772735082928750300,2.830750244140625,0.0013064664090052247,0.0009620776399970055,0.00008802342927083373
1772735082938777000,2.840777099609375,0.00043945369543507695,0.0006734179332852364,-0.0005793332238681614
1772735082948804000,2.85080419921875,0.0005957812536507845,-0.0014818781055510044,-0.001954589504748583
1772735082958831400,2.860831298828125,0.00036068970803171396,0.0011614605318754911,-0.0006433898233808577
1772735082968858400,2.8708583984375,0.002527171280235052,-0.001679599517956376,0.0010059057967737317
1772735082978885000,2.880885009765625,-0.003072803607210517,0.0008059227839112282,-0.0011019955854862928
1772735082988912000,2.890912109375,-0.001986500108614564,0.0007350826635956764,-0.000974696537014097
1772735082998939400,2.900939453125,-0.00005738850450143218,0.00406307727098465,-0.0014693832490593195
1772735083008966100,2.910966064453125,-0.0005247732624411583,0.002129355678334832,0.0006595476879738271
1772735083018993200,2.9209931640625,-0.0002498636895325035,0.0008540491107851267,-0.00041814084397628903
1772735083029020400,2.9310205078125,0.0023725510109215975,0.0015163773205131292,-0.0013441219925880432
1772735083039047200,2.941047119140625,-0.001448076101951301,-0.0004644992295652628,-0.0005129781784489751
1772735083049074200,2.95107421875,-0.001218511606566608,0.001150441588833928,-0.0018834408838301897
1772735083059100200,2.96110009765625,0.0004816094588022679,-0.0015765493735671043,0.0003121153567917645
1772735083069127200,2.971127197265625,0.0012432734947651625,0.001010711770504713,0.002615483244881034
1772735083079154200,2.981154296875,-0.0008016747888177633,0.0007148683071136475,0.00030469585908576846
1772735083089181200,2.99118115234375,-0.0012882343726232648,-0.0008342924993485212,0.0001960389199666679
1772735083099208200,3.001208251953125,-0.0017036686185747385,0.0004883306100964546,0.0020440618973225355
1772735083109235200,3.011235107421875,-0.0016269695479422808,0.0005269465036690235,0.0002176659763790667
1772735083119262200,3.02126220703125,0.0009386939345858991,0.0039566876366734505,0.0019573946483433247
1772735083129289200,3.031289306640625,0.0018079497385770082,-0.0001515047624707222,-0.000505496805999428
1772735083139316000,3.04131591796875,-0.0016346320044249296,-0.0007867864333093166,0.0010062889195978642
1772735083149343200,3.05134326171875,0.0018794089555740356,-0.00023577827960252762,-0.0010475409217178822
1772735083159370200,3.061370361328125,0.0015858010156080127,-0.0006523909978568554,0.0009262837120331824
1772735083169397000,3.07139697265625,-0.0014307615347206593,-0.0010049936827272177,-0.0023488719016313553
1772735083179424300,3.08142431640625,-0.001379702240228653,0.0015779591631144285,0.001213841955177486
1772735083189451300,3.091451171875,-0.0013693160144612193,-0.0014713604468852282,-0.0007334613474085927
1772735083199478300,3.101478271484375,0.001637816894799471,-0.0036029911134392023,0.0006250155856832862
1772735083209505000,3.111505126953125,-0.0015822111163288355,-0.0008964205626398325,0.0008394001051783562
1772735083219532300,3.1215322265625,-0.00016166994464583695,0.002937010955065489,-0.0028961659409105778
1772735083229559300,3.131559326171875,0.0006271583843044937,0.0005814451724290848,-0.0011390121653676033
1772735083239585300,3.141585205078125,-0.0010141066741198301,0.0018554471898823977,-0.001886892830953002
1772735083249612000,3.151612060546875,0.0008527692407369614,-0.0005017169751226902,0.0004907772527076304
1772735083259639300,3.161639404296875,-0.0025979899801313877,-0.0004927576519548893,0.0007679571863263845
1772735083269666300,3.171666259765625,-0.00334846880286932,0.00031391391530632973,0.002894225064665079
1772735083279693000,3.181693115234375,0.00045682041672989726,0.0009057179559022188,0.0013698419788852334
1772735083289720300,3.19172021484375,0.00014602954615838826,0.0018295685295015574,-0.00011566921602934599
1772735083299747300,3.201747314453125,0.001166808302514255,0.002927246503531933,-0.0007223784341476858
1772735083309774000,3.211774169921875,-0.0006310917087830603,0.0005578324198722839,0.00042837345972657204
1772735083319801000,3.221801025390625,0.0010621873661875725,0.0006395373493432999,0.0017289987299591303
1772735083329828400,3.231828369140625,-0.0010110836010426283,0.0003894665278494358,-0.00023934358614496887
1772735083339855000,3.241855224609375,-0.0004930009599775076,0.0004862754140049219,-0.0018576160073280334
1772735083349882000,3.251882080078125,-0.002288237912580371,0.0007904081139713526,-0.0018885086756199598
1772735083359909400,3.261909423828125,-0.0006288975710049272,0.0010261060670018196,-0.0004032424185425043
1772735083369936100,3.27193603515625,0.000001206310116685927,0.0011230451054871082,0.0005693440325558186
1772735083379963100,3.281963134765625,-0.0018268697895109653,0.0004807992372661829,-0.0010222981218248606
1772735083389990100,3.291990234375,0.003368957433849573,-0.0018803594866767526,0.00019716343376785517
1772735083400017200,3.30201708984375,0.0020592862274497747,0.0007527889683842659,-0.0010011658305302262
1772735083410044200,3.312044189453125,-0.0014931042678654194,-0.0008142148144543171,0.0005607781931757927
1772735083420070100,3.322070068359375,-0.002026192145422101,-0.00032647140324115753,-0.0006644341628998518
1772735083430097200,3.33209716796875,-0.0004770312225446105,-0.002098006196320057,0.0015846053138375282
1772735083440124200,3.342124267578125,0.0006625390378758311,0.000051855575293302536,-0.00003438099520280957
1772735083450151200,3.352151123046875,-0.00015079040895216167,0.000570106552913785,-0.00031614344334229827
1772735083460178200,3.36217822265625,0.000013650700566358864,-0.0005486267618834972,0.00017584033776074648
1772735083470205200,3.372205078125,-0.00027556857094168663,-0.0017869966104626656,-0.0003871519002132118
1772735083480232200,3.382232177734375,0.002192326355725527,0.00019491440616548061,0.0018773190677165985
1772735083490259200,3.39225927734375,0.0019590333104133606,0.0017605868633836508,-0.0014452405739575624
1772735083500286200,3.4022861328125,-0.0006845740717835724,0.0015281196683645248,-0.0005780859501101077
1772735083510313200,3.412313232421875,0.0016653992934152484,-0.00023569189943373203,0.0010214087087661028
1772735083520340200,3.42234033203125,0.0018745199777185917,0.0006832357030361891,0.0016881534829735756
1772735083530367200,3.4323671875,-0.0001585372374393046,0.000989232910797,-0.0003044236218556762
1772735083540394200,3.442394287109375,-0.0010948654962703586,0.0017623438034206629,-0.003206969704478979
1772735083550421200,3.452421142578125,-0.0016525315586477518,-0.0010989564470946789,0.000511335616465658
1772735083560448300,3.4624482421875,-0.000048877795052248985,-0.0017114459769800305,-0.002124570310115814
1772735083570475000,3.47247509765625,-0.00152666587382555,-0.001932488288730383,-0.0007117634522728622
1772735083580502300,3.482502197265625,0.002138514770194888,-0.00023854593746364117,-0.002041590167209506
1772735083590529300,3.492529296875,-0.0014375777682289481,0.0005846370477229357,-0.0012309239245951176
1772735083600556000,3.50255615234375,0.00005030431202612817,-0.0009108723606914282,0.0009732492035254836
1772735083610582000,3.51258203125,-0.0020871488377451897,-0.0009289819281548262,-0.00014101737178862095
1772735083620609300,3.522609375,-0.0004902349901385605,0.0006355168297886848,-0.0014045460848137736
1772735083630636300,3.53263623046875,0.0004083155654370785,-0.0011139134876430035,0.0014690046664327383
1772735083640663000,3.5426630859375,0.0018968426156789064,0.0031033502891659737,-0.0007244705921038985
1772735083650690300,3.552690185546875,-0.00029786847881041467,-0.0010666272137314081,-0.0010557678760960698
1772735083660717300,3.56271728515625,0.0006287429132498801,0.0007908872794359922,-0.0016222675330936909
1772735083670744000,3.572744140625,0.00003991798439528793,-0.00135135930031538,0.0003173126606270671
1772735083680771000,3.58277099609375,0.0006846692995168269,0.0005874221678823233,0.0003266336861997843
1772735083690798300,3.59279833984375,-0.0002338549675187096,-0.001234979135915637,-0.000557535735424608
1772735083700825000,3.6028251953125,0.001090407371520996,0.002163652563467622,-0.001022366457618773
1772735083710852000,3.61285205078125,0.00006136190495453775,0.0006283402908593416,-0.0007477945182472467
1772735083720879400,3.62287939453125,0.00029782456113025546,0.000022592488676309586,0.00004303740570321679
1772735083730906400,3.63290625,-0.000905657943803817,-0.0014384177047759295,-0.0009186300449073315
1772735083740933000,3.64293310546875,0.00025348830968141556,-0.00028216768987476826,-0.0004449615953490138
1772735083750960000,3.652960205078125,0.0012090305099263787,-0.00031465827487409115,0.00011510116746649146
1772735083760987400,3.6629873046875,-0.0006960523314774036,0.0013063030783087015,-0.0005233428091742098
1772735083771014100,3.67301416015625,-0.00021082439343445003,0.0019177647773176432,0.0008883989066816866
1772735083781041200,3.683041259765625,-0.0008854179177433252,-0.001959331799298525,-0.0010352765675634146
1772735083791068700,3.693068603515625,-0.0019581392407417297,0.0001240589190274477,0.001730682561174035
1772735083801094700,3.7030947265625,-0.0001926884870044887,-0.001941543072462082,-0.0012012524530291557
1772735083811121700,3.71312158203125,0.00030478998087346554,0.0032710619270801544,-0.0002409165899734944
1772735083821148700,3.723148681640625,-0.0017064557177945971,-0.0009952005930244923,-0.001329747959971428
1772735083831175700,3.73317578125,-0.0012254888424649835,0.0010655533988028765,-0.0007949852151796222
1772735083841202700,3.74320263671875,-0.0008284262730740011,-0.0009603803046047688,0.0011660924647003412
1772735083851229700,3.753229736328125,0.0012408499605953693,0.000013271346688270569,0.0005325263482518494
1772735083861256700,3.763256591796875,0.0001798877347027883,0.0014459979720413685,0.0008469847380183637
1772735083871283700,3.77328369140625,-0.0006803132710047066,0.00018738792277872562,-0.0018515964038670063
1772735083881310700,3.783310791015625,-0.00022132320737000555,0.0009645926766097546,-0.0007004723884165287
1772735083891337700,3.793337646484375,0.0004231617785990238,-0.0019734064117074013,-0.0001324201002717018
1772735083901364700,3.80336474609375,0.0012712398311123252,0.0006757338996976614,0.0015087209176272154
1772735083911391700,3.813391845703125,0.00026669539511203766,0.0027439447585493326,0.0008328107069246471
1772735083921418800,3.823418701171875,-0.0016192165203392506,0.0012367679737508297,0.00005053903441876173
1772735083931445500,3.833445556640625,-0.000492699327878654,0.0013044122606515884,0.0018612223211675882
1772735083941472800,3.84347265625,-0.00005750884156441316,-0.0008978878613561392,-0.0013890224508941174
1772735083951499800,3.853499755859375,-0.0010189099702984095,-0.0011604756582528353,0.0007449685363098979
1772735083961526500,3.863526611328125,-0.0014063023263588548,-0.0007783521432429552,-0.0009661545627750456
1772735083971553800,3.8735537109375,-0.0018952586688101292,0.0008405835833400488,-0.0024205069057643414
1772735083981580800,3.883580810546875,0.0007914207526482642,-0.001529471017420292,0.0017474903725087643
1772735083991607600,3.893607666015625,0.0009735810454003513,0.00045165466144680977,-0.0009739939123392105
1772735084001633500,3.903633544921875,-0.0001630263141123578,-0.00023344275541603565,-0.00043748889584094286
1772735084011660800,3.913660888671875,-0.0017137849936261773,0.000548195093870163,0.000023237953428179026
1772735084021687800,3.923687744140625,0.0009524295455776155,0.0009112891275435686,0.0004837905871681869
1772735084031714600,3.933714599609375,0.0010594886261969805,0.000830062897875905,-0.0027985554188489914
1772735084041741600,3.943741455078125,0.00015240437642205507,-0.0026574248913675547,0.0008965163142420352
1772735084051768800,3.953768798828125,-0.0014758523320779204,-0.00037962314672768116,-0.0029512187466025352
1772735084061795600,3.963795654296875,0.00009570545807946473,-0.0014202410820871592,0.0015539226587861776
1772735084071822600,3.973822509765625,-0.00009417792898602784,-0.000527016818523407,0.0001839927863329649
1772735084081849900,3.983849853515625,-0.0002342158113606274,0.0012531392276287079,0.0017412368906661868
1772735084091876900,3.993876953125,0.000745827448554337,0.0006800270639359951,0.0007830315735191107
1772735084101903600,4.003903564453125,0.00009680053335614502,0.0010730642825365067,-0.0003948660159949213
1772735084111930600,4.0139306640625,0.0010068026604130864,0.0003249822184443474,0.0006514899432659149
1772735084121958000,4.0239580078125,0.00007372850086539984,-0.0012628347612917423,-0.00043432434904389083
1772735084131984600,4.033984619140625,0.0007075608009472489,0.0013420030009001493,-0.0008870617020875216
1772735084142011600,4.04401171875,0.0010298587149009109,-0.0025759772397577763,0.0004415264120325446
1772735084152039000,4.054038818359375,-0.00047376210568472743,0.002044340828433633,-0.0010130922310054302
1772735084162065700,4.064065673828125,-0.001688869670033455,-0.000221646623685956,0.002559441141784191
1772735084172092700,4.0740927734375,-0.001570625347085297,0.00026438036002218723,0.0002259794855490327
1772735084182119700,4.08411962890625,0.0012648699339479208,-0.002811453305184841,0.0007440970512107015
1772735084192146700,4.094146728515625,0.0008680589962750673,0.0008155056275427341,0.0012953714467585087
1772735084202172700,4.104172607421875,-0.000914927339181304,-0.0009685459081083536,0.00010360684245824814
1772735084212199700,4.11419970703125,-0.002078987890854478,0.00013030017726123333,-0.001739685656502843
1772735084222226700,4.124226806640625,0.0011518539395183325,-0.00010597240179777145,-0.0026270896196365356
1772735084232253700,4.134253662109375,0.0018951420206576586,0.0012455820105969906,-0.0003721912216860801
1772735084242280700,4.14428076171875,-0.0014112659264355898,0.0001787678338587284,0.0001619335380382836
1772735084252307700,4.1543076171875,0.002220753114670515,-0.002080657985061407,0.0010849852114915848
1772735084262334500,4.16433447265625,0.0017058614175766706,0.0010059559717774391,-0.001045857323333621
1772735084272361700,4.17436181640625,0.0031421040184795856,-0.0013575993943959475,0.0010210219770669937
1772735084282388700,4.184388671875,-0.0008594449609518051,0.002425694139674306,-0.002921859733760357
1772735084292415700,4.194415771484375,0.0010199478128924966,-0.0005144358146935701,-0.0003170218551531434
1772735084302442800,4.20444287109375,-0.001729278126731515,0.0021136177238076925,0.0004945442196913064
1772735084312469800,4.2144697265625,0.000495792948640883,-0.00007044081576168537,0.002888992428779602
1772735084322496800,4.224496826171875,-0.000618509657215327,-0.00027176341973245144,-0.0007534196483902633
1772735084332523500,4.2345234375,0.0019983123056590557,-0.00034207082353532314,-0.0001880305353552103
1772735084342550800,4.24455078125,0.0004516433400567621,-0.0018726233392953873,-0.0015677397605031729
1772735084352577800,4.254577880859375,0.0003046368365176022,-0.00014875922352075577,0.0003771667252294719
1772735084362604500,4.2646044921875,-0.0004303391615394503,-0.0001509087160229683,0.0006976591539569199
1772735084372631800,4.2746318359375,-0.0006774804787710309,0.002059514867141843,-0.00022113136947155
1772735084382658800,4.284658935546875,0.00037786774919368327,-0.0003230671864002943,-0.0010401270119473338
1772735084392685600,4.294685546875,-0.0025835675187408924,-0.0018024530727416277,-0.0021602525375783443
1772735084402712600,4.304712646484375,0.00342905567958951,0.0008227787911891937,0.001622186042368412
1772735084412738800,4.31473876953125,0.0030884372536092997,0.001032369676977396,0.0005657098372466862
1772735084422765800,4.324765869140625,0.0006126620573922992,0.001262040575966239,-0.001034754910506308
1772735084432792600,4.33479248046875,-0.0003093242412433028,-0.0004096257034689188,0.0008318546460941434
1772735084442819600,4.344819580078125,-0.0005433509359136224,-0.0003646938130259514,-0.00025454474962316453
1772735084452846800,4.354846923828125,0.00023881949891801924,0.002114176517352462,0.0010522684315219522
1772735084462873600,4.36487353515625,-0.00022789789363741875,0.0010381827596575022,-0.0018966981442645192
1772735084472900600,4.374900634765625,0.0008988855988718569,0.0014243412297219038,0.00009374850196763873
1772735084482927900,4.384927978515625,-0.00017197782290168107,0.0024532536044716835,-0.0004839680914301425
1772735084492954600,4.39495458984375,0.0014916989021003246,-0.000484745716676116,0.001627918565645814
1772735084502981600,4.404981689453125,0.0005545644671656191,0.0004548907745629549,-0.001043135765939951
1772735084513008600,4.415008544921875,0.0017154363449662924,-0.0007118401117622852,0.0006479714065790176
1772735084523035600,4.42503564453125,0.000655807030852884,0.0008916433434933424,-0.0001303149911109358
1772735084533062700,4.435062744140625,-0.0009311706526204944,0.0010383834596723318,0.002541368128731847
1772735084543089700,4.445089599609375,0.00032458044006489217,-0.000561590539291501,0.0013755351537838578
1772735084553116700,4.45511669921875,-0.0014112680219113827,0.0011460285168141127,0.0003057433059439063
1772735084563143700,4.465143798828125,0.0023437587078660727,0.0005014257039874792,0.0020916638895869255
1772735084573170700,4.475170654296875,-0.00025814963737502694,0.0007557573262602091,-0.00007881229976192117
1772735084583197700,4.48519775390625,0.0002098765835398808,0.0003977136220782995,0.00014071434270590544
1772735084593224700,4.495224609375,0.0013499758206307888,-0.00019643781706690788,-0.0008105667657218874
1772735084603251700,4.505251708984375,-0.0031510298140347004,0.0012801631819456816,0.0011453017359599471
1772735084613278700,4.51527880859375,-0.0005137014668434858,-0.0001699281856417656,0.00009495101403445005
1772735084623305700,4.5253056640625,0.00037519438774324954,0.0019997027702629566,-0.0023734774440526962
1772735084633332700,4.535332763671875,0.002446068450808525,-0.0018448366317898035,0.00022257212549448013
1772735084643358700,4.545358642578125,-0.0015126557555049658,0.0014531987253576517,-0.002414919901639223
1772735084653385700,4.5553857421875,-0.0016346286283805966,-0.00036866962909698486,0.00023625697940587997
1772735084663412700,4.565412841796875,0.0006223227246664464,-0.003847832791507244,-0.000990541186183691
1772735084673439700,4.575439697265625,0.0020090306643396616,0.00019085081294178963,-0.0024566114880144596
1772735084683466800,4.585466796875,-0.00021493685198947787,-0.000880625331774354,0.000806050724349916
1772735084693493500,4.595493408203125,0.0009262276580557227,0.0014677499420940876,-0.0004024918016511947
1772735084703520800,4.605520751953125,0.0011109968181699514,0.00011198059655725956,-0.0006115168798714876
1772735084713547800,4.6155478515625,-0.00064242840744555,0.001049413112923503,0.0014529655454680324
1772735084723574500,4.625574462890625,-0.00032599049154669046,-0.00028927880339324474,0.00003061868483200669
1772735084733601800,4.635601806640625,0.001020503812469542,0.003239409765228629,0.0005747025716118515
1772735084743628800,4.64562890625,0.000813546241261065,0.0022400720044970512,0.000536309729795903
1772735084753655600,4.655655517578125,0.0021571109537035227,-0.001282224664464593,0.0011001010425388813
1772735084763682600,4.6656826171875,0.0008687400259077549,-0.000526251969859004,0.0012129946844652295
1772735084773709800,4.675709716796875,-0.0008002630202099681,-0.00016193161718547344,-0.00031299659167416394
1772735084783736600,4.685736572265625,0.0007306463085114956,-0.0009530661627650261,-0.00043007422937080264
1772735084793763600,4.695763671875,0.00013969087740406394,-0.0022313836961984634,0.002218439243733883
1772735084803790600,4.70579052734375,-0.0010041362838819623,-0.002379869343712926,-0.00214424729347229
1772735084813817600,4.715817626953125,0.0011274578282609582,-0.00039315130561590195,-0.0002406196726951748
1772735084823844600,4.7258447265625,0.0004597060033120215,-0.0016795614501461387,-0.0018315855413675308
1772735084833871600,4.73587158203125,-0.0003365791344549507,-0.0006326728034764528,-0.0019732657819986343
1772735084843898600,4.745898681640625,0.0013991559389978647,-0.001974401529878378,0.0017871109303086996
1772735084853925400,4.75592529296875,-0.0017481676768511534,-0.0012899693101644516,-0.0004105294938199222
1772735084863951600,4.76595166015625,0.00019239701214246452,-0.0008439356461167336,0.000060790625866502523
1772735084873978600,4.775978515625,-0.0017200190341100097,0.00006952858529984951,-0.000616184901446104
1772735084884005600,4.786005615234375,0.0006037962157279253,0.000687046442180872,-0.00016928781406022608
1772735084894032400,4.796032470703125,-0.00013176887296140194,0.0011765356175601482,0.001046711578965187
1772735084904059600,4.8060595703125,0.0010231920750811696,-0.0003443146124482155,-0.0005862545222043991
1772735084914086700,4.816086669921875,-0.0009693850297480822,3.213062882423401e-8,0.0011091139167547226
1772735084924113400,4.826113525390625,0.0013944740639999509,0.00013083405792713165,-0.0010862371418625116
1772735084934140700,4.836140625,0.0005688941455446184,0.00014787842519581318,-0.0013956965412944555
1772735084944167700,4.846167724609375,0.0008569769561290741,-0.0005419743247330189,-0.0005717398598790169
1772735084954194400,4.8561943359375,-0.00004556834028335288,0.0003392656799405813,-0.0005392493330873549
1772735084964221400,4.866221435546875,0.000024745386326685548,0.0015503433533012867,0.001951316138729453
1772735084974248700,4.876248779296875,-0.0006029616924934089,-0.0007405076175928116,0.0004381079925224185
1772735084984275500,4.886275390625,-0.0014302944764494896,-0.0011451791506260633,0.0017207569908350706
1772735084994302500,4.896302490234375,0.0007220723782666028,-0.00024503073655068874,0.0009377875248901546
1772735085004329700,4.906329833984375,-0.0005140564753673971,0.0008266652002930641,0.0003663829411379993
1772735085014356700,4.916356689453125,0.0010209896136075258,0.000600030180066824,0.0029294092673808336
1772735085024383500,4.926383544921875,-0.0008064268622547388,0.00030925567261874676,0.000737244205083698
1772735085034410500,4.936410400390625,-0.0006192066357471049,0.0017929028254002333,0.0005356429028324783
1772735085044437800,4.946437744140625,-0.00063089351169765,0.00033281161449849606,-0.000004782865289598703
1772735085054464500,4.956464599609375,-0.001910808845423162,0.0009408111218363047,0.0013057587202638388
1772735085064491500,4.966491455078125,-0.0015692512970417738,-0.0012495128903537989,-0.0007070896681398153
1772735085074518800,4.976518798828125,-0.0006549881072714925,0.0010852804407477379,-0.0012735440395772457
1772735085084545500,4.986545654296875,-0.0001638489920878783,-0.0005135817918926477,0.0020502672996371984
1772735085094571500,4.996571533203125,-0.0027708173729479313,0.0009546189103275537,-0.0010557775385677814
1772735085104598500,5.0065986328125,0.0003914766712114215,0.0005187843926250935,0.00009714602492749691
1772735085114625800,5.016625732421875,0.00030758706270717084,0.0009811092168092728,-0.002128457650542259
1772735085124652500,5.026652587890625,0.00013347508502192795,0.0009735177736729383,0.001114405458793044
1772735085134679600,5.036679443359375,-0.0003626718244049698,0.00046432134695351124,-0.00004806433571502566
1772735085144706600,5.04670654296875,0.0005703308852389455,0.0010481150820851326,-0.0010928804986178875
1772735085154733600,5.056733642578125,-0.0005945357261225581,0.0005583600141108036,0.00039369595469906926
1772735085164760600,5.066760498046875,-0.0005060989642515779,0.0008447868749499321,-0.001019929302856326
1772735085174787600,5.07678759765625,0.0014329486293718219,-0.0008686908986419439,0.00024533853866159916
1772735085184814600,5.086814697265625,0.0008356699254363775,0.0006145630031824112,0.002033230848610401
1772735085194841600,5.096841552734375,-0.0029092670883983374,0.0001929844729602337,0.0006635670433752239
1772735085204868600,5.10686865234375,0.0009890698129311204,-0.0003555633593350649,0.0018857641844078898
1772735085214895400,5.116895263671875,-0.0003891160013154149,-0.0006514405831694603,-0.0030828951857984066
1772735085224922600,5.126922607421875,-0.00043514970457181334,-0.0014257668517529964,-0.0008683596970513463
1772735085234949600,5.13694970703125,0.0002333037118660286,0.0013559048529714346,-0.0005453182966448367
1772735085244976600,5.1469765625,0.002311456948518753,-0.000964330742135644,-0.00017745408695191145
1772735085255003600,5.157003662109375,0.0007359307492151856,0.0010751178488135338,0.00008273671846836805
1772735085265030700,5.16703076171875,-0.0010186948347836733,-0.0005640755407512188,0.001741454703733325
1772735085275057700,5.1770576171875,0.002442349214106798,0.00011130212806165218,0.0019899276085197926
1772735085285084400,5.18708447265625,0.0009648201521486044,-0.0015035418327897787,-0.0011098086833953857
1772735085295111700,5.197111572265625,-0.001413382706232369,0.002577219856902957,0.00046065746573731303
1772735085305138700,5.207138671875,0.000734297966118902,-0.0002772251609712839,0.000526381132658571
1772735085315165400,5.21716552734375,0.002313552424311638,0.0011808555573225021,-0.0029620935674756765
1772735085325192700,5.227192626953125,0.0009876780677586794,-0.000338119687512517,0.0010023763170465827
1772735085335219700,5.2372197265625,0.00023267182405106723,-0.0019450710387900472,-0.0017537290696054697
1772735085345245700,5.24724560546875,-0.0012283239047974348,0.00037371227517724037,0.0007631538319401443
1772735085355272400,5.2572724609375,-0.0009657362825237215,-0.000570378266274929,0.0003410428180359304
1772735085365299500,5.267299560546875,0.002454346278682351,0.00047169579192996025,0.0012034766841679811
1772735085375326700,5.27732666015625,0.0005126356845721602,0.0009963386692106724,-0.0010474270675331354
1772735085385353500,5.287353515625,0.0007006732048466802,-0.0009099266026169062,-0.0004672766081057489
1772735085395380500,5.29738037109375,-0.0003126595402136445,-0.00012615835294127464,-0.0016878033056855202
1772735085405407700,5.30740771484375,0.0013962468365207314,0.0014448745641857386,-0.00039279781049117446
1772735085415434500,5.3174345703125,0.0006617471226491034,0.000803585397079587,-0.0003805472806561738
1772735085425461500,5.32746142578125,-0.000015508849173784256,0.001814322778955102,0.00034244765993207693
1772735085435488500,5.337488525390625,-0.0003947429941035807,-0.0009042320307344198,0.00204074545763433
1772735085445515500,5.347515625,0.001040883013047278,0.0012973134871572256,0.000626613269560039
1772735085455542500,5.35754248046875,0.0006419414421543479,-0.0015490727964788675,0.0005445878487080336
1772735085465569500,5.367569580078125,0.002126021310687065,0.00032314984127879143,0.00025260262191295624
1772735085475596500,5.377596435546875,-0.0007856126758269966,0.0003369986079633236,0.0005165219190530479
1772735085485623600,5.38762353515625,0.0023376652970910072,0.0006958341691643,0.001020053750835359
1772735085495650600,5.397650634765625,-0.0012472160160541534,-0.0024355107452720404,-0.0001229749177582562
1772735085505677600,5.407677490234375,0.0024367787409573793,0.0008186397608369589,-0.0003664588730316609
1772735085515704600,5.41770458984375,-0.0009925735648721457,-0.003027497325092554,0.00025325873866677284
1772735085525731600,5.427731689453125,-0.0002300988999195397,-0.0019329383503645658,0.0011145538883283734
1772735085535758600,5.437758544921875,0.00023355745361186564,-0.0008133454248309135,-0.0002444572455715388
1772735085545785600,5.44778564453125,0.0025534341111779213,-0.0018497835844755173,0.0028833758551627398
1772735085555812600,5.4578125,0.0013848389498889446,0.0018381618428975344,-0.0012085711350664496
1772735085565839600,5.467839599609375,-0.0005115323001518846,-0.00001832982525229454,-0.00017223480972461402
1772735085575866400,5.477866455078125,-0.0008750538108870387,-0.000971475150436163,0.0012823836877942085
1772735085585893600,5.4878935546875,0.0004901385982520878,-0.001082028029486537,0.0013388092629611492
1772735085595920600,5.497920654296875,-0.001778874546289444,0.0011065576691180468,0.0002751427819021046
1772735085605947400,5.507947509765625,0.0007186928996816278,-0.0009803983848541975,0.0005069789476692677
1772735085615973400,5.517973388671875,0.002582639455795288,0.000023613451048731804,-0.001793992123566568
1772735085626000600,5.528000732421875,-0.00008823519601719454,0.0012503077741712332,-0.0006747269071638584
1772735085636027600,5.538027587890625,-0.0010887847747653723,0.002953133312985301,0.002008141716942191
1772735085646054400,5.548054443359375,-0.000627884641289711,-0.0009622045326977968,0.00008925271686166525
1772735085656081700,5.55808154296875,-0.00030351156601682305,0.0015603415668010712,0.0025510787963867188
1772735085666108700,5.568108642578125,0.0024493441451340914,0.002098498400300741,-0.0023190751671791077
1772735085676135400,5.578135498046875,0.0018264309037476778,0.0010087331756949425,-0.000758462818339467
1772735085686162400,5.588162353515625,0.002247859723865986,0.0006736952345818281,0.0013798128347843885
1772735085696189700,5.598189697265625,0.002201254479587078,-0.0007122138049453497,0.0014650339726358652
1772735085706216400,5.608216552734375,0.00019120913930237293,0.0009737107902765274,0.0028955554589629173
1772735085716243500,5.618243408203125,-0.00022317870752885938,-0.0008657344151288271,-0.0009178249165415764
1772735085726270700,5.628270751953125,-0.0014837561175227165,0.00007017794996500015,-0.00023320692707784474
1772735085736297700,5.638297607421875,-0.0012821548152714968,0.0002014718484133482,0.0018991860561072826
1772735085746324500,5.648324462890625,0.00047846027882769704,0.0008900384418666363,0.0013794624246656895
1772735085756351500,5.6583515625,0.0001961652160389349,0.0007816478610038757,-0.000006713031325489283
1772735085766378800,5.668378662109375,0.0010578416986390948,0.0007487607654184103,-0.0006650714785791934
1772735085776405500,5.678405517578125,0.0004698157717939466,-0.000495201675221324,0.0009623862570151687
1772735085786432000,5.688431884765625,0.0011923954589292407,-0.0009509145747870207,0.0028205690905451775
1772735085796459000,5.698458984375,0.0009455204708501697,0.0006206165999174118,0.0009915101109072566
1772735085806486000,5.708486083984375,0.0004064152599312365,-0.0028668497689068317,0.0015741949900984764
1772735085816513000,5.718512939453125,-0.001011185348033905,0.0020173878874629736,-0.00007696496322751045
1772735085826540000,5.7285400390625,-0.00042733439477160573,0.0008338154293596745,-0.0016305583994835615
1772735085836567000,5.738567138671875,-0.001627088407985866,-0.000490840757265687,-0.0022108613047748804
1772735085846594000,5.748593994140625,0.00048080674605444074,0.0009459755383431911,-0.0019958405755460262
1772735085856621000,5.75862109375,0.001877368544228375,-0.0005115722306072712,0.00007183768320828676
1772735085866648000,5.76864794921875,0.00016460416372865438,-0.0018580593168735504,-0.0005011954926885664
1772735085876674000,5.778674072265625,-0.0007611106848344207,0.001924428390339017,-0.0012226458638906479
1772735085886701000,5.788701171875,0.001485456363297999,-0.0004547999706119299,-0.00006863480666652322
1772735085896728000,5.79872802734375,-0.00006210651190485805,0.0006269759032875299,-0.0021903752349317074
1772735085906755000,5.808755126953125,0.0004222869174554944,-0.0019264814909547567,0.000708761450368911
1772735085916782000,5.818781982421875,-0.0003265939885750413,0.0017092661000788212,-0.0027895669918507338
1772735085926809000,5.82880908203125,-0.0005581126897595823,0.000060660066083073616,0.002122779842466116
1772735085936836000,5.838836181640625,-0.0009163078502751887,0.0009568138048052788,-0.0003928421647287905
1772735085946863000,5.848863037109375,-0.0015952067915350199,-0.0017997126560658216,-0.00048608003999106586
1772735085956890000,5.85889013671875,-0.0008915996877476573,-0.000506481621414423,-0.0004962000530213118
1772735085966917000,5.868917236328125,-0.0013842703774571419,0.0015432685613632202,-0.0003995769948232919
1772735085976943900,5.87894384765625,0.0009380059782415628,0.0008910605683922768,-0.0007045089732855558
1772735085986971100,5.88897119140625,-0.0003249316941946745,0.00311359204351902,-0.0014469004236161709
1772735085996998100,5.898998046875,0.0017430129228159785,0.0012027742341160774,-0.0005118645494803786
1772735086007025000,5.90902490234375,0.00022032164270058274,0.0010641724802553654,-0.0005309116677381098
1772735086017052200,5.91905224609375,0.0008581487345509231,-0.00025276048108935356,0.0025106845423579216
1772735086027079200,5.9290791015625,0.0023511662147939205,0.0006365678273141384,0.0004397361190058291
1772735086037106000,5.93910595703125,-0.0027698264457285404,-0.0006753052584826946,0.0019721188582479954
1772735086047133000,5.9491328125,0.000991986831650138,-0.00013763876631855965,0.001660501817241311
1772735086057160200,5.95916015625,0.0018037183908745646,-0.002837817883118987,0.0019838095176965
1772735086067187000,5.96918701171875,0.001412989106029272,-0.00010165455751121044,0.001351660001091659
1772735086077214000,5.9792138671875,-0.000616073259152472,0.0019351309165358543,-0.001811110065318644
1772735086087241200,5.9892412109375,-0.0019212206825613976,0.001852397108450532,-0.0013873137068003416
1772735086097268200,5.999268310546875,0.001346744247712195,0.002189553575590253,0.0012931579258292913
1772735086107295000,6.009294921875,0.0012144726933911443,0.0024473590310662985,-0.0014992111828178167
1772735086117322000,6.019322021484375,0.0022778729908168316,0.000966907711699605,-0.0014414205215871334
1772735086127349200,6.029349365234375,0.002189400140196085,-0.001176617806777358,-0.00027821920230053365
1772735086137376000,6.0393759765625,0.0016312015941366553,-0.0006477138958871365,-0.0011749055702239275
1772735086147403000,6.049403076171875,-0.003795346012338996,-0.00239460333250463,0.0010073166340589523
1772735086157430300,6.05943017578125,0.0012454852694645524,0.0018914879765361547,0.0005146317998878658
1772735086167456300,6.069456298828125,-0.0001444053341401741,0.0002263991627842188,0.0004010082921013236
1772735086177483000,6.07948291015625,0.0007038115290924907,-0.00035709934309124947,0.00015253538731485605
1772735086187510000,6.089510009765625,0.003405886236578226,0.0017092751804739237,0.00023271376267075539
1772735086197537300,6.099537353515625,0.0006633629091084003,-0.00032537966035306454,-0.002053077332675457
1772735086207564000,6.10956396484375,0.002658319426700473,0.0002844850532710552,0.0004749041981995106
1772735086217591000,6.119591064453125,0.0018431257922202349,-0.0016811941750347614,-0.0008188594947569072
1772735086227618000,6.1296181640625,0.000750983483158052,0.001061109360307455,0.0011541226413100958
1772735086237645000,6.13964501953125,-0.0008841974195092916,0.000761769711971283,0.0012856828980147839
1772735086247672000,6.149672119140625,-0.0017945789732038975,-0.0012613311409950256,-0.000930112146306783
1772735086257699000,6.159698974609375,0.003288596635684371,-0.000668245367705822,0.0004211757914163172
1772735086267726000,6.16972607421875,0.0007996490458026528,0.0014758738689124584,-0.0011805377434939146
1772735086277753000,6.179753173828125,-0.0013191619655117393,-0.001428569434210658,0.00028233660850673914
1772735086287780000,6.189780029296875,0.0009298687800765038,-0.0014482939150184393,0.0005635326961055398
1772735086297807000,6.19980712890625,-0.0025274469517171383,0.0020830577705055475,-0.001533173955976963
1772735086307834000,6.209834228515625,0.0008576294640079141,0.001498671481385827,0.0009117996087297797
1772735086317861000,6.219861083984375,0.0008978431578725576,0.0003063743934035301,-0.0007910255808383226
1772735086327888100,6.22988818359375,0.0004743695608340204,0.0006026150658726692,0.0003476962447166443
1772735086337915100,6.2399150390625,-0.001701965695247054,-0.000783560099080205,0.0007783293258398771
1772735086347942100,6.249942138671875,-0.0004590630123857409,-0.0006911088712513447,-0.00080259726382792
1772735086357969200,6.25996923828125,-0.0005994116072542965,-0.0001563460100442171,0.001991857774555683
1772735086367996000,6.269995849609375,-0.0011499939719215035,0.0012046031188219786,-0.0006593025755137205
1772735086378023200,6.280023193359375,0.00001433995203115046,-0.000040424754843115807,0.001207573339343071
1772735086388050200,6.29005029296875,-0.00007503141387132928,-0.0004349092487245798,0.00004850374534726143
1772735086398077000,6.300076904296875,-0.0005442803958430886,0.00019839033484458923,-0.0026913564652204514
1772735086408104200,6.310104248046875,0.0013608685694634914,0.001795248594135046,-0.0006124700303189456
1772735086418131200,6.320131103515625,-0.0001225121523020789,0.0009190686978399754,-0.0008116745157167315
1772735086428158000,6.330157958984375,0.00018577644368633628,-0.0010250839404761791,0.0012784753926098347
1772735086438185000,6.34018505859375,0.0005008283769711852,0.0006279402878135443,-0.0017047976143658161
1772735086448212200,6.350212158203125,0.0018054464599117637,-0.0005126032046973705,-0.002062764950096607
1772735086458239000,6.360239013671875,-0.0017661189194768667,0.001309265149757266,-0.0018816699739545584
1772735086468266000,6.370265869140625,0.00010992492025252432,0.0021148917730897665,-0.0009236761834472418
1772735086478292000,6.3802919921875,0.00040447054198011756,0.0010373766999691725,0.0006699594086967409
1772735086488319200,6.3903193359375,-0.0003744682180695236,0.00010240520350635052,0.0008393413154408336
1772735086498346000,6.400345947265625,-0.00030336182680912316,0.0002912231720983982,0.00013520149514079094
1772735086508373000,6.410373046875,-0.00030533011886291206,-0.00010571093298494816,0.0013845032081007957
1772735086518400300,6.420400146484375,0.0001367546065011993,-0.0005605786573141813,0.002667347900569439
1772735086528427000,6.430427001953125,-0.0002979764249175787,0.0012896719854325056,0.000311193463858217
1772735086538454000,6.4404541015625,-0.0026916256174445152,0.0005951195489615202,0.0005767106194980443
1772735086548481000,6.45048095703125,-0.0003727471048478037,-0.002945932559669018,0.0008903904817998409
1772735086558508000,6.460508056640625,0.00024510626099072397,-0.000015922589227557182,0.0004363215994089842
1772735086568535000,6.47053515625,0.0012341099791228771,0.00024110102094709873,-0.0003776869853027165
1772735086578562000,6.48056201171875,0.0004114595940336585,0.0009561597835272551,-0.0024272557348012924
1772735086588589300,6.49058935546875,0.00013087282422930002,0.0011364968959242105,-0.0019022850319743156
1772735086598616000,6.500615966796875,0.0006315471255220473,0.001000409247353673,-0.00013660924741998315
1772735086608643000,6.51064306640625,0.0013694402296096087,0.0002389177680015564,0.0029781165067106485
1772735086618670000,6.520670166015625,-0.0008079601684585214,0.0002458419185131788,-0.0022187759168446064
1772735086628697000,6.530697021484375,0.002195933135226369,0.0003791872877627611,0.000035267556086182594
1772735086638724000,6.54072412109375,0.000745043158531189,-0.00007727858610451221,-0.0005956353270448744
1772735086648751000,6.550751220703125,-0.00006838420813437551,-0.00016991677694022655,0.0012763342820107937
1772735086658777000,6.560777099609375,0.00008368230191990733,-0.0007518173661082983,0.0023631700314581394
1772735086668804000,6.57080419921875,0.0003886415797751397,0.001961292000487447,-0.002607456874102354
1772735086678831000,6.5808310546875,0.0013716142857447267,-0.0005143827293068171,-0.0008084916044026613
1772735086688858000,6.590858154296875,-0.0024803965352475643,0.00011565489694476128,-0.0018908609636127949
1772735086698884900,6.600884765625,0.0010275193490087986,0.0019529699347913265,-0.0009259976795874536
1772735086708912000,6.610912109375,-0.000004230954800732434,0.0008882908150553703,0.0007973826723173261
1772735086718939100,6.620939208984375,0.0005161507287994027,-0.00035647046752274036,0.002270110882818699
1772735086728966000,6.6309658203125,0.002233427483588457,0.0008084760047495365,0.0004752103704959154
1772735086738993200,6.6409931640625,-0.0000925772765185684,0.0029043834656476974,0.0009588403627276421
1772735086749020200,6.651020263671875,0.00012184886145405471,-0.0003737544175237417,0.0028464426286518574
1772735086759047000,6.661046875,0.0011373122688382864,-0.0002592385280877352,-0.0008902387926355004
1772735086769073000,6.671072998046875,0.0011323897633701563,-0.00015921005979180336,0.00023134576622396708
1772735086779100200,6.68110009765625,-0.0007379482267424464,-0.0007560243830084801,-0.0008440386736765504
1772735086789127000,6.691126953125,-0.00017450023733545095,-0.0013566939160227776,-0.0015571881085634232
1772735086799154000,6.70115380859375,0.0006369649199768901,-0.0014365888200700283,0.0027520726434886456
1772735086809181000,6.711180908203125,-0.0020272082183510065,0.00007905438542366028,-0.0002567050396464765
1772735086819208000,6.7212080078125,-0.0019491775892674923,0.00011207745410501957,0.00003491109237074852
1772735086829235200,6.731235107421875,0.000328326626913622,-0.001748736365698278,-0.00038551591569557786
1772735086839262000,6.741261962890625,-0.0019803675822913647,-0.0005175569094717503,-0.0006222709198482335
1772735086849289000,6.7512890625,-0.00038358173333108425,0.0005667551886290312,-0.0010247848695144057
1772735086859316000,6.76131591796875,-0.0006642789230681956,0.0011233554687350988,0.0018788595916703343
1772735086869343000,6.771343017578125,-0.001432308810763061,0.0008583157323300838,-0.0009346011793240905
1772735086879370000,6.781369873046875,-0.0014994204975664616,0.0008364776149392128,-0.00007972645107656717
1772735086889397000,6.79139697265625,-0.00011405996337998658,0.001792412018403411,-0.000017757469322532415
1772735086899424000,6.801424072265625,0.000967183499597013,0.00029811239801347256,-0.0013618548400700092
1772735086909451000,6.811450927734375,0.0012051505036652088,-0.0005288820248097181,0.0005488221650011837
1772735086919478000,6.82147802734375,0.002240853849798441,-0.0007826811634004116,0.0005932968924753368
1772735086929505000,6.831505126953125,-0.0006059790030121803,-0.0004946782719343901,0.0006913933902978897
1772735086939532000,6.841531982421875,0.00023318303283303976,0.0011879070661962032,-0.0008039715467020869
1772735086949559000,6.85155908203125,-0.0007232205243781209,0.0014460051897913218,0.0006898232386447489
1772735086959585800,6.861585693359375,-0.0016526638064533472,0.0002774100285023451,-0.00026252312818542123
1772735086969613000,6.871613037109375,-0.0012769275344908237,0.0006229346618056297,0.0008141871658153832
1772735086979640000,6.88164013671875,0.0002898100938182324,0.000019462546333670616,0.0019771894440054893
1772735086989666800,6.891666748046875,-0.0006471967790275812,-0.00041346391662955284,0.0009890459477901459
1772735086999694000,6.901694091796875,0.002977898111566901,-0.0003942891489714384,-0.0006967349909245968
1772735087009721000,6.91172119140625,0.0001094345934689045,0.0004675912205129862,-0.0027381242252886295
1772735087019748000,6.921748046875,0.002098016906529665,0.000007130671292543411,-0.0004246362659614533
1772735087029774800,6.93177490234375,-0.0003975211875513196,-0.0014448855072259903,-0.00013102617231197655
1772735087039803100,6.94180322265625,0.0016347370110452175,-0.0002928019966930151,0.0007819054881110787
1772735087049830000,6.951829833984375,0.0034197450149804354,-0.000942387618124485,-0.000055982673075050116
1772735087059857000,6.96185693359375,0.0012950751697644591,0.0021684509702026844,0.0013080884236842394
1772735087069884200,6.97188427734375,-0.0021344556007534266,0.00043182563968002796,0.0004625352448783815
1772735087079911000,6.981910888671875,0.0032680330332368612,0.0002035927027463913,0.0008462968398816884
1772735087089938000,6.99193798828125,0.0006119661265984178,0.0020300461910665035,0.0014839614741504192
1772735087099965200,7.001965087890625,-0.0002876497164834291,-0.0013439124450087547,0.00008180708391591907
1772735087109992000,7.011991943359375,-0.001327117090113461,0.0017028485890477896,-0.0017405229154974222
1772735087120019000,7.02201904296875,-0.0003830265486612916,0.0007459747139364481,0.000041930703446269035
1772735087130046000,7.0320458984375,-0.00014904701674822718,0.0012564761564135551,-0.0027181915938854218
1772735087140073000,7.042072998046875,-0.0016124540707096457,-0.0010953613091260195,0.0006578977918252349
1772735087150099000,7.052098876953125,-0.0005043471464887261,-0.0007704813033342361,0.00019314908422529697
1772735087160126000,7.0621259765625,-0.0024718905333429575,-0.001456511439755559,-0.001079841866157949
1772735087170153000,7.072153076171875,0.0003556110605131835,-0.0002746146637946367,0.00036322290543466806
1772735087180180000,7.082179931640625,0.0030834870412945747,-0.0000967155210673809,0.0008204876794479787
1772735087190207000,7.09220703125,-0.0003728486772160977,-0.0009187126997858286,-0.0005495688528753817
1772735087200234000,7.10223388671875,0.00035685746115632355,-0.0004910090938210487,-0.0008648871444165707
1772735087210261000,7.112260986328125,0.0007606633007526398,-0.0000096962321549654,0.0004901995416730642
1772735087220288000,7.1222880859375,0.00018755104974843562,0.00020309025421738625,-0.0011654878035187721
1772735087230315000,7.13231494140625,0.0018261382356286049,-0.00017668935470283031,0.0014041850809007883
1772735087240342000,7.142342041015625,-0.0006567270029336214,0.0006345096044242382,0.0010715561220422387
1772735087250369000,7.152369140625,-0.00028297322569414973,-0.00037373718805611134,0.0006995353614911437
1772735087260396000,7.16239599609375,-0.0018742119427770376,0.001256916206330061,-0.0024935947731137276
1772735087270423000,7.172423095703125,-0.0005274669965729117,0.0021320481318980455,-0.0008244826458394527
1772735087280450000,7.182449951171875,0.0009164988878183067,0.0005685065407305956,-0.0017688395455479622
1772735087290477000,7.19247705078125,0.0020220314618200064,0.000036725541576743126,0.0030193692073225975
1772735087300504000,7.202504150390625,0.0005426455172710121,0.0011936025694012642,-0.00011357365292496979
1772735087310530800,7.21253076171875,0.001420874148607254,-0.002141040749847889,-0.0004274836974218488
1772735087320558000,7.22255810546875,0.0001982168760150671,0.002251310972496867,-0.0018213822040706873
1772735087330585000,7.232585205078125,0.0003429410280659795,0.00043934257701039314,-0.001184366294182837
1772735087340611800,7.24261181640625,-0.0001486784894950688,0.0007035280577838421,-0.002701302757486701
1772735087350639000,7.25263916015625,-0.0002605629852041602,0.0022186152637004852,0.0014466983266174793
1772735087360666000,7.262666015625,-0.0011990609345957637,0.0007139295339584351,0.000027499801944941282
1772735087370692900,7.27269287109375,-0.0005521987332031131,0.000284738140180707,-0.0006346837617456913
1772735087380719900,7.282719970703125,0.00024754853802733123,-0.00004283059388399124,0.0007634757785126567
1772735087390747100,7.2927470703125,-0.00038932269671931863,-0.0005343814846128225,-0.0013569674920290709
1772735087400774000,7.30277392578125,0.0016985955880954862,-0.0006651426665484905,0.0021120659075677395
1772735087410801000,7.31280078125,-0.0005177281564101577,0.0017558725085109472,0.00025146332336589694
1772735087420828200,7.322828125,0.0015898975543677807,-0.0005581481382250786,0.00273992121219635
1772735087430855000,7.33285498046875,-0.000314169330522418,-0.001298442017287016,0.0016470805276185274
1772735087440882000,7.3428818359375,0.0020946599543094635,0.0005971959326416254,-0.0004357777361292392
1772735087450909000,7.352908935546875,-0.0017401839140802622,0.0005835350602865219,0.002700790762901306
1772735087460936200,7.362936279296875,-0.00046586140524595976,0.00034251902252435684,-0.0024596164003014565
1772735087470963000,7.372962890625,0.001045451732352376,0.0004806816577911377,-0.00005547807086259127
1772735087480990000,7.382989990234375,0.0008374588214792311,0.0005608424544334412,0.001953344326466322
1772735087491017200,7.393017333984375,0.0006757368100807071,-0.00010242429561913013,-0.00011455256026238203
1772735087501044000,7.4030439453125,-0.0017320271581411362,-0.00031574349850416183,-0.0018035292159765959
1772735087511071000,7.413071044921875,0.0029497200157493353,0.0006221039220690727,-0.001564891659654677
1772735087521098000,7.423097900390625,0.0012610097182914615,0.00026870262809097767,0.000059370300732553005
1772735087531125000,7.433125,-0.001016202731989324,0.00048601115122437477,0.0006979255704209208
1772735087541152000,7.443152099609375,-0.000572786433622241,-0.0000016137491911649704,-0.0024544582702219486
1772735087551179000,7.453178955078125,-0.001297125592827797,0.0002790165599435568,-0.0006442653830163181
1772735087561205000,7.463205078125,0.0015489945653825998,0.0009642480872571468,-0.0008623782778158784
1772735087571232000,7.47323193359375,-0.0017246534116566181,0.0013056129682809114,-0.0009529905510134995
1772735087581259000,7.483259033203125,-0.0010599284432828426,-0.0002400856465101242,-0.0003274140181019902
1772735087591286000,7.4932861328125,-0.0018623641226440668,-0.0008940985426306725,-0.0006711350870318711
1772735087601312800,7.503312744140625,-0.000052479837904684246,-0.001737521612085402,-0.00073052360676229
1772735087611340000,7.513340087890625,-0.00038416997995227575,0.0004449589177966118,0.0006392402574419975
1772735087621367000,7.523366943359375,0.0019101432990282774,0.0016612247563898563,-0.000629756017588079
1772735087631393800,7.533393798828125,0.00030226947274059057,0.0011373355519026518,-0.0024550489615648985
1772735087641421000,7.543421142578125,0.0012397022219374776,-0.0008019781671464443,0.0017165264580398798
1772735087651448000,7.553447998046875,0.0005812334129586816,-0.00012139813043177128,0.000038776895962655544
1772735087661474800,7.563474853515625,0.0008408916182816029,-0.0011746783275157213,-0.0007782808970659971
1772735087671501800,7.573501708984375,-0.00016844383208081126,0.0006259668152779341,0.0007624501595273614
1772735087681529000,7.583529052734375,-0.00031092294375412166,0.001993766753003001,0.00013927050167694688
1772735087691556000,7.59355615234375,-0.0005403626710176468,-0.0016453973948955536,-0.0009313363116234541
1772735087701582800,7.603582763671875,-0.00018882543372455984,-0.001905588200315833,0.00017547339666634798
1772735087711610000,7.613610107421875,-0.003485371358692646,0.0011519226245582104,0.0007051366264931858
1772735087721637000,7.62363720703125,0.00020044375560246408,0.0008195601403713226,-0.00036998154246248305
1772735087731664000,7.633663818359375,-0.00003664655378088355,-0.0017893387703225017,-0.0005872401525266469
1772735087741691000,7.64369091796875,0.0003162222565151751,-0.0014471225440502167,-0.0007627424784004688
1772735087751718100,7.65371826171875,-0.0009420613059774041,0.0008224681951105595,-0.00018345032003708184
1772735087761745000,7.663744873046875,-0.0011194278486073017,-0.0014052661135792732,0.0007886035018600523
1772735087771772000,7.67377197265625,0.0007232746575027704,0.0007417812012135983,-0.00023598183179274201
1772735087781799200,7.683799072265625,-0.0006261490052565932,-0.0014582560397684574,0.00028812827076762915
1772735087791827000,7.693826904296875,-0.00009795682126423344,0.00010356074199080467,0.0006918041035532951
1772735087801854000,7.70385400390625,0.000849862233735621,0.0008929215837270021,0.00034026679350063205
1772735087811881000,7.713880859375,-0.0003166664973832667,0.0005054282955825329,0.0009168057586066425
1772735087821908000,7.723907958984375,0.0015265071997419,0.0017648371867835522,-0.0016592699103057384
1772735087831935000,7.73393505859375,0.00048467423766851425,0.00004593771882355213,-0.0013109366409480572
1772735087841962000,7.7439619140625,0.0009275579359382391,-0.00041159335523843765,-0.0008653898257762194
1772735087851989000,7.753989013671875,0.0011190162040293217,-0.0015751351602375507,0.0012254430912435055
1772735087862016000,7.76401611328125,0.0018087748903781176,0.0011383597739040852,0.0008802974480204284
1772735087872043000,7.77404296875,-0.0010337184648960829,0.0006248494610190392,0.0011644362239167094
1772735087882070000,7.784070068359375,-0.0010275932727381587,-0.001554947579279542,0.002055263612419367
1772735087892097000,7.794096923828125,0.0005322793731465936,-0.00022529973648488522,0.000017788144759833813
1772735087902124000,7.8041240234375,0.0002992528025060892,0.0007331718225032091,0.0008289870456792414
1772735087912151000,7.814151123046875,0.0003709946759045124,-0.0009829949121922255,0.0031864354386925697
1772735087922178000,7.824177978515625,0.00020161761494819075,0.0018878928385674953,0.0019786919001489878
1772735087932205000,7.834205078125,0.0005987692857161164,0.0009030522778630257,0.0006933812983334064
1772735087942231800,7.844231689453125,0.0005979703273624182,-0.0007499717175960541,0.00020043019321747124
1772735087952259000,7.854259033203125,-0.0026319429744035006,0.0006775904912501574,-0.0015194049337878823
1772735087962286000,7.8642861328125,-0.0025816094130277634,0.0022941294591873884,-0.0003015414113178849
1772735087972312800,7.874312744140625,-0.0016906301025301218,0.0008162087760865688,0.00019637533114291728
1772735087982340000,7.884340087890625,-0.0010322968009859324,0.00016400078311562538,-0.0025591973681002855
1772735087992367000,7.8943671875,-0.0013121471274644136,-0.0006114845164120197,-0.0017645228654146194
1772735088002393900,7.904393798828125,-0.00001998135121539235,-0.000930531183257699,-0.0006835457752458751
1772735088012420900,7.9144208984375,0.0007759061991237104,-0.0010444950312376022,0.0030075430404394865
1772735088022448000,7.9244482421875,-0.00032344667124561965,0.0002484696451574564,0.000488991616293788
1772735088032474000,7.93447412109375,0.00013340545410756022,0.0011520367115736008,-0.0006340090767480433
1772735088042500900,7.9445009765625,-0.0011206771014258265,-0.0017113942885771394,0.0020224940963089466
1772735088052527900,7.95452783203125,-0.0004389718233142048,0.0006422549486160278,-0.0007859384641051292
1772735088062555100,7.96455517578125,-0.0003023516619578004,-0.0010445911902934313,0.0005491041811183095
1772735088072582000,7.974581787109375,-0.0012048102216795087,-0.00028384127654135227,-0.00028003001352772117
1772735088082609000,7.98460888671875,0.00007403978088404983,-0.0009365819860249758,0.0007463522488251328
1772735088092636200,7.99463623046875,-0.0007160031236708164,0.003763640532270074,0.0015793449711054564
1772735088102663200,8.0046630859375,0.0006597859319299459,-0.0008462911937385798,0.0007401828188449144
1772735088112690000,8.01468994140625,0.00013337383279576898,0.0006906990893185139,0.0010918136686086655
1772735088122717000,8.024717041015625,0.0024215616285800934,-0.0012267769780009985,-0.0013457776512950659
1772735088132744200,8.034744140625,0.0008939830004237592,0.0004899681080132723,0.0019947481341660023
1772735088142771000,8.04477099609375,-0.00041975430212914944,0.0033533985260874033,-0.0013957222690805793
1772735088152798000,8.0547978515625,0.0015408738981932402,0.00041748862713575363,0.00026996340602636337
1772735088162825200,8.0648251953125,0.001561113866046071,-0.0005748053081333637,0.001878512790426612
1772735088172852000,8.07485205078125,-0.0011427773861214519,-0.0028624325059354305,0.00003995888982899487
1772735088182879000,8.08487890625,-0.00011959088442381471,-0.001917542889714241,-0.0005182396853342652
1772735088192906000,8.094906005859375,0.0008951833005994558,-0.0017094153445214033,-0.0019328794442117214
1772735088202933000,8.10493310546875,0.00019024458015337586,0.0007534758187830448,-0.00011633717804215848
1772735088212960000,8.1149599609375,-0.0005960307898931205,-0.0018194795120507479,0.0007143046823330224
1772735088222987000,8.124987060546875,-0.0016913888975977898,0.00018508173525333405,0.0017377575859427452
1772735088233014000,8.135013916015625,-0.0002192406973335892,-0.00031477888114750385,0.0017379045020788908
1772735088243041000,8.145041015625,-0.002172136679291725,0.0011217303108423948,-0.00030553905526176095
1772735088253068000,8.155068115234375,-0.0005540723213925958,-0.000891396775841713,-0.0008397590136155486
1772735088263094800,8.1650947265625,0.0006874933606013656,0.0006045007612556219,0.0017043587286025286
1772735088273122000,8.1751220703125,0.0007831857074052095,-0.0000843140296638012,-0.00024363088596146554
1772735088283149000,8.185149169921875,-0.0014887569705024362,0.0009244910907000303,-0.0006228650454431772
1772735088293175800,8.19517578125,0.0004090980510227382,0.0009175720624625683,-0.0018139471067115664
1772735088303203000,8.205203125,0.0012003231095150113,0.00004192488268017769,-0.0004719802236650139
1772735088313230000,8.21522998046875,-0.0011630677618086338,-0.0005324624944478273,0.0019409602973610163
1772735088323257000,8.225257080078125,-0.0019985013641417027,0.0018326907884329557,0.0005960639682598412
1772735088333283800,8.235283935546875,-0.001799473655410111,0.00035991519689559937,0.0005071084015071392
1772735088343311000,8.24531103515625,0.0014969870680943131,-0.0004323751199990511,-0.0005416444037109613
1772735088353338000,8.255338134765625,0.0011592067312449217,-0.0000903101172298193,-0.0014063313137739897
1772735088363364900,8.26536474609375,-0.001309277256950736,0.000017547979950904846,-0.0000028454232960939407
1772735088373392100,8.27539208984375,-0.0021904208697378635,-0.0005192242097109556,0.0012603646609932184
1772735088383419100,8.285419189453124,0.0009883282473310828,-0.0019586626440286636,-0.00043606883264146745
1772735088393446000,8.29544580078125,0.0010033473372459412,0.00026598479598760605,-0.0006813376094214618
1772735088403473000,8.305472900390624,-0.0007748453645035625,0.001080912072211504,-0.00005789159331470728
1772735088413500200,8.315500244140624,-0.0018605384975671768,-0.00014813384041190147,0.001690455013886094
1772735088423527000,8.32552685546875,0.0010375133715569973,0.0009514852426946163,-0.000038469210267066956
1772735088433554000,8.335553955078124,-0.00039621995529159904,0.00029311375692486763,0.0008937118109315634
1772735088443581200,8.345581298828124,-0.00016106283874250948,-0.00043499446474015713,0.00014296668814495206
1772735088453608000,8.35560791015625,-0.0007512068841606379,0.0005272156558930874,-0.0017696279101073742
1772735088463635000,8.365635009765626,0.00023629324277862906,0.0010965997353196144,-0.00004389951936900616
1772735088473662000,8.375661865234376,0.0016821472672745585,-0.0008930491749197245,-0.002774209249764681
1772735088483689000,8.38568896484375,0.000886128400452435,-0.0002488305326551199,-0.00039227798697538674
1772735088493716000,8.395716064453126,0.0012069428339600563,-0.0005684609059244394,0.0009296539938077331
1772735088503743000,8.405742919921876,-0.0036349501460790634,-0.0006334420759230852,-0.001646954333409667
1772735088513770000,8.41577001953125,-0.0012664735550060868,0.0018845635931938887,-0.0025414698757231236
1772735088523797000,8.425796875,0.00099694705568254,-0.0009666166733950377,0.0008870837045833468
1772735088533824000,8.435823974609375,-0.00010780611773952842,0.0002400034572929144,-0.0017625358887016773
1772735088543851000,8.44585107421875,-0.0016015730798244476,0.0014866290148347616,-0.00001869801781140268
1772735088553878000,8.4558779296875,0.0015126924263313413,0.0022591962479054928,-0.0010181661928072572
1772735088563905000,8.465905029296875,0.002046922454610467,0.0010208259336650372,0.00024923213641159236
1772735088573931000,8.475930908203125,0.00021739996736869216,0.0005861206445842981,-0.00005964253796264529
1772735088583958000,8.4859580078125,0.0007271290523931384,-0.0007017841562628746,0.0023731549736112356
1772735088593985000,8.495985107421875,0.0016857817536219954,-0.001406448194757104,-0.0008625016780570149
1772735088604012000,8.506011962890625,-0.00019014888675883412,-0.0026336328592151403,0.0010168910957872868
1772735088614039000,8.5160390625,0.0009125263313762844,0.0017400137148797512,0.0003981419140473008
1772735088624065800,8.526065673828125,0.00032370135886594653,0.00045636994764208794,0.0016823180485516787
1772735088634093000,8.536093017578125,-0.003855286166071892,-0.0019297986291348934,-0.0005382770323194563
1772735088644120000,8.5461201171875,-0.0009002425940707326,0.0010984817054122686,-0.002319665625691414
1772735088654146800,8.556146728515625,0.0008093956857919693,0.0002922085113823414,0.0014164815656840801
1772735088664174000,8.566174072265625,-0.00009820963896345347,-0.00016798591241240501,-0.003310096450150013
1772735088674201000,8.576201171875,0.0009990526596084237,0.0014446598943322897,0.00036372937029227614
1772735088684227800,8.586227783203125,-0.0006915220292285085,0.0003588893450796604,-0.00034147570841014385
1772735088694254800,8.5962548828125,0.0005663329502567649,0.0002920404076576233,-0.0022099213674664497
1772735088704282000,8.6062822265625,0.0005897687515243888,0.0008249389939010143,-0.0005289340624585748
1772735088714308900,8.616308837890625,0.0004387828230392188,0.00036346749402582645,-0.000008347415132448077
1772735088724335900,8.6263359375,0.002039076294749975,-0.0004613134078681469,-0.00018544764316175133
1772735088734363100,8.636363037109374,0.00023850597790442407,0.001230674795806408,0.00018033618107438087
1772735088744390000,8.646389892578124,-0.0004994559567421675,-0.0007254171650856733,0.0020003404933959246
1772735088754417000,8.6564169921875,-0.0018707404378801584,-0.0015533077530562878,-0.00027407167362980545
1772735088764444000,8.66644384765625,-0.000584167311899364,0.0022648663725703955,-0.0004919182392768562
1772735088774471200,8.67647119140625,0.0024055042304098606,-0.0029659827705472708,0.0003641268704086542
1772735088784498000,8.686497802734374,-0.00103663164190948,0.00018480326980352402,-0.0005791648291051388
1772735088794524200,8.696524169921876,0.001029469072818756,-0.000281632412225008,0.0003254286420997232
1772735088804551200,8.70655126953125,-0.0013287600595504045,-0.0015540907625108957,-0.00034861741005443037
1772735088814578200,8.716578125,-0.00019118792260996997,-0.00163843494374305,0.0010968537535518408
1772735088824605200,8.726605224609376,-0.001635686494410038,0.0012809224426746368,-0.0015412736684083939
1772735088834632200,8.736632080078126,0.0008353784796781838,-0.0002745925448834896,0.001018275273963809
1772735088844659200,8.7466591796875,-0.0009710437152534723,0.00067109614610672,0.0017458510119467974
1772735088854686200,8.756686279296876,-0.0007985149859450758,0.0009759657550603151,-0.001335036475211382
1772735088864713200,8.766713134765626,0.001206312677823007,0.0011868879664689302,0.0012959004379808903
1772735088874740200,8.776740234375,-0.0007889808621257544,0.00019827880896627903,-0.0021334821358323097
1772735088884767200,8.786767333984375,0.0007769578951410949,-0.0004374177660793066,0.001451132819056511
1772735088894794200,8.796794189453125,0.0025559673085808754,0.0004674629308283329,-0.0005101791466586292
1772735088904821200,8.8068212890625,-0.0019178770016878843,-0.001990368589758873,0.0018571048276498914
1772735088914848000,8.816847900390625,0.002219627844169736,0.0010158512741327286,-0.0004990851157344878
1772735088924875300,8.826875244140625,-0.0008267619414255023,-0.001672876300290227,-0.0008666013018228114
1772735088934902300,8.83690234375,-0.0007729638600721955,0.0008882889524102211,0.0005813231109641492
1772735088944929000,8.846928955078125,-0.0018233145819976926,-0.0006608718540519476,0.0032687189523130655
1772735088954956300,8.856956298828125,0.0011584331514313817,0.0020259059965610504,-0.00033267890103161335
1772735088964983300,8.8669833984375,0.0003296573704574257,0.0012669051066040993,-0.0020829085260629654
1772735088975010000,8.877010009765625,0.00010077451588585973,0.00043573230504989624,0.0006452556699514389
1772735088985037000,8.887037109375,0.0021854969672858715,-0.0012801424600183964,-0.0011321380734443665
1772735088995064300,8.897064208984375,0.002010368276387453,0.0009169203694909811,-0.0003059295122511685
1772735089005091000,8.907091064453125,-0.000813115097116679,0.002252761973068118,0.0003073964617215097
1772735089015118000,8.9171181640625,0.0016160093946382403,0.0004191398620605469,-0.0008591312798671424
1772735089025145300,8.927145263671875,-0.0020282603800296783,0.0009483098983764648,0.002130000852048397
1772735089035172400,8.93717236328125,-0.001730219111777842,0.0020330222323536873,-0.0004938622587360442
1772735089045199000,8.94719921875,-0.0021081215236335993,-0.00025596492923796177,0.0005796579644083977
1772735089055226000,8.95722607421875,-0.0005474989302456379,-0.0002809828147292137,0.0023633770179003477
1772735089065253400,8.96725341796875,0.0008956680539995432,0.0011872176546603441,0.0022134410683065653
1772735089075280100,8.977280029296875,-0.0005016772192902863,-0.001068176468834281,-0.0004839710600208491
1772735089085307100,8.98730712890625,0.00020299520110711455,0.0012599590700119734,0.0005935438675805926
1772735089095334400,8.99733447265625,0.00024691576254554093,-0.0007994272746145725,0.00008627554052509367
1772735089105361200,9.007361083984375,-0.0001727984199533239,-0.0007988947909325361,0.0013936213217675686
1772735089115388200,9.01738818359375,-0.000330167735228315,0.00012812973000109196,-0.0005593665409833193
1772735089125415200,9.027415283203124,-0.0008867684518918395,0.00008658436127007008,0.00014770269626751542
1772735089135442200,9.037442138671874,-0.0011320362100377679,0.0010691829957067966,0.0005295841256156564
1772735089145469200,9.04746923828125,0.0002994128444697708,0.0006577246822416782,-0.0006400762358680367
1772735089155496200,9.05749609375,-0.0015882919542491436,-0.0007382456678897142,0.0007019698969088495
1772735089165523200,9.067523193359374,-0.0011328915134072304,0.00035578105598688126,0.001051110215485096
1772735089175550200,9.07755029296875,0.0011659364681690931,0.000952673377469182,-0.0005410952726379037
1772735089185577200,9.0875771484375,-0.0007741764420643449,-0.0004952873568981886,-0.0003773109056055546
1772735089195604000,9.09760400390625,-0.00021068076603114605,-0.00032258685678243637,0.0009213178418576717
1772735089205631200,9.10763134765625,0.0014617843553423882,-0.0018951833480969071,0.0020595528185367584
1772735089215658200,9.117658203125,-0.0018929990474134684,0.0007334672845900059,-0.0005085289594717324
1772735089225685000,9.12768505859375,0.000018884253222495317,0.0007387939840555191,0.00006698016659356654
1772735089235712300,9.137712158203126,-0.0026493240147829056,0.004420002922415733,-0.0015852279029786587
1772735089245739300,9.1477392578125,0.002647969638928771,-0.0016016701702028513,0.001193248201161623
1772735089255766300,9.157766357421876,-0.001346262521110475,0.00047045876272022724,-0.002133692381903529
1772735089265793000,9.16779296875,-0.0003992424171883613,0.001834263326600194,0.0012501199962571263
1772735089275819300,9.1778193359375,-0.0013393473345786333,-0.001859308104030788,-0.0005692967097274959
1772735089285846300,9.18784619140625,-0.0014442758401855826,-0.0008121530991047621,0.0002610769297461957
1772735089295873300,9.197873291015625,0.0007782018510624766,-0.0014360640197992325,-0.0003543384955264628
1772735089305900000,9.207900146484375,-0.0003291405155323446,-0.0026027949061244726,0.0009146578377112746
1772735089315927300,9.21792724609375,0.0006035716505721211,0.0017862448003143072,-0.0019010934047400951
1772735089325954300,9.227954345703125,0.0005979790585115552,0.0017247258219867945,-0.00014473864575847983
1772735089335981000,9.23798095703125,0.0011242196196690202,0.0013430945109575987,-0.0008837658679112792
1772735089346008300,9.24800830078125,0.0014532208442687988,0.002193732187151909,0.0001545315026305616
1772735089356035300,9.258035400390625,-0.0016946048708632588,-0.0004603175912052393,0.00012600418995134532
1772735089366062000,9.26806201171875,-0.000029862887458875775,-0.0011580658610910177,0.00009910628432407975
1772735089376089000,9.278089111328125,-0.001998286694288254,0.00002264813520014286,-0.000015236029867082834
1772735089386116400,9.288116455078125,0.00017591789946891367,0.002831217600032687,0.0022700224071741104
1772735089396143000,9.29814306640625,0.0004949435824528337,0.0009708045981824398,-0.00017287686932832003
1772735089406170000,9.308170166015625,-0.0005325039383023977,0.0004938323982059956,-0.00025383697357028723
1772735089416197400,9.318197265625,0.0006530082901008427,0.0008666499052196741,0.002374566625803709
1772735089426224000,9.32822412109375,-0.0010791117092594504,0.0013103324454277754,-0.0004912610165774822
1772735089436251100,9.338251220703125,-0.0005346923135221004,0.000407693674787879,-0.00017708730592858046
1772735089446278100,9.348278076171875,0.00018595909932628274,-0.0004503766540437937,-0.0015696542104706168
1772735089456305200,9.35830517578125,-0.0004230495251249522,-0.0006959079764783382,0.0008945813169702888
1772735089466332200,9.368332275390625,-0.0015056245028972626,0.0011105143930763006,0.00016993525787256658
1772735089476359200,9.378359130859375,-0.00011527168680913746,-0.0015150333056226373,0.0002679856843315065
1772735089486386200,9.38838623046875,-0.0008076935773715377,-0.0010814706329256296,-0.0005831606104038656
1772735089496413200,9.3984130859375,0.0009901255834847689,0.0008624433539807796,0.00010672732605598867
1772735089506440200,9.408440185546874,-0.0001441147760488093,0.001321572344750166,-0.00041898066410794854
1772735089516467200,9.41846728515625,0.0021844147704541683,-0.000296945683658123,0.0010243356227874756
1772735089526494200,9.428494140625,-0.001457990612834692,0.0005685817450284958,0.001111420919187367
1772735089536521200,9.438521240234374,-0.001337793073616922,0.0003779362887144089,-0.0007344204350374639
1772735089546548200,9.44854833984375,-0.0018600388430058956,-0.001079345354810357,0.00020594170200638473
1772735089556575200,9.4585751953125,0.0000795325031504035,0.001260596327483654,-0.0007720655994489789
1772735089566602200,9.468602294921874,-0.00005335925379768014,0.002084045670926571,-0.0010330553632229567
1772735089576629200,9.478629150390624,-0.00007217051461338997,0.0006975186988711357,0.0008335422608070076
1772735089586656000,9.488656005859376,0.00026924675330519676,0.0018914137035608292,-0.0005760688800364733
1772735089596683300,9.498683349609376,-0.0014381546061486006,-0.00001954822801053524,0.0013503801310434937
1772735089606710300,9.508710205078126,-0.0011278963647782803,0.0008539685513824224,-0.0007489896379411221
1772735089616737000,9.518737060546876,0.001107643241994083,-0.0004484932869672775,-0.0017550676129758358
1772735089626764300,9.528764404296876,-0.0010276793036609888,-0.0002175972331315279,0.0012026390759274364
1772735089636791300,9.538791259765626,-0.0011177589185535908,-0.0004537359345704317,-0.00049264618428424
1772735089646818000,9.548818115234376,-0.0015132384141907096,0.0011667977087199688,0.000983277685008943
1772735089656845000,9.558844970703126,-0.0005118462722748518,0.0014084482099860907,-0.0006045905174687505
1772735089666872300,9.568872314453126,-0.000033009942853823304,-0.0015175669686868787,0.001122203073464334
1772735089676899000,9.578899169921876,-0.001160952029749751,-0.0004805882927030325,-0.00030312006128951907
1772735089686926000,9.588926025390625,0.0008702408522367477,-0.0016313402447849512,0.0017656234558671713
1772735089696953300,9.598953369140625,0.0007588386069983244,0.004053697921335697,-0.0005371783627197146
1772735089706980400,9.60898046875,0.0021095939446240664,-0.0006662223022431135,-0.000059407291701063514
1772735089717007000,9.619007080078125,-0.0005611022934317589,0.0003866814076900482,0.0026756131555885077
1772735089727034000,9.6290341796875,0.0020312187261879444,0.000734223984181881,-0.0005268380045890808
1772735089737061400,9.639061279296875,0.0012634361628443003,0.002302848966792226,-0.00011531563359312713
1772735089747088100,9.649088134765625,-0.00027693615993484855,-0.0002868089359253645,0.0011550121707841754
1772735089757115100,9.659115234375,0.0019214943749830127,0.0003278984222561121,-0.00026195301325060427
1772735089767142400,9.669142333984375,-0.0004199568065814674,0.00013428647071123123,0.0015322186518460512
1772735089777169200,9.679169189453125,0.00008224166231229901,0.0029426710680127144,-0.0014712591655552387
1772735089787196200,9.689196044921875,-0.00047675581299699843,-0.00005045579746365547,0.00036046301829628646
1772735089797223400,9.699223388671875,-0.0008478790987282991,-0.0006653512828052044,0.0012301282258704305
1772735089807250200,9.709250244140625,-0.0005855577765032649,0.0004830039106309414,-0.0009874860988929868
1772735089817277200,9.719277099609375,-0.00024500489234924316,0.0017292869742959738,-0.0015318295918405056
1772735089827304200,9.72930419921875,-0.0011872312752529979,-0.0015037907287478447,-0.0007099781651049852
1772735089837331200,9.739331298828125,0.00020164402667433023,-0.00039548007771372795,-0.00041906817932613194
1772735089847358200,9.749358154296875,0.0004362685140222311,-0.0007102657109498978,0.0014174476964399219
1772735089857385200,9.75938525390625,-0.002036611782386899,0.0017139269039034843,0.0013958727940917015
1772735089867412200,9.769412109375,-0.0003324550052639097,-0.00033457670360803604,0.00036709371488541365
1772735089877439200,9.779439208984375,-0.0018755649216473103,-0.002835408551618457,0.0001662576978560537
1772735089887466200,9.78946630859375,-0.0009253490716218948,-0.00035946769639849663,0.0021106316708028316
1772735089897493200,9.7994931640625,-0.0004907374968752265,0.0016501061618328094,0.0006392030045390129
1772735089907520300,9.809520263671875,-0.000006841146387159824,0.0011896458454430103,0.00035397845203988254
1772735089917547300,9.81954736328125,-0.0018401105189695954,-0.0006046108901500702,-0.0006942864274606109
1772735089927574300,9.82957421875,-0.0012480898294597864,0.0011312374845147133,-0.0016447686357423663
1772735089937601300,9.839601318359374,0.0006926583591848612,-0.0014990767231211066,-0.0015249059069901705
1772735089947628300,9.849628173828124,-0.00018432056822348386,0.00033664004877209663,-0.000520894187502563
1772735089957655300,9.8596552734375,-0.0023963861167430878,-0.00105774006806314,-0.0005055314395576715
1772735089967682000,9.86968212890625,-0.002837938256561756,-0.0013581446837633848,0.0007016794988885522
1772735089977709300,9.879709228515624,0.000011119234841316938,-0.0002780570648610592,0.0004318071296438575
1772735089987736300,9.889736328125,-0.0004043338994961232,-0.0027385514695197344,0.00024352167383767664
1772735089997763000,9.89976318359375,-0.00015085322957020253,0.001481256214901805,-0.00040478724986314774
1772735090007790300,9.909790283203124,-0.00027895128005184233,0.0016477035824209452,-0.0002481933624949306
1772735090017817300,9.9198173828125,-0.001245743129402399,0.001129130832850933,0.0001695662795100361
1772735090027844000,9.929843994140626,0.0005787884583696723,-0.002792906481772661,0.0019512211438268423
1772735090037871000,9.93987109375,-0.0004724066238850355,-0.0019184672273695469,0.0013875762233510613
1772735090047898400,9.9498984375,-0.0009288724395446479,0.00035267649218440056,-0.0013640017714351416
1772735090057925000,9.959925048828126,-0.0007341925520449877,0.0028192088939249516,-0.002734334906563163
1772735090067952000,9.9699521484375,-0.00043565224041230977,-0.000091892434284091,0.00029927195282652974
1772735090077979400,9.9799794921875,0.0006383833242580295,0.0010208396706730127,0.002172136679291725
1772735090088006100,9.990006103515626,-0.0010543218813836575,-0.0007855824660509825,0.0019106143154203892
1772735090098033200,10.000033203125,-0.0008859904482960701,-0.0002965838648378849,0.0021921705920249224
1772735090108060400,10.010060302734376,-0.0007608218584209681,-0.0006145653314888477,0.0012155895819887519
1772735090118087200,10.020087158203125,-0.0003359468246344477,0.0009130185935646296,-0.0006215340690687299
1772735090128114200,10.0301142578125,-0.0004294237878639251,-0.00008779740892350674,0.0012152480194345117
1772735090138141200,10.04014111328125,0.0008093571523204446,0.0009459196589887142,0.0007800345774739981
1772735090148168400,10.05016845703125,-0.0005946613382548094,0.0012428625486791134,-0.0016013641143217683
1772735090158195200,10.0601953125,-0.001916432287544012,-0.0009656802285462618,0.0023876125924289227
1772735090168222200,10.07022216796875,-0.001698852051049471,0.0011728382669389248,-0.0013195077190175653
1772735090178249500,10.08024951171875,0.0019989381544291973,0.0007313834503293037,0.00041697462438605726
1772735090188276200,10.090276123046875,0.0007653620559722185,0.00030421209521591663,0.0011067333398386836
1772735090198303200,10.10030322265625,-0.0009039783617481589,0.002404096070677042,-0.0018245612736791372
1772735090208330200,10.110330322265625,-0.0022147861309349537,0.0023242011666297913,0.0014183699386194348
1772735090218357200,10.120357177734375,-0.00017514715727884322,-0.000616677338257432,0.000929803354665637
1772735090228384300,10.13038427734375,0.0002251259284093976,0.0015146504156291485,0.0015532494289800525
1772735090238411300,10.140411376953125,0.0010031556012108922,-0.00018021045252680779,-0.0012538955779746175
1772735090248438300,10.150438232421875,-0.0014394957106560469,-0.00036822957918047905,0.0007173762423917651
1772735090258465300,10.16046533203125,-0.00021854133228771389,-0.0015447346959263086,-0.0027692674193531275
1772735090268492300,10.1704921875,-0.00022999293287284672,0.0009940569289028645,0.0009993717540055513
1772735090278519000,10.18051904296875,-0.0027935151010751724,-0.00009216880425810814,-0.0004027631657663733
1772735090288546300,10.19054638671875,-0.0008587285410612822,0.000011960742995142937,0.0007490540156140924
1772735090298573300,10.2005732421875,0.0007928924751468003,-0.0006713103502988815,-0.00016489287372678518
1772735090308600000,10.21060009765625,0.0015178048051893711,0.000249344389885664,0.0016383335459977388
1772735090318627300,10.22062744140625,-0.001148377312347293,0.0013931265566498041,0.0009466305491514504
1772735090328654300,10.230654296875,-0.0006607524701394141,-0.0016966731054708362,0.000925059022847563
1772735090338681300,10.240681396484375,-0.0012251997832208872,0.0008414452895522118,0.000023689732188358903
1772735090348708000,10.2507080078125,-0.0005112062208354473,0.0008084219880402088,0.001423979876562953
1772735090358735400,10.2607353515625,-0.0009031910449266434,0.001281003002077341,0.00029872459708712995
1772735090368762400,10.270762451171874,0.001932809129357338,-0.0018759082304313779,0.0008936747908592224
1772735090378789000,10.2807890625,-0.00010778720024973154,0.000026338035240769386,-0.0012354723876342177
1772735090388816400,10.29081640625,0.0007209886098280549,0.0010974614415317774,-0.00026927757426165044
1772735090398843400,10.300843505859374,-0.0005324406083673239,0.0010844897478818893,-0.0017383818048983812
1772735090408870100,10.3108701171875,0.0012052719248458743,-0.0013352585956454277,0.002296839840710163
1772735090418897200,10.320897216796874,-0.0021413350477814674,-0.00032080081291496754,-0.0009498171857558191
1772735090428924400,10.33092431640625,-0.001568755367770791,-0.0006805940065532923,-0.0008094686199910939
1772735090438950400,10.340950439453126,0.002526385011151433,0.00025489693507552147,-0.002682320773601532
1772735090448978200,10.350978271484376,0.0018435504753142595,0.0015513238031417131,-0.00032542343251407146
1772735090459005400,10.36100537109375,-0.001574764959514141,0.001179578248411417,-0.002450578613206744
1772735090469031400,10.371031494140626,-0.00017181175644509494,0.002558297012001276,0.0009593326831236482
1772735090479059200,10.38105908203125,-0.0005668356316164136,-0.0007723118178546429,0.0005130292847752571
1772735090489086200,10.391086181640626,-0.0004488576087169349,-0.0008114601951092482,-0.0011290758848190308
1772735090499112200,10.4011123046875,0.0009453764068894088,-0.001726191258057952,0.0007851447444409132
1772735090509140200,10.41114013671875,-0.00009378904360346496,0.001072790939360857,-0.0005951715866103768
1772735090519166200,10.421166259765625,-0.0007635991787537932,0.0016641709953546524,-0.0027792591135948896
1772735090529193200,10.431193115234375,0.001224983250722289,0.0014034477062523365,-0.0013318308629095554
1772735090539220200,10.44122021484375,0.0010644391877576709,0.0003829712513834238,0.0005148918135091662
1772735090549247200,10.451247314453125,-0.0016860736068338156,0.0011824520770460367,-0.0002827249700203538
1772735090559274200,10.461274169921875,0.0009523445041850209,0.0012750793248414993,0.000727853795979172
1772735090569301200,10.47130126953125,-0.00024927378399297595,0.0009997086599469185,-0.003993930760771036
1772735090579328300,10.481328369140625,-0.00009832943032961339,0.0022563112433999777,-0.00042313625453971326
1772735090589355300,10.491355224609375,0.00031818897696211934,0.0005683994386345148,0.001221365761011839
1772735090599382300,10.50138232421875,0.00020973390201106668,0.0018387427553534508,0.00101647456176579
1772735090609409300,10.5114091796875,-0.0017487547593191266,0.002003592438995838,0.00002577868872322142
1772735090619436300,10.521436279296875,0.00090694212121889,0.0003834392409771681,0.00027266773395240307
1772735090629463300,10.53146337890625,0.0017122819554060698,-0.002901569940149784,-0.0004027099348604679
1772735090639490000,10.541489990234375,-0.0016597802750766277,0.0010604551061987877,0.0019514209125190973
1772735090649517300,10.551517333984375,0.002234560204669833,-0.0013350583612918854,-0.0011064206482842565
1772735090659543300,10.561543212890625,0.00032693787943571806,0.0008029276505112648,0.0027399829123169184
1772735090669570300,10.5715703125,-0.001487912843003869,-0.0004624424036592245,-0.001823260448873043
1772735090679597000,10.58159716796875,-0.0011846610577777028,0.0008127973414957523,-0.00005215127021074295
1772735090689624300,10.591624267578124,-0.0007138141663745046,-0.00018775230273604393,-0.0013027717359364033
1772735090699651300,10.6016513671875,-0.0020663535688072443,0.001294757705181837,-0.002067887457087636
1772735090709678000,10.611677978515624,-0.00019148821593262255,0.00038954918272793293,0.0011673206463456154
1772735090719705300,10.621705322265624,0.0007782934699207544,-0.0023466567508876324,-0.0007379208691418171
1772735090729732400,10.631732421875,0.00011676427675411105,-0.000563404057174921,-0.0007001039339229465
1772735090739759000,10.641759033203124,-0.0006364763830788434,-0.0011891915928572416,0.000664960069116205
1772735090749786000,10.6517861328125,0.0013502417132258415,-0.0008195447735488415,0.0012018533889204264
1772735090759813400,10.6618134765625,-0.00021733096218667924,0.00005391892045736313,0.00006566377123817801
1772735090769840000,10.671840087890626,-0.00012891402002424002,0.0009506051428616047,0.0004030863055959344
1772735090779867100,10.6818671875,-0.0014767954126000404,-0.0003633906599134207,-0.0004946408444084227
1772735090789894400,10.691894287109376,0.00032643097802065313,-0.0013245255686342716,0.0006156309973448515
1772735090799921200,10.701921142578126,0.0007758529391139746,0.0005481971893459558,-0.000056887074606493115
1772735090809948000,10.711947998046876,-0.00045932113425806165,-0.0003660661168396473,-0.0030143274925649166
1772735090819975000,10.721974853515626,-0.0017799804918467999,0.001453328412026167,-0.0014090988552197814
1772735090830002000,10.732001953125,-0.0008800983778201044,-0.0025078575126826763,-0.0008562266011722386
1772735090840029000,10.74202880859375,-0.0009621212957426906,-0.00010216515511274338,-0.00045203015906736255
1772735090850056000,10.752055908203126,0.0004118034557905048,-0.002299539279192686,0.0007173638441599905
1772735090860083000,10.7620830078125,-0.0006010949146002531,0.0005215867422521114,0.0015408368781208992
1772735090870110000,10.77210986328125,-0.0005100148264318705,-0.0007764382753521204,0.0007791726966388524
1772735090880137000,10.782136962890625,0.0010028426768258214,-0.000035709235817193985,0.0012218490010127425
1772735090890164000,10.7921640625,0.0007237433455884457,-0.0011776727624237537,-0.0012053558602929115
1772735090900191000,10.80219091796875,0.002510290127247572,0.00016372231766581535,0.001780026126652956
1772735090910218000,10.812218017578125,-0.0024293409660458565,0.0004998133517801762,-0.0012138995807617903
1772735090920245000,10.822244873046875,-0.002084413543343544,-0.00073768082074821,0.0011961437994614244
1772735090930271700,10.832271728515625,0.00007913856825325638,0.0004647364839911461,0.0005543219740502536
1772735090940299000,10.842299072265625,0.001280936528928578,0.0005900096148252487,0.0013594826450571418
1772735090950326000,10.852325927734375,0.0010367246577516198,-0.0015210781712085009,0.0021275384351611137
1772735090960353000,10.86235302734375,-0.0012404487933963537,-0.0004891562275588512,0.0005036183865740895
1772735090970380000,10.872380126953125,-0.0012172793503850698,-0.0008665260393172503,-0.0005653745029121637
1772735090980407000,10.882406982421875,-0.00017500198737252504,0.0022081295028328896,0.0014498184900730848
1772735090990434000,10.89243408203125,-0.001621364732272923,0.000325540779158473,-0.00289699318818748
1772735091000460800,10.902460693359375,0.0005842227838002145,-0.0008017923682928085,0.002038274658843875
1772735091010488000,10.912488037109375,-0.0020333982538431883,-0.0005796847399324179,-0.0005122347502037883
1772735091020515000,10.92251513671875,-0.0017118101241067052,0.0009032718371599913,0.0009365727892145514
1772735091030541800,10.932541748046875,0.0020592259243130684,0.0020969004835933447,0.0005714534199796617
1772735091040570000,10.942570068359375,0.0008060435065999627,-0.001490238355472684,0.0004433508147485554
1772735091050596900,10.952596923828125,0.0024268431589007378,-0.001214334974065423,-0.0003239059296902269
1772735091060624000,10.962623779296875,-0.0005103690782561898,0.0018509330693632364,-0.00039461173582822084
1772735091070651100,10.972651123046875,-0.0012760278768837452,0.00019604479894042015,-0.0011416284833103418
1772735091080678000,10.982677978515625,-0.0017723663477227092,0.0007974235340952873,-0.0009043339523486793
1772735091090705000,10.992704833984375,-0.0032903682440519333,0.0007625361904501915,0.0004421602934598923
1772735091100732000,11.00273193359375,-0.0012189514236524701,-0.00005126628093421459,0.0002598223800305277
1772735091110759000,11.012759033203125,0.0007965288241393864,0.001121856039389968,0.001133605488575995
1772735091120786000,11.022785888671875,0.0013046591775491834,-0.0006073545664548874,-0.0011145009193569422
1772735091130813000,11.03281298828125,0.0004913298180326819,0.0004280824214220047,0.0009614331647753716
1772735091140840000,11.04283984375,0.004597420338541269,-0.0008530141785740852,0.0005291425622999668
1772735091150867000,11.052866943359374,-0.0008378253551200032,-0.0005291737616062164,0.002823988441377878
1772735091160894000,11.06289404296875,0.00026860597427003086,0.000520352041348815,-0.00123202009126544
1772735091170921000,11.0729208984375,0.0006395842647179961,-0.0005819306243211031,0.0008226085919886827
1772735091180948000,11.082947998046874,0.0025084365624934435,0.0007113267201930285,-0.0011979173868894577
1772735091190975000,11.09297509765625,-0.0024234713055193424,-0.000662065576761961,0.0019225083524361253
1772735091201002000,11.103001953125,-0.002532535931095481,0.0002558587584644556,-0.0011234383564442396
1772735091211029000,11.113029052734374,0.0002286293893121183,-0.0005795748438686132,-0.00002861290704458952
1772735091221056000,11.123055908203124,-0.0006340327090583742,-0.001748247304931283,0.0011526714079082012
1772735091231083000,11.1330830078125,-0.0003360249975230545,-0.00014688842929899693,0.0024027591571211815
1772735091241109800,11.14310986328125,0.0014470734167844057,0.0009911064989864826,0.001817943761125207
1772735091251137000,11.153136962890626,-0.00014363274385686964,0.0018568998202681541,-0.001064661773853004
1772735091261164000,11.1631640625,0.0005260678008198738,-0.0009963070042431355,0.0012504796031862497
1772735091271190800,11.173190673828126,-0.0007194926147349179,0.0009195711463689804,-0.0011040212120860815
1772735091281218000,11.183218017578126,0.0006752045010216534,0.0000634961761534214,0.0002471116604283452
1772735091291245000,11.1932451171875,-0.003866284154355526,-0.0001966946292668581,0.0006069047376513481
1772735091301271800,11.203271728515626,-0.00039159139851108193,0.0018771612085402012,0.0025516077876091003
1772735091311298800,11.213298828125,-0.0020736439619213343,0.00011361576616764069,0.00017447042046114802
1772735091321326000,11.223326171875,-0.001395084080286324,0.002817458240315318,0.000879908271599561
1772735091331352800,11.233352783203125,0.0008811196312308311,0.0006568355020135641,0.000873782963026315
1772735091341379800,11.2433798828125,0.002095646457746625,-0.0009908173233270645,0.0018949888180941343
1772735091351407000,11.253406982421875,-0.0005597915733233094,-0.0005769622512161732,0.0009735351777635515
1772735091361433900,11.263433837890625,-0.001829811604693532,0.000952685484662652,0.00045325671089813113
1772735091371460900,11.2734609375,0.00045651214895769954,0.0007406978402286768,0.00014459635713137686
1772735091381487900,11.28348779296875,0.002063155872747302,-0.0004573862534016371,0.0022055134177207947
1772735091391515100,11.29351513671875,-0.0010508784325793386,0.0011753977742046118,0.001195642864331603
1772735091401542000,11.3035419921875,-0.000015032259398140013,0.0006058684084564447,0.0007642178679816425
1772735091411569000,11.31356884765625,-0.000005711204721592367,0.0009081370662897825,0.00110510247759521
1772735091421596200,11.32359619140625,0.00005069230974186212,0.00023306161165237427,-0.0006538279121741652
1772735091431623000,11.333622802734375,0.00009729762678034604,-0.0007088985294103622,-0.0019108399283140898
1772735091441650000,11.34364990234375,0.0020009358413517475,0.001040515024214983,-0.001628075260668993
1772735091451677000,11.353677001953125,-0.0022414796985685825,-0.0012990718241780996,0.00218903343193233
1772735091461704000,11.363703857421875,0.001156652346253395,0.000758263748139143,0.0010150941088795662
1772735091471731000,11.37373095703125,-0.0002039566170424223,0.0022280625998973846,-0.002940232865512371
1772735091481758000,11.383758056640625,0.0023033078759908676,0.0008145191241055727,0.0026325592771172523
1772735091491785000,11.393784912109375,0.0003735814243555069,-0.0008105416782200336,0.0006290632300078869
1772735091501812000,11.40381201171875,-0.000607747002504766,0.0004649953916668892,-0.0025840187445282936
1772735091511839000,11.4138388671875,0.0009557948214933276,-0.0008338282350450754,0.0005300154443830252
1772735091521865700,11.42386572265625,-0.0005727535462938249,0.0020154218655079603,-0.0016613390762358904
1772735091531893000,11.43389306640625,0.002149796113371849,-0.0014323063660413027,-0.0006677136989310384
1772735091541920000,11.443919921875,0.00031419695005752146,0.0011413630563765764,-0.00019082603103015572
1772735091551946800,11.45394677734375,0.00003749453753698617,0.0007847656961530447,-0.0001479491329519078
1772735091561974000,11.46397412109375,-0.001292627421207726,-0.0003696959465742111,0.0008871537283994257
1772735091572001000,11.4740009765625,-0.00003534910501912236,-0.0012405496090650558,-0.00020074752683285624
1772735091582028000,11.484028076171874,-0.0014286137884482741,-0.000017179641872644424,0.0004305961774662137
1772735091592054800,11.4940546875,-0.00024510498042218387,-0.0011767197865992785,-0.001169697381556034
1772735091602082000,11.50408203125,0.0003970020334236324,0.0010778987780213356,0.0011871260358020663
1772735091612109000,11.514109130859374,-0.0006908992654643953,0.002516005653887987,0.002051321789622307
1772735091622135800,11.5241357421875,0.000697292503900826,-0.0016187053406611085,-0.00010479403135832399
1772735091632163000,11.5341630859375,-0.0004699709825217724,-0.00020243623293936253,0.0009788461029529572
1772735091642190000,11.544190185546874,0.001153205637820065,-0.0016258192481473088,0.0012167667737230659
1772735091652216800,11.554216796875,-0.0013738678535446525,0.0018333604093641043,-0.0009185558301396668
