time,seconds_elapsed,z,y,x
1772731747533689900,0.06268994140625,-0.5859143733978271,-0.20775599777698517,-0.02696315199136734
1772731747543716600,0.072716552734375,-0.6207876801490784,-0.2901885211467743,-0.007326068822294474
1772731747553745000,0.082744873046875,-0.6491968631744385,-0.3518317639827728,-0.014539011754095554
1772731747563772700,0.092772705078125,-0.6789432764053345,-0.3950841724872589,-0.030763257294893265
1772731747573800700,0.10280078125,-0.6964255571365356,-0.40439268946647644,-0.05510728806257248
1772731747583828700,0.112828857421875,-0.6622753143310547,-0.35190099477767944,-0.08870386332273483
1772731747593856800,0.122856689453125,-0.5799773931503296,-0.2604527473449707,-0.09769698232412338
1772731747603884800,0.132884765625,-0.47577133774757385,-0.17160837352275848,-0.06795000284910202
1772731747613911600,0.14291162109375,-0.3872320055961609,-0.1150122657418251,-0.0027530028019100428
1772731747623939800,0.15293994140625,-0.3355315327644348,-0.0814545676112175,0.07447227835655212
1772731747633967600,0.162967529296875,-0.3242282569408417,-0.07257089018821716,0.12590765953063965
1772731747643995600,0.17299560546875,-0.34438517689704895,-0.07378902286291122,0.14591066539287567
1772731747654023700,0.183023681640625,-0.3726949989795685,-0.06264910846948624,0.12736593186855316
1772731747664051700,0.1930517578125,-0.3794189393520355,-0.03517566993832588,0.09541864693164825
1772731747674079700,0.203079833984375,-0.3742144703865051,-0.016739871352910995,0.07838944345712662
1772731747684107800,0.213107666015625,-0.3750605583190918,-0.04834946244955063,0.08748360723257065
1772731747694134800,0.223134765625,-0.38524821400642395,-0.08282754570245743,0.10062870383262634
1772731747704162600,0.23316259765625,-0.3928810954093933,-0.08449175953865051,0.10308973491191864
1772731747714190800,0.24319091796875,-0.37912246584892273,-0.05134022608399391,0.08921553194522858
1772731747724218600,0.253218505859375,-0.33996307849884033,0.014068872667849064,0.08312435448169708
1772731747734246700,0.26324658203125,-0.2701685428619385,0.04840276762843132,0.09453219920396805
1772731747744274700,0.273274658203125,-0.15118703246116638,0.05881119892001152,0.0934714674949646
1772731747754302700,0.283302734375,0.002081509679555893,0.024371527135372162,0.029755519703030586
1772731747764330800,0.293330810546875,0.15687161684036255,0.11023610085248947,-0.042391110211610794
1772731747774357800,0.303357666015625,0.2768087089061737,0.30595991015434265,-0.0814812183380127
1772731747784385800,0.3133857421875,0.38443076610565186,0.4996865391731262,-0.13137313723564148
1772731747794413800,0.323413818359375,0.5180419683456421,0.6690800189971924,-0.1615632325410843
1772731747804441600,0.333441650390625,0.605087399482727,0.8632063865661621,-0.12309493869543076
1772731747814470000,0.343469970703125,0.6206538081169128,0.994541347026825,-0.03283744305372238
1772731747824497700,0.35349755859375,0.5634259581565857,1.0182527303695679,0.059020042419433594
1772731747834525700,0.363525634765625,0.43977734446525574,0.9666785001754761,0.16300435364246368
1772731747844552700,0.373552734375,0.2562943398952484,0.8572521209716797,0.28307774662971497
1772731747854580700,0.383580810546875,0.054083362221717834,0.6914169192314148,0.3963181674480438
1772731747864608800,0.39360888671875,-0.10051659494638443,0.4704520106315613,0.4774380624294281
1772731747874636500,0.403636474609375,-0.1692577451467514,0.24070905148983002,0.5005764961242676
1772731747884664800,0.413664794921875,-0.16552451252937317,0.06298831850290298,0.4704095125198364
1772731747894692600,0.423692626953125,-0.13547103106975555,-0.052318722009658813,0.395843505859375
1772731747904721000,0.433720947265625,-0.10875952243804932,-0.12126849591732025,0.28187859058380127
1772731747914748700,0.443748779296875,-0.10272572189569473,-0.1386512815952301,0.12956827878952026
1772731747924775700,0.453775634765625,-0.12183656543493271,-0.09913849085569382,-0.03366564214229584
1772731747934803700,0.4638037109375,-0.15664255619049072,-0.03613519296050072,-0.17544645071029663
1772731747944831500,0.47383154296875,-0.18372903764247894,0.002978654345497489,-0.2550927996635437
1772731747954859800,0.48385986328125,-0.20420466363430023,0.011139697395265102,-0.2674963176250458
1772731747964887600,0.493887451171875,-0.20916107296943665,0.0063260337337851524,-0.22447535395622253
1772731747974915800,0.503915771484375,-0.21815893054008484,-0.010785490274429321,-0.13888873159885406
1772731747984943600,0.513943603515625,-0.23909084498882294,-0.04375675693154335,-0.0215168334543705
1772731747994971600,0.5239716796875,-0.27835988998413086,-0.07881710678339005,0.08472593873739243
1772731748004998700,0.53399853515625,-0.33544713258743286,-0.08580657839775085,0.1596292108297348
1772731748015026700,0.544026611328125,-0.38980066776275635,-0.06431195139884949,0.2013535350561142
1772731748025054700,0.5540546875,-0.4334975481033325,-0.019481630995869637,0.2246982753276825
1772731748035082800,0.564082763671875,-0.47124385833740234,0.016057206317782402,0.25443029403686523
1772731748045110800,0.57411083984375,-0.5093374252319336,0.01552936714142561,0.30188941955566406
1772731748055138600,0.584138671875,-0.552375078201294,-0.01250474900007248,0.36093083024024963
1772731748065166600,0.59416650390625,-0.593834400177002,-0.046474967151880264,0.43055838346481323
1772731748075193600,0.604193603515625,-0.5865179896354675,-0.09534790366888046,0.4553515315055847
1772731748085222000,0.614221923828125,-0.5432818531990051,-0.10520666092634201,0.43040889501571655
1772731748095249700,0.624249755859375,-0.5218875408172607,-0.09945952147245407,0.38837286829948425
1772731748105277700,0.634277587890625,-0.5089229941368103,-0.12001673132181168,0.32074108719825745
1772731748115305700,0.6443056640625,-0.49447694420814514,-0.16190172731876373,0.23384910821914673
1772731748125333800,0.654333740234375,-0.4792870879173279,-0.20505452156066895,0.16099488735198975
1772731748135361800,0.66436181640625,-0.4535134434700012,-0.247144415974617,0.09206203371286392
1772731748145389800,0.674389892578125,-0.41096144914627075,-0.276943564414978,0.014501465484499931
1772731748155416800,0.684416748046875,-0.36885547637939453,-0.29455938935279846,-0.05118262395262718
1772731748165444600,0.694444580078125,-0.32934534549713135,-0.32741880416870117,-0.09380704164505005
1772731748175472600,0.70447265625,-0.2972542941570282,-0.38545486330986023,-0.13475489616394043
1772731748185500700,0.714500732421875,-0.28403356671333313,-0.44655895233154297,-0.1714647114276886
1772731748195528700,0.72452880859375,-0.2853388786315918,-0.4920930564403534,-0.19559158384799957
1772731748205556700,0.734556640625,-0.2905504107475281,-0.4962475597858429,-0.20819313824176788
1772731748215584800,0.744584716796875,-0.2866915762424469,-0.46021148562431335,-0.21713320910930634
1772731748225612500,0.754612548828125,-0.2762085497379303,-0.3840453326702118,-0.21343621611595154
1772731748235639800,0.764639892578125,-0.2748488485813141,-0.2829769551753998,-0.18838617205619812
1772731748245667600,0.77466748046875,-0.28868424892425537,-0.17878183722496033,-0.1472693532705307
1772731748255696000,0.78469580078125,-0.3133130669593811,-0.07199302315711975,-0.09308773279190063
1772731748265723600,0.7947236328125,-0.3313663601875305,0.007543346844613552,-0.03484945744276047
1772731748275751700,0.804751708984375,-0.33532723784446716,0.08799652010202408,0.014544988982379436
1772731748285779700,0.81477978515625,-0.33136606216430664,0.14927798509597778,0.07377608865499496
1772731748295807500,0.824807373046875,-0.3077760636806488,0.17823931574821472,0.13458886742591858
1772731748305834800,0.834834716796875,-0.2720300555229187,0.17481794953346252,0.18625472486019135
1772731748315862500,0.844862548828125,-0.22756057977676392,0.1473139077425003,0.2326432317495346
1772731748325890800,0.854890869140625,-0.17646729946136475,0.08747614175081253,0.25452721118927
1772731748335918600,0.864918701171875,-0.1312188357114792,0.017193054780364037,0.2468791902065277
1772731748345947000,0.87494677734375,-0.10126093775033951,-0.05456209555268288,0.2125992476940155
1772731748355974700,0.884974609375,-0.08089256286621094,-0.10955329984426498,0.16805385053157806
1772731748366002700,0.895002685546875,-0.05757925286889076,-0.13097816705703735,0.12731681764125824
1772731748376030700,0.90503076171875,-0.020915398374199867,-0.1277877688407898,0.08772686868906021
1772731748386058800,0.915058837890625,0.006607837975025177,-0.12207181751728058,0.0640534982085228
1772731748396085800,0.925085693359375,0.01979496143758297,-0.11990044265985489,0.04369374364614487
1772731748406113500,0.935113525390625,0.014308316633105278,-0.10148228704929352,0.03834105655550957
1772731748416141800,0.945141845703125,0.007703080773353577,-0.07463712990283966,0.04137101024389267
1772731748426169600,0.955169677734375,0.005990402307361364,-0.037478577345609665,0.056857556104660034
1772731748436197600,0.96519775390625,0.015487234108150005,0.00751872593536973,0.08523167669773102
1772731748446225700,0.9752255859375,0.03731982782483101,0.04541737213730812,0.11025793105363846
1772731748456253700,0.985253662109375,0.056011542677879333,0.08171136677265167,0.13044430315494537
1772731748466280700,0.99528076171875,0.06733663380146027,0.10261904448270798,0.14297741651535034
1772731748476308700,1.005308837890625,0.06631459295749664,0.12228106707334518,0.14529486000537872
1772731748486336800,1.015336669921875,0.06303943693637848,0.14730679988861084,0.14449112117290497
1772731748496364800,1.02536474609375,0.07191457599401474,0.16748537123203278,0.148411363363266
1772731748506392800,1.035392822265625,0.11074239760637283,0.16267997026443481,0.15656091272830963
1772731748516420900,1.0454208984375,0.16959723830223083,0.12788142263889313,0.15238364040851593
1772731748526448600,1.05544873046875,0.22132275998592377,0.06481296569108963,0.13949286937713623
1772731748536477000,1.065476806640625,0.2470567673444748,-0.008826305158436298,0.11741917580366135
1772731748546503700,1.075503662109375,0.2553389370441437,-0.05906923860311508,0.07992053031921387
1772731748556531700,1.08553173828125,0.24982289969921112,-0.08636802434921265,0.0290172528475523
1772731748566559700,1.095559814453125,0.2345523238182068,-0.09077608585357666,-0.053981490433216095
1772731748576587800,1.105587890625,0.20393449068069458,-0.11758492141962051,-0.11822070181369781
1772731748586615800,1.11561572265625,0.1766011267900467,-0.1539575755596161,-0.16315463185310364
1772731748596643600,1.1256435546875,0.1698799729347229,-0.16659796237945557,-0.18504132330417633
1772731748606672000,1.135671875,0.18301734328269958,-0.17324307560920715,-0.19071811437606812
1772731748616699600,1.14569970703125,0.20509788393974304,-0.16999109089374542,-0.18165405094623566
1772731748626726700,1.1557265625,0.2218087613582611,-0.15259353816509247,-0.17246469855308533
1772731748636754700,1.165754638671875,0.24038386344909668,-0.13716955482959747,-0.169051855802536
1772731748646782700,1.17578271484375,0.2510402500629425,-0.13780871033668518,-0.17049822211265564
1772731748656810800,1.185810791015625,0.26033705472946167,-0.1446305215358734,-0.17685556411743164
1772731748666838500,1.195838623046875,0.25656360387802124,-0.15168337523937225,-0.19205448031425476
1772731748676866800,1.20586669921875,0.24687914550304413,-0.14865422248840332,-0.21093085408210754
1772731748686894600,1.21589453125,0.2376294583082199,-0.13533228635787964,-0.23246623575687408
1772731748696923000,1.2259228515625,0.22884830832481384,-0.10755669325590134,-0.2547254264354706
1772731748706949600,1.23594970703125,0.21220915019512177,-0.06887055188417435,-0.26969853043556213
1772731748716978000,1.24597802734375,0.18736091256141663,-0.030950266867876053,-0.2782522141933441
1772731748727005700,1.256005615234375,0.17374390363693237,0.009380645118653774,-0.28468480706214905
1772731748737033700,1.26603369140625,0.1700451821088791,0.05488893762230873,-0.2927258014678955
1772731748747061800,1.276061767578125,0.1723320484161377,0.0963040217757225,-0.3033781945705414
1772731748757089800,1.28608984375,0.17057114839553833,0.10545051842927933,-0.3056831955909729
1772731748767117800,1.296117919921875,0.16397076845169067,0.08604805916547775,-0.29630565643310547
1772731748777145900,1.306145751953125,0.13662193715572357,0.04944582283496857,-0.27219682931900024
1772731748787172900,1.3161728515625,0.09828173369169235,0.00677159707993269,-0.23495440185070038
1772731748797200600,1.32620068359375,0.0565064437687397,-0.023158131167292595,-0.1986895054578781
1772731748807229000,1.33622900390625,0.027467867359519005,-0.029316958039999008,-0.1616782248020172
1772731748817256700,1.346256591796875,0.013700646348297596,-0.011430662125349045,-0.1296570748090744
1772731748827284700,1.35628466796875,0.007423043716698885,0.012796381488442421,-0.0959281474351883
1772731748837312800,1.366312744140625,0.002189995488151908,0.043046995997428894,-0.06186985224485397
1772731748847340800,1.3763408203125,-0.005276975687593222,0.07185360789299011,-0.03171354904770851
1772731748857367800,1.386367919921875,-0.01507611945271492,0.0929211974143982,0.010571859776973724
1772731748867395600,1.3963955078125,-0.019544636830687523,0.10105875134468079,0.051554977893829346
1772731748877423900,1.406423828125,-0.028589755296707153,0.11072804033756256,0.0927165299654007
1772731748887451600,1.41645166015625,-0.054723888635635376,0.11792922765016556,0.13753940165042877
1772731748897479700,1.426479736328125,-0.09320742636919022,0.11318077147006989,0.19268634915351868
1772731748907507700,1.4365078125,-0.1185375452041626,0.09173966199159622,0.2340250015258789
1772731748917535700,1.44653564453125,-0.11214500665664673,0.06609244644641876,0.24447931349277496
1772731748927563800,1.456563720703125,-0.09814237058162689,0.047568827867507935,0.22766996920108795
1772731748937590800,1.4665908203125,-0.08065434545278549,0.032735470682382584,0.19185277819633484
1772731748947618800,1.476618896484375,-0.059332020580768585,0.03428196534514427,0.15298233926296234
1772731748957646800,1.486646728515625,-0.028482111170887947,0.04254170134663582,0.11550988256931305
1772731748967674600,1.496674560546875,0.01705075241625309,0.03795360401272774,0.07537151873111725
1772731748977703000,1.506702880859375,0.06169629469513893,0.015756303444504738,0.04270943999290466
1772731748987730700,1.516730712890625,0.09649608284235,-0.0340738371014595,0.020528770983219147
1772731748997759000,1.526759033203125,0.1318269520998001,-0.09457631409168243,0.00823851116001606
1772731749007786800,1.536786865234375,0.15847879648208618,-0.15448836982250214,-0.0033393152989447117
1772731749017813800,1.546813720703125,0.19137918949127197,-0.2061918079853058,-0.017497174441814423
1772731749027841800,1.556841796875,0.22682294249534607,-0.2371758222579956,-0.04099797084927559
1772731749037869600,1.56686962890625,0.26631325483322144,-0.2396366000175476,-0.06809616833925247
1772731749047897900,1.57689794921875,0.30396342277526855,-0.2141256481409073,-0.09981654584407806
1772731749057925600,1.586925537109375,0.3294384777545929,-0.17372751235961914,-0.1288137435913086
1772731749067954000,1.596953857421875,0.32201650738716125,-0.09144515544176102,-0.14230264723300934
1772731749077981700,1.606981689453125,0.3172520697116852,-0.04520377144217491,-0.15823926031589508
1772731749088008700,1.6170087890625,0.31805554032325745,0.00021217996254563332,-0.17425498366355896
1772731749098036700,1.62703662109375,0.3158646523952484,0.035467423498630524,-0.1839282363653183
1772731749108064800,1.637064697265625,0.3085353672504425,0.05089831352233887,-0.1915358155965805
1772731749118092800,1.6470927734375,0.2958025336265564,0.06503330916166306,-0.19754017889499664
1772731749128120600,1.65712060546875,0.2823439836502075,0.084530308842659,-0.19537822902202606
1772731749138148900,1.66714892578125,0.26744160056114197,0.09597333520650864,-0.1784420758485794
1772731749148176600,1.6771767578125,0.25238463282585144,0.10006661713123322,-0.14217248558998108
1772731749158204700,1.68720458984375,0.22982774674892426,0.0920446589589119,-0.09606864303350449
1772731749168231700,1.697231689453125,0.20404088497161865,0.07959944754838943,-0.04462356120347977
1772731749178260000,1.707260009765625,0.1743404120206833,0.06460913270711899,0.009752405807375908
1772731749188287700,1.717287841796875,0.14979299902915955,0.05078572779893875,0.05571004003286362
1772731749198315800,1.727315673828125,0.13120105862617493,0.03535144776105881,0.0940045565366745
1772731749208343800,1.73734375,0.12617194652557373,0.029252542182803154,0.10815019905567169
1772731749218371600,1.74737158203125,0.12520363926887512,0.04544468969106674,0.09768027812242508
1772731749228399900,1.75739990234375,0.12510377168655396,0.08367357403039932,0.06362191587686539
1772731749238427600,1.767427734375,0.13051986694335938,0.11035819351673126,0.025676624849438667
1772731749248455000,1.777454833984375,0.14149609208106995,0.13121475279331207,-0.01125316508114338
1772731749258482700,1.787482666015625,0.1543334573507309,0.1513926386833191,-0.04330975189805031
1772731749268510700,1.7975107421875,0.16145768761634827,0.1616109311580658,-0.08034473657608032
1772731749278538800,1.807538818359375,0.15751399099826813,0.1674116551876068,-0.10775820910930634
1772731749288566800,1.81756689453125,0.1418282389640808,0.15484394133090973,-0.12082820385694504
1772731749298594800,1.8275947265625,0.12484773993492126,0.11861552298069,-0.10569562762975693
1772731749308622800,1.837622802734375,0.10671747475862503,0.0804755911231041,-0.07963953167200089
1772731749318650600,1.847650634765625,0.08794071525335312,0.060182638466358185,-0.0555894710123539
1772731749328677600,1.857677734375,0.07143869996070862,0.062118224799633026,-0.024826230481266975
1772731749338705700,1.86770556640625,0.049471404403448105,0.0667957067489624,0.008290333673357964
1772731749348733700,1.877733642578125,0.02634025365114212,0.07968194782733917,0.032363444566726685
1772731749358761700,1.88776171875,0.009857960045337677,0.1021980419754982,0.04218548536300659
1772731749368789800,1.897789794921875,0.0013651393819600344,0.1158326268196106,0.04567395895719528
1772731749378817800,1.90781787109375,0.008931989781558514,0.11451821029186249,0.05013052746653557
1772731749388845600,1.917845458984375,0.017499113455414772,0.12121366709470749,0.048434630036354065
1772731749398873900,1.927873779296875,0.01851782575249672,0.12617264688014984,0.053620222955942154
1772731749408900900,1.93790087890625,0.014812036417424679,0.11011084914207458,0.06197775527834892
1772731749418929000,1.947928955078125,0.00824163481593132,0.09263700991868973,0.07508908212184906
1772731749428956700,1.957956787109375,0.0006439027492888272,0.09009342640638351,0.07467389106750488
1772731749438984700,1.967984619140625,-0.007024425081908703,0.09491200000047684,0.06970210373401642
1772731749449012700,1.9780126953125,-0.009198896586894989,0.11241775751113892,0.06656809896230698
1772731749459040800,1.988040771484375,0.0005254020798020065,0.11975397914648056,0.06741947680711746
1772731749469068800,1.99806884765625,0.014759466052055359,0.12044666707515717,0.07549791038036346
1772731749479096000,2.008095947265625,0.04036707058548927,0.10921595990657806,0.08422701805830002
1772731749489124000,2.0181240234375,0.06426122039556503,0.09786637127399445,0.08834000676870346
1772731749499152100,2.028152099609375,0.09157583117485046,0.09520954638719559,0.07915008068084717
1772731749509180200,2.03818017578125,0.12835834920406342,0.0875212699174881,0.05775531008839607
1772731749519208200,2.048208251953125,0.155067577958107,0.07271655648946762,0.0399085208773613
1772731749529236000,2.058236083984375,0.17555634677410126,0.05797276645898819,0.026955967769026756
1772731749539264000,2.068263916015625,0.19541405141353607,0.04428299516439438,0.019705595448613167
1772731749549292000,2.0782919921875,0.20536522567272186,0.03248225897550583,0.0237599927932024
1772731749559319000,2.088319091796875,0.21154846251010895,0.024034930393099785,0.02759132720530033
1772731749569347000,2.09834716796875,0.21631552278995514,0.009989684447646141,0.027991067618131638
1772731749579375000,2.108375,0.2213653028011322,-0.009201639331877232,0.030242349952459335
1772731749589403100,2.118403076171875,0.2158357948064804,-0.019256137311458588,0.022771650925278664
1772731749599431000,2.128430908203125,0.20662854611873627,-0.018454216420650482,0.01831587217748165
1772731749609459200,2.138459228515625,0.18958218395709991,-0.016949264332652092,0.013539494015276432
1772731749619487000,2.148487060546875,0.17515653371810913,-0.02258375659584999,0.01919742114841938
1772731749629515300,2.158515380859375,0.16130118072032928,-0.0311167910695076,0.030005594715476036
1772731749639542000,2.1685419921875,0.14559391140937805,-0.038524605333805084,0.046549342572689056
1772731749649570000,2.178570068359375,0.12438955157995224,-0.03781993314623833,0.06902322918176651
1772731749659598000,2.18859814453125,0.10648971050977707,-0.04435931518673897,0.08756658434867859
1772731749669626000,2.198626220703125,0.09643174707889557,-0.05560771003365517,0.09650734812021255
1772731749679654100,2.208654052734375,0.08824899047613144,-0.06610742956399918,0.09779001027345657
1772731749689682000,2.218681884765625,0.08249496668577194,-0.07220819592475891,0.08464144915342331
1772731749699710200,2.228710205078125,0.07692907750606537,-0.08178488165140152,0.07418210804462433
1772731749709738000,2.238738037109375,0.07695331424474716,-0.10710728168487549,0.06862089782953262
1772731749719765200,2.24876513671875,0.07741811871528625,-0.12589915096759796,0.06269387900829315
1772731749729793000,2.25879296875,0.07971509546041489,-0.1380423754453659,0.05678219720721245
1772731749739821300,2.2688212890625,0.08237460255622864,-0.13970215618610382,0.04713352397084236
1772731749749849000,2.27884912109375,0.08719971776008606,-0.14637631177902222,0.03382544219493866
1772731749759876900,2.288876953125,0.08950194716453552,-0.13515125215053558,0.013582796789705753
1772731749769905200,2.2989052734375,0.08546272665262222,-0.11864550411701202,-0.014221403747797012
1772731749779933000,2.308932861328125,0.08214277774095535,-0.11120347678661346,-0.033534806221723557
1772731749789960200,2.318960205078125,0.08670556545257568,-0.1231197938323021,-0.04430808871984482
1772731749799988000,2.328988037109375,0.09449995309114456,-0.1482207030057907,-0.04489805921912193
1772731749810016300,2.339016357421875,0.0944935604929924,-0.16884687542915344,-0.03800766170024872
1772731749820044000,2.3490439453125,0.07972965389490128,-0.17619766294956207,-0.03189452737569809
1772731749830072000,2.359072021484375,0.06719256192445755,-0.17187082767486572,-0.03081514686346054
1772731749840100000,2.36910009765625,0.05402039363980293,-0.14979158341884613,-0.03464675322175026
1772731749850128100,2.379128173828125,0.03759987652301788,-0.117066390812397,-0.03959011286497116
1772731749860156200,2.38915625,0.021580344066023827,-0.07948388904333115,-0.043432511389255524
1772731749870183000,2.399182861328125,-0.004387074615806341,-0.04448515549302101,-0.04851382225751877
1772731749880211200,2.409211181640625,-0.05355397239327431,-0.015589814633131027,-0.04797884076833725
1772731749890239000,2.419239013671875,-0.10856875032186508,0.0038155745714902878,-0.04022451490163803
1772731749900267000,2.42926708984375,-0.16019876301288605,0.01695743389427662,-0.019662199541926384
1772731749910295000,2.439294921875,-0.20681899785995483,0.042269982397556305,0.002376257674768567
1772731749920323000,2.449322998046875,-0.24079924821853638,0.07468442618846893,0.008948828093707561
1772731749930351000,2.45935107421875,-0.2738048732280731,0.10897182673215866,0.009882000274956226
1772731749940379100,2.469379150390625,-0.2963210940361023,0.14368237555027008,0.00710202706977725
1772731749950406100,2.47940625,-0.30536386370658875,0.17321337759494781,0.005602667573839426
1772731749960434200,2.48943408203125,-0.3037794232368469,0.19313374161720276,0.013965676538646221
1772731749970462200,2.499462158203125,-0.29366740584373474,0.19408263266086578,0.030139854177832603
1772731749980490000,2.509489990234375,-0.27354204654693604,0.17101119458675385,0.05169696360826492
1772731749990518000,2.51951806640625,-0.2462204247713089,0.14049695432186127,0.0688629001379013
1772731750000546000,2.529546142578125,-0.21345524489879608,0.11168795824050903,0.07078327238559723
1772731750010574000,2.539573974609375,-0.18714188039302826,0.09176725149154663,0.06832064688205719
1772731750020602000,2.54960205078125,-0.1529150754213333,0.0924014151096344,0.05180836096405983
1772731750030629000,2.559629150390625,-0.11668943613767624,0.08999285101890564,0.03471459448337555
1772731750040657200,2.5696572265625,-0.09306146949529648,0.07999900728464127,0.02384532056748867
1772731750050685200,2.579685302734375,-0.07967562228441238,0.06621821224689484,0.02198696695268154
1772731750060713000,2.589712890625,-0.06996162235736847,0.06330759078264236,0.020353201776742935
1772731750070741200,2.5997412109375,-0.049903757870197296,0.06915722042322159,-0.0012093479745090008
1772731750080769000,2.60976904296875,-0.026746932417154312,0.06535413861274719,-0.010625566355884075
1772731750090797300,2.61979736328125,0.005449618678539991,0.034010596573352814,0.0004976580385118723
1772731750100825000,2.6298251953125,0.027749033644795418,-0.009390689432621002,0.020427728071808815
1772731750110852000,2.63985205078125,0.03462132066488266,-0.03674348443746567,0.028605762869119644
1772731750120880000,2.649880126953125,0.03358966484665871,-0.05591104179620743,0.028134947642683983
1772731750130908000,2.659907958984375,0.038757793605327606,-0.06706276535987854,0.016531288623809814
1772731750140936200,2.669936279296875,0.056768402457237244,-0.07777482271194458,0.00860546063631773
1772731750150964000,2.6799638671875,0.0816793441772461,-0.07162957638502121,0.003605908015742898
1772731750160992300,2.6899921875,0.11213919520378113,-0.05443025752902031,-0.009453590959310532
1772731750171020000,2.70002001953125,0.13983793556690216,-0.03083758056163788,-0.021997345611453056
1772731750181048000,2.710048095703125,0.16016939282417297,-0.020802069455385208,-0.03142108768224716
1772731750191075000,2.720074951171875,0.16091454029083252,-0.02597472444176674,-0.029933713376522064
1772731750201102800,2.730102783203125,0.15265235304832458,-0.045382775366306305,-0.024993283674120903
1772731750211131100,2.740131103515625,0.13636259734630585,-0.0587257482111454,-0.010217533446848392
1772731750221159000,2.750158935546875,0.12470238655805588,-0.07969792932271957,0.008815392851829529
1772731750231187200,2.760187255859375,0.10797560214996338,-0.07952242344617844,0.02349580079317093
1772731750241215000,2.770215087890625,0.07933328300714493,-0.07314617186784744,0.030923962593078613
1772731750251243000,2.780242919921875,0.05013970658183098,-0.059499338269233704,0.03945326805114746
1772731750261271000,2.79027099609375,0.030243977904319763,-0.04786558821797371,0.05044969543814659
1772731750271298000,2.800298095703125,0.012431159615516663,-0.047609392553567886,0.060937490314245224
1772731750281326000,2.810326171875,0.003251840127632022,-0.045529432594776154,0.06774045526981354
1772731750291354000,2.82035400390625,-0.007720650173723698,-0.046255674213171005,0.06636333465576172
1772731750301382100,2.830382080078125,-0.020173314958810806,-0.044193994253873825,0.05737866833806038
1772731750311410200,2.84041015625,-0.030835546553134918,-0.03797977417707443,0.0484008826315403
1772731750321438000,2.85043798828125,-0.03246366232633591,-0.030474256724119186,0.03927518427371979
1772731750331466200,2.86046630859375,-0.021329520270228386,-0.015115007758140564,0.022151853889226913
1772731750341494000,2.870493896484375,-0.0041519287042319775,-0.003335348330438137,0.019511140882968903
1772731750351521000,2.88052099609375,0.01176099106669426,0.0052874344401061535,0.007839836180210114
1772731750361549000,2.890549072265625,0.02037804201245308,0.012480966746807098,0.00023502888507209718
1772731750371577000,2.9005771484375,0.016270382329821587,0.002096503973007202,-0.000162048454512842
1772731750381605000,2.910605224609375,-0.015485085546970367,-0.027219537645578384,0.005902160424739122
1772731750391633200,2.920633056640625,-0.05117703601717949,-0.048882223665714264,0.01898813433945179
1772731750401661200,2.9306611328125,-0.0701105147600174,-0.05266071483492851,0.023214038461446762
1772731750411689000,2.94068896484375,-0.06862340867519379,-0.04098701477050781,0.023717908188700676
1772731750421717200,2.95071728515625,-0.057045046240091324,-0.04967983812093735,0.027312643826007843
1772731750431744000,2.960743896484375,-0.059268519282341,-0.06270270049571991,0.03553728386759758
1772731750441772000,2.97077197265625,-0.07103346288204193,-0.07780424505472183,0.04520368203520775
1772731750451800000,2.980800048828125,-0.08857357501983643,-0.08493884652853012,0.0426718145608902
1772731750461828000,2.990828125,-0.09057953208684921,-0.05686676502227783,0.018772948533296585
1772731750471856000,3.000856201171875,-0.0706484317779541,-0.025351984426379204,-0.015867851674556732
1772731750481884000,3.0108837890625,-0.05645251274108887,-0.019391698762774467,-0.020436031743884087
1772731750491912200,3.020912109375,-0.04370076581835747,-0.03534829616546631,-0.0010255828965455294
1772731750501940000,3.03093994140625,-0.04777371883392334,-0.04337690398097038,0.016671642661094666
1772731750511967200,3.04096728515625,-0.06108313426375389,-0.03168429434299469,0.01438105758279562
1772731750521995000,3.0509951171875,-0.06386353820562363,-0.010535101406276226,-0.012916001491248608
1772731750532023300,3.061023193359375,-0.060414742678403854,-0.012075207196176052,-0.031770914793014526
1772731750542051000,3.071051025390625,-0.07093722373247147,-0.03506045043468475,-0.023016763851046562
1772731750552078800,3.081078857421875,-0.08546023815870285,-0.0511091910302639,-0.0020891118329018354
1772731750562107100,3.091107177734375,-0.09701549261808395,-0.04724098742008209,0.01748999021947384
1772731750572135000,3.101135009765625,-0.1061227023601532,-0.032215964049100876,0.0330875962972641
1772731750582163200,3.1111630859375,-0.12014876306056976,-0.03462449833750725,0.0454498827457428
1772731750592190000,3.12118994140625,-0.13564783334732056,-0.05303972586989403,0.0583246685564518
1772731750602218200,3.13121826171875,-0.15127025544643402,-0.050747983157634735,0.06166091933846474
1772731750612246000,3.14124609375,-0.16458739340305328,-0.03327897563576698,0.053700197488069534
1772731750622274000,3.151274169921875,-0.17146988213062286,-0.021464979276061058,0.05844845995306969
1772731750632302000,3.161302001953125,-0.1729830950498581,-0.01936347968876362,0.06137234345078468
1772731750642330000,3.171330078125,-0.17257560789585114,-0.013709304854273796,0.06615880876779556
1772731750652358100,3.181358154296875,-0.17930194735527039,-0.007189088501036167,0.07002198696136475
1772731750662386200,3.19138623046875,-0.18994005024433136,-0.004273106809705496,0.0644075870513916
1772731750672413200,3.2014130859375,-0.19782567024230957,-0.0086750453338027,0.04932557791471481
1772731750682441000,3.21144091796875,-0.2034469097852707,-0.019948523491621017,0.04255007579922676
1772731750692469200,3.22146923828125,-0.20395290851593018,-0.02561972662806511,0.04466435685753822
1772731750702497000,3.2314970703125,-0.20475925505161285,-0.022854557260870934,0.043137334287166595
1772731750712525000,3.241525146484375,-0.20807117223739624,-0.023903310298919678,0.04979976639151573
1772731750722553000,3.251552978515625,-0.21144318580627441,-0.025051338598132133,0.06002452224493027
1772731750732581000,3.2615810546875,-0.21228687465190887,-0.014922271482646465,0.059478309005498886
1772731750742609200,3.271609130859375,-0.21961472928524017,-0.017812548205256462,0.06732840090990067
1772731750752636200,3.28163623046875,-0.2234952300786972,-0.034435998648405075,0.08326955139636993
1772731750762664200,3.291664306640625,-0.2246352881193161,-0.04891319200396538,0.09557944536209106
1772731750772692000,3.30169189453125,-0.22505046427249908,-0.06589297950267792,0.10527654737234116
1772731750782720000,3.311719970703125,-0.23774504661560059,-0.08726287633180618,0.11957083642482758
1772731750792748000,3.321748046875,-0.24204285442829132,-0.10643337666988373,0.13328878581523895
1772731750802776000,3.331776123046875,-0.2423582375049591,-0.11435207724571228,0.13723096251487732
1772731750812804000,3.34180419921875,-0.23602178692817688,-0.12160013616085052,0.13263647258281708
1772731750822832000,3.35183203125,-0.23059725761413574,-0.14391613006591797,0.13660359382629395
1772731750832859100,3.361859130859375,-0.2282869666814804,-0.1604013592004776,0.13271644711494446
1772731750842887200,3.37188720703125,-0.237770214676857,-0.15370310842990875,0.11521171778440475
1772731750852915000,3.3819150390625,-0.23950713872909546,-0.1418571025133133,0.08207666873931885
1772731750862943200,3.391943115234375,-0.23450233042240143,-0.11761930584907532,0.037277817726135254
1772731750872971000,3.401970947265625,-0.21879979968070984,-0.09739525616168976,0.0035299761220812798
1772731750882999300,3.411999267578125,-0.20807094871997833,-0.09381329268217087,-0.018876034766435623
1772731750893027000,3.422027099609375,-0.20494866371154785,-0.08675511926412582,-0.02932973951101303
1772731750903055000,3.43205517578125,-0.21307529509067535,-0.08944690972566605,-0.02918989211320877
1772731750913082000,3.44208203125,-0.23365461826324463,-0.10195710510015488,-0.018069863319396973
1772731750923110000,3.45210986328125,-0.264841228723526,-0.1112552285194397,-0.0035336059518158436
1772731750933138200,3.46213818359375,-0.29552003741264343,-0.11313355714082718,0.017958903685212135
1772731750943166000,3.472166015625,-0.3220597505569458,-0.11639364808797836,0.03395351395010948
1772731750953194200,3.4821943359375,-0.33887308835983276,-0.11750418692827225,0.04340560361742973
1772731750963222000,3.492221923828125,-0.3536822497844696,-0.10417327284812927,0.0355725958943367
1772731750973250000,3.50225,-0.3666457235813141,-0.08747578412294388,0.01829454116523266
1772731750983278000,3.512278076171875,-0.36969149112701416,-0.07294739037752151,0.004886745475232601
1772731750993305000,3.52230517578125,-0.36015045642852783,-0.0645802691578865,-0.014214511029422283
1772731751003333000,3.5323330078125,-0.3462117612361908,-0.06996519863605499,-0.03404943272471428
1772731751013361000,3.54236083984375,-0.34019967913627625,-0.0794614925980568,-0.055031146854162216
1772731751023389200,3.55238916015625,-0.33276405930519104,-0.08792845159769058,-0.08094430714845657
1772731751033417000,3.5624169921875,-0.330901175737381,-0.10540677607059479,-0.10086794942617416
1772731751043445000,3.572445068359375,-0.3251473307609558,-0.11614648252725601,-0.11433263123035431
1772731751053473000,3.58247314453125,-0.3241928517818451,-0.12340812385082245,-0.11660005152225494
1772731751063501000,3.5925009765625,-0.32045596837997437,-0.12435928732156754,-0.11707036942243576
1772731751073529000,3.602529052734375,-0.3146044611930847,-0.1267731636762619,-0.120097316801548
1772731751083556000,3.61255615234375,-0.310332715511322,-0.14769813418388367,-0.11294063925743103
1772731751093584100,3.622584228515625,-0.31939733028411865,-0.18065236508846283,-0.10200090706348419
1772731751103612200,3.632612060546875,-0.33290091156959534,-0.19960848987102509,-0.0931336060166359
1772731751113640200,3.64264013671875,-0.3397952914237976,-0.20399178564548492,-0.09329233318567276
1772731751123668200,3.652668212890625,-0.3407658338546753,-0.20303188264369965,-0.09557408094406128
1772731751133696000,3.662696044921875,-0.34709909558296204,-0.2007777839899063,-0.09361185878515244
1772731751143724000,3.67272412109375,-0.3636804223060608,-0.19051846861839294,-0.08538512885570526
1772731751153752000,3.682751953125,-0.3894142806529999,-0.17686285078525543,-0.07355163991451263
1772731751163779000,3.692779052734375,-0.4132184684276581,-0.16396932303905487,-0.06766808032989502
1772731751173807000,3.70280712890625,-0.42954179644584656,-0.15261121094226837,-0.056085191667079926
1772731751183835100,3.712835205078125,-0.43120890855789185,-0.15090812742710114,-0.04191610962152481
1772731751193863200,3.72286328125,-0.42353031039237976,-0.15001904964447021,-0.02177351526916027
1772731751203891000,3.732890869140625,-0.4182869493961334,-0.14302700757980347,-0.012643517926335335
1772731751213919200,3.742919189453125,-0.4177092909812927,-0.13023237884044647,-0.01186081487685442
1772731751223947000,3.752947021484375,-0.4199455976486206,-0.12554322183132172,-0.01215402316302061
1772731751233975300,3.762975341796875,-0.42782482504844666,-0.11149318516254425,-0.00552807841449976
1772731751244002000,3.773001953125,-0.4245448112487793,-0.09031502902507782,0.006561564281582832
1772731751254030000,3.783030029296875,-0.4181252717971802,-0.07909726351499557,0.024887042120099068
1772731751264058000,3.79305810546875,-0.40582239627838135,-0.08304135501384735,0.04905565083026886
1772731751274086000,3.8030859375,-0.39339157938957214,-0.09202446043491364,0.08133076876401901
1772731751284114200,3.8131142578125,-0.3814364969730377,-0.10355163365602493,0.11479569971561432
1772731751294142000,3.823141845703125,-0.3750198781490326,-0.11760033667087555,0.14802634716033936
1772731751304170200,3.833170166015625,-0.36710473895072937,-0.13346414268016815,0.1735418438911438
1772731751314198000,3.843197998046875,-0.3588870167732239,-0.13546869158744812,0.19213922321796417
1772731751324225300,3.853225341796875,-0.34713950753211975,-0.13620434701442719,0.20590819418430328
1772731751334253000,3.863253173828125,-0.32692185044288635,-0.13882756233215332,0.20795723795890808
1772731751344281000,3.873281005859375,-0.3033025860786438,-0.1336330771446228,0.20210842788219452
1772731751354309000,3.88330908203125,-0.2715291976928711,-0.1232459619641304,0.18460001051425934
1772731751364337000,3.8933369140625,-0.23429034650325775,-0.12197224050760269,0.17104999721050262
1772731751374365200,3.903365234375,-0.19704577326774597,-0.12756967544555664,0.1675625890493393
1772731751384393000,3.91339306640625,-0.16536223888397217,-0.130425825715065,0.16495463252067566
1772731751394421000,3.9234208984375,-0.13478010892868042,-0.12838397920131683,0.16100303828716278
1772731751404449000,3.933448974609375,-0.10548458993434906,-0.1253124624490738,0.15881270170211792
1772731751414476000,3.94347607421875,-0.07767000049352646,-0.11748623102903366,0.14676162600517273
1772731751424504000,3.953504150390625,-0.04855886101722717,-0.10604628920555115,0.12791427969932556
1772731751434532000,3.963531982421875,-0.022280652076005936,-0.09143272042274475,0.1034020185470581
1772731751444560100,3.97356005859375,0.0043058875016868114,-0.08772537112236023,0.08069517463445663
1772731751454588200,3.983588134765625,0.0234990231692791,-0.09068787097930908,0.057491324841976166
1772731751464616000,3.993615966796875,0.04151111841201782,-0.0878991186618805,0.04110618308186531
1772731751474643200,4.003643310546875,0.05258933827280998,-0.08692333102226257,0.029048187658190727
1772731751484671200,4.013671142578125,0.06072348356246948,-0.07409311830997467,0.016374364495277405
1772731751494698200,4.0236982421875,0.06745781749486923,-0.06184922903776169,0.0027461708523333073
1772731751504726300,4.033726318359375,0.08173399418592453,-0.04967430979013443,-0.006072657648473978
1772731751514754300,4.04375439453125,0.08267169445753098,-0.04069332778453827,-0.00908069871366024
1772731751524782000,4.053781982421875,0.07984354346990585,-0.028509031981229782,-0.013445766642689705
1772731751534810400,4.063810302734375,0.07486982643604279,-0.01405472494661808,-0.015990151092410088
1772731751544838100,4.073838134765625,0.06725920736789703,0.0011565396562218666,-0.02217339724302292
1772731751554866400,4.083866455078125,0.07098283618688583,0.019360044971108437,-0.03597789257764816
1772731751564894200,4.093894287109375,0.07891985774040222,0.04531893879175186,-0.06069895252585411
1772731751574922200,4.103922119140625,0.0917014330625534,0.06987036019563675,-0.08846453577280045
1772731751584949200,4.11394921875,0.10122033208608627,0.07765395939350128,-0.10992611199617386
1772731751594977000,4.12397705078125,0.10855201631784439,0.08092698454856873,-0.12214230000972748
1772731751605005300,4.13400537109375,0.1166774332523346,0.08039465546607971,-0.12901996076107025
1772731751615033000,4.144033203125,0.12369433045387268,0.07941807806491852,-0.12950439751148224
1772731751625061400,4.154061279296875,0.13136187195777893,0.07388244569301605,-0.11964061856269836
1772731751635089200,4.164089111328125,0.13352596759796143,0.0691356286406517,-0.1070164367556572
1772731751645117200,4.1741171875,0.13070040941238403,0.06717811524868011,-0.09446985274553299
1772731751655145200,4.184145263671875,0.12583693861961365,0.06113193929195404,-0.09084289520978928
1772731751665172200,4.194172119140625,0.12446022033691406,0.04852086678147316,-0.08726716041564941
1772731751675200300,4.2042001953125,0.12373983860015869,0.053908973932266235,-0.08753401041030884
1772731751685228300,4.214228271484375,0.12117689102888107,0.059790097177028656,-0.08532588183879852
1772731751695256300,4.22425634765625,0.12694051861763,0.06467193365097046,-0.08442413806915283
1772731751705284400,4.234284423828125,0.13267770409584045,0.07289333641529083,-0.08248922228813171
1772731751715312000,4.24431201171875,0.13885968923568726,0.07700072973966599,-0.08535104990005493
1772731751725340200,4.254340087890625,0.13692669570446014,0.07546725869178772,-0.07951578497886658
1772731751735368200,4.2643681640625,0.13342224061489105,0.07201047241687775,-0.078316830098629
1772731751745395200,4.274395263671875,0.13011543452739716,0.07236428558826447,-0.07776129990816116
1772731751755423200,4.28442333984375,0.1265084445476532,0.0759694054722786,-0.06890202313661575
1772731751765451300,4.294451171875,0.11907187104225159,0.06786835938692093,-0.05670931562781334
1772731751775479300,4.304479248046875,0.11616290360689163,0.06577883660793304,-0.038340695202350616
1772731751785507300,4.31450732421875,0.1123276948928833,0.062295280396938324,-0.026263760402798653
1772731751795535400,4.324535400390625,0.10870339721441269,0.05633379891514778,-0.017808489501476288
1772731751805563100,4.334563232421875,0.09997658431529999,0.047818925231695175,-0.011003159917891026
1772731751815591400,4.34459130859375,0.08621416985988617,0.04155117645859718,0.003986441995948553
1772731751825619200,4.354619140625,0.07579264789819717,0.0470987893640995,0.02200888842344284
1772731751835646200,4.364646240234375,0.06884712725877762,0.05612291395664215,0.04528651386499405
1772731751845674200,4.37467431640625,0.0671238973736763,0.0710582360625267,0.07472658902406693
1772731751855702300,4.384702392578125,0.06819342076778412,0.08653146773576736,0.10340297222137451
1772731751865730300,4.394730224609375,0.07386737316846848,0.09479691088199615,0.13504734635353088
1772731751875758000,4.404758056640625,0.07734119892120361,0.10259278118610382,0.15990608930587769
1772731751885786400,4.414786376953125,0.07384703308343887,0.1010303869843483,0.19508305191993713
1772731751895814100,4.424814208984375,0.06927278637886047,0.08593212813138962,0.22811636328697205
1772731751905842400,4.434842529296875,0.06185223162174225,0.07979290187358856,0.2583930194377899
1772731751915870200,4.4448701171875,0.057984787970781326,0.07558377832174301,0.2818773090839386
1772731751925897500,4.4548974609375,0.057550858706235886,0.0721232146024704,0.2965277135372162
1772731751935925200,4.46492529296875,0.061222825199365616,0.07305745035409927,0.30623918771743774
1772731751945953000,4.474953125,0.07260178029537201,0.0703197568655014,0.31080111861228943
1772731751955981300,4.484981201171875,0.08536950498819351,0.06829176098108292,0.30881547927856445
1772731751966009000,4.495009033203125,0.09587457031011581,0.06865247339010239,0.29778411984443665
1772731751976037400,4.505037353515625,0.11040531098842621,0.06980535387992859,0.2841285169124603
1772731751986065200,4.515065185546875,0.12951205670833588,0.06227681413292885,0.26614776253700256
1772731751996092400,4.525092529296875,0.147696390748024,0.0683663934469223,0.24885213375091553
1772731752006120200,4.5351201171875,0.16702599823474884,0.08363916724920273,0.22067174315452576
1772731752016148200,4.545148193359375,0.18234103918075562,0.10426588356494904,0.1994820386171341
1772731752026176300,4.55517626953125,0.1927725374698639,0.12813398241996765,0.17735454440116882
1772731752036204300,4.565204345703125,0.20514078438282013,0.14851702749729156,0.14955779910087585
1772731752046232300,4.575232421875,0.22778868675231934,0.1410699337720871,0.11739657819271088
1772731752056260400,4.58526025390625,0.2535529136657715,0.11548015475273132,0.07644888013601303
1772731752066288000,4.5952880859375,0.2740465998649597,0.09554100036621094,0.02693367563188076
1772731752076316400,4.60531640625,0.2817037105560303,0.09041175246238708,-0.02108311839401722
1772731752086343200,4.61534326171875,0.28574270009994507,0.09625715017318726,-0.057589832693338394
1772731752096371200,4.62537109375,0.2833080291748047,0.11188111454248428,-0.0784759372472763
1772731752106399200,4.635399169921875,0.27861082553863525,0.1387876272201538,-0.08784478157758713
1772731752116427300,4.64542724609375,0.28049182891845703,0.16326233744621277,-0.0940299704670906
1772731752126455300,4.655455322265625,0.2816804349422455,0.171271413564682,-0.09242675453424454
1772731752136483000,4.665483154296875,0.2778231203556061,0.16614535450935364,-0.09201130270957947
1772731752146511400,4.675511474609375,0.26399263739585876,0.16149818897247314,-0.09216241538524628
1772731752156539100,4.6855390625,0.2396840751171112,0.1568179577589035,-0.0898558497428894
1772731752166567400,4.6955673828125,0.20971515774726868,0.15280932188034058,-0.08773159980773926
1772731752176594200,4.70559423828125,0.1859043687582016,0.14695408940315247,-0.07974717766046524
1772731752186622200,4.715622314453125,0.17239691317081451,0.12865875661373138,-0.0630311593413353
1772731752196650200,4.725650146484375,0.15965048968791962,0.10457552224397659,-0.045098502188920975
1772731752206678300,4.73567822265625,0.15230193734169006,0.077839195728302,-0.036518752574920654
1772731752216706300,4.745706298828125,0.14114461839199066,0.040312591940164566,-0.034840695559978485
1772731752226734000,4.755734130859375,0.1287984699010849,0.003246183041483164,-0.02765521965920925
1772731752236762400,4.765762451171875,0.11399262398481369,-0.02213374152779579,-0.029314901679754257
1772731752246790100,4.7757900390625,0.10665439069271088,-0.03743235766887665,-0.03974791616201401
1772731752256817400,4.7858173828125,0.10927946865558624,-0.05033643916249275,-0.05518466234207153
1772731752266845200,4.79584521484375,0.10524940490722656,-0.06566953659057617,-0.0761646181344986
1772731752276873500,4.80587353515625,0.10423580557107925,-0.06911913305521011,-0.10257438570261002
1772731752286901200,4.8159013671875,0.10081303119659424,-0.06612841784954071,-0.13014821708202362
1772731752296929300,4.82592919921875,0.09698446840047836,-0.0557175911962986,-0.1623476892709732
1772731752306957300,4.835957275390625,0.0905129685997963,-0.03842078521847725,-0.18754567205905914
1772731752316985000,4.845985107421875,0.08500474691390991,-0.020834067836403847,-0.2029147744178772
1772731752327013400,4.856013427734375,0.08255453407764435,-0.0014035573694854975,-0.20686468482017517
1772731752337041200,4.866041259765625,0.07600795477628708,0.015391668304800987,-0.20771636068820953
1772731752347068400,4.876068359375,0.06538084149360657,0.02269590273499489,-0.20080436766147614
1772731752357096200,4.88609619140625,0.053155072033405304,0.02029319852590561,-0.19090832769870758
1772731752367124200,4.896124267578125,0.041808899492025375,0.011864416301250458,-0.18320724368095398
1772731752377152300,4.90615234375,0.027786023914813995,-0.00010036793537437916,-0.17726893723011017
1772731752387180300,4.91618017578125,0.01302583422511816,-0.005352081265300512,-0.17226436734199524
1772731752397208300,4.926208251953125,0.0041575077921152115,0.00033776252530515194,-0.17163746058940887
1772731752407236400,4.936236328125,-0.004740581382066011,0.012392329052090645,-0.16229596734046936
1772731752417264000,4.94626416015625,-0.010330024175345898,0.022515803575515747,-0.14816230535507202
1772731752427292400,4.95629248046875,-0.018392687663435936,0.040029458701610565,-0.1326390951871872
1772731752437319200,4.966319091796875,-0.022066518664360046,0.052243247628211975,-0.11110372096300125
1772731752447347200,4.97634716796875,-0.023897038772702217,0.05046018958091736,-0.09654779732227325
1772731752457375200,4.986375244140625,-0.023291168734431267,0.034074559807777405,-0.08604748547077179
1772731752467403300,4.9964033203125,-0.023684155195951462,0.024760205298662186,-0.08696053177118301
1772731752477432000,5.00643212890625,-0.027910592034459114,0.04556428641080856,-0.10493820160627365
1772731752487460000,5.016460205078125,-0.019945165142416954,0.06864038109779358,-0.11374007165431976
1772731752497488100,5.026488037109375,-0.01495333667844534,0.08783058822154999,-0.11358027905225754
1772731752507516200,5.03651611328125,-0.007886105217039585,0.10058686882257462,-0.1099594458937645
1772731752517543200,5.046543212890625,-0.004019728396087885,0.09658626466989517,-0.10332391411066055
1772731752527571000,5.056571044921875,0.002830390352755785,0.09335928410291672,-0.10234566032886505
1772731752537599000,5.066598876953125,0.012211641296744347,0.08497698605060577,-0.11049146950244904
1772731752547627000,5.076626953125,0.01957610435783863,0.07522997260093689,-0.11450918763875961
1772731752557655000,5.086655029296875,0.02517779730260372,0.06226995959877968,-0.11989356577396393
1772731752567683000,5.09668310546875,0.03232230246067047,0.0564926452934742,-0.11814387142658234
1772731752577711000,5.106711181640625,0.03701399266719818,0.04911275953054428,-0.10647337138652802
1772731752587739000,5.11673876953125,0.036710575222969055,0.048781171441078186,-0.09330827742815018
1772731752597767200,5.12676708984375,0.03841046988964081,0.04862111434340477,-0.07627123594284058
1772731752607794000,5.1367939453125,0.03958183526992798,0.04120572283864021,-0.05632079020142555
1772731752617822200,5.146822265625,0.044431451708078384,0.04078547656536102,-0.04705112427473068
1772731752627850000,5.15685009765625,0.04854743927717209,0.035302724689245224,-0.04032748565077782
1772731752637878300,5.166878173828125,0.045519158244132996,0.023227417841553688,-0.03776099905371666
1772731752647906000,5.176906005859375,0.045968055725097656,0.0090894540771842,-0.03912154957652092
1772731752657934000,5.18693408203125,0.04667166247963905,0.008451627567410469,-0.03844723477959633
1772731752667962000,5.196962158203125,0.05565657094120979,0.015562498942017555,-0.04340676963329315
1772731752677990100,5.206990234375,0.06571079790592194,0.01848611608147621,-0.04291674867272377
1772731752688018200,5.21701806640625,0.07137764245271683,0.013143230229616165,-0.0354752317070961
1772731752698045000,5.227044921875,0.07532285153865814,0.00962626002728939,-0.031423233449459076
1772731752708073200,5.2370732421875,0.07987502962350845,0.02015814185142517,-0.03491944074630737
1772731752718101000,5.24710107421875,0.08124629408121109,0.02495848946273327,-0.0441475585103035
1772731752728129000,5.25712890625,0.081513911485672,0.025015996769070625,-0.04613584280014038
1772731752738157000,5.267156982421875,0.08636113256216049,0.024481501430273056,-0.04360876977443695
1772731752748185000,5.27718505859375,0.08571697026491165,0.023451030254364014,-0.047551143914461136
1772731752758213000,5.287213134765625,0.0850924625992775,0.023510418832302094,-0.04601902887225151
1772731752768241200,5.2972412109375,0.08096542954444885,0.018699847161769867,-0.04388881102204323
1772731752778268200,5.30726806640625,0.07233891636133194,0.01763884350657463,-0.03505270928144455
1772731752788296000,5.3172958984375,0.06706129014492035,0.022302959114313126,-0.024537473917007446
1772731752798324200,5.32732421875,0.06247905641794205,0.022368738427758217,-0.02268284745514393
1772731752808351000,5.33735107421875,0.0582260936498642,0.015755489468574524,-0.023301051929593086
1772731752818379300,5.347379150390625,0.053695786744356155,-0.002671453170478344,-0.01725221425294876
1772731752828406000,5.357406005859375,0.04782834276556969,-0.024749839678406715,-0.007596161682158709
1772731752838434000,5.36743408203125,0.047883469611406326,-0.035222724080085754,-0.00792399700731039
1772731752848462000,5.377462158203125,0.05217735096812248,-0.045479848980903625,-0.028143053874373436
1772731752858490000,5.387489990234375,0.051059622317552567,-0.0738409236073494,-0.054080378264188766
1772731752868518100,5.39751806640625,0.044524896889925,-0.08767504245042801,-0.07147200405597687
1772731752878546000,5.4075458984375,0.04936385899782181,-0.12108013778924942,-0.08182850480079651
1772731752888574200,5.41757421875,0.06054021790623665,-0.17037026584148407,-0.0898149162530899
1772731752898602000,5.42760205078125,0.05839104577898979,-0.202114075422287,-0.10920991748571396
1772731752908630000,5.437630126953125,0.05078159645199776,-0.22062544524669647,-0.12318725138902664
1772731752918657000,5.447656982421875,0.0426618829369545,-0.2376888543367386,-0.12576067447662354
1772731752928685300,5.457685302734375,0.03527200222015381,-0.23404143750667572,-0.12146435678005219
1772731752938713000,5.467713134765625,0.026040686294436455,-0.20975928008556366,-0.09281114488840103
1772731752948741000,5.4777412109375,0.015971355140209198,-0.1770937144756317,-0.04519890621304512
1772731752958769200,5.48776904296875,0.0045708948746323586,-0.13080717623233795,0.009211341850459576
1772731752968797000,5.497796875,-0.008741626515984535,-0.0731695145368576,0.0625053197145462
1772731752978825200,5.5078251953125,-0.025118201971054077,-0.027628663927316666,0.12042934447526932
1772731752988853000,5.51785302734375,-0.04160209372639656,0.0076141380704939365,0.16473397612571716
1772731752998881000,5.527881103515625,-0.05376235395669937,0.027281315997242928,0.18538732826709747
1772731753008908000,5.537907958984375,-0.06338536739349365,0.0296355988830328,0.19043442606925964
1772731753018936000,5.54793603515625,-0.07142438739538193,0.010850991122424603,0.18015462160110474
1772731753028964000,5.557964111328125,-0.0811430811882019,-0.006072628311812878,0.16573262214660645
1772731753038992100,5.5679921875,-0.08611200749874115,-0.008661753498017788,0.14462174475193024
1772731753049020200,5.578020263671875,-0.07692204415798187,-0.00013687089085578918,0.1216733306646347
1772731753059048200,5.588048095703125,-0.06636793911457062,0.008511744439601898,0.11128754168748856
1772731753069076000,5.598075927734375,-0.05127263069152832,0.010918020270764828,0.11602377146482468
1772731753079104300,5.608104248046875,-0.0414024256169796,0.012186483480036259,0.12770307064056396
1772731753089132000,5.618132080078125,-0.03658505529165268,0.00792820006608963,0.13068559765815735
1772731753099159000,5.628158935546875,-0.043660007417201996,0.003300425363704562,0.12133524566888809
1772731753109187000,5.63818701171875,-0.05671168491244316,0.0044020419009029865,0.10724734514951706
1772731753119215000,5.648215087890625,-0.06200817972421646,0.01121041364967823,0.09187344461679459
1772731753129243100,5.6582431640625,-0.05786752328276634,0.021491389721632004,0.08169570565223694
1772731753139271000,5.66827099609375,-0.052345991134643555,0.026545535773038864,0.07304389774799347
1772731753149299200,5.67829931640625,-0.04209015890955925,0.03158929571509361,0.06963291764259338
1772731753159327000,5.688326904296875,-0.02861216478049755,0.04109864681959152,0.060803208500146866
1772731753169355300,5.698355224609375,-0.017456715926527977,0.045208171010017395,0.04943816736340523
1772731753179383000,5.708383056640625,-0.00941237062215805,0.046766918152570724,0.035340458154678345
1772731753189411000,5.7184111328125,-0.007046741433441639,0.04328439384698868,0.022405322641134262
1772731753199439000,5.728439208984375,-0.006851265672594309,0.03838498145341873,0.0032667818013578653
1772731753209467100,5.738467041015625,-0.0031685177236795425,0.03811952844262123,-0.010433465242385864
1772731753219495200,5.7484951171875,0.0059546735137701035,0.04715190827846527,-0.028316060081124306
1772731753229522000,5.75852197265625,0.018170272931456566,0.06163298338651657,-0.04612918570637703
1772731753239550200,5.76855029296875,0.025030575692653656,0.07145418971776962,-0.05412505939602852
1772731753249578000,5.778577880859375,0.024304570630192757,0.07547859847545624,-0.050048232078552246
1772731753259606000,5.78860595703125,0.019538311287760735,0.0837186872959137,-0.031695324927568436
1772731753269634000,5.798634033203125,0.012998903170228004,0.10268515348434448,-0.009520156309008598
1772731753279662000,5.808662109375,0.00470022764056921,0.12250465899705887,0.01615511253476143
1772731753289690000,5.818690185546875,-0.0020025940611958504,0.12531128525733948,0.0341680608689785
1772731753299718100,5.82871826171875,-0.016872620210051537,0.1108495369553566,0.04706814885139465
1772731753309746000,5.838745849609375,-0.024619223549962044,0.08041653037071228,0.05915889889001846
1772731753319774200,5.848774169921875,-0.029626764357089996,0.05140404775738716,0.06684798002243042
1772731753329801000,5.858801025390625,-0.035269539803266525,0.036947183310985565,0.06502189487218857
1772731753339829000,5.8688291015625,-0.035022933036088943,0.03298439830541611,0.04921843484044075
1772731753349857000,5.87885693359375,-0.02811754308640957,0.0402335487306118,0.027652934193611145
1772731753359885000,5.888885009765625,-0.023719599470496178,0.04869867116212845,0.003058108501136303
1772731753369913000,5.8989130859375,-0.0092049241065979,0.06138928607106209,-0.023848077282309532
1772731753379940900,5.90894091796875,0.004407024011015892,0.06189208850264549,-0.04722237586975098
1772731753389969200,5.91896923828125,0.014045744203031063,0.052566856145858765,-0.059861645102500916
1772731753399997000,5.928996826171875,0.021712718531489372,0.048107124865055084,-0.06485772877931595
1772731753410025200,5.939025146484375,0.032958246767520905,0.055185042321681976,-0.07464465498924255
1772731753420052000,5.949052001953125,0.0349833145737648,0.05863596498966217,-0.081205353140831
1772731753430080300,5.959080322265625,0.03304513543844223,0.041869133710861206,-0.07411020994186401
1772731753440108000,5.96910791015625,0.021658260375261307,0.02365417778491974,-0.05050528049468994
1772731753450136000,5.979135986328125,0.0035446337424218655,0.011513162404298782,-0.02763073518872261
1772731753460164000,5.9891640625,-0.012064686045050621,0.009868660941720009,-0.007770211901515722
1772731753470192000,5.999192138671875,-0.015198297798633575,0.03759383410215378,-0.025606613606214523
1772731753480221000,6.009220947265625,-0.0024625288788229227,0.049790315330028534,-0.04666342958807945
1772731753490249000,6.0192490234375,-0.0011090387124568224,0.024784192442893982,-0.05138286203145981
1772731753500277000,6.029277099609375,-0.006991961505264044,-0.005158793646842241,-0.02414644882082939
1772731753510304000,6.039303955078125,-0.01528550498187542,-0.02393312007188797,0.009842895902693272
1772731753520331800,6.049331787109375,-0.022539688274264336,-0.023522190749645233,0.028537755832076073
1772731753530360000,6.059360107421875,-0.02426532842218876,-0.0007871277630329132,0.02293805591762066
1772731753540387800,6.069387939453125,-0.013651033863425255,0.03164751082658768,-0.00017525219300296158
1772731753550416000,6.079415771484375,-0.0016121423104777932,0.02682575397193432,-0.010922219604253769
1772731753560444000,6.08944384765625,0.005320066120475531,0.0012508851941674948,-0.0034904025960713625
1772731753570472000,6.099471923828125,0.006283961236476898,-0.019222380593419075,0.008565617725253105
1772731753580500000,6.1095,-0.003721268381923437,-0.028745045885443687,0.01611434854567051
1772731753590528000,6.119528076171875,-0.013125520199537277,-0.03407248482108116,0.0299325343221426
1772731753600555000,6.129554931640625,-0.021586382761597633,-0.029534459114074707,0.04090422764420509
1772731753610583000,6.1395830078125,-0.02412983775138855,-0.01138521172106266,0.05183502286672592
1772731753620611000,6.149611083984375,-0.02413782849907875,0.005529855377972126,0.05599887669086456
1772731753630638800,6.159638916015625,-0.022596027702093124,0.008366973139345646,0.05179550126194954
1772731753640667000,6.1696669921875,-0.014038224704563618,0.007753913290798664,0.04139585420489311
1772731753650695000,6.17969482421875,-0.006209258455783129,0.004031775053590536,0.03144703805446625
1772731753660723000,6.189722900390625,-0.004852910526096821,-0.006166533567011356,0.027723141014575958
1772731753670751000,6.1997509765625,0.002035154029726982,-0.012415606528520584,0.027525994926691055
1772731753680779000,6.209779052734375,0.00960385799407959,-0.009155098348855972,0.026494817808270454
1772731753690806000,6.219805908203125,0.013364475220441818,-0.011388442479074001,0.02588951773941517
1772731753700834000,6.229833984375,0.02522832527756691,-0.006315653212368488,0.0247518140822649
1772731753710861800,6.23986181640625,0.033430859446525574,-0.002647415269166231,0.016232628375291824
1772731753720890000,6.24989013671875,0.04106161743402481,-0.005665043368935585,0.007527554873377085
1772731753730918000,6.25991796875,0.039543140679597855,-0.01151956245303154,0.011132312938570976
1772731753740946200,6.2699462890625,0.039712514728307724,-0.006089376285672188,0.016475411131978035
1772731753750974000,6.279973876953125,0.04451819136738777,-0.00729365786537528,0.019722072407603264
1772731753761002000,6.290001953125,0.04837914556264877,-0.012512440793216228,0.02212541736662388
1772731753771030000,6.300030029296875,0.05317040532827377,-0.013218462467193604,0.019425541162490845
1772731753781056800,6.310056884765625,0.05644795671105385,-0.013654422014951706,0.012118625454604626
1772731753791085000,6.3200849609375,0.06020595133304596,-0.022113293409347534,0.003172027412801981
1772731753801112800,6.33011279296875,0.06034044176340103,-0.03142210468649864,-0.005835582502186298
1772731753811141000,6.34014111328125,0.06377660483121872,-0.03644699975848198,-0.01288171298801899
1772731753821169000,6.3501689453125,0.0628567487001419,-0.03705153614282608,-0.015083348378539085
1772731753831197000,6.360197021484375,0.06794299930334091,-0.027071282267570496,-0.019060876220464706
1772731753841225000,6.370224853515625,0.07626857608556747,-0.019141454249620438,-0.01770852319896221
1772731753851253000,6.3802529296875,0.07946329563856125,-0.013922051526606083,-0.01140937302261591
1772731753861281000,6.390281005859375,0.0780683308839798,-0.01657935418188572,-0.006271603051573038
1772731753871309000,6.40030908203125,0.07648331671953201,-0.015332410112023354,-0.013591941446065903
1772731753881336000,6.410336181640625,0.07573709636926651,-0.01909465715289116,-0.022463997825980186
1772731753891363800,6.42036376953125,0.06683524698019028,-0.028010902926325798,-0.023363914340734482
1772731753901392000,6.430391845703125,0.0628008246421814,-0.0297041404992342,-0.01782693713903427
1772731753911420000,6.440419921875,0.06429749727249146,-0.019828498363494873,-0.019620515406131744
1772731753921448000,6.450447998046875,0.05919114872813225,-0.010752445086836815,-0.024264803156256676
1772731753931476000,6.46047607421875,0.05151745304465294,-0.00647437758743763,-0.021429795771837234
1772731753941504000,6.47050390625,0.0381033755838871,-0.008795322850346565,-0.006980814505368471
1772731753951531800,6.48053173828125,0.03377882391214371,-0.011015905067324638,0.007785410154610872
1772731753961560000,6.49056005859375,0.03813442587852478,-0.018148116767406464,0.015268892981112003
1772731753971586800,6.5005869140625,0.04050951078534126,-0.02420971542596817,0.014504806138575077
1772731753981615000,6.510614990234375,0.04018247500061989,-0.024861391633749008,0.008989132940769196
1772731753991643000,6.520642822265625,0.03731986880302429,-0.023537110537290573,0.004319752100855112
1772731754001671000,6.5306708984375,0.03598908707499504,-0.015856288373470306,0.00490777799859643
1772731754011699000,6.540698974609375,0.03762810304760933,0.001567621948197484,0.002565176924690604
1772731754021726700,6.550726806640625,0.04082415997982025,0.01766589842736721,0.004303955007344484
1772731754031755000,6.560755126953125,0.048095881938934326,0.015821782872080803,0.020217685028910637
1772731754041782800,6.57078271484375,0.05280221998691559,0.0006889014039188623,0.042306479066610336
1772731754051811000,6.58081103515625,0.05117882415652275,-0.005891202017664909,0.05060268193483353
1772731754061838800,6.5908388671875,0.04269053041934967,-0.006640083156526089,0.04670115187764168
1772731754071866000,6.6008662109375,0.03963854908943176,0.011599641293287277,0.014294478110969067
1772731754081894000,6.610893798828125,0.050608374178409576,0.03651458024978638,-0.02415437623858452
1772731754091922000,6.620921875,0.064390167593956,0.02699880301952362,-0.02879912592470646
1772731754101950000,6.630949951171875,0.07537730783224106,-0.0005665128119289875,-0.009101053699851036
1772731754111978000,6.64097802734375,0.07689301669597626,-0.023377373814582825,0.022832823917269707
1772731754122006000,6.651006103515625,0.07181783020496368,-0.036976538598537445,0.04686279222369194
1772731754132034000,6.661033935546875,0.0627228319644928,-0.033054251223802567,0.05206158757209778
1772731754142061800,6.671061767578125,0.060965679585933685,0.0005966508761048317,0.027369024232029915
1772731754152090000,6.681090087890625,0.06464367359876633,0.010188505053520203,0.013353981077671051
1772731754162117000,6.6911171875,0.060364771634340286,-0.01166699081659317,0.02497069165110588
1772731754172145000,6.701144775390625,0.05304110422730446,-0.03834345564246178,0.04745383560657501
1772731754182173000,6.7111728515625,0.04530408978462219,-0.0465284138917923,0.06266261637210846
1772731754192201000,6.721200927734375,0.03523751348257065,-0.03771473467350006,0.06361160427331924
1772731754202229000,6.73122900390625,0.02764883264899254,-0.028689280152320862,0.05380957946181297
1772731754212257000,6.741257080078125,0.023189038038253784,-0.016868608072400093,0.049670830368995667
1772731754222285000,6.75128515625,0.02437414415180683,-0.008189366199076176,0.04270533099770546
1772731754232312800,6.761312744140625,0.03151548281311989,-0.005713796243071556,0.0367501899600029
1772731754242341000,6.771341064453125,0.029384156689047813,-0.0023206628393381834,0.02851010486483574
1772731754252369000,6.781368896484375,0.02422497048974037,0.007684527896344662,0.01728680729866028
1772731754262396000,6.79139599609375,0.01807280257344246,0.018384309485554695,-0.003414744511246681
1772731754272424000,6.801423828125,0.018341656774282455,0.017041334882378578,-0.017400166019797325
1772731754282452000,6.811451904296875,0.006143579725176096,0.006718389689922333,-0.016605213284492493
1772731754292480000,6.82147998046875,-0.0025698149111121893,0.007554054260253906,-0.01647651009261608
1772731754302507800,6.8315078125,0.0008462216355837882,0.013312874361872673,-0.017381452023983
1772731754312536000,6.8415361328125,0.011480146087706089,0.018615737557411194,-0.026826059445738792
1772731754322563800,6.851563720703125,0.00041844038059934974,0.0328143835067749,-0.019061880186200142
1772731754332592000,6.861592041015625,-0.012891427613794804,0.06846534460783005,0.014979951083660126
1772731754342620000,6.871619873046875,-0.00971267931163311,0.06190650910139084,0.04447951912879944
1772731754352647200,6.881647216796875,-0.009971577674150467,0.052511267364025116,0.04536210000514984
1772731754362675000,6.891675048828125,-0.0231784600764513,0.030409693717956543,0.0200309120118618
1772731754372702700,6.90170263671875,-0.045719295740127563,0.009997181594371796,-0.00014324516814667732
1772731754382731000,6.91173095703125,-0.053912241011857986,-0.0035388669930398464,-0.014981845393776894
1772731754392758800,6.9217587890625,-0.03900909051299095,0.008049524389207363,-0.027255909517407417
1772731754402787000,6.931787109375,-0.02653004787862301,0.0344393216073513,-0.027610909193754196
1772731754412814800,6.94181494140625,-0.02127717062830925,0.052820101380348206,-0.015599346719682217
1772731754422843000,6.9518427734375,-0.014497294090688229,0.062166728079319,-0.005216214340180159
1772731754432871000,6.961870849609375,-0.014516521245241165,0.07393785566091537,-0.011989844962954521
1772731754442899000,6.97189892578125,-0.019613811746239662,0.061707016080617905,-0.03323441371321678
1772731754452926000,6.981926025390625,-0.02263364940881729,0.04357060417532921,-0.06085110455751419
1772731754462954000,6.9919541015625,-0.027898451313376427,0.027964480221271515,-0.07835552841424942
1772731754472982000,7.00198193359375,-0.02147810347378254,0.014014577493071556,-0.08701319992542267
1772731754483008800,7.0120087890625,-0.011800973676145077,0.008613420650362968,-0.08649574965238571
1772731754493036800,7.022036865234375,-0.013051295652985573,0.0035286645870655775,-0.07991298288106918
1772731754503064600,7.032064697265625,-0.011975112371146679,0.0003283440601080656,-0.07026062160730362
1772731754513092900,7.0420927734375,-0.012940709479153156,0.0058256760239601135,-0.06499083340167999
1772731754523120600,7.05212060546875,-0.014971636235713959,0.010285139083862305,-0.05432699993252754
1772731754533148700,7.062148681640625,-0.025743622332811356,0.0038820835761725903,-0.03967025503516197
1772731754543175700,7.07217578125,-0.030015066266059875,-0.006417691707611084,-0.021708033978939056
1772731754553203700,7.08220361328125,-0.03428114578127861,-0.018660366535186768,-0.011021846905350685
1772731754563231700,7.092231689453125,-0.029969487339258194,-0.016436360776424408,-0.011405608616769314
1772731754573259800,7.102259765625,-0.019655276089906693,-0.006206043995916843,-0.01467928010970354
1772731754583287800,7.112287841796875,-0.006192198488861322,0.0020529513712972403,-0.013194567523896694
1772731754593315800,7.12231591796875,-0.0031332874204963446,-0.0004377772565931082,-0.008898869156837463
1772731754603343600,7.132343505859375,-0.0061479853466153145,-0.007458668667823076,-0.0030191424302756786
1772731754613372000,7.142371826171875,-0.00899000745266676,-0.014386436901986599,0.006396111100912094
1772731754623399700,7.152399658203125,-0.006909812800586224,-0.012631414458155632,0.003490868490189314
1772731754633428000,7.162427978515625,0.003477385500445962,0.0012488763313740492,-0.010221264325082302
1772731754643454700,7.172454833984375,0.013813380151987076,0.007972558960318565,-0.012356586754322052
1772731754653482800,7.182482666015625,0.015517259016633034,-0.002582332817837596,-0.008234855718910694
1772731754663510800,7.1925107421875,0.013136660680174828,-0.005509679205715656,0.006799753755331039
1772731754673538600,7.20253857421875,0.005920825060456991,-0.005966411903500557,0.020257771015167236
1772731754683566800,7.21256689453125,0.0024219639599323273,-0.005152815952897072,0.03531608358025551
1772731754693594600,7.2225947265625,0.003986718133091927,0.010351758450269699,0.037559185177087784
1772731754703623000,7.232622802734375,0.016302773728966713,0.044694818556308746,0.014463188126683235
1772731754713650700,7.242650634765625,0.035026948899030685,0.05851944163441658,-0.019876470789313316
1772731754723678700,7.2526787109375,0.04360126331448555,0.04655066505074501,-0.03458883613348007
1772731754733706800,7.262706787109375,0.04047531262040138,0.01883092150092125,-0.03372205048799515
1772731754743733800,7.272733642578125,0.03454338759183884,0.007208887487649918,-0.02133009396493435
1772731754753761800,7.28276171875,0.03265491500496864,-0.0024641375057399273,-0.018206415697932243
1772731754763789600,7.29278955078125,0.031208017840981483,-0.0011690424289554358,-0.011215349659323692
1772731754773817900,7.30281787109375,0.03074648417532444,-0.005032883025705814,0.004094873555004597
1772731754783845600,7.312845703125,0.0292402021586895,-0.02073860913515091,0.019509516656398773
1772731754793873700,7.322873779296875,0.025812149047851562,-0.00019793142564594746,0.02572403848171234
1772731754803901700,7.332901611328125,0.022711962461471558,-0.001264527440071106,0.036705050617456436
1772731754813929700,7.3429296875,0.01717282086610794,-0.019097870215773582,0.03743772208690643
1772731754823957800,7.352957763671875,0.00910557433962822,-0.020608682185411453,0.02990310825407505
1772731754833985800,7.36298583984375,0.0007195405778475106,-0.024348951876163483,0.027648719027638435
1772731754844012800,7.3730126953125,0.0002500252448953688,-0.04101315140724182,0.038114141672849655
1772731754854040800,7.383040771484375,-0.0028846398927271366,-0.05681868642568588,0.04517807811498642
1772731754864068900,7.39306884765625,-0.008277008309960365,-0.05752415955066681,0.0501246340572834
1772731754874096600,7.4030966796875,-0.018209436908364296,-0.03616022691130638,0.04046284407377243
1772731754884124700,7.413124755859375,-0.018977757543325424,-0.015804355964064598,0.029041877016425133
1772731754894152700,7.423152587890625,-0.018282607197761536,-0.008223899640142918,0.025994615629315376
1772731754904180700,7.4331806640625,-0.015254593454301357,-0.001261864323168993,0.021225692704319954
1772731754914208800,7.443208740234375,-0.01760423555970192,-0.007128506898880005,0.020579805597662926
1772731754924236800,7.45323681640625,-0.019160853698849678,-0.010449735447764397,0.010157523676753044
1772731754934263800,7.463263916015625,-0.01974545046687126,-0.010055605322122574,-0.0034149745479226112
1772731754944291800,7.473291748046875,-0.0209441389888525,-0.013560857623815536,-0.007582288701087236
1772731754954319600,7.483319580078125,-0.02022518217563629,-0.012952110730111599,-0.008002427406609058
1772731754964348000,7.493347900390625,-0.01979561522603035,-0.003659276757389307,-0.017338138073682785
1772731754974375700,7.503375732421875,-0.022766973823308945,0.004167059436440468,-0.02236933261156082
1772731754984404000,7.513404052734375,-0.020586378872394562,0.0012570235412567854,-0.022817276418209076
1772731754994431700,7.523431640625,-0.015409888699650764,0.014459822326898575,-0.030238525941967964
1772731755004459800,7.533459716796875,-0.005450199358165264,0.010726338252425194,-0.03634089604020119
1772731755014487800,7.54348779296875,-0.006515762768685818,-0.006686491891741753,-0.028772953897714615
1772731755024515600,7.553515625,-0.006911508273333311,-0.018089614808559418,-0.020937401801347733
1772731755034542800,7.56354296875,-0.005136777646839619,-0.015967076644301414,-0.014515986666083336
1772731755044570600,7.573570556640625,0.0038695004768669605,-0.01496812328696251,-0.014054461382329464
1772731755054599000,7.583598876953125,0.00762814050540328,-0.024005210027098656,-0.008246555924415588
1772731755064626700,7.593626708984375,0.0019374985713511705,-0.03132623806595802,0.0003916735586244613
1772731755074654700,7.60365478515625,-0.0008698609890416265,-0.034028634428977966,0.009099593386054039
1772731755084682800,7.613682861328125,0.00803388562053442,-0.024142447859048843,0.0036731369327753782
1772731755094710800,7.623710693359375,0.022554630413651466,-0.008965414948761463,-0.022661961615085602
1772731755104738800,7.63373876953125,0.026200497522950172,-0.011454671621322632,-0.03968382254242897
1772731755114766800,7.643766845703125,0.021594304591417313,-0.03548838198184967,-0.03554602712392807
1772731755124794600,7.653794677734375,0.010591988451778889,-0.0464523509144783,-0.01760564185678959
1772731755134821600,7.663821533203125,0.006293139886111021,-0.0408230721950531,-0.0059429192915558815
1772731755144849700,7.673849609375,0.010895349085330963,-0.01805836893618107,-0.01570473611354828
1772731755154877700,7.683877685546875,0.011536404490470886,-0.002472999971359968,-0.020833220332860947
1772731755164905700,7.69390576171875,0.012286350131034851,-0.010460885241627693,-0.011834399774670601
1772731755174933800,7.703933837890625,0.004302595276385546,-0.008887825533747673,-0.004152900539338589
1772731755184961800,7.7139619140625,0.002221867674961686,0.004754482768476009,-0.01246063131839037
1772731755194989600,7.723989501953125,-0.002275314647704363,0.016004793345928192,-0.025735532864928246
1772731755205017900,7.734017822265625,-0.012914376333355904,0.011044921353459358,-0.024539507925510406
1772731755215045600,7.744045654296875,-0.01639299839735031,0.006930071394890547,-0.012431444600224495
1772731755225074000,7.754073974609375,-0.010642433539032936,0.004493811633437872,0.0005586560582742095
1772731755235100700,7.7641005859375,-0.006923856679350138,-0.00017511588521301746,0.009432331658899784
1772731755245128700,7.774128662109375,-0.006481239106506109,-0.00707350205630064,0.004964079707860947
1772731755255156700,7.78415673828125,-0.009783471934497356,0.006308683194220066,-0.0006382954306900501
1772731755265184800,7.794184814453125,-0.008381051011383533,0.012338879518210888,-0.0006819712580181658
1772731755275212800,7.804212890625,-0.007432194892317057,0.01562346238642931,-0.0044452291913330555
1772731755285240600,7.814240478515625,-0.005097934044897556,0.012530201114714146,-0.0041749184019863605
1772731755295268900,7.824268798828125,-0.0033865482546389103,0.007519342005252838,-0.0045927828177809715
1772731755305296600,7.834296630859375,-0.0024163585621863604,0.005722506903111935,-0.00013331923400983214
1772731755315324700,7.84432470703125,0.002958259079605341,-0.00005849055014550686,0.007573207374662161
1772731755325352700,7.854352783203125,0.003687432734295726,-0.0019133822061121464,0.014874530024826527
1772731755335379700,7.864379638671875,0.0077652703039348125,0.008030188269913197,0.017244497314095497
1772731755345407700,7.87440771484375,0.006743415258824825,0.013200182467699051,0.015208244323730469
1772731755355435800,7.884435791015625,0.007758313324302435,0.02158406376838684,0.009036138653755188
1772731755365463800,7.8944638671875,0.011874495074152946,0.023370245471596718,-0.0021656497847288847
1772731755375491800,7.904491943359375,0.011690867133438587,0.020827794447541237,-0.007100364658981562
1772731755385519600,7.91451953125,0.010831731371581554,0.009152497164905071,-0.0063685281202197075
1772731755395547600,7.924547607421875,0.008677729405462742,0.003614043816924095,-0.0022938759066164494
1772731755405575700,7.93457568359375,0.010599733330309391,0.005162672605365515,0.0012092461111024022
1772731755415603700,7.944603759765625,0.01645735651254654,0.00750811817124486,0.009047195315361023
1772731755425631700,7.9546318359375,0.010851401835680008,0.01447920873761177,0.012738869525492191
1772731755435658800,7.96465869140625,0.013133475556969643,0.01907874085009098,0.012875266373157501
1772731755445686800,7.974686767578125,0.010507864877581596,0.016219304874539375,0.010428354144096375
1772731755455714800,7.98471484375,0.004612250253558159,0.0035519045777618885,0.015442688949406147
1772731755465742800,7.994742919921875,-0.0011771954596042633,-0.00683176051825285,0.019670723006129265
1772731755475770600,8.0047705078125,-0.01086946576833725,-0.012974463403224945,0.0261033084243536
1772731755485799200,8.014799072265625,-0.02675655297935009,-0.012859148904681206,0.026917437091469765
1772731755495827200,8.0248271484375,-0.03884879872202873,-0.008903909474611282,0.02961619943380356
1772731755505855000,8.03485498046875,-0.04537434130907059,-0.004784265998750925,0.03593774512410164
1772731755515883000,8.044883056640625,-0.052083052694797516,-0.0005219683516770601,0.035018060356378555
1772731755525911000,8.0549111328125,-0.056596044450998306,0.00020267791114747524,0.03848522901535034
1772731755535938000,8.06493798828125,-0.06675361841917038,0.01578071340918541,0.04216649755835533
1772731755545966000,8.074966064453125,-0.06446915864944458,0.026340946555137634,0.04299980029463768
1772731755555994000,8.084994140625,-0.07489944994449615,0.02566608227789402,0.04916585236787796
1772731755566022100,8.095022216796876,-0.08625011146068573,0.024012792855501175,0.05211743339896202
1772731755576050000,8.1050498046875,-0.09468041360378265,0.02396920695900917,0.056176718324422836
1772731755586078200,8.115078125,-0.1008797213435173,0.018523043021559715,0.05573543161153793
1772731755596106000,8.12510595703125,-0.10098803043365479,0.0197282861918211,0.05954929441213608
1772731755606134300,8.13513427734375,-0.10079655051231384,0.01636950671672821,0.06572942435741425
1772731755616162000,8.145162109375,-0.09893336147069931,0.014784316532313824,0.06773145496845245
1772731755626190000,8.155190185546875,-0.09454047679901123,0.02014259621500969,0.07276509702205658
1772731755636217000,8.165217041015625,-0.08996368944644928,0.019107872620224953,0.0744159072637558
1772731755646245000,8.1752451171875,-0.08298300951719284,0.016946984454989433,0.07845725119113922
1772731755656273200,8.185273193359375,-0.07605865597724915,0.018819522112607956,0.0776086300611496
1772731755666301000,8.195301025390625,-0.06310371309518814,0.013119026087224483,0.07475025951862335
1772731755676329200,8.2053291015625,-0.0505024679005146,0.01496392022818327,0.06960531324148178
1772731755686357000,8.21535693359375,-0.035538166761398315,0.020020732656121254,0.05994869023561478
1772731755696385000,8.225385009765626,-0.020575296133756638,0.021879298612475395,0.05180884525179863
1772731755706413000,8.2354130859375,-0.013088618405163288,0.020360497757792473,0.0483936071395874
1772731755716441000,8.245441162109374,-0.003457024460658431,0.009037129580974579,0.04318235442042351
1772731755726469000,8.25546923828125,0.0017891365569084883,-0.0015920787118375301,0.031065236777067184
1772731755736497200,8.2654970703125,0.008722999133169651,-0.017989644780755043,0.02613481879234314
1772731755746524200,8.275524169921875,0.018543139100074768,-0.02151034213602543,0.022242074832320213
1772731755756552000,8.285552001953125,0.025562437251210213,-0.015441939234733582,0.02400670200586319
1772731755766580200,8.295580322265625,0.027722526341676712,-0.010242382995784283,0.02803952805697918
1772731755776608000,8.30560791015625,0.028015011921525,-0.010607341304421425,0.033054206520318985
1772731755786636000,8.315635986328125,0.028195040300488472,-0.00811648741364479,0.037713672965765
1772731755796664000,8.3256640625,0.026332885026931763,-0.004033614881336689,0.02600858360528946
1772731755806692000,8.335692138671876,0.02968820184469223,-0.004631494637578726,0.02108040452003479
1772731755816720100,8.34572021484375,0.033829525113105774,-0.007518855854868889,0.01692420430481434
1772731755826748200,8.355748046875,0.031232409179210663,-0.00454889889806509,0.012468471191823483
1772731755836776000,8.36577587890625,0.03127521276473999,-0.0042509110644459724,0.006790379993617535
1772731755846803200,8.37580322265625,0.02604849264025688,0.00026367930695414543,0.0028835225384682417
1772731755856831000,8.3858310546875,0.022064313292503357,0.004996315576136112,-0.000942229526117444
1772731755866859300,8.395859375,0.015873529016971588,0.012104291468858719,-0.000962735852226615
1772731755876887000,8.405886962890625,0.010958329774439335,0.01713564060628414,-0.0019752189982682467
1772731755886915000,8.4159150390625,0.005913237109780312,0.016152136027812958,0.0005891388282179832
1772731755896943000,8.425943115234375,0.0014041659887880087,0.012633281759917736,-0.007955311797559261
1772731755906971000,8.435970947265625,0.002800195012241602,0.016757186502218246,-0.019433801993727684
1772731755916999200,8.445999267578125,-0.0020230854861438274,0.017214559018611908,-0.02806372381746769
1772731755927027000,8.45602685546875,-0.006438073702156544,0.020317941904067993,-0.03136737272143364
1772731755937055200,8.46605517578125,-0.005944487173110247,0.026712900027632713,-0.02365654706954956
1772731755947082000,8.47608203125,-0.0054384865798056126,0.03245920315384865,-0.010882161557674408
1772731755957110300,8.4861103515625,-0.009994649328291416,0.03708761930465698,-0.005131539888679981
1772731755967138000,8.496137939453124,-0.013138244859874249,0.03606922924518585,0.002432103967294097
1772731755977166000,8.506166015625,-0.01556223165243864,0.04063844308257103,0.0046230098232626915
1772731755987194000,8.516194091796875,-0.02147844433784485,0.04531894996762276,0.00538041302934289
1772731755997222100,8.52622216796875,-0.030100759118795395,0.05462852865457535,0.014613130129873753
1772731756007250200,8.536250244140625,-0.031190525740385056,0.05643947422504425,0.022617261856794357
1772731756017278200,8.5462783203125,-0.024696271866559982,0.054200753569602966,0.019723879173398018
1772731756027306000,8.556305908203125,-0.01859097369015217,0.04327646642923355,0.018428783863782883
1772731756037334000,8.566333984375,-0.009996524080634117,0.03534379601478577,0.014018677175045013
1772731756047362000,8.576362060546876,-0.0008395109907723963,0.035208772867918015,0.003688276279717684
1772731756057389000,8.58638916015625,0.006123757921159267,0.035812459886074066,-0.00450856052339077
1772731756067417000,8.5964169921875,0.016625666990876198,0.030824091285467148,-0.006264648865908384
1772731756077445000,8.606445068359376,0.02958746999502182,0.0327930711209774,-0.014096153900027275
1772731756087473200,8.61647314453125,0.036648038774728775,0.0374261736869812,-0.02784712053835392
1772731756097501000,8.6265009765625,0.03940641134977341,0.03316611051559448,-0.03361831232905388
1772731756107529200,8.636529296875,0.04224720597267151,0.02033473551273346,-0.030098680406808853
1772731756117557000,8.646556884765625,0.04946044459939003,0.01380816288292408,-0.025660060346126556
1772731756127585300,8.656585205078125,0.051914282143116,0.015833497047424316,-0.03079090639948845
1772731756137613000,8.666613037109375,0.05132010206580162,0.011918757110834122,-0.03644394502043724
1772731756147641000,8.67664111328125,0.047801800072193146,-0.00611377228051424,-0.02278272807598114
1772731756157668000,8.686668212890625,0.04204430431127548,-0.0060996427200734615,-0.005903114564716816
1772731756167696000,8.69669580078125,0.032365843653678894,0.006606564857065678,-0.003441288834437728
1772731756177724200,8.70672412109375,0.01850149594247341,0.016770146787166595,-0.0023435885086655617
1772731756187752000,8.716751953125,0.0025113439187407494,0.015282771550118923,0.0015869709895923734
1772731756197780200,8.7267802734375,-0.006473694462329149,0.014049426652491093,0.013632519170641899
1772731756207808000,8.73680810546875,-0.006802328396588564,0.017814336344599724,0.031479425728321075
1772731756217836000,8.7468359375,0.0029495737981051207,0.032491642981767654,0.02313290536403656
1772731756227864000,8.756864013671875,0.004937090910971165,0.0404805913567543,0.00159672019071877
1772731756237892000,8.76689208984375,-0.0018957862630486488,0.03605855628848076,-0.0037253606133162975
1772731756247920000,8.776920166015625,-0.014065633527934551,0.01873948611319065,0.0044976817443966866
1772731756257948200,8.7869482421875,-0.026005079969763756,0.012789859436452389,0.019825490191578865
1772731756267975200,8.79697509765625,-0.02139621414244175,0.025293666869401932,0.02248971536755562
1772731756278003000,8.8070029296875,-0.009652144275605679,0.045493386685848236,0.011304348707199097
1772731756288031000,8.817031005859375,-0.007203101646155119,0.04876641184091568,0.008158622309565544
1772731756298059000,8.82705908203125,-0.009305933490395546,0.04330053925514221,0.004810496233403683
1772731756308087000,8.837087158203126,-0.008017229847609997,0.03732440620660782,-0.00013019984180573374
1772731756318115000,8.847114990234376,-0.005692556966096163,0.026938345283269882,0.000015475059626623988
1772731756328143000,8.85714306640625,-0.008535248227417469,0.014953835867345333,0.0053194621577858925
1772731756338171000,8.8671708984375,-0.005116485059261322,0.015534847974777222,0.00890878401696682
1772731756348199200,8.87719921875,0.0011600528378039598,0.018873652443289757,0.016383212059736252
1772731756358227000,8.88722705078125,0.013391958549618721,0.012679658830165863,0.021072806790471077
1772731756368254200,8.897254150390625,0.017371786758303642,0.009943526238203049,0.016474060714244843
1772731756378282000,8.907281982421875,0.020995648577809334,0.006332599092274904,0.007829065434634686
1772731756388310300,8.917310302734375,0.016845911741256714,-0.0037187037523835897,0.0014369464479386806
1772731756398338000,8.927338134765625,0.015281233005225658,-0.013971235603094101,-0.0005744859226979315
1772731756408366000,8.937365966796875,0.012782922014594078,-0.02599168010056019,-0.0016983399400487542
1772731756418394000,8.94739404296875,0.013832038268446922,-0.02473633736371994,-0.0009652920998632908
1772731756428422000,8.957421875,0.019433462992310524,-0.02990446798503399,0.010706011205911636
1772731756438450200,8.9674501953125,0.025896767154335976,-0.028915757313370705,0.008854827843606472
1772731756448478000,8.97747802734375,0.02916553057730198,-0.028871016576886177,0.007281166035681963
1772731756458506000,8.987506103515624,0.026286214590072632,-0.038011591881513596,0.004457556642591953
1772731756468533000,8.997532958984374,0.0170088279992342,-0.047521475702524185,0.0029752415139228106
1772731756478561300,9.007561279296874,0.008308321237564087,-0.05296310409903526,0.0007179490057751536
1772731756488589000,9.017589111328125,0.004286149051040411,-0.052860572934150696,0.006526569370180368
1772731756498617000,9.0276171875,-0.0007145132403820753,-0.04898740351200104,0.009393977001309395
1772731756508645000,9.03764501953125,-0.006094364915043116,-0.05069049447774887,0.018801594153046608
1772731756518673200,9.047673095703125,-0.017498282715678215,-0.04602983593940735,0.03185482695698738
1772731756528701200,9.057701171875,-0.02757089026272297,-0.040597520768642426,0.037904199212789536
1772731756538729200,9.067729248046875,-0.038692113012075424,-0.041657935827970505,0.035710178315639496
1772731756548757000,9.077757080078126,-0.03997575491666794,-0.0478934608399868,0.03674375265836716
1772731756558785000,9.087784912109376,-0.04103643074631691,-0.04138611629605293,0.031012805178761482
1772731756568813000,9.09781298828125,-0.040474239736795425,-0.03615859895944595,0.027313409373164177
1772731756578840000,9.107840087890626,-0.03726596385240555,-0.035315461456775665,0.028723055496811867
1772731756588868000,9.1178681640625,-0.037072885781526566,-0.03698073327541351,0.03566964343190193
1772731756598896000,9.127896240234374,-0.03095400333404541,-0.02690706215798855,0.03459319472312927
1772731756608924200,9.137924072265625,-0.03203018754720688,-0.02895743027329445,0.034116487950086594
1772731756618952000,9.147951904296875,-0.0384490042924881,-0.04450180009007454,0.03817761316895485
1772731756628980200,9.157980224609375,-0.04496176168322563,-0.05273230001330376,0.04395987093448639
1772731756639008000,9.168008056640625,-0.03741862624883652,-0.04505041241645813,0.04509970173239708
1772731756649036300,9.178036376953125,-0.026212312281131744,-0.03531362861394882,0.049044378101825714
1772731756659064000,9.18806396484375,-0.02159648761153221,-0.02689962089061737,0.04965926706790924
1772731756669092000,9.198092041015625,-0.019502976909279823,-0.015674663707613945,0.0453188456594944
1772731756679119000,9.208119140625,-0.01116921566426754,-0.005881848745048046,0.035796236246824265
1772731756689147000,9.21814697265625,-0.003455636091530323,-0.013463867828249931,0.02553960122168064
1772731756699175200,9.228175048828126,0.0001937922788783908,-0.023208588361740112,0.013183494098484516
1772731756709203000,9.238202880859374,0.007271143142133951,-0.02428104355931282,0.0012719735968858004
1772731756719231200,9.248231201171874,0.018739478662610054,-0.025195589289069176,-0.0016705179587006569
1772731756729259000,9.258259033203124,0.028002485632896423,-0.02606377936899662,-0.0016729148337617517
1772731756739287000,9.268287109375,0.036641184240579605,-0.02622360549867153,0.00701625132933259
1772731756749315000,9.278315185546875,0.03388481214642525,-0.020768918097019196,0.011259998194873333
1772731756759343000,9.288343017578125,0.030559061095118523,-0.024056466296315193,0.014272317290306091
1772731756769371100,9.29837109375,0.02776726894080639,-0.02391372062265873,0.009280488826334476
1772731756779399200,9.308399169921875,0.031589899212121964,-0.022289086133241653,0.002499867230653763
1772731756789426200,9.31842626953125,0.03827043995261192,-0.027488907799124718,-0.0016762356972321868
1772731756799454000,9.328453857421875,0.03853465989232063,-0.03306622430682182,-0.006054223515093327
1772731756809482000,9.33848193359375,0.03995519131422043,-0.03840719535946846,-0.0029756096191704273
1772731756819510000,9.348510009765626,0.038667481392621994,-0.04115080088376999,0.0051808906719088554
1772731756829538000,9.3585380859375,0.028015900403261185,-0.041844554245471954,0.008517565205693245
1772731756839566000,9.368566162109374,0.026994148269295692,-0.0372975617647171,0.0078990887850523
1772731756849593000,9.378593017578124,0.03156972676515579,-0.030474809929728508,0.007822922430932522
1772731756859621000,9.38862109375,0.031209468841552734,-0.027630392462015152,0.0031940287444740534
1772731756869649200,9.398649169921875,0.028223799541592598,-0.02490970678627491,-0.003877728944644332
1772731756879677200,9.40867724609375,0.023868728429079056,-0.022971583530306816,-0.0112592289224267
1772731756889705200,9.418705322265625,0.019093679264187813,-0.02053186111152172,-0.020059645175933838
1772731756899733000,9.42873291015625,0.017827322706580162,-0.020353997126221657,-0.018831856548786163
1772731756909761300,9.43876123046875,0.01992509514093399,-0.021382508799433708,-0.01653061807155609
1772731756919789000,9.4487890625,0.026055289432406425,-0.018790384754538536,-0.013877986930310726
1772731756929817000,9.458817138671876,0.02047889679670334,-0.018665481358766556,-0.007723421789705753
1772731756939845000,9.46884521484375,0.016305522993206978,-0.01283339038491249,0.002166155492886901
1772731756949873000,9.478872802734376,0.016545472666621208,-0.00509371142834425,-0.0009883587481454015
1772731756959900200,9.488900146484376,0.009437029249966145,0.00015195203013718128,0.00022384084877558053
1772731756969928000,9.498927978515624,0.01762598194181919,-0.0004352747928351164,0.0005463496781885624
1772731756979956200,9.508956298828124,0.029468389227986336,0.0008661565370857716,-0.004994514863938093
1772731756989984000,9.51898388671875,0.03369402885437012,0.00020036660134792328,-0.010846012271940708
1772731757000012000,9.529011962890625,0.03761656954884529,-0.0026950552128255367,-0.017379742115736008
1772731757010040000,9.5390400390625,0.03713081032037735,0.004603604786098003,-0.021695394068956375
1772731757020068000,9.549068115234375,0.04115317761898041,0.010627654381096363,-0.03283083438873291
1772731757030096100,9.55909619140625,0.04723024368286133,0.0006471921224147081,-0.03278049826622009
1772731757040124200,9.569124267578125,0.05081302672624588,-0.00747702969238162,-0.030256658792495728
1772731757050152000,9.57915185546875,0.053244225680828094,-0.008220850490033627,-0.022777169942855835
1772731757060179000,9.589178955078125,0.05890987440943718,-0.0006147192325443029,-0.02447069250047207
1772731757070207200,9.599207275390626,0.05498677119612694,-0.0023990371264517307,-0.02484619989991188
1772731757080235000,9.609235107421876,0.04855736717581749,0.00035174167715013027,-0.024509042501449585
1772731757090263000,9.619262939453124,0.043229181319475174,0.0014681390020996332,-0.01954171434044838
1772731757100291000,9.629291015625,0.04877384379506111,0.0031982515938580036,-0.018927304074168205
1772731757110319000,9.639319091796875,0.052951812744140625,-0.0019504377851262689,-0.013207633048295975
1772731757120347100,9.64934716796875,0.04902815446257591,0.0004258682020008564,-0.013800115324556828
1772731757130375200,9.659375244140625,0.04322432726621628,0.002372372429817915,-0.017077933996915817
1772731757140403000,9.66940283203125,0.030481763184070587,0.0072396364994347095,-0.023002278059720993
1772731757150431200,9.67943115234375,0.02368937060236931,0.013370232656598091,-0.024586327373981476
1772731757160460000,9.6894599609375,0.023087922483682632,0.02921653538942337,-0.032227929681539536
1772731757170488000,9.699488037109376,0.031242523342370987,0.045725204050540924,-0.03329266235232353
1772731757180516000,9.70951611328125,0.02817455865442753,0.04616956040263176,-0.027200428768992424
1772731757190544100,9.719544189453124,0.021056992933154106,0.04763829708099365,-0.028569824993610382
1772731757200572000,9.729572021484374,0.01746579259634018,0.04592164233326912,-0.035071708261966705
1772731757210600200,9.73960009765625,0.01752837561070919,0.03902778401970863,-0.04795954376459122
1772731757220627000,9.749626953125,0.01991995982825756,0.036346547305583954,-0.06248556077480316
1772731757230655200,9.7596552734375,0.02281268499791622,0.03530445322394371,-0.07201594114303589
1772731757240683000,9.76968310546875,0.020387113094329834,0.037547651678323746,-0.06899489462375641
1772731757250711000,9.7797109375,0.013877813704311848,0.03557424992322922,-0.05207556113600731
1772731757260739000,9.789739013671875,0.004755192436277866,0.03618958219885826,-0.03492748737335205
1772731757270766800,9.799766845703125,-0.0032747709192335606,0.03357702121138573,-0.016801482066512108
1772731757280795100,9.809795166015626,-0.007796920835971832,0.03393103927373886,-0.007689919788390398
1772731757290823000,9.819822998046876,-0.005731106735765934,0.03379815071821213,-0.0028325801249593496
1772731757300851200,9.829851318359376,0.0018705546390265226,0.032748032361269,-0.0012998601887375116
1772731757310879000,9.83987890625,0.005286058411002159,0.03895159810781479,-0.004629344213753939
1772731757320907000,9.849906982421874,0.0027446008753031492,0.04572788625955582,-0.013942168094217777
1772731757330935000,9.85993505859375,0.006370494607836008,0.04672284424304962,-0.02061099000275135
1772731757340962000,9.869962158203125,0.007173174526542425,0.050544604659080505,-0.02412075363099575
1772731757350990000,9.879989990234375,0.012273128144443035,0.048611417412757874,-0.02081257477402687
1772731757361018000,9.89001806640625,0.01795421540737152,0.04560792073607445,-0.016129974275827408
1772731757371046100,9.900046142578125,0.022562017664313316,0.04209015145897865,-0.013371205888688564
1772731757381074200,9.91007421875,0.025811107829213142,0.039916496723890305,-0.01138425711542368
1772731757391102000,9.92010205078125,0.023705612868070602,0.04001503065228462,-0.010418861173093319
1772731757401130000,9.9301298828125,0.020129747688770294,0.03809209167957306,-0.00881135743111372
1772731757411158000,9.940157958984376,0.01704447530210018,0.03554663807153702,-0.006850738078355789
1772731757421186000,9.95018603515625,0.015317616984248161,0.03288131207227707,-0.006603792309761047
1772731757431214000,9.960214111328124,0.008548394776880741,0.02933983877301216,-0.008232847787439823
1772731757441241000,9.970240966796876,0.006156744435429573,0.024747680872678757,-0.00435913959518075
1772731757451269000,9.98026904296875,0.003586261300370097,0.011927757412195206,0.00007848581299185753
1772731757461297200,9.990297119140624,-0.0018515153788030148,0.009129643440246582,0.007773282937705517
1772731757471325200,10.0003251953125,-0.009766430594027042,0.003070952370762825,0.019481603056192398
1772731757481352400,10.0103525390625,-0.017010031268000603,0.002084091305732727,0.02396509051322937
1772731757491380200,10.020380126953125,-0.028944455087184906,0.0003168173134326935,0.027540650218725204
1772731757501408300,10.030408203125,-0.03597329929471016,-0.005800445564091206,0.03295375779271126
1772731757511436300,10.040436279296875,-0.04429301619529724,-0.013697250746190548,0.041002362966537476
1772731757521464300,10.05046435546875,-0.049808792769908905,-0.01633463241159916,0.04381849244236946
1772731757531492400,10.060492431640625,-0.05499769374728203,-0.01641159877181053,0.04820578545331955
1772731757541520400,10.070520263671876,-0.057532355189323425,-0.010252168402075768,0.04878009110689163
1772731757551547400,10.08054736328125,-0.06137077137827873,-0.007563706487417221,0.04341035708785057
1772731757561575400,10.090575439453126,-0.06230577453970909,-0.00468016043305397,0.03867843374609947
1772731757571603200,10.100603271484376,-0.061794713139534,-0.0022220625542104244,0.026290470734238625
1772731757581631500,10.110631591796874,-0.05509499832987785,0.003443546127527952,0.015811199322342873
1772731757591659300,10.1206591796875,-0.05554134398698807,-0.0026353851426392794,0.006132740061730146
1772731757601687600,10.1306875,-0.054393917322158813,-0.0052321781404316425,0.004413827788084745
1772731757611715300,10.14071533203125,-0.05118320882320404,-0.010587528347969055,0.000670222332701087
1772731757621743400,10.150743408203125,-0.046564556658267975,-0.00957116112112999,0.003428245196118951
1772731757631771400,10.160771484375,-0.04036152362823486,-0.009281409904360771,0.008789987303316593
1772731757641799200,10.170799072265625,-0.03414224460721016,-0.001227743923664093,0.012256091460585594
1772731757651827500,10.180827392578125,-0.02933470346033573,-0.0020653079263865948,0.011407874524593353
1772731757661854200,10.190854248046875,-0.02636195346713066,-0.008704623207449913,0.014383268542587757
1772731757671882500,10.200882568359376,-0.020295273512601852,-0.01632845401763916,0.011555258184671402
1772731757681910300,10.21091015625,-0.015059961937367916,-0.023770496249198914,0.007874446921050549
1772731757691938300,10.220938232421876,-0.008417505770921707,-0.03300181403756142,0.008688841946423054
1772731757701966300,10.23096630859375,-0.002537213731557131,-0.035171739757061005,0.009880305267870426
1772731757711994400,10.240994384765624,0.0030450383201241493,-0.03893239051103592,0.011344511061906815
1772731757722022400,10.2510224609375,0.005020140204578638,-0.03456515818834305,0.010987556539475918
1772731757732050400,10.261050537109375,0.004510677419602871,-0.037494104355573654,0.014321035705506802
1772731757742078200,10.271078125,0.0018702191300690174,-0.04106776416301727,0.01933250203728676
1772731757752106500,10.2811064453125,0.0003815121599473059,-0.04128987342119217,0.023480374366044998
1772731757762134300,10.29113427734375,-0.0017333065625280142,-0.04329562559723854,0.028471658006310463
1772731757772162600,10.30116259765625,0.0030076527036726475,-0.04504292458295822,0.034252047538757324
1772731757782189300,10.311189208984375,-0.0021094412077218294,-0.037488795816898346,0.03262551128864288
1772731757792217300,10.32121728515625,0.0007686369935981929,-0.03312227502465248,0.03025396540760994
1772731757802245400,10.331245361328126,-0.004802632611244917,-0.03519963473081589,0.02342287078499794
1772731757812273200,10.341273193359376,-0.0023836835753172636,-0.025140605866909027,0.019776737317442894
1772731757822301400,10.351301513671874,-0.0009037588024511933,-0.014241368509829044,0.013166803866624832
1772731757832329200,10.3613291015625,-0.0046676043421030045,-0.004725361242890358,0.008110526017844677
1772731757842357500,10.371357421875,-0.00845867395401001,0.007504764944314957,0.0030559380538761616
1772731757852385300,10.38138525390625,-0.005068204365670681,0.0077071646228432655,0.0028854955453425646
1772731757862413300,10.391413330078125,-0.004024983383715153,-0.004881156142801046,0.006843926385045052
1772731757872441300,10.40144140625,0.0022744578309357166,-0.002380980411544442,0.002268349751830101
1772731757882469400,10.411469482421875,0.010501889511942863,0.0044683488085865974,-0.015850091353058815
1772731757892496400,10.421496337890625,0.01550570223480463,0.004700043238699436,-0.02810542657971382
1772731757902524200,10.431524169921875,0.015526180155575275,0.012522654607892036,-0.03650711476802826
1772731757912552400,10.441552490234375,0.014040135778486729,0.019131820648908615,-0.032272953540086746
1772731757922580200,10.451580322265626,0.013964163139462471,0.009160127490758896,-0.020731307566165924
1772731757932608300,10.461608154296876,0.012769202701747417,0.0038122341502457857,-0.0093952976167202
1772731757942636300,10.47163623046875,0.005736731458455324,-0.0015230884309858084,-0.0019010064424946904
1772731757952664300,10.481664306640624,0.003698880085721612,-0.0050605651922523975,0.008940988220274448
1772731757962692400,10.4916923828125,0.0035438842605799437,0.002009861171245575,0.013435604982078075
1772731757972720400,10.501720458984375,0.011837500147521496,0.010988442227244377,0.014724574983119965
1772731757982748200,10.511748046875,0.01906934753060341,0.019070887938141823,0.013050477020442486
1772731757992776400,10.5217763671875,0.03157475218176842,0.030760299414396286,0.004687618464231491
1772731758002803200,10.53180322265625,0.03354562073945999,0.03788221254944801,-0.007825675420463085
1772731758012831200,10.541831298828125,0.040304187685251236,0.03943563625216484,-0.020138002932071686
1772731758022859300,10.551859375,0.044264644384384155,0.036488477140665054,-0.027603432536125183
1772731758032887300,10.56188720703125,0.048715319484472275,0.034094296395778656,-0.030334504321217537
1772731758042915300,10.571915283203126,0.04715810716152191,0.030221737921237946,-0.026209702715277672
1772731758052943000,10.581943115234376,0.05257550999522209,0.03465456888079643,-0.023321770131587982
1772731758062971400,10.591971435546874,0.0583847276866436,0.035420939326286316,-0.015953421592712402
1772731758072999200,10.601999267578124,0.06274378299713135,0.036679014563560486,-0.006633424200117588
1772731758083027500,10.61202734375,0.0660124197602272,0.033239349722862244,-0.0012001829454675317
1772731758093055200,10.62205517578125,0.06789980083703995,0.02869519405066967,0.0038132176268845797
1772731758103083300,10.632083251953125,0.06335858255624771,0.02769583649933338,1.182197593152523e-7
1772731758113110300,10.6421103515625,0.062339384108781815,0.026074502617120743,0.0024073494132608175
1772731758123138300,10.65213818359375,0.054183196276426315,0.02564879134297371,0.008927318267524242
1772731758133166300,10.662166259765625,0.043835218995809555,0.026954805478453636,0.019130153581500053
1772731758143194400,10.6721943359375,0.037388939410448074,0.027959560975432396,0.02695303037762642
1772731758153222400,10.682222412109375,0.03746164217591286,0.023004217073321342,0.038716211915016174
1772731758163250400,10.69225048828125,0.043422091752290726,0.016667384654283524,0.044668857008218765
1772731758173278200,10.7022783203125,0.04718300700187683,0.012570910155773163,0.048217251896858215
1772731758183306200,10.71230615234375,0.04805532470345497,0.013652882538735867,0.04613719880580902
1772731758193334300,10.722334228515624,0.05381893739104271,0.014350897632539272,0.032385967671871185
1772731758203362300,10.7323623046875,0.05640745908021927,0.02213103696703911,0.019138909876346588
1772731758213390300,10.742390380859375,0.05988847836852074,0.02201545424759388,0.009127555415034294
1772731758223417300,10.752417236328125,0.06858357042074203,0.024169739335775375,-0.003123628441244364
1772731758233445400,10.7624453125,0.07473520934581757,0.023391297087073326,-0.012252411805093288
1772731758243473400,10.772473388671875,0.0742497444152832,0.020015493035316467,-0.01918092742562294
1772731758253501400,10.78250146484375,0.0734444111585617,0.014726988971233368,-0.027757370844483376
1772731758263529200,10.792529296875,0.06852199137210846,0.01587315835058689,-0.030965842306613922
1772731758273557500,10.8025576171875,0.06142119690775871,0.0156254842877388,-0.03166066110134125
1772731758283585300,10.812585205078125,0.05632700398564339,0.017487123608589172,-0.035739466547966
1772731758293613300,10.82261328125,0.052048634737730026,0.013516349717974663,-0.030758025124669075
1772731758303641300,10.832641357421876,0.04957824945449829,0.00911799632012844,-0.024821020662784576
1772731758313669400,10.84266943359375,0.04499708116054535,0.0019069556146860123,-0.01906619593501091
1772731758323697400,10.852697509765624,0.03488745540380478,-0.005161873064935207,-0.011376317590475082
1772731758333725200,10.86272509765625,0.029732374474406242,-0.014457902871072292,-0.010186417028307915
1772731758343752400,10.87275244140625,0.02551668882369995,-0.007684632204473019,-0.01381587889045477
1772731758353780200,10.8827802734375,0.01763453148305416,-0.0020248820073902607,-0.013049953617155552
1772731758363808500,10.89280859375,0.00650927796959877,-0.011268536560237408,-0.01780085638165474
1772731758373836300,10.902836181640625,-0.0023747608065605164,-0.010564928874373436,-0.018557460978627205
1772731758383864300,10.9128642578125,-0.006195998750627041,-0.009495865553617477,-0.014206795021891594
1772731758393892400,10.922892333984375,-0.006589880213141441,-0.018575113266706467,-0.006820784416049719
1772731758403920400,10.93292041015625,-0.007338560651987791,-0.025019200518727303,0.0011205655755475163
1772731758413948400,10.942948486328126,-0.009084529243409634,-0.024808278307318687,0.0004340026353020221
1772731758423976400,10.9529765625,-0.012657394632697105,-0.022233374416828156,-0.0002701842167880386
1772731758434004200,10.963004150390624,-0.018662823364138603,-0.02370317280292511,-0.0074050589464604855
1772731758444032500,10.973032470703124,-0.021081235259771347,-0.022555368021130562,-0.014731654897332191
1772731758454059300,10.983059326171874,-0.022450100630521774,-0.027340535074472427,-0.018796438351273537
1772731758464087300,10.99308740234375,-0.023030869662761688,-0.029161835089325905,-0.02578384429216385
1772731758474115300,11.003115234375,-0.022899841889739037,-0.024635260924696922,-0.03157675266265869
1772731758484143600,11.0131435546875,-0.019633840769529343,-0.022060304880142212,-0.030981695279479027
1772731758494172000,11.023171875,-0.021865036338567734,-0.018879957497119904,-0.02992468699812889
1772731758504199700,11.03319970703125,-0.022114677354693413,-0.01624186523258686,-0.029888125136494637
1772731758514228000,11.04322802734375,-0.025190895423293114,-0.01961688883602619,-0.022667497396469116
1772731758524255700,11.053255859375,-0.035870231688022614,-0.018439557403326035,-0.02039572037756443
1772731758534283800,11.06328369140625,-0.04156087338924408,-0.02329103834927082,-0.02004285156726837
1772731758544311800,11.073311767578126,-0.04318727180361748,-0.024167468771338463,-0.0202958807349205
1772731758554339800,11.08333984375,-0.03507235273718834,-0.02871188521385193,-0.021259412169456482
1772731758564368000,11.093367919921874,-0.025046950206160545,-0.02633904665708542,-0.02217280864715576
1772731758574395000,11.103394775390624,-0.022169938310980797,-0.021447885781526566,-0.01235240139067173
1772731758584423000,11.1134228515625,-0.01912977360188961,-0.021440871059894562,0.00032726689823903143
1772731758594450700,11.12345068359375,-0.02418418787419796,-0.019763080403208733,0.013128283433616161
1772731758604478700,11.133478759765625,-0.02584017440676689,-0.02448301762342453,0.02245204523205757
1772731758614506800,11.1435068359375,-0.027648992836475372,-0.028192799538373947,0.02629818208515644
1772731758624534800,11.15353466796875,-0.028363050892949104,-0.02768378145992756,0.02632489614188671
1772731758634562800,11.163562744140625,-0.0202111154794693,-0.01853662170469761,0.021282734349370003
1772731758644590800,11.1735908203125,-0.01838991418480873,-0.007639695890247822,0.009658695198595524
1772731758654618600,11.18361865234375,-0.010361814871430397,0.004205245524644852,0.008981985971331596
1772731758664647000,11.19364697265625,-0.005592422094196081,0.014872893691062927,0.00733783608302474
1772731758674674700,11.2036748046875,-0.0005313504952937365,0.022153178229928017,0.0014706263318657875
1772731758684702000,11.213701904296874,0.005297273397445679,0.028018949553370476,-0.002678896300494671
1772731758694729700,11.223729736328124,0.011604171246290207,0.02430570311844349,-0.006644077133387327
1772731758704758000,11.233758056640625,0.016814550384879112,0.021625302731990814,-0.0087489178404212
1772731758714785800,11.243785888671875,0.018711520358920097,0.02448500506579876,-0.01955016702413559
1772731758724813800,11.253813720703125,0.02285619266331196,0.022677002474665642,-0.025508219376206398
1772731758734841900,11.263841796875,0.021986935287714005,0.024326831102371216,-0.02437291480600834
1772731758744870000,11.273869873046875,0.023414190858602524,-0.007661161012947559,-0.02287149429321289
1772731758754898000,11.28389794921875,0.02200324833393097,0.013048377819359303,-0.028855618089437485
1772731758764925700,11.29392578125,0.031731978058815,0.014135836623609066,-0.024007782340049744
1772731758774953700,11.30395361328125,0.02936309576034546,-0.018685493618249893,-0.004240734502673149
1772731758784981800,11.313981689453126,0.027302736416459084,-0.035321373492479324,0.011366024613380432
1772731758795009000,11.324009033203126,0.027236690744757652,-0.03795577213168144,0.012697605416178703
1772731758805036800,11.334036865234374,0.018823733553290367,-0.035596635192632675,0.013889946974813938
1772731758815064800,11.34406494140625,0.014218062162399292,-0.0320943146944046,0.018353672698140144
1772731758825092900,11.3540927734375,0.018148187547922134,-0.05420941486954689,0.013266130350530148
1772731758835121000,11.364120849609375,0.022417768836021423,-0.04435225948691368,0.0019450332038104534
1772731758845149000,11.37414892578125,0.027144847437739372,-0.05273338779807091,0.0002784740354400128
1772731758855177000,11.384177001953125,0.030594708397984505,-0.08106356859207153,0.006633575540035963
1772731758865204700,11.394204833984375,0.02295582927763462,-0.06903919577598572,0.010320330038666725
1772731758875233000,11.40423291015625,0.022789914160966873,-0.034904927015304565,0.010477456264197826
1772731758885260800,11.4142607421875,0.023304037749767303,0.010769955813884735,0.012048314325511456
1772731758895288800,11.424288818359376,0.03495056927204132,0.041038643568754196,0.015081388875842094
1772731758905316900,11.43431689453125,0.04669627919793129,0.05736866965889931,0.022766901180148125
1772731758915344000,11.44434375,0.05420905724167824,0.05966617539525032,0.03698072209954262
1772731758925372000,11.454371826171876,0.06158534437417984,0.05292046070098877,0.05342906713485718
1772731758935399700,11.464399658203124,0.07020839303731918,0.08138858526945114,0.05956871807575226
1772731758945428000,11.474427978515624,0.07477501779794693,0.06391416490077972,0.053974658250808716
1772731758955455700,11.484455810546875,0.07240986078977585,0.0747753381729126,0.05052053555846214
1772731758965483800,11.49448388671875,0.07880091667175293,0.0824953094124794,0.033564724028110504
1772731758975511800,11.50451171875,0.07817986607551575,0.06483668833971024,0.017306655645370483
1772731758985539800,11.514539794921875,0.08346874266862869,0.05117351934313774,-0.006560418289154768
1772731758995567900,11.52456787109375,0.0887971967458725,0.048969753086566925,-0.02271568775177002
1772731759005596000,11.534595947265625,0.08644692599773407,0.04568912833929062,-0.032974161207675934
1772731759015623700,11.544623779296876,0.09000170975923538,0.03966265916824341,-0.0342189222574234
1772731759025652000,11.55465185546875,0.09891913831233978,0.036884501576423645,-0.030475420877337456
1772731759035679000,11.564678955078126,0.10815098136663437,0.039348725229501724,-0.02894596755504608
1772731759045706800,11.574706787109376,0.11775487661361694,0.04444214701652527,-0.01939079910516739
1772731759055734800,11.58473486328125,0.1254921704530716,0.04179815948009491,-0.007886742241680622
1772731759065762800,11.5947626953125,0.118030846118927,0.040037862956523895,0.00784632284194231
1772731759075790800,11.604790771484375,0.10486657172441483,0.034142956137657166,0.0064271241426467896
1772731759085819000,11.61481884765625,0.09003942459821701,0.019855614751577377,0.0025538436602801085
1772731759095847000,11.624846923828125,0.08596425503492355,-0.002175652887672186,-0.011552121490240097
1772731759105874700,11.634874755859375,0.10169731080532074,-0.030247820541262627,-0.020242176949977875
1772731759115903000,11.644903076171875,0.12798351049423218,-0.05864483863115311,-0.04042787477374077
1772731759125930800,11.6549306640625,0.13347654044628143,-0.05622441694140434,-0.07010988146066666
1772731759135958800,11.664958740234376,0.12733955681324005,-0.047879401594400406,-0.08388055115938187
1772731759145985800,11.67498583984375,0.10759109258651733,-0.04013070464134216,-0.07555864006280899
1772731759156013800,11.685013916015626,0.09703432023525238,-0.0187993161380291,-0.05521421879529953
1772731759166041900,11.695041748046876,0.09459739178419113,-0.0001785659696906805,-0.02477840892970562
1772731759176069600,11.705069580078124,0.0882532075047493,0.008426640182733536,0.01186801865696907
1772731759186098000,11.715097900390624,0.07611628621816635,0.011874581687152386,0.04727085679769516
1772731759196125700,11.725125732421875,0.06920591741800308,0.017029128968715668,0.07502712309360504
1772731759206154000,11.735154052734375,0.07553435117006302,0.012931713834404945,0.07614007592201233
1772731759216181800,11.745181640625,0.07724090665578842,-0.0056390403769910336,0.06418967247009277
1772731759226209800,11.755209716796875,0.0799303948879242,-0.011371387168765068,0.035499222576618195
1772731759236237800,11.76523779296875,0.0813802182674408,-0.0017405981197953224,0.006369032897055149
1772731759246265900,11.775265869140625,0.08479799330234528,-0.000738504808396101,0.0016564158722758293
1772731759256294000,11.7852939453125,0.08618629723787308,-0.0007760555017739534,0.009201684035360813
1772731759266321000,11.79532080078125,0.07820367068052292,-0.011725392192602158,0.020541474223136902
1772731759276349000,11.805348876953126,0.06437254697084427,-0.03507652133703232,0.029645489528775215
1772731759286376700,11.815376708984376,0.05478612706065178,-0.05170643329620361,0.02570866234600544
1772731759296404700,11.82540478515625,0.05022865906357765,-0.04863075166940689,0.0075064897537231445
1772731759306432800,11.835432861328124,0.058591485023498535,-0.03400667756795883,-0.009603764861822128
1772731759316460800,11.845460693359374,0.07182925939559937,-0.027652639895677567,-0.02482479438185692
1772731759326488800,11.85548876953125,0.07723557949066162,-0.029667552560567856,-0.03561414033174515
1772731759336516900,11.865516845703125,0.0707332044839859,-0.031237220391631126,-0.04439378157258034
1772731759346544600,11.875544677734375,0.059084173291921616,-0.028126027435064316,-0.043364912271499634
1772731759356573000,11.885572998046875,0.05826578289270401,-0.026905767619609833,-0.04027111828327179
1772731759366600700,11.8956005859375,0.06050163507461548,-0.044308919459581375,-0.04754914343357086
1772731759376628000,11.9056279296875,0.07107065618038177,-0.07057035714387894,-0.06711246073246002
1772731759386655700,11.91565576171875,0.060452401638031006,-0.1043488010764122,-0.08466432243585587
1772731759396684000,11.92568408203125,0.0321163684129715,-0.12654465436935425,-0.10031172633171082
1772731759406711800,11.9357119140625,0.012698928825557232,-0.12738542258739471,-0.10213460773229599
1772731759416739800,11.94573974609375,0.004574422258883715,-0.10559065639972687,-0.08814182877540588
1772731759426768000,11.955767822265624,0.004799626301974058,-0.08348953723907471,-0.05656807869672775
1772731759436795600,11.965795654296874,0.0017420512158423662,-0.06609483808279037,-0.013058417476713657
1772731759446824000,11.975823974609375,-0.00010841258335858583,-0.05187227949500084,0.02308477833867073
1772731759456851700,11.985851806640625,-0.009637203067541122,-0.042754415422677994,0.054989978671073914
1772731759466879700,11.995879638671875,-0.013654314912855625,-0.04350622370839119,0.06475712358951569
1772731759476907800,12.00590771484375,-0.018124695867300034,-0.05889743193984032,0.05268927291035652
1772731759486935300,12.015935302734375,-0.02458176575601101,-0.0725206732749939,0.032023366540670395
1772731759496962300,12.02596240234375,-0.0312841422855854,-0.08116289973258972,0.017340295016765594
1772731759506990300,12.035990234375,-0.027396593242883682,-0.08229134976863861,0.016122568398714066
1772731759517018400,12.046018310546875,-0.016208920627832413,-0.08699794858694077,0.009638570249080658
1772731759527046400,12.05604638671875,-0.004508321639150381,-0.0836772546172142,-0.00521441176533699
1772731759537074400,12.066074462890626,-0.00836218148469925,-0.0796915665268898,-0.0029664374887943268
1772731759547102200,12.076102294921874,-0.015914272516965866,-0.08890300244092941,0.020883409306406975
1772731759557130200,12.086130126953124,-0.012590115889906883,-0.09082766622304916,0.03855481371283531
1772731759567158300,12.096158203125,0.000529682554770261,-0.0708458423614502,0.03960810601711273
1772731759577186300,12.106186279296875,0.006893306039273739,-0.05470522493124008,0.04543004184961319
1772731759587214300,12.11621435546875,0.026187408715486526,-0.03553977236151695,0.06875822693109512
