time,seconds_elapsed,z,y,x
1772639319290102800,0.061102783203125,0.12039397361874579,0.0012315168396220542,-0.0003500464135315269
1772639319300147700,0.071147705078125,0.06562602612078189,0.011083619590557646,-0.004172454245900735
1772639319310193000,0.08119287109375,0.11485738227963446,0.005364611756091472,0.0032005861395969985
1772639319320237600,0.091237548828125,0.08088906170427798,-0.009678249729593517,0.007495936112804338
1772639319330282800,0.10128271484375,0.09031623074114323,-0.0017362366499903146,-0.011134603142412379
1772639319340327700,0.11132763671875,0.08552724289894104,0.0052277657060680206,-0.006660389470960945
1772639319350372900,0.121372802734375,0.0781961693584919,0.003935890131469932,-0.0031366357916034755
1772639319360418800,0.131418701171875,0.09570552256405353,0.003913303840326262,0.004074930421868339
1772639319370463700,0.141463623046875,0.0997457378655672,0.005513794985413551,0.004542675797780975
1772639319380508700,0.1515087890625,0.09286357713639735,0.004397452361768228,0.0033083756293170153
1772639319390553600,0.1615537109375,0.08972118745744227,0.013612329784000758,-0.0026589352772571147
1772639319400598800,0.171598876953125,0.09361234967708587,0.0012498916048847605,-0.000868690859619528
1772639319410643700,0.181643798828125,0.08628010709285736,-0.008588198032896616,0.007969389710295946
1772639319420688600,0.191688720703125,0.09151742322444915,-0.0035599980322731425,-0.0023754238944500685
1772639319430734600,0.201734619140625,0.09106792589128017,-0.013878677686164154,-0.0010785159517079591
1772639319440779800,0.21177978515625,0.0840343739926815,-0.009682203243859112,-0.0064308093656320125
1772639319450824700,0.22182470703125,0.07819792292416096,-0.012586436785385012,0.01579696893026121
1772639319460870000,0.231869873046875,0.09328092576563357,-0.0111735434883798,0.012223448691889642
1772639319470914800,0.241914794921875,0.09974223073422908,-0.01736497173223179,-0.008194549368834122
1772639319480959700,0.251959716796875,0.08732523223161696,-0.014441061950923175,0.003271002760995179
1772639319491004700,0.262004638671875,0.08850362836122512,-0.015669387894682585,0.005905433784658089
1772639319501050600,0.272050537109375,0.08701309754252433,0.003057236141906469,0.0017786270450800656
1772639319511095800,0.282095703125,0.08596680335998534,-0.0022564965227851643,-0.006996763552166521
1772639319521140700,0.292140625,0.09270809431374072,-0.011042641409486532,-0.002677996170753613
1772639319531185700,0.302185546875,0.0807183813124895,-0.004897859610733576,-0.00001905176034197211
1772639319541230600,0.312230712890625,0.08474281452298164,0.0008936437794298399,-0.0038184075106866655
1772639319551275800,0.32227587890625,0.07622223893702029,0.01207304504479398,-0.0059198550356552
1772639319561320700,0.33232080078125,0.08549743228256702,0.006068138649256434,-0.009724425817234442
1772639319571366000,0.342365966796875,0.08803601084947585,0.0038192614606348796,0.009815145441144705
1772639319581411800,0.352411865234375,0.08743862947821616,0.0016394206454337108,0.008317244166741147
1772639319591456800,0.362456787109375,0.0932797567218542,-0.009724078757362439,-0.0032109340036753564
1772639319601501700,0.372501708984375,0.08609890530705451,-0.004202728369866964,-0.0060117985022719945
1772639319611547000,0.382546875,0.08310556870996952,0.013392489046329864,-0.004258187167439609
1772639319621591800,0.392591796875,0.1100415064305067,-0.008447208955651148,-0.0057993521948345
1772639319631636700,0.40263671875,0.08086684987246989,0.006307572286674985,-0.005132038259366527
1772639319641681700,0.412681640625,0.08715688992738724,0.000932801037817262,-0.003556496038334444
1772639319651727600,0.4227275390625,0.07637830628156661,0.0006184195927111431,-0.013378911470482126
1772639319661772800,0.432772705078125,0.0852022487282753,-0.0019582054126658474,0.0010487053353339434
1772639319671817700,0.442817626953125,0.09807108265161514,0.01181685777704115,-0.006992224374366924
1772639319681863000,0.45286279296875,0.09537935934960842,0.006264389590430073,0.008964611292723565
1772639319691907600,0.462907470703125,0.09822422738671302,-0.0014702723403170238,0.014509139343118295
1772639319701952800,0.472952880859375,0.09628069210350512,-0.007256332370382733,0.00513631257568486
1772639319711998700,0.482998779296875,0.0896983911037445,-0.007515579244901891,0.007895319827087223
1772639319722043600,0.493043701171875,0.08057283536195754,0.000507272527058376,0.0028728976883459836
1772639319732088800,0.5030888671875,0.08162380571961403,0.007917656098125735,0.005059073487855494
1772639319742133800,0.5131337890625,0.0971837784230709,-0.001969000801315997,-0.008012059808243066
1772639319752178700,0.5231787109375,0.09898176775574684,-0.0010246565978217403,0.013991819204436614
1772639319762223600,0.5332236328125,0.07862813103497028,-0.004872908974211896,-0.0014426365563645958
1772639319772268800,0.543268798828125,0.08655541690289974,-0.005436271628149552,-0.01700892940275371
1772639319782313700,0.553313720703125,0.08356032674014569,0.005690321737743215,-0.00866597540602088
1772639319792360000,0.56335986328125,0.10944587862491607,-0.002289174949680455,-0.0006144969028420746
1772639319802404600,0.573404541015625,0.06305705241560935,-0.001161529476486612,0.0042254082758445295
1772639319812449800,0.58344970703125,0.0872977597028017,0.005297245608305093,0.00005226904335431754
1772639319822494700,0.59349462890625,0.10181494535505771,-0.013748306471877731,-0.009122605732874944
1772639319832540000,0.603539794921875,0.07218377720117569,-0.01316345807191683,-0.010828843395179137
1772639319842584800,0.613584716796875,0.09522796818017959,0.0023924640775076114,-0.00211535731931217
1772639319852630800,0.623630859375,0.1143850885927677,0.003507923639274668,-0.0012339713749010114
1772639319862675700,0.63367578125,0.07817454204857349,0.012177600256167351,-0.004965705249132589
1772639319872720100,0.64372021484375,0.0911930135756731,0.0004847124937339686,-0.005531823832448572
1772639319882765000,0.65376513671875,0.08221358830630779,-0.014447243954893201,0.0019374069365207104
1772639319892810000,0.66381005859375,0.09164017282128334,-0.0007248562339169438,-0.0033585531802847977
1772639319902855200,0.673855224609375,0.08939677780866623,0.0004326946121291257,-0.007075363480020314
1772639319912900000,0.683900146484375,0.08984802870750427,0.03250548148117959,0.009071496600145473
1772639319922945000,0.693945068359375,0.10466156695783138,0.01228017243136419,0.0029154307889752086
1772639319932991000,0.703990966796875,0.0732376701682806,-0.005087308635073714,0.0040806843092199415
1772639319943036200,0.7140361328125,0.09029811056256294,0.0004644117745105177,-0.003831303524877876
1772639319953081000,0.7240810546875,0.0943389103859663,-0.006123042607691604,0.002233458140492439
1772639319963126300,0.734126220703125,0.07263970427513122,0.013705200265801977,-0.002686069879354909
1772639319973171200,0.744171142578125,0.08984861322939396,0.014850210149039048,0.011422361442074178
1772639319983216000,0.754216064453125,0.07503565950095653,0.007030247979948763,0.004709383267350494
1772639319993261000,0.764260986328125,0.06441080511212348,-0.014631305559707106,0.003776495464565232
1772639320003307000,0.77430712890625,0.09388882853090763,-0.010767499421158571,0.0038076121220365165
1772639320013352200,0.784352294921875,0.08431026832461357,0.009321855773666175,0.006443166523706167
1772639320023397000,0.794397216796875,0.10630699607729911,0.01290857113703969,-0.002509407271351665
1772639320033442000,0.804442138671875,0.10121990207135677,-0.0014576914199569727,0.0011291684267111122
1772639320043487000,0.814487060546875,0.09568447977602482,-0.004080896655062679,0.0045031475049909205
1772639320053532200,0.8245322265625,0.08670446998476981,-0.005664002269686898,-0.00408283973368816
1772639320063577000,0.8345771484375,0.07518120545148849,-0.0021304487155226525,0.0010123462471645325
1772639320073623300,0.844623291015625,0.10301263070702552,0.01966075908578932,0.0012095584528520702
1772639320083668200,0.854668212890625,0.11034370424747467,0.00044862055033445357,-0.001719133676495403
1772639320093713200,0.864713134765625,0.09747311675846576,-0.002562427516665775,0.006580748363491148
1772639320103758000,0.874758056640625,0.0982213047772646,0.007108223428361816,-0.004363419373892247
1772639320113803300,0.88480322265625,0.0865484026402235,-0.0049993380906758825,-0.003280546907475218
1772639320123848200,0.89484814453125,0.09492810845077038,-0.002641366512881359,-0.011797286568535492
1772639320133893000,0.90489306640625,0.09223521610498428,0.003512285862205317,0.006820767664443701
1772639320143939000,0.91493896484375,0.0804138454079628,0.003998207357269711,-0.005875422238884494
1772639320153984000,0.92498388671875,0.09148761260807514,0.011476358934922609,-0.010786018033605068
1772639320164029200,0.935029296875,0.08280804706811905,-0.002093710601440398,-0.00006957637118175626
1772639320174074000,0.94507421875,0.09178454972803592,0.004475050496734911,-0.012235559254791587
1772639320184119300,0.955119384765625,0.08984042992293834,-0.001499094292713562,0.0007053717903792858
1772639320194164000,0.9651640625,0.09807049812972544,0.0004359414485632442,0.01044308634744957
1772639320204209200,0.975209228515625,0.09911913039982319,0.0016803269029129295,0.0013247457977384328
1772639320214255000,0.985255126953125,0.09537643674015998,-0.004052846454223618,-0.00752585632703267
1772639320224300000,0.995300048828125,0.07532675140202046,-0.003203072640916798,-0.01785004726885818
1772639320234345200,1.00534521484375,0.0798170485585928,-0.000342465895274654,-0.00890046914848499
1772639320244390000,1.015389892578125,0.09418225851953028,-0.0010682114701136014,-0.000820887928828597
1772639320254435000,1.02543505859375,0.10076806665062904,0.014607375553203746,-0.006328755496954545
1772639320264480000,1.03547998046875,0.09029226534366608,-0.002445203478320036,0.0007763546673581004
1772639320274525200,1.045525146484375,0.09388239879012107,-0.00242703763396712,-0.007306121762283146
1772639320284571100,1.055571044921875,0.07846914108097552,0.00020102986427955328,0.0008744264806620776
1772639320294616300,1.0656162109375,0.08804594772160053,0.01083906453673844,-0.013369075063057243
1772639320304661000,1.075660888671875,0.09133914404809475,0.008178277512401109,-0.006462346148211509
1772639320314706200,1.0857060546875,0.0961293009340763,0.008926039697870146,-0.004509312384296208
1772639320324751000,1.095751220703125,0.10016893171370028,0.0037084397636121137,0.007156812952086329
1772639320334796300,1.10579638671875,0.10735270573794842,-0.0029057564950431694,0.002729470629664138
1772639320344841000,1.115841064453125,0.0856546686708927,0.011912932854436804,-0.006138320091925561
1772639320354887000,1.125886962890625,0.089096918079257,-0.0044838696990744204,-0.013826189447101204
1772639320364932000,1.13593212890625,0.10436053818464279,0.0020718047303089405,-0.0023927951543591913
1772639320374977000,1.14597705078125,0.0896983911037445,-0.003082858636107994,-0.007676991768134757
1772639320385022200,1.156022216796875,0.09942541987001895,0.00501157537609688,-0.0031459607423748818
1772639320395067100,1.166067138671875,0.09373860640525818,0.0020208862521802072,0.0030795353095047174
1772639320405112000,1.176112060546875,0.09897533801496028,0.004404313073283993,-0.0014886493888683616
1772639320415157000,1.186156982421875,0.1060071363478899,0.0005394851630728226,-0.0019042261861264705
1772639320425203200,1.196203125,0.09583236381411551,-0.003499188918614527,-0.0020218794827349482
1772639320435248000,1.206248046875,0.08805296198427677,-0.005539845025411341,0.003991288992716
1772639320445293300,1.216293212890625,0.0901473039150238,-0.009134485683625097,0.008307161164144053
1772639320455338000,1.226337890625,0.07997311590313912,-0.012105491717893165,-0.006706201374065131
1772639320465383200,1.236383056640625,0.09104571405947208,0.002325248626770917,-0.0039056017369497567
1772639320475428000,1.246427978515625,0.08505962538719176,0.0030386507432674987,-0.017781822604546322
1772639320485473300,1.256473388671875,0.10017360788881778,0.0023930680073506664,-0.012349897216306999
1772639320495518200,1.266518310546875,0.10092179590761662,0.002814302793837851,-0.00978085044589825
1772639320505564200,1.276564208984375,0.0831149210602045,-0.0009010484844620805,0.0055042508389335125
1772639320515609000,1.286609130859375,0.08730477396547794,0.004218203358567553,-0.006011597572872415
1772639320525654000,1.296654052734375,0.08610767313539981,-0.006599279534025117,-0.0007619242832064628
1772639320535699200,1.30669921875,0.08790449342429638,0.01494379644182627,0.004134935247106477
1772639320545744100,1.316744140625,0.0795247876137495,0.0014325056047062388,0.007601049588248133
1772639320555789300,1.326789306640625,0.08641045547425746,-0.0015471232690790202,0.0009353080887347459
1772639320565834000,1.336833984375,0.0883563288450241,0.0037215309989813245,-0.006294716230034828
1772639320575880000,1.3468798828125,0.08805822268128395,-0.002971726411831332,0.011600695417355745
1772639320585925000,1.356925048828125,0.08626198691427707,0.0017961649850592948,0.0028948994575999677
1772639320595970000,1.366969970703125,0.10107727873027324,-0.0018831308824592268,0.0020966526188421993
1772639320606015200,1.37701513671875,0.08820844480693339,-0.006257164123555412,0.0016459588424302637
1772639320616060000,1.387059814453125,0.09703764795064926,-0.00707129009310156,0.005587298613041639
1772639320626105000,1.39710498046875,0.08147475263774394,0.00010275712157599628,-0.0013722016686573623
1772639320636150000,1.40714990234375,0.08536474581360816,-0.008833695514098508,0.004114623111439868
1772639320646196200,1.4171962890625,0.08716156610250472,-0.007770549519814085,-0.004032643916411325
1772639320656241200,1.4272412109375,0.09554068739116191,-0.003980160243925638,0.0020475893127266317
1772639320666286300,1.437286376953125,0.07788345014750957,0.0038388406606507486,-0.0036418362342286854
1772639320676331000,1.4473310546875,0.08177402784526347,0.01349658988326555,-0.003947358519444242
1772639320686376200,1.457376220703125,0.08371873217225075,0.000459863463556394,-0.00728309707972221
1772639320696421000,1.467421142578125,0.10167466010153293,0.0025639459036057815,-0.007625855235941708
1772639320706466300,1.47746630859375,0.08207154948711395,0.01663033046488417,0.0055163796681445085
1772639320716512300,1.48751220703125,0.10332008922100067,0.008574063905444927,-0.0037917204331606624
1772639320726557000,1.497556884765625,0.08566226745545863,-0.004348699012084398,0.0026231150452047584
1772639320736602000,1.50760205078125,0.08940320754945277,0.0077043683988275,0.002141596872266382
1772639320746647000,1.51764697265625,0.07847966247498989,0.00042270979094319045,0.0018340196272823958
1772639320756692200,1.527692138671875,0.09030103317201137,0.0022466018915001766,0.005867659057537093
1772639320766737200,1.537737060546875,0.09898118323385714,0.003918170099222334,-0.013155706307012587
1772639320776782000,1.547781982421875,0.08581307410299778,0.00870137665460934,-0.02149637701511383
1772639320786828000,1.557828125,0.0874590877443552,-0.007841394257830689,0.002130052564945072
1772639320796873200,1.567873291015625,0.07189736147522927,0.0025762174383562523,-0.007094442639825865
1772639320806918100,1.577918212890625,0.09598960020244121,-0.004067001702095149,0.0007169800297822802
1772639320816963000,1.587963134765625,0.09718670103251933,0.009364013273315503,0.004932926357537508
1772639320827008000,1.598008056640625,0.1007780035227537,0.005984022296068724,0.0146426751954481
1772639320837053200,1.60805322265625,0.08895663282573223,-0.010486919780954486,-0.0006134922558441758
1772639320847098000,1.61809814453125,0.09539163430929183,-0.004230629015300655,0.006502239767182618
1772639320857144000,1.62814404296875,0.09075403763651847,0.010207433836004929,-0.004477474207617342
1772639320867189200,1.638189208984375,0.10077975708842277,0.003331210798921529,0.009635870750946924
1772639320877234400,1.648234375,0.08027998989522457,-0.0038697483972122424,-0.0033599596860818563
1772639320887279600,1.658279541015625,0.09943301865458488,0.0012788071721151937,-0.005621575341979042
1772639320897324500,1.668324462890625,0.08776070103943348,-0.005916062493238132,-0.005099332433007657
1772639320907369500,1.678369384765625,0.09569149403870106,-0.004389565312012564,0.007140355007629841
1772639320917414400,1.688414306640625,0.09374562066793442,0.009307165094610536,0.00229145367173478
1772639320927460400,1.69846044921875,0.08282207559347152,-0.0018156905277923214,0.00034653014903888107
1772639320937505500,1.708505615234375,0.08252280038595199,0.0013262150939728598,0.005728003991674632
1772639320947550500,1.718550537109375,0.09209902250468731,-0.002727080026466865,-0.0054504930913913995
1772639320957595600,1.728595703125,0.09793488905131817,0.0016786863600311334,0.012075975645752622
1772639320967640300,1.738640380859375,0.09449380868673324,-0.0047173428115202115,0.006016228082217276
1772639320977685500,1.748685546875,0.08581541219055652,0.011062113294936716,-0.006182679823460057
1772639320987730400,1.75873046875,0.1007785880446434,-0.005496670320676639,-0.001637656804965809
1772639320997775600,1.768775634765625,0.0950923591017723,-0.0031498605993576347,0.005267966998182237
1772639321007821600,1.778821533203125,0.08027765180766581,0.004815117797302082,0.001006199634168297
1772639321017866500,1.788866455078125,0.0825222158640623,0.0017263911094109062,-0.0008325235676951705
1772639321027911400,1.798911376953125,0.08222294065654277,-0.00666781472559087,-0.0009395732718985527
1772639321037956400,1.808956298828125,0.0947919148504734,0.0054177244745951605,-0.0016375746065750718
1772639321048001500,1.81900146484375,0.09957973364889622,-0.008304023925564251,0.0012798380769323556
1772639321058046500,1.82904638671875,0.09404314230978489,-0.00368133484426653,-0.00036934476904571054
1772639321068091400,1.83909130859375,0.0870101749330759,-0.0027230545886093747,0.007104370378796011
1772639321078137300,1.849137451171875,0.09254676627218723,0.004641474838514114,-0.003209792359359562
1772639321088182500,1.8591826171875,0.09015314913392067,0.006952255406870972,-0.00945602980516851
1772639321098227500,1.8692275390625,0.0900035115301609,0.00859753725422197,-0.005698924027662724
1772639321108272600,1.879272705078125,0.07025251687765122,-0.00039508428178960454,-0.0035019711058121173
1772639321118317600,1.889317626953125,0.07788461919128895,0.0012203093173739034,0.004356633440079167
1772639321128362500,1.899362548828125,0.10930851598083972,-0.002348339524702169,-0.013297699460433795
1772639321138407400,1.909407470703125,0.085066639649868,0.009676632019598036,-0.015278224019473418
1772639321148453400,1.919453369140625,0.08671265329122543,-0.0003642735849949531,0.005062069162540137
1772639321158498600,1.92949853515625,0.09150164113342761,0.006678096374298911,-0.004184409545175731
1772639321168543500,1.93954345703125,0.08671265329122543,0.0007664063787902705,0.001782855695625767
1772639321178588400,1.94958837890625,0.09254910435974598,0.007582272964186267,0.010018440327746793
1772639321188633300,1.95963330078125,0.09973112481832504,-0.0027676723317592404,0.005636097057675943
1772639321198678500,1.969678466796875,0.08057692701518535,0.004698074138758238,0.008125986777804791
1772639321208723500,1.979723388671875,0.08820844480693339,0.006379060912085697,-0.005782072266470641
1772639321218768600,1.9897685546875,0.07878186029195786,0.0009648858096683397,0.003861178073333576
1772639321228814600,1.999814697265625,0.08461714231669902,-0.006138531296123983,0.0003429682187736034
1772639321238859500,2.009859619140625,0.08716098158061504,-0.0011745784710161388,0.006027726723765954
1772639321248904400,2.019904541015625,0.08835808241069316,-0.004091656652739038,-0.00013146262625232338
1772639321258949600,2.02994970703125,0.09030337125957012,-0.00005894880424602888,0.00466817447412759
1772639321268994600,2.03999462890625,0.08596329622864722,0.003682986803591484,-0.006638104573916643
1772639321279039500,2.05003955078125,0.10122633181214331,0.00000383592490106821,0.0005042049287818372
1772639321289084400,2.06008447265625,0.09733516959249973,-0.0003520956650783773,-0.0026724797454196958
1772639321299130400,2.07013037109375,0.06755728644430636,0.002370883575006155,0.009143520656740293
1772639321309175600,2.080175537109375,0.08416706046164035,-0.02125097371956799,-0.005636243188148364
1772639321319220500,2.090220458984375,0.10107552516460418,0.0009570541296619921,-0.017225330366101115
1772639321329265700,2.100265625,0.08805646911561489,-0.001036131264839787,-0.0029373686261475085
1772639321339310300,2.110310302734375,0.08461480422914028,-0.0030786025860987136,-0.0005466101652476937
1772639321349355500,2.12035546875,0.09015139556825161,-0.010297001540800555,0.00427709279730916
1772639321359400400,2.130400390625,0.09074994598329067,0.0014256260560592635,-0.012342490227986126
1772639321369446400,2.1404462890625,0.08401800737977028,-0.0002743736617034301,0.003801575106894597
1772639321379491600,2.15049169921875,0.08446692019104957,-0.0029885976315301376,-0.004848015419906005
1772639321389536300,2.160536376953125,0.09060264646708965,0.00033832400969695297,-0.010446556946169585
1772639321399581400,2.17058154296875,0.08012859872579574,0.0016653040053613948,-0.0018476006280630827
1772639321409626400,2.18062646484375,0.08835808241069316,-0.008418857360712718,-0.0032546178817749022
1772639321419671600,2.190671630859375,0.09509177457988262,-0.003224648576840991,-0.009203315419424325
1772639321429716500,2.200716552734375,0.09000468057394027,-0.001016751852579182,-0.006186460949433967
1772639321439762700,2.2107626953125,0.09614040684998035,-0.008326362479891394,-0.006376777623454109
1772639321449807400,2.220807373046875,0.08267302251160144,0.00047386573108960874,-0.002077756122127175
1772639321459852500,2.2308525390625,0.09314823929667472,0.0102936941972177,0.0074451923062559214
1772639321469897500,2.2408974609375,0.08970657441020011,0.009957369206717703,0.0003943422129843384
1772639321479942700,2.250942626953125,0.09778700501322746,0.006069220928067807,0.002353202929487452
1772639321489987300,2.2609873046875,0.09045476242899894,-0.010416056776628829,-0.0013879472270607947
1772639321500032500,2.271032470703125,0.09374737423360348,-0.0006652521258336491,-0.008642274870024993
1772639321510078500,2.281078369140625,0.09359832115173339,0.009845802015956723,-0.00796321569783613
1772639321520123400,2.291123291015625,0.08357377074360847,-0.004165674020309234,-0.0063597716897260395
1772639321530168600,2.30116845703125,0.07908405810892581,0.013063843897142213,-0.0021925964071415364
1772639321540213500,2.311213623046875,0.09883563728332519,0.008920902298449072,-0.0068952394064515825
1772639321550258400,2.321258544921875,0.10078151065409183,-0.002181359202141175,0.0043352161927148695
1772639321560303400,2.331303466796875,0.08791326125264168,-0.011387512749334564,-0.003503286280063912
1772639321570348500,2.3413486328125,0.08521978438496589,-0.0032457712799718137,0.004920377403218299
1772639321580394500,2.35139453125,0.09330138403177261,-0.008776580190623644,0.005606660900637507
1772639321590439700,2.361439697265625,0.08686755159199237,0.0007332712941686623,0.005839693338377401
1772639321600484600,2.371484619140625,0.09270400266051292,0.008842493025196017,-0.005182581136515364
1772639321610529500,2.381529541015625,0.08746668652892112,0.004731474084861111,0.009920980435796081
1772639321620574500,2.391574462890625,0.09390051896870136,0.005582951231487095,0.005368212502263486
1772639321630619600,2.40161962890625,0.07923603380024433,-0.004007510616799118,-0.005134769072569907
1772639321640664600,2.41166455078125,0.09659399583637714,-0.009989143451314885,0.002661145500652492
1772639321650710500,2.42171044921875,0.09674363344013691,-0.0071221834550553465,-0.01440189784266986
1772639321660755500,2.43175537109375,0.08252806108295917,0.0010717859584663527,-0.004319004843430593
1772639321670800400,2.44180029296875,0.09569617021381854,-0.005815421980223618,-0.0007144318796694279
1772639321680845600,2.451845458984375,0.09509878884255886,-0.0009920249783433974,-0.0019626509756315498
1772639321690890500,2.461890380859375,0.07325111417174339,0.003039925959968241,-0.008469639983167871
1772639321700935700,2.471935791015625,0.0910579890191555,0.0021861347003141415,0.0065378225372172884
1772639321710980400,2.48198046875,0.09839023160338402,-0.004556960051460192,0.003636803866084665
1772639321721025500,2.492025634765625,0.0894113908559084,-0.009793666544987353,0.004775808700220659
1772639321731071500,2.502071533203125,0.08522212247252464,-0.004229076379031175,-0.0008094166867434978
1772639321741116400,2.512116455078125,0.08447451897561549,0.0010973176919447723,-0.009717247157776727
1772639321751161600,2.52216162109375,0.08148235142230988,0.0012619302441948092,-0.008038335893815383
1772639321761206300,2.532206298828125,0.08582184193134307,0.0012785126278817187,-0.004588935225456953
1772639321771251500,2.54225146484375,0.08058452579975128,0.006829956759541528,0.004438685700343921
1772639321781296400,2.55229638671875,0.0940513256162405,-0.005867952460126252,-0.00014201141973026096
1772639321791342600,2.562342529296875,0.09569675473570823,0.0035933311921835407,-0.005027463640039786
1772639321801387500,2.572387451171875,0.09928747270405291,0.004817583749024197,-0.0060839869556482875
1772639321811432700,2.5824326171875,0.09435001630187034,0.013814186198764946,-0.010409138412075117
1772639321821477400,2.592477294921875,0.0819300951898098,0.0008373196154658216,-0.008130361558822914
1772639321831522600,2.6025224609375,0.0919552301198244,-0.001382368011289509,0.008744009078294038
1772639321841567500,2.6125673828125,0.09345219067931175,-0.0024997090028889943,0.0059368975020013745
1772639321851612700,2.62261279296875,0.08597031049132346,-0.008551075755502097,0.00007068148287944495
1772639321861657300,2.6326572265625,0.08971066606342792,0.002960055381990969,0.004672485323064029
1772639321871703600,2.64270361328125,0.08671791398823261,-0.004539861644542543,-0.0014582268511410801
1772639321881748700,2.652748779296875,0.10018529832661151,0.005883292734797578,-0.008772970311297102
1772639321891793700,2.662793701171875,0.09420037869811057,0.0021117417317640503,-0.0021636717067565767
1772639321901838600,2.672838623046875,0.09494798219501972,-0.005939599774096859,-0.0030876364175695926
1772639321911883500,2.682883544921875,0.07908522715270519,0.003919823200191604,0.0039645288499537855
1772639321921928700,2.6929287109375,0.09090718237161635,0.005045213925861753,0.007737517183180898
1772639321931973600,2.7029736328125,0.09135667970478534,0.0030578634754579977,-0.0004402911134064197
1772639321942019600,2.71301953125,0.08731587988138198,-0.0010261989592923783,-0.005703581936471164
1772639321952064800,2.723064697265625,0.0892623377740383,0.005305322741839336,-0.007418377364566549
1772639321962109400,2.733109375,0.09315291547179222,-0.006743375596276018,-0.0021324819840490817
1772639321972154600,2.743154541015625,0.0945002384275198,-0.008722202530218055,0.006468593225907534
1772639321982199600,2.753199462890625,0.09809212543964385,-0.01606736053659115,-0.006958258172683417
1772639321992244700,2.76324462890625,0.09554770165383815,0.004640647146385163,-0.0014235573965590447
1772639322002289700,2.77328955078125,0.09554770165383815,-0.0005778729531913995,-0.007108900423441082
1772639322012335900,2.7833359375,0.0927051717042923,0.006879247252875939,-0.00016123671000823378
1772639322022380500,2.793380615234375,0.0829798965036869,0.006792999449750641,-0.00652577590639703
1772639322032425700,2.80342578125,0.09345452876687049,0.003916336618451168,0.009778357094712555
1772639322042470700,2.813470703125,0.08791735290586948,-0.006799802508228458,0.010494204613333568
1772639322052515800,2.823515869140625,0.10243161594867706,-0.00291446952446131,0.001138584709027782
1772639322062560500,2.833560546875,0.1126075575262308,0.002193235727958381,0.01031522218408063
1772639322072605700,2.843605712890625,0.09659633392393588,0.009154276087839388,0.0012445019020698963
1772639322082651600,2.853651611328125,0.08731880249083042,-0.00031912155230529607,0.00304394340631552
1772639322092696600,2.863696533203125,0.07579729152321815,-0.005116580395330674,0.0003963332406710833
1772639322102741800,2.87374169921875,0.09494973576068877,0.008117317130870652,0.000004831438744440675
1772639322112786700,2.88378662109375,0.09779285023212432,0.002963599045947194,-0.0007553849445655941
1772639322122831600,2.89383154296875,0.09091010498106479,0.014581995658419326,0.0069090030703227966
1772639322132876500,2.90387646484375,0.09330372211933136,0.005002618034795159,-0.0076875770942308
1772639322142921700,2.913921630859375,0.09330313759744167,-0.0070042458890122354,-0.0022254483639728277
1772639322152967700,2.9239677734375,0.08701777371764183,-0.005555205849680351,-0.0076790284615941345
1772639322163012900,2.934012939453125,0.0897112505853176,0.007034962970972992,-0.003304046514071524
1772639322173057500,2.9440576171875,0.0931534999936819,-0.005234435762983048,0.009458888482535257
1772639322183102700,2.954102783203125,0.08611994809508323,-0.003606366486981278,-0.0010594915908295661
1772639322193147600,2.964147705078125,0.08791559934020042,0.0057453056112804915,-0.0036374797195196148
1772639322203192800,2.97419287109375,0.10931319215595721,-0.0043289850980392655,-0.0011548143246211111
1772639322213237800,2.98423779296875,0.09704290864765644,-0.008951562298194039,0.0017125030063092708
1772639322223283700,2.99428369140625,0.09734276837706565,0.0036726857469300735,0.0007164503068197518
1772639322233328600,3.00432861328125,0.08567161980569363,0.010139037925045703,-0.004298099052719772
1772639322243373600,3.01437353515625,0.0931534999936819,0.0026286211957398335,0.002123504093149677
1772639322253418800,3.024418701171875,0.09569733925759792,0.004389374657411827,-0.011663257525861262
1772639322263463700,3.034463623046875,0.09584697686135768,-0.0005500122653087601,-0.011045463554235175
1772639322273508600,3.044508544921875,0.08552198220193385,-0.01928130619797157,-0.0044341008567716925
1772639322283553500,3.054553466796875,0.08552256672382354,-0.010936049504653782,0.0026486878778785466
1772639322293599500,3.064599609375,0.09210720581114291,0.005873842203151435,-0.0029837741842959073
1772639322303644700,3.074644775390625,0.08672025207579136,-0.004886471708683529,0.006615865342644974
1772639322313689600,3.084689697265625,0.08731821796894072,-0.007093190256011439,0.001627820397540927
1772639322323734800,3.09473486328125,0.09644669632017612,-0.0005178007709386292,0.008856986199785023
1772639322333779500,3.104779541015625,0.08851648784279822,-0.009512001201038947,0.0008335647473111748
1772639322343824600,3.11482470703125,0.09450257651507854,-0.00009135095321689731,0.0056611310342326755
1772639322353869600,3.12486962890625,0.07609715125262737,0.006859455707017332,-0.0007192176526412367
1772639322363915800,3.134915771484375,0.08133388286232948,-0.0004639653915830422,-0.004518609935604036
1772639322373960700,3.144960693359375,0.07654547954201697,0.009123943740013055,0.005931435875594616
1772639322384005600,3.155005615234375,0.09450140747129916,0.0028705847169621847,-0.00474260055036284
1772639322394050600,3.165050537109375,0.08253039917051792,0.009334220923250541,-0.0017718685107305644
1772639322404095700,3.175095703125,0.07729308303892612,-0.0065875240225053856,-0.0014794157696422189
1772639322414140700,3.185140625,0.09076046737730503,0.001225623671663925,0.000304627236071974
1772639322424185900,3.195185791015625,0.0874678555727005,-0.0004389177152945194,0.0016072799330111593
1772639322434231800,3.205231689453125,0.08761690865457057,-0.0050762232687673525,0.009175897689536213
1772639322444276500,3.2152763671875,0.10018646737039089,-0.000346497041353723,0.000170534261316061
1772639322454321700,3.22532177734375,0.09464987603127956,-0.0009947512249695136,0.004804185411334038
1772639322464366600,3.23536669921875,0.09240589649677276,-0.0040832039182248986,0.0018641407709103076
1772639322474411800,3.245411865234375,0.08297931198179721,0.010412900130095657,0.006554901536181569
1772639322484456700,3.255456787109375,0.08866495640277862,0.001008933872304624,-0.011326034061284735
1772639322494501600,3.265501708984375,0.09943827935159205,-0.00250729408772313,-0.014527058592298999
1772639322504547600,3.275547607421875,0.08462415657937526,0.008616370960499626,0.000866489769378677
1772639322514592800,3.2855927734375,0.08567103528380393,0.009745377273717895,0.00039787674378603696
1772639322524637700,3.2956376953125,0.08297697389423847,0.004104726196866249,0.0003550513822119683
1772639322534682600,3.3056826171875,0.09330255307555198,0.0011377010763273573,0.00471893654698506
1772639322544727600,3.3157275390625,0.09584697686135768,-0.0015382743839873,0.005224191788537428
1772639322554772700,3.325772705078125,0.08686813611388206,0.011055559114919742,-0.002260674940980971
1772639322564817700,3.335817626953125,0.08417524376809596,0.006954117428750032,0.0009305771146900951
1772639322574863600,3.345863525390625,0.08552198220193385,0.0010728842202981468,-0.012370209351973607
1772639322584908800,3.35590869140625,0.09480009815692901,-0.010194460190000245,0.004250076926220208
1772639322594953700,3.36595361328125,0.08776713078022003,0.004006591593124904,0.004112979143625125
1772639322604998700,3.37599853515625,0.09285422478616237,-0.004728388220275519,0.016776271424349395
1772639322615043600,3.386043701171875,0.1022813938230276,0.004811579841567436,0.0043430615724530065
1772639322625088800,3.3960888671875,0.0853717600762844,0.0014145966303243766,0.0006660718264523893
1772639322635133700,3.4061337890625,0.09375146588683128,-0.0011580497446120716,0.006687423608358949
1772639322645179600,3.4161796875,0.09345219067931175,0.0011607919742586091,0.01582608542689122
1772639322655224600,3.426224609375,0.0931534999936819,-0.0030765750257938634,-0.01028872690279968
1772639322665269500,3.43626953125,0.08941255989968776,0.006531285481865052,0.006159390279417857
1772639322675314700,3.446314697265625,0.08911328469216823,0.0021429851117543875,-0.006005012568458914
1772639322685359600,3.456359619140625,0.10871522626280784,-0.003867211663542548,0.0013154391132760791
1772639322695404800,3.46640478515625,0.08252923012673855,0.004453392362419982,-0.0018206578222103415
1772639322705449500,3.476449462890625,0.09135726422667503,0.008433206688117935,-0.006802528754854574
1772639322715494700,3.48649462890625,0.08342588670551776,0.00153892854618025,-0.0007199300386942923
1772639322725540600,3.49654052734375,0.08103168504536151,-0.0016988854729104786,-0.0038773894226178524
1772639322735585800,3.506585693359375,0.09285364026427269,-0.002422312368144048,0.001114126121206209
1772639322745630700,3.516630615234375,0.08222878587543964,-0.00037333824086235835,0.001234528497327119
1772639322755675600,3.526675537109375,0.0907575447678566,0.0021391914276930038,0.006101403881330043
1772639322765720600,3.536720458984375,0.08417349020242691,0.008271499620651592,-0.006972396295890211
1772639322775765800,3.546765869140625,0.0894108063340187,-0.004189952228328912,-0.0008078731836285442
1772639322785810700,3.556810791015625,0.10153145223855972,-0.0013816453504376114,-0.0012081062812823802
1772639322795856600,3.566856689453125,0.08896189352273941,-0.006795242780831177,0.012387644543964415
1772639322805901800,3.57690185546875,0.0985387001633644,0.0023507689438061787,-0.013664560011448338
1772639322815946500,3.586946533203125,0.09150456374287605,0.014659606922295643,-0.002841360905766487
1772639322825991700,3.59699169921875,0.09045593147277832,-0.00035561992108123374,0.006964532649843022
1772639322836036600,3.60703662109375,0.08596621883809566,0.014658638807915849,-0.002840328859305009
1772639322846081800,3.617081787109375,0.08132745312154292,-0.005514421748142922,-0.0037703123189508914
1772639322856126500,3.62712646484375,0.08446925827860832,-0.0008893386387149803,-0.002192642072914168
1772639322866172700,3.637172607421875,0.08087795578837394,-0.001051075388933532,-0.0054642110894899815
1772639322876217900,3.6472177734375,0.09973229386210442,0.00008805388443288392,-0.006998133525345474
1772639322886262800,3.6572626953125,0.09434534012675284,-0.0020344147373223677,0.0034510172367095944
1772639322896308000,3.667307861328125,0.09643968205749988,0.004331227287475485,-0.004981039815582335
1772639322906353000,3.677352783203125,0.09658931966125965,0.00394775809495477,0.007254702102299779
1772639322916397800,3.687397705078125,0.09673895726501941,0.0005486948077683336,0.0060832197706680744
1772639322926442800,3.69744287109375,0.0932972923785448,-0.0046947964779275935,0.0009657762922346591
1772639322936489000,3.707489013671875,0.08895838639140129,0.008128834038728381,-0.011239150362275541
1772639322946534000,3.717533935546875,0.10571779801249503,-0.01039887160474318,0.006151353103434666
1772639322956579000,3.7275791015625,0.08865969570577144,-0.014703086446062661,0.0009509623155929147
1772639322966624000,3.7376240234375,0.08177636593282223,-0.010764372457377613,-0.0036764965556561947
1772639322976669000,3.7476689453125,0.08177578141093253,-0.0027189001449442,0.003785025830892846
1772639322986713900,3.7577138671875,0.08551730602681637,0.004241764613956912,0.0032047234585974365
1772639322996759000,3.767759033203125,0.09269991100728511,0.0044697224427131,-0.005798959469189867
1772639323006805000,3.777804931640625,0.09195172298848628,0.00286315946233226,-0.00235393358184956
1772639323016850000,3.787849853515625,0.07998129920959472,-0.0007956587310938629,0.004282572690024971
1772639323026894800,3.797894775390625,0.07908347358703613,0.011059463538479758,0.0060750181979034095
1772639323036939800,3.807939697265625,0.0988350527614355,0.001333417727961205,-0.009712169123860075
1772639323046985000,3.81798486328125,0.08297405128479003,-0.007198976159957237,0.00487066564313136
1772639323057030000,3.82802978515625,0.08851064262390136,-0.003870955115254037,-0.000822623228188604
1772639323067075000,3.838074951171875,0.09105448188781738,0.0011471732992155011,-0.004998876866372302
1772639323077121000,3.84812109375,0.09015665626525879,-0.009652134615869726,-0.01874732490214519
1772639323087166000,3.858166015625,0.08327391101419926,-0.0049318920277873985,-0.017336910114949568
1772639323097211000,3.8682109375,0.10452245074808597,-0.002041632212686818,0.0038927605216857045
1772639323107255800,3.878255859375,0.10078209517598151,-0.003637051602901192,0.0024549188714474437
1772639323117301000,3.888301025390625,0.083873045951128,0.005122610560606699,-0.004247227382007986
1772639323127346000,3.898345947265625,0.08970891249775886,-0.004741011381475255,0.004878739351732656
1772639323137390800,3.908390869140625,0.08282499820291996,-0.009184344715828774,0.0030239509310573337
1772639323147436800,3.918436767578125,0.09270224909484386,-0.0020862294062389992,-0.005218912825221195
1772639323157482000,3.92848193359375,0.08866261831521988,0.0033784177913796154,0.0028014672867953776
1772639323167527000,3.93852685546875,0.08522153795063495,-0.0025827807515277526,-0.00015847849734127521
1772639323177572000,3.948572021484375,0.07594400651752949,-0.011729790273297111,-0.00359056270471774
1772639323187616800,3.95861669921875,0.0933019685536623,-0.004918328151671448,0.0040437589654698965
1772639323197662000,3.968661865234375,0.07444821500182151,0.0008635523185541388,-0.012108206548076123
1772639323207707000,3.978706787109375,0.09075871381163597,0.007888014445110456,0.0015369089773856102
1772639323217752800,3.9887529296875,0.09644552727639674,0.008862406726996414,-0.004981103747664019
1772639323227798000,3.998798095703125,0.0874678555727005,-0.0027344333575048947,0.0021329203754663468
1772639323237842700,4.0088427734375,0.08881459400653839,-0.00951629720859928,0.0000015161036513745783
1772639323247888000,4.018887939453125,0.07579612247943877,-0.006128680047322995,-0.006575487666483968
1772639323257932800,4.028932861328125,0.08312894958555699,0.002664272464433452,0.0049990138636901976
1772639323267978000,4.03897802734375,0.0795376470953226,-0.003743941476900363,0.005919946367200463
1772639323278023000,4.04902294921875,0.08477554774880408,0.004535092996235471,0.011063328004488721
1772639323288069000,4.059069091796875,0.09884148250222205,-0.00020636705145589073,-0.0018095519063062965
1772639323298113800,4.06911376953125,0.0868710587233305,-0.012157751628092956,0.0013736264407634734
1772639323308159000,4.079158935546875,0.08687164324522018,0.0071551039105455854,0.0030890155239030716
1772639323318204000,4.089203857421875,0.08597440214455127,0.006073005478974664,0.009282143676141276
1772639323328249000,4.0992490234375,0.0858247645407915,-0.003306481641397113,0.0014076291750650851
1772639323338293800,4.109293701171875,0.10183598814308643,0.004559754796745255,0.006034010334080085
1772639323348339000,4.1193388671875,0.09570143091082572,0.004069566976872738,0.0031062771859578786
1772639323358385000,4.129385009765625,0.09630056584775447,-0.0063385941876680585,0.00927056283620186
1772639323368429800,4.139429931640625,0.08911737634539604,0.0016823498966405167,0.0029662750602234152
1772639323378475000,4.14947509765625,0.09420447035133839,-0.004550609084131429,-0.00395720406002365
1772639323388520000,4.15952001953125,0.090613167861104,-0.0010596491377451455,0.0016594941774383187
1772639323398564900,4.16956494140625,0.08522504508197307,0.006501829916873248,0.0006719992437399923
1772639323408609800,4.17960986328125,0.09300620047748089,0.0013836181118153034,0.0004649140980094671
1772639323418655000,4.189655029296875,0.0882172126352787,0.0005801516752457246,-0.001262275020778179
1772639323428701000,4.199700927734375,0.08851648784279822,-0.001259669788449537,-0.0015019198623951525
1772639323438745900,4.209745849609375,0.10482698665261268,-0.005378105991904158,-0.00016081658490002155
1772639323448791000,4.219791015625,0.09016250148415565,-0.00208203272173414,-0.005252888160059228
1772639323458836000,4.2298359375,0.08507540747821331,-0.00519466658324236,-0.001933954604109749
1772639323468881000,4.239880859375,0.08761866222023963,0.0016845361455052625,-0.002398220248147845
1772639323478925800,4.24992578125,0.08911503825783729,-0.00390094839471858,-0.012452152014384045
1772639323488971000,4.259970947265625,0.09420213226377963,-0.008527335261955158,0.0015318400766234845
1772639323499017000,4.270016845703125,0.0895633665472269,0.003953845342446584,0.0007978449799586088
1772639323509062000,4.280061767578125,0.0886655409246683,-0.0013630593809764832,0.0035375447426922615
1772639323519106800,4.29010693359375,0.088666125446558,-0.008497361390443985,-0.01784050312237814
1772639323529152000,4.300152099609375,0.10063771826922893,-0.005080141392059158,0.007815331659745425
1772639323539197000,4.310197021484375,0.08522562960386276,-0.004406291542883264,0.006851409397879615
1772639323549242000,4.3202421875,0.09255845670998096,-0.004420515289413743,0.0032960093380883333
1772639323559286800,4.330286865234375,0.09959259313046932,0.0009072510380297899,-0.003613194661634043
1772639323569332700,4.340332763671875,0.1070744733184576,0.012621275203325785,0.0063036849877797065
1772639323579378000,4.3503779296875,0.094056001791358,-0.01358164010150358,-0.006858715921500697
1772639323589422800,4.3604228515625,0.08851941045224666,-0.00784517995038186,-0.006698483858490362
1772639323599468000,4.370468017578125,0.08028992676734924,0.008704952284606406,-0.00843398414789699
1772639323609512700,4.3805126953125,0.08552724289894104,-0.004731784612115006,-0.0014149722313042728
1772639323619558000,4.390557861328125,0.08028934224545956,-0.008515892560977954,0.005590266888262704
1772639323629602800,4.400602783203125,0.09779752640724182,-0.0010854137666639872,-0.002015650671347976
1772639323639649000,4.41064892578125,0.0918114377349615,0.0022053873900556935,0.007983546099811792
1772639323649694000,4.42069384765625,0.07654840215146541,-0.003210962544783251,-0.0002746248234529048
1772639323659739100,4.4307392578125,0.08417991994321346,-0.008058745069248835,0.0037649146246258166
1772639323669783800,4.44078369140625,0.090016371011734,0.006052543787902686,0.007316588357370347
1772639323679829000,4.4508291015625,0.08567746502459049,0.005947938344179419,0.002855809556227177
1772639323689874000,4.4608740234375,0.08044073341488837,0.006227729108161293,-0.006056213032733649
1772639323699919000,4.470919189453125,0.09286065452694893,-0.019712678785983005,-0.0007993336841464042
1772639323709965000,4.480965087890625,0.08478080844581126,-0.011430898658267687,0.01089792657601647
1772639323720009700,4.491009765625,0.09465572125017642,-0.005154790088935987,-0.005035984873212874
1772639323730055000,4.501054931640625,0.08208616253435612,-0.002944672866479959,0.004824999870499596
1772639323740099800,4.511099853515625,0.09405717083513736,-0.002122986928274622,0.00481817740406841
1772639323750145000,4.52114501953125,0.10318506466448306,-0.002187978455884149,0.012885830723913385
1772639323760190000,4.53118994140625,0.09375789562761783,0.009847791901999152,0.006582511062314733
1772639323770235000,4.54123486328125,0.10108955368995666,0.0013649830516485962,-0.003476215610047802
1772639323780280800,4.55128076171875,0.09256021027565002,0.009801723128923913,-0.0075001464970409866
1772639323790325800,4.56132568359375,0.07340601247251033,0.0006329744160932022,-0.010377272835932672
1772639323800371000,4.571370849609375,0.08328267884254455,-0.01094811326013878,0.0023566369955893606
1772639323810415900,4.581415771484375,0.09031506169736385,0.0057642854480305684,-0.0038059316216036677
1772639323820460800,4.591460693359375,0.09226035054624081,-0.00351753742605797,-0.010864809757703915
1772639323830505700,4.601505615234375,0.09480418981015681,0.00023735812805243767,0.007803641221951693
1772639323840551000,4.611551025390625,0.10393208363950251,-0.0056493378484505224,-0.0025083021596539763
1772639323850596900,4.621596923828125,0.09226035054624081,-0.007332303091377252,-0.005668437557853758
1772639323860642000,4.63164208984375,0.08941723607480526,0.0037465957999345844,-0.0018820965527091174
1772639323870687000,4.64168701171875,0.08911912991106509,-0.0004171556913468521,0.0009073606358841061
1772639323880731600,4.651731689453125,0.09555296235084533,-0.000963192751148017,0.007305573773011565
1772639323890776600,4.661776611328125,0.10183774170875548,0.008348981878720223,-0.00273252110327594
1772639323900821800,4.67182177734375,0.09106324971616267,-0.004715581254340941,-0.0027369506832212206
1772639323910866700,4.68186669921875,0.08343173192441462,0.004038341863191453,-0.002312386861909181
1772639323920912600,4.69191259765625,0.08642448399960995,0.0029992423231306018,0.010127435393864289
1772639323930957600,4.70195751953125,0.09675006318092345,-0.016435826239513698,0.012402065794961526
1772639323941002500,4.71200244140625,0.08597615571022033,-0.004866829718230292,0.00957758295875974
1772639323951047700,4.722047607421875,0.08926818299293518,0.0022281917352636807,0.011083786270627751
1772639323961092600,4.732092529296875,0.08717267201840877,-0.007262166172836441,-0.009006906931335107
1772639323971137800,4.7421376953125,0.08253449082374573,0.00006510569204110652,-0.004313908543204888
1772639323981182500,4.752182373046875,0.08627543091773986,0.00473585799903376,0.007791658523213118
1772639323991227600,4.7622275390625,0.10542904419898987,-0.00022720206021913325,-0.008220240932516753
1772639324001273600,4.772273681640625,0.09824760826230049,0.0005636297987075522,0.009704351143585517
1772639324011318800,4.78231884765625,0.08657587516903877,0.002563203834800515,0.013751242781057953
1772639324021363700,4.79236376953125,0.0886702170997858,0.0009250321482482831,-0.00861774321696721
1772639324031408600,4.80240869140625,0.09465572125017642,-0.004178105385263916,-0.0051731374547351145
1772639324041453600,4.81245361328125,0.08537818981707096,0.001323636119463481,0.0006765749541576951
1772639324051498800,4.822498779296875,0.07505377967953682,0.008081819984159664,-0.020231480778986587
1772639324061544700,4.832544677734375,0.08433131111264228,-0.0017693020943086593,0.004478688917169347
1772639324071589600,4.842589599609375,0.09465630577206612,-0.006075053588877199,-0.0012497260664589703
1772639324081634800,4.852634765625,0.09809738613665103,0.004139684487460181,0.0037730157326906918
1772639324091679500,4.862679443359375,0.08911854538917541,0.009600402145343832,-0.00044578927243128417
1772639324101724700,4.872724609375,0.08043956437110901,0.005105322640732629,-0.004054572620429098
1772639324111769600,4.88276953125,0.09016600861549377,0.00378592316332506,0.003879782309103757
1772639324121814800,4.892814697265625,0.09540390926897525,0.0010969774819386657,-0.004426903931004926
1772639324131859500,4.902859375,0.09286007000505923,0.00023701677640201524,0.0035155064408201723
1772639324141905700,4.91290576171875,0.08103811478614807,-0.002612581093102926,-0.0008665537014603614
1772639324151950600,4.92295068359375,0.07475275090634823,0.001421021804533666,-0.014380827655177562
1772639324161995800,4.932995849609375,0.08313245671689509,0.009523244114260887,0.004727859638957306
1772639324172040700,4.943040771484375,0.10198679479062557,-0.0008433463558088988,0.010151674785977229
1772639324182085600,4.953085693359375,0.08522855221331119,-0.005246901377267204,0.011019598460616543
1772639324192130600,4.963130615234375,0.08478022392392158,-0.0031207623690366745,0.0012079144850373267
1772639324202175700,4.97317578125,0.08882043922543525,0.0014924327981309033,-0.0014849139286670834
1772639324212221700,4.9832216796875,0.09136486301124096,0.009066026982228505,-0.0049134727383963765
1772639324222266600,4.9932666015625,0.08178805637061595,0.006082816770224599,0.004696240657987073
1772639324232311800,5.003311767578125,0.08238660678565501,-0.006378525480901589,0.00466286811134778
1772639324242356700,5.013356689453125,0.09525485618710518,-0.00977057336376747,-0.0003088832860812545
1772639324252401700,5.023401611328125,0.08912029895484447,0.0006776709327008575,0.006946841729525476
1772639324262446600,5.033446533203125,0.0951058031052351,0.008770600257697514,0.0075500226539094
1772639324272491800,5.04349169921875,0.10138999794125557,0.005116784749663201,0.007472482171980664
1772639324282537700,5.053537841796875,0.08777297599911689,0.00789114597546868,-0.0015261775208171456
1772639324292582700,5.063582763671875,0.09435644604265689,-0.0025430001553439067,-0.0017273809150326995
1772639324302627600,5.073627685546875,0.08328326336443424,-0.0060435887298895975,-0.0002252601232379675
1772639324312672500,5.083672607421875,0.08148761211931704,-0.008255690130166476,-0.005162771324347704
1772639324322717700,5.0937177734375,0.0898684869736433,-0.000718306620477233,-0.0008539042824413627
1772639324332762600,5.1037626953125,0.10228782356381416,-0.00801442529526539,0.011995439489139243
1772639324342807800,5.113807861328125,0.08448094871640205,0.0035286022427666467,-0.006594046236481517
1772639324352853800,5.123853759765625,0.09016776218116283,0.0053537809764675325,-0.00443222856009379
1772639324362898700,5.133898681640625,0.08133914355933666,0.007084172407560981,0.013050684163114055
1772639324372943600,5.143943603515625,0.0755032770127058,0.00428400088706403,-0.0038298239538446066
1772639324382988800,5.15398876953125,0.0784966136097908,-0.01221517062895582,-0.004536246056994423
1772639324393033700,5.16403369140625,0.09106617232561111,0.007317046156740979,-0.005994317644508555
1772639324403078700,5.17407861328125,0.08014262725114822,0.008733195423334837,0.0033074166480917483
1772639324413123600,5.18412353515625,0.08642740660905837,-0.006111527983122505,0.004623467682721093
1772639324423169500,5.19416943359375,0.09869769011735915,-0.004680355818977113,0.008817585771158338
1772639324433214700,5.204214599609375,0.08523030577898025,0.002812277516821632,-0.00616582002020441
1772639324443259600,5.214259765625,0.09241232623755931,-0.009355305952118942,-0.002489369130320847
1772639324453304800,5.224304931640625,0.10318564918637275,0.006999051407375372,-0.005088253916567191
1772639324463349500,5.234349609375,0.08896949230730533,-0.0006194459309510421,-0.004572276351600885
1772639324473394700,5.244394775390625,0.09360767350196837,-0.00017270224387175404,0.003784258645912632
1772639324483439600,5.254439697265625,0.09031564621925353,-0.004210622840310679,-0.0035411888713482763
1772639324493485600,5.264485595703125,0.0943558615207672,0.0033772818552854004,0.00812138366792351
1772639324503530800,5.27453076171875,0.0835813695281744,0.0021236045578494666,-0.0070831449276767666
1772639324513575700,5.28457568359375,0.09510404953956604,0.005545144538325257,0.0001376457718666643
1772639324523620600,5.29462060546875,0.10482990926206111,0.005731403808447067,0.008327902558073402
1772639324533665500,5.30466552734375,0.09420447035133839,0.002291568977810675,-0.004200091171497479
1772639324543710700,5.314710693359375,0.07520107919573783,0.0074369975833571515,0.0007996076787821948
1772639324553755600,5.324755615234375,0.0753507167994976,-0.0003681197846948635,0.00003609422668814659
1772639324563801900,5.3348017578125,0.09255845670998096,-0.0011448968604498076,0.0025071331158746032
1772639324573846500,5.344846435546875,0.09420447035133839,0.003341713926626835,0.008484938016999512
1772639324583891700,5.3548916015625,0.08058861745297909,-0.00177345767961815,0.009642309624888002
1772639324593936600,5.3649365234375,0.08911854538917541,0.0010106474804226309,-0.000014046791661530732
1772639324603981800,5.37498193359375,0.0991442648410797,-0.00598815733178053,-0.0015217936066444962
1772639324614026500,5.385026611328125,0.10692542023658752,0.008621116775920382,0.004349217318603769
1772639324624071700,5.39507177734375,0.0952536871433258,-0.0016887807790713848,-0.0037027726412285117
1772639324634117600,5.40511767578125,0.09540332474708557,0.005510403160151327,-0.0050523332198150455
1772639324644162600,5.41516259765625,0.09151216252744197,0.005512528901867335,-0.011260448878630995
1772639324654207700,5.425207763671875,0.099593177652359,0.0032995347357355057,-0.013610108144162221
1772639324664252700,5.435252685546875,0.0979465794891119,-0.00950721771135577,0.007868103026598692
1772639324674297600,5.445297607421875,0.09734802907407283,-0.0011107811033609321,-0.005424217005819082
1772639324684342500,5.455342529296875,0.08567629598081111,-0.005160865919984644,0.0026543321673758325
1772639324694387700,5.4653876953125,0.08507716104388237,-0.006079808537452482,-0.0017459577513393013
1772639324704433700,5.47543359375,0.0992927334010601,-0.0031915911240328566,-0.01240405682264827
1772639324714478800,5.485478759765625,0.08896715421974659,-0.0038598720322363077,0.011778472270211204
1772639324724523500,5.4955234375,0.0737041186362505,0.007639553826086921,0.011910939543461426
1772639324734568700,5.505568603515625,0.0912105492323637,0.0033037394117505755,-0.004625467843562364
1772639324744613600,5.515613525390625,0.09480185172259807,-0.014132747203711186,0.005251664317352697
1772639324754658800,5.525658935546875,0.08926526038348674,0.0023672999534988773,0.002994277312001213
1772639324764703700,5.535703857421875,0.0925567031443119,0.005281545715674292,0.0007147241406142711
1772639324774748700,5.545748779296875,0.08791910647153854,0.006436414839222561,0.007561703958548605
1772639324784794600,5.555794677734375,0.07924070997536183,0.011608322743029566,-0.005361161706969142
1772639324794839600,5.565839599609375,0.08058686388731003,0.014294359514699317,-0.0018768084562383592
1772639324804884700,5.575884765625,0.08941431346535682,0.012946277365501736,-0.00559455947089009
1772639324814929700,5.5859296875,0.09375321945250034,-0.009091524466377449,0.000017891849717125294
1772639324824974800,5.595974853515625,0.07878887455463408,0.004787722900300286,-0.0055838462806306775
1772639324835019500,5.60601953125,0.07863923695087432,0.006184391148289432,0.0023011804813053457
1772639324845064700,5.616064697265625,0.09689502460956573,0.0007375741515948902,0.0026251426055096086
1772639324855110700,5.626110595703125,0.07295300800800324,-0.0016712542555353137,-0.004093762986501679
1772639324865155600,5.636155517578125,0.09465046055316924,0.0046243695817305705,-0.00007218845337629318
1772639324875200500,5.646200439453125,0.08941255989968776,-0.005296186162380035,-0.0037155773238744584
1772639324885245400,5.656245361328125,0.09090893593728541,-0.0020697383540973532,0.004779735956666991
1772639324895290400,5.666290283203125,0.08686813611388206,0.006093971776834223,0.0033577768621500578
1772639324905335600,5.67633544921875,0.0944996539056301,0.0017212537099898326,0.0011057236190419643
1772639324915380500,5.68638037109375,0.09928805722594261,0.000889106884918874,-0.0016291355717927215
1772639324925426400,5.696426513671875,0.08701777371764183,-0.006367613644531229,-0.0034255996676627546
1772639324935471600,5.7064716796875,0.09749240598082543,-0.009275530130619882,-0.008947979818331077
1772639324945516500,5.7165166015625,0.08312661149799823,0.0015524399066576733,-0.0006026968671940267
1772639324955561500,5.7265615234375,0.09210545224547385,-0.0007194905056327115,-0.0020928988923318683
1772639324965606400,5.7366064453125,0.09330255307555198,0.0016945483661547768,0.007679284189920872
1772639324975651600,5.746651611328125,0.0949485667169094,-0.0024976220770797225,0.00019104732638224958
1772639324985696500,5.756696533203125,0.08866320283710956,-0.0036574208207835906,-0.000636535204714164
1772639324995742500,5.766742431640625,0.08013385942280292,-0.0025431634104810656,-0.001085886407410726
1772639325005787400,5.776787353515625,0.09958674791157245,0.007506653869641013,0.003110040045622736
1772639325015832300,5.786832275390625,0.0885129807114601,-0.0033734493553172797,-0.004118888294603675
1772639325025877500,5.79687744140625,0.09255319601297378,-0.005261449350783368,-0.0036544399874750525
1772639325035922400,5.80692236328125,0.08118132264912128,-0.0025964165512355974,0.005997550781210884
1772639325045967600,5.816967529296875,0.07429740835428238,-0.0027684018424770328,0.0051468157033901655
1772639325056012300,5.82701220703125,0.08896072447896003,0.002445459206646774,0.0004077679501380771
1772639325066058500,5.83705859375,0.08881108687520027,0.002145205609948607,-0.00919558877069503
1772639325076103400,5.847103515625,0.09315057738423346,0.005318376302946126,0.0008460771690122782
1772639325086148600,5.857148681640625,0.08791267673075198,-0.0029175793635775335,0.001978031207853928
1772639325096193500,5.867193603515625,0.08686579802632331,0.005319543063436867,-0.014898714049439876
1772639325106238700,5.87723876953125,0.09853694659769534,0.00040301185991847887,-0.000009270151844248175
1772639325116283400,5.887283447265625,0.08626607856750487,0.0032690174415300134,-0.001972213388420641
1772639325126328600,5.89732861328125,0.08641630069315433,0.007930108012678102,-0.0016326883689034729
1772639325136374500,5.90737451171875,0.09359832115173339,-0.00957252319115214,-0.0009255812791641801
1772639325146419500,5.91741943359375,0.08596738788187504,0.0013697768161306156,0.010036049049673602
1772639325156464600,5.927464599609375,0.09105565093159675,0.010109499020018847,-0.010351763935340567
1772639325166509300,5.93750927734375,0.09569558569192886,-0.002228891563229263,0.00009889379721134901
1772639325176554500,5.947554443359375,0.08971008154153823,-0.0022729693086177573,0.00423709871363826
1772639325186599400,5.957599365234375,0.06008008243143558,0.0012920194217818789,-0.010280461397953331
1772639325196644600,5.96764453125,0.11409867286682128,-0.0031055556667502968,-0.009428986534615979
1772639325206690600,5.977690673828125,0.09928513461649417,-0.00841532511319965,0.0055736719464883205
1772639325216735500,5.987735595703125,0.08207739470601082,0.002629000221652677,-0.0012358619378879665
1772639325226780400,5.997780517578125,0.10736673426330089,0.008461922467593103,0.006151937625324354
1772639325236825300,6.007825439453125,0.09045768503844738,0.0017628700702334752,0.007801851123664528
1772639325246870500,6.01787060546875,0.08402385259866714,-0.0018210003155050799,0.006100207438087091
1772639325256915500,6.02791552734375,0.09000877222716808,-0.008667460685275727,-0.004601721641793847
1772639325266960400,6.03796044921875,0.08701602015197277,0.0049189480645349245,0.002128993119020015
1772639325277006300,6.04800634765625,0.08881167139708995,0.010886432501045056,0.004716123535390943
1772639325287051500,6.058051513671875,0.08103051600158213,0.007634925600030692,-0.0032393289810977873
1772639325297096400,6.068096435546875,0.0916547858685255,0.0032837994521309156,-0.005481271822145208
1772639325307141600,6.0781416015625,0.09554477904438972,-0.0010254272077349013,-0.0028499643373303112
1772639325317186600,6.0881865234375,0.0765402188450098,-0.013494976739847333,0.006071648063883185
1772639325327231500,6.0982314453125,0.1331038175880909,0.007276032584696076,0.0017746175902429967
1772639325337276400,6.1082763671875,0.08103110052347183,0.03713872620582115,0.0071525569020770485
1772639325347321600,6.118321533203125,0.0768412476181984,0.014891843633947428,0.0023566917945165187
1772639325357367600,6.128367431640625,0.1037766008168459,-0.012889660940592875,0.0033584892482031135
1772639325367412500,6.13841259765625,0.09210486772358417,-0.017803955662896623,-0.010581234442815184
1772639325377457400,6.14845751953125,0.06771510735452174,-0.0052180942662467715,-0.004961348734423518
1772639325387502300,6.15850244140625,0.10063538018167019,0.017956235031603134,0.011670445318473503
1772639325397547500,6.168547607421875,0.09629530515074729,0.01782096730484627,-0.0016858798608649522
1772639325407592400,6.178592529296875,0.11290624821186065,-0.0005540982103149872,0.0072918192422948775
1772639325417637600,6.1886376953125,0.06951075859963894,-0.01415096556370263,-0.0003661572981160134
1772639325427683600,6.19868359375,0.09285480930805205,-0.0018710157529800199,-0.013625049984967335
1772639325437728500,6.208728515625,0.09629705871641635,0.00598697116333642,-0.012684910457488149
1772639325447773400,6.2187734375,0.08238017704486847,0.01447486603911384,0.005503465387644246
1772639325457818600,6.228818603515625,0.10931494572162627,0.0049579865919135045,0.007331219670921564
1772639325467863600,6.238863525390625,0.08327800266742706,0.00001041864602593705,0.010273931192466989
1772639325477908500,6.248908447265625,0.09135784874856472,-0.008823921897110995,-0.003361941580614075
1772639325487953400,6.258953369140625,0.06771393831074238,0.008412419628415956,-0.005900730210077017
1772639325497999400,6.268999267578125,0.08626841665506363,0.015340324903675354,0.005253655345039442
1772639325508044500,6.27904443359375,0.10123217703104019,0.007216246955166571,0.0019506865432020275
1772639325518089500,6.28908935546875,0.09345102163553237,-0.006835106717050075,0.014578807045845315
1772639325528134700,6.299134765625,0.08731646440327168,-0.005812042713048867,0.011639995381282641
1772639325538179300,6.309179443359375,0.08402443712055682,-0.013181233473913744,-0.0060514911918435246
1772639325548224500,6.319224609375,0.09569617021381854,0.0018864884583919773,-0.010107315054442734
1772639325558269400,6.32926953125,0.09210486772358417,0.0014265074054710567,0.003368462652945891
1772639325568315400,6.3393154296875,0.0976414590626955,0.006202891494426876,0.01909380938541144
1772639325578360600,6.349360595703125,0.08731646440327168,0.018761837484687564,-0.001090370786283165
1772639325588405500,6.359405517578125,0.07609422864317894,0.009990555665333523,-0.01513485175971873
1772639325598450400,6.369450439453125,0.09285247122049331,-0.0059833772670303004,-0.006102618590882048
1772639325608495400,6.379495361328125,0.08537000651061534,-0.0037219271495589055,-0.010531047758692874
1772639325618540500,6.38954052734375,0.08537000651061534,-0.006090140418510418,-0.00841254863422364
1772639325628585500,6.39958544921875,0.10123217703104019,0.00689842687738128,-0.0076334631536621594
1772639325638631700,6.409631591796875,0.0930009397804737,0.0013112447120598517,0.00098205157360062
1772639325648676400,6.41967626953125,0.08536942198872566,-0.00024090179200866258,-0.010430473461048678
1772639325658721500,6.429721435546875,0.09045710051655768,-0.003406133490434149,-0.008458333137864246
1772639325668766500,6.439766357421875,0.1012315925091505,-0.0009830356710008345,-0.0064350471493322394
1772639325678811600,6.449811767578125,0.0811801536053419,-0.0027574420570454093,0.0038324360360391437
1772639325688856600,6.459856689453125,0.08402326807677746,-0.00008805502607719972,0.0049048419073689726
1772639325698901500,6.469901611328125,0.08028349702656269,0.0005258139723911882,0.009074903266783804
1772639325708947500,6.479947509765625,0.08462357205748558,-0.0007076196880370844,0.012598620413523167
1772639325718992400,6.489992431640625,0.08746668652892112,-0.005442147671442944,-0.0046216045191977174
1772639325729037600,6.50003759765625,0.09270341813862323,-0.012498374909441917,0.006887330094631761
1772639325739082500,6.51008251953125,0.0853723445981741,0.005891711219982243,0.010110621256381272
1772639325749127400,6.52012744140625,0.09569733925759792,0.008926954154967097,0.008783281642757356
1772639325759172400,6.53017236328125,0.10003624524474143,-0.0001396973067021463,0.012628568027215077
1772639325769217500,6.540217529296875,0.08971066606342792,-0.010065879074000986,0.011388285642536357
1772639325779263500,6.550263427734375,0.08731704892516136,-0.0046834120008104945,0.004101891494030133
1772639325789308700,6.56030859375,0.09105681997537612,0.012592220355488825,-0.00169845621464774
1772639325799353600,6.570353515625,0.08282616724669933,0.012427509621827629,0.0017116992887109517
1772639325809398500,6.5803984375,0.09225333628356457,0.01301493699629791,0.00022596337613649666
1772639325819443500,6.590443359375,0.08866261831521988,0.0015133922461245675,-0.01785730812670663
1772639325829488600,6.600488525390625,0.09973521647155284,0.006336082570173312,-0.007261953826993703
1772639325839533600,6.610533447265625,0.09853753111958503,0.0003076411770656705,0.0010409969529137015
1772639325849579500,6.62057958984375,0.08551905959248542,0.000418797375872964,-0.0028830720224883406
1772639325859624400,6.63062451171875,0.08581833480000495,0.01556892433653702,0.010472230243543162
1772639325869669400,6.64066943359375,0.08372399286925793,0.0019305479374714194,0.008159368457598612
1772639325879714000,6.650714111328125,0.09749065241515636,-0.0007967181770189199,-0.0024584990680217743
1772639325889759000,6.660759033203125,0.09105565093159675,-0.0020935850205656605,-0.015696367233153433
1772639325899804200,6.67080419921875,0.08955927489399909,0.0037021858360501937,0.0009094612614251673
1772639325909849000,6.68084912109375,0.08791384577453136,0.007291566938901086,-0.015067540410859509
1772639325919894300,6.690894287109375,0.09674246439635753,0.0019473038510943296,0.00876528932834044
1772639325929940200,6.700940185546875,0.08926058420836926,0.004951220066053793,0.009062829236499965
1772639325939985200,6.710985107421875,0.0921036986798048,0.0022108923989464526,0.0030920659975148734
1772639325950030000,6.721030029296875,0.09419862513244151,-0.00007752906548557803,0.013096267737355083
1772639325960075300,6.7310751953125,0.09614391398131847,0.000347927521681413,-0.004087068384233862
1772639325970120200,6.7411201171875,0.07564356226623058,0.006437161474605091,-0.005271410197438672
1772639325980165000,6.7511650390625,0.08761457056701183,0.0012334736179793254,0.0009907463367097079
1772639325990210000,6.7612099609375,0.09389934992492198,-0.006028174248337745,0.0021633794458117334
1772639326000256000,6.771256103515625,0.08417290568053722,-0.006781973448948701,0.00050034160441719
1772639326010301200,6.78130126953125,0.09704057056009768,-0.01459432655867422,0.0039676889214199035
1772639326020346000,6.79134619140625,0.08462064944803714,-0.006402070753270527,-0.001591561774071306
1772639326030391300,6.801391357421875,0.09180383895039558,0.0041942288279358765,0.008928800193825736
1772639326040436000,6.81143603515625,0.0913543416172266,0.0007877220198104623,0.002325776066444814
1772639326050481200,6.821481201171875,0.07788754180073737,-0.011232716054911725,-0.01080652196551673
1772639326060526000,6.831526123046875,0.07504442732930183,-0.005792858521966263,-0.0007840721829328685
1772639326070572000,6.841572021484375,0.08851239618957042,-0.008143397995264968,-0.003985964363627135
1772639326080617200,6.8516171875,0.08791501481831074,-0.009917138802673434,0.0014869871547445654
1772639326090662000,6.861661865234375,0.08866320283710956,-0.00222353953467682,-0.01327492137304507
1772639326100707000,6.87170703125,0.09614508302509785,0.00848241155812866,-0.0031205340401735155
1772639326110752000,6.881751953125,0.0841740747243166,0.0025956128336372783,0.009439033004594966
1772639326120797200,6.891797119140625,0.0949485667169094,0.002314696408360032,-0.0018567155162803827
1772639326130842000,6.901842041015625,0.09255494957864284,-0.002163139700505417,-0.011337596634915098
1772639326140887000,6.911886962890625,0.09479951363503933,0.00028885884478222575,-0.004124267722619698
1772639326150933000,6.92193310546875,0.09554828617572785,0.00018188677239231764,0.007270082334522157
1772639326160978200,6.931978271484375,0.0945002384275198,-0.00041460525794536805,-0.00026003917567431927
1772639326171023000,6.942023193359375,0.08537292912006378,0.0075477542066539165,0.0023501707221847026
1772639326181068300,6.952068359375,0.10063713374733925,0.0031352897929551545,0.0016864369832910596
1772639326191113200,6.96211328125,0.10003916785418987,-0.0023953273214516227,-0.006188241914566606
1772639326201158100,6.972158203125,0.10363047034442424,-0.002645179604896111,-0.0052769996880088
1772639326211204000,6.9822041015625,0.0937543884962797,0.006558312769397162,0.014487027976009995
1772639326221249000,6.9922490234375,0.09314823929667472,-0.001409282276034355,0.004409167344914749
1772639326231294200,7.002294189453125,0.0046925417304039,0.005922341536974999,-0.015166735602170228
1772639326241339100,7.012339111328125,0.0907265651077032,-0.005166087801085086,-0.011493435650598257
1772639326251384000,7.022384033203125,0.13905191233754158,-0.002315973908349406,0.014561207457073032
1772639326261429000,7.032428955078125,0.051959319818019864,0.025105740318424066,-0.0030266086790245025
1772639326271474200,7.04247412109375,0.12933306687772272,0.0077890270330652125,0.007274347517685964
1772639326281519000,7.05251904296875,0.16870178519189358,-0.0017384491566743235,0.01770482097873464
1772639326291565000,7.06256494140625,0.04810848960876465,-0.006117292145272949,-0.00869126511090435
1772639326301610200,7.0726103515625,0.11051730724871157,-0.01232423761866521,0.01633557845214382
1772639326311655200,7.0826552734375,0.0014227262794971466,0.01335777849255246,-0.018883765097614375
