time,seconds_elapsed,z,y,x
1772638987537979400,0.0589794921875,0.00023396406322717667,-0.0027887923642992973,0.0014098761603236198
1772638987548024300,0.0690244140625,0.001187109388411045,-0.00043988414108753204,0.00024900445714592934
1772638987558070500,0.079070556640625,-0.000968343869317323,0.00022617122158408165,0.0009126337245106697
1772638987568116500,0.089116455078125,-0.0006993645802140236,-0.0012359041720628738,-0.00010309601202607155
1772638987578161400,0.099161376953125,-0.00004406715743243694,0.00033815857023000717,-0.00013449415564537048
1772638987588207400,0.109207275390625,0.001240908051840961,-0.0005188467912375927,0.0010578031651675701
1772638987598253600,0.119253662109375,-0.0009104316122829914,-0.00006528571248054504,0.0014141653664410114
1772638987608298500,0.129298583984375,0.0011050488101318479,0.0001280598808079958,-0.000327541958540678
1772638987618344400,0.139344482421875,0.00024525634944438934,-0.00015771668404340744,0.0011654417030513287
1772638987628390700,0.149390625,-0.00004875659942626953,-0.0014818403869867325,0.001633625477552414
1772638987638435300,0.159435302734375,0.0007489281706511974,0.00024491618387401104,0.0017653591930866241
1772638987648481300,0.169481201171875,-0.00015122012700885534,0.0011557172983884811,0.0008779936470091343
1772638987658527500,0.179527587890625,-0.0005288124084472656,-0.0007150811143219471,0.00014312099665403366
1772638987668572400,0.189572509765625,-0.0013216354418545961,-0.00022798916324973106,0.0012254300527274609
1772638987678618400,0.199618408203125,-0.0002077964600175619,0.00013673678040504456,-0.0003553992137312889
1772638987688664300,0.209664306640625,-0.0004972820170223713,-0.0014803349040448666,-0.0008422248065471649
1772638987698709500,0.21970947265625,-0.0012424889719113708,-0.0010105581022799015,-0.0005066241137683392
1772638987708755500,0.22975537109375,-0.00006883393507450819,0.00005870126187801361,-0.0007601571269333363
1772638987718800600,0.239800537109375,0.00011302391067147255,0.0007648658938705921,0.0006933906115591526
1772638987728846600,0.2498466796875,0.0003034399123862386,0.00014781160280108452,0.00045663537457585335
1772638987738892500,0.259892578125,0.0006179773481562734,0.00016405340284109116,-0.00042724236845970154
1772638987748937500,0.2699375,-0.0011354477610439062,-0.00022609997540712357,-0.000324977096170187
1772638987758983400,0.2799833984375,0.0005681097973138094,-0.0017601302824914455,-0.0006950465030968189
1772638987769029400,0.290029296875,-0.001580262091010809,0.00027319323271512985,0.0012487946078181267
1772638987779074300,0.30007421875,-0.00005849625449627638,0.0019457198213785887,0.0020345794036984444
1772638987789120500,0.31012060546875,0.0004264654126018286,0.00005860393866896629,-0.0005667963996529579
1772638987799166500,0.32016650390625,-0.001503395615145564,0.00008191633969545364,-0.0006238585337996483
1772638987809211400,0.33021142578125,0.00019090739078819752,-0.0006714919582009315,-0.0005554156377911568
1772638987819257600,0.340257568359375,0.0010707853361964226,0.001350277103483677,-0.000484345480799675
1772638987829303600,0.350303466796875,0.000313915079459548,0.00006423657760024071,0.0014853286556899548
1772638987839348500,0.360348388671875,0.0009787785820662975,-0.0007138475775718689,0.0006954739801585674
1772638987849394400,0.37039453125,-0.0005927528254687786,-0.0005852170288562775,0.0008336920291185379
1772638987859440600,0.380440673828125,-0.0001323288306593895,-0.00013429904356598854,0.0008419705554842949
1772638987869485300,0.3904853515625,-0.00027454167138785124,0.0010556012857705355,0.00039988569915294647
1772638987879531300,0.40053125,-0.000043505686335265636,-0.00011781929060816765,0.0004159994423389435
1772638987889577500,0.410577392578125,0.0005407917778939009,-0.0008342098444700241,0.00044129975140094757
1772638987899622400,0.420622314453125,0.0006079224403947592,-0.0008381865918636322,0.0005153906531631947
1772638987909668400,0.43066845703125,-0.0012086199130862951,0.00037088850513100624,0.0013162028044462204
1772638987919714600,0.440714599609375,0.0007354866247624159,-0.0005973023362457752,-0.0003195875324308872
1772638987929759500,0.450759521484375,-0.0007012886926531792,0.0010192363988608122,0.00045406073331832886
1772638987939805400,0.460805419921875,-0.0009052942041307688,-0.0011251745745539665,0.001071928534656763
1772638987949851400,0.470851318359375,-0.0005478980019688606,0.0006780519615858793,-0.0004745693877339363
1772638987959896600,0.480896484375,-0.001538911135867238,-0.00121238362044096,0.0006736801005899906
1772638987969942500,0.490942626953125,-0.001077385270036757,0.00020921183750033379,0.00008618691936135292
1772638987979987500,0.500987548828125,-0.0009597475873306394,0.0005015498027205467,-0.0005012722685933113
1772638987990033400,0.511033447265625,-0.000863341148942709,-0.0010665194131433964,0.0019597550854086876
1772638988000079400,0.521079345703125,-0.0008568132761865854,-0.00004387041553854942,0.0004084203392267227
1772638988010124500,0.53112451171875,0.00019673327915370464,-0.0018116766586899757,0.002129088621586561
1772638988020170500,0.54117041015625,-0.0005971281789243221,-0.0006010732613503933,0.00021781772375106812
1772638988030216400,0.551216552734375,-0.0016610609600320458,-0.0013270508497953415,0.00011528609320521355
1772638988040261600,0.56126171875,0.0007119688671082258,-0.00042342860251665115,0.0008140681311488152
1772638988050307600,0.5713076171875,0.0007473889272660017,0.0004564800765365362,-0.0007324293255805969
1772638988060353500,0.581353515625,0.00057422393001616,0.00031224777922034264,0.0012071025557816029
1772638988070398500,0.5913984375,-0.0005040899850428104,-0.00168885150924325,0.00004463270306587219
1772638988080444700,0.601444580078125,0.0009095463901758194,-0.00034422334283590317,-0.00036027422174811363
1772638988090490600,0.61149072265625,-0.0017083410639315844,0.0018281172960996628,0.000823234673589468
1772638988100535300,0.621535400390625,0.0010283822193741798,-0.00032313307747244835,-0.00040823593735694885
1772638988110581500,0.63158154296875,-0.000137016992084682,-0.0007630870677530766,-0.0005784118548035622
1772638988120627500,0.64162744140625,0.0010143506806343794,0.0010908178519457579,0.0004382138140499592
1772638988130672400,0.65167236328125,-0.0007702336297370493,0.0006282266695052385,-0.001560488250106573
1772638988140718300,0.66171826171875,0.0003075867425650358,-0.0009286105632781982,0.0007262257859110832
1772638988150764500,0.6717646484375,0.0008623229805380106,-0.001769636757671833,-0.00003890041261911392
1772638988160809500,0.6818095703125,0.0006971270777285099,-0.0009071370586752892,0.0009819520637392998
1772638988170855400,0.69185546875,-0.0009369885083287954,-0.001227781642228365,-0.000006080605089664459
1772638988180900600,0.701900634765625,0.0004259970737621188,0.0008800325449556112,0.0004753153771162033
1772638988190946600,0.711946533203125,-0.0011340827913954854,0.0007218406535685062,0.0012263269163668156
1772638988200992500,0.721992431640625,-0.0019385010236874223,0.0001231585629284382,-0.00017919018864631653
1772638988211037400,0.732037353515625,-0.001048206235282123,0.00037296279333531857,-0.0004771975800395012
1772638988221083400,0.74208349609375,-0.00042252906132489443,-0.0009519425220787525,0.00019705621525645256
1772638988231129300,0.75212939453125,-0.00024835835210978985,-0.00025872141122817993,-0.0007281256839632988
1772638988241174500,0.762174560546875,0.0009911359520629048,-0.000006949529051780701,-0.0011188792996108532
1772638988251220500,0.772220458984375,-0.00017666025087237358,-0.0016767517663538456,0.0009709028527140617
1772638988261266400,0.782266357421875,0.0006368194008246064,-0.0009078490547835827,-0.0005545248277485371
1772638988271311600,0.7923115234375,0.0022917077876627445,0.0009446458425372839,0.0006313808262348175
1772638988281357600,0.802357666015625,-0.0009415462263859808,0.0011904991697520018,-0.00027871737256646156
1772638988291403500,0.812403564453125,0.0007586159044876695,-0.0005890247412025928,0.001204397063702345
1772638988301448700,0.82244873046875,0.0004303334280848503,0.0004651423078030348,0.0003126170486211777
1772638988311494700,0.83249462890625,0.00008492148481309414,0.0005532929208129644,0.0007831975817680359
1772638988321540600,0.84254052734375,0.0006819944828748703,0.0008262386545538902,0.0008794176392257214
1772638988331585300,0.852585205078125,-0.00007887068204581738,0.0007748396601527929,-0.0006881188601255417
1772638988341631500,0.862631591796875,0.0005434195045381784,0.0008611343801021576,0.00033284956589341164
1772638988351677400,0.872677490234375,0.0012728592846542597,0.0008989511989057064,0.0009722746908664703
1772638988361722400,0.882722412109375,0.00104529841337353,-0.001181033905595541,-0.00001566857099533081
1772638988371768600,0.8927685546875,0.0010133403120562434,0.000016056932508945465,0.00020084623247385025
1772638988381814500,0.902814453125,0.0003720379900187254,-0.0005330583080649376,0.0005617518909275532
1772638988391859500,0.912859375,0.0016740575665608048,0.000342322513461113,-0.0014494676142930984
1772638988401905700,0.92290576171875,-0.0011077700182795525,0.00040641846135258675,-0.0007571247406303883
1772638988411950600,0.93295068359375,-0.0015754210762679577,0.001437061931937933,-0.0008535310626029968
1772638988421996500,0.94299658203125,0.00010736053809523582,-0.0004294482059776783,-0.0006985832005739212
1772638988432042500,0.95304248046875,0.0012695639161393046,-0.00011412985622882843,0.001354713924229145
1772638988442087400,0.96308740234375,-0.0009267357527278364,0.000366816995665431,-0.0008518085815012455
1772638988452133400,0.97313330078125,0.0007004557410255075,0.0006067678332328796,-0.0003378186374902725
1772638988462179300,0.983179443359375,-0.0011783251538872719,0.0004384156782180071,-0.0014321780763566494
1772638988472224500,0.993224609375,0.0007748370990157127,0.00019207317382097244,0.0003763739950954914
1772638988482270500,1.0032705078125,0.0014323467621579766,-0.0001516491174697876,-0.0002437490038573742
1772638988492316400,1.01331640625,-0.0010135003831237555,-0.00017668306827545166,-0.0006088684312999249
1772638988502361600,1.023361572265625,0.002387609099969268,0.00005004648119211197,0.0005162502638995647
1772638988512407600,1.033407470703125,0.00047865533269941807,-0.0005081524141132832,0.00020359503105282784
1772638988522453500,1.04345361328125,0.0004941793158650398,0.00021924776956439018,0.00004781503230333328
1772638988532499500,1.05349951171875,-0.0007508486160077155,-0.00044068368151783943,-0.0011071981862187386
1772638988542545700,1.063545654296875,0.0000950726680457592,-0.000006796792149543762,0.0006477669812738895
1772638988552591400,1.07359130859375,0.0012687277048826218,-0.0011096117086708546,-0.0006212294101715088
1772638988562636300,1.08363623046875,0.001357348053716123,-0.0005754181183874607,-0.00013866694644093513
1772638988572682500,1.0936826171875,0.0003285688580945134,-0.0011605150066316128,-0.0005064494907855988
1772638988582727400,1.1037275390625,-0.00039625109639018774,0.0012581192422658205,0.00030926894396543503
1772638988592773400,1.1137734375,0.001637871377170086,-0.000909694004803896,-0.0002848822623491287
1772638988602819300,1.1238193359375,-0.00020640913862735033,0.0001577255316078663,-0.00100624468177557
1772638988612864500,1.133864501953125,0.0013155874330550432,0.0006978146266192198,-0.00007094256579875946
1772638988622910500,1.143910400390625,0.0002427018480375409,0.0012809080071747303,0.00048313336446881294
1772638988632956400,1.153956298828125,0.00010794587433338165,-0.0008197934366762638,0.0006791418418288231
1772638988643001600,1.164001708984375,-0.0004927449626848102,0.0010096454061567783,-0.0002580704167485237
1772638988653047300,1.17404736328125,0.000721123768016696,0.0003294742200523615,0.0014064055867493153
1772638988663093200,1.18409326171875,-0.0011239253217354417,0.0011205447372049093,0.0016817725263535976
1772638988673138400,1.194138427734375,-0.000586233101785183,-0.00030531175434589386,0.00013074791058897972
1772638988683184400,1.204184326171875,-0.00003942998591810465,-0.0003865309990942478,-0.0004455121234059334
1772638988693230300,1.214230224609375,0.00007961329538375139,-0.0000941157341003418,-0.0018346169963479042
1772638988703275500,1.224275634765625,0.0009182909270748496,-0.0015626591630280018,0.00033654365688562393
1772638988713321500,1.234321533203125,0.0012924649054184556,-0.0012231064029037952,0.000632421113550663
1772638988723367400,1.244367431640625,0.00015028472989797592,-0.0003495323471724987,0.0006904886104166508
1772638988733412600,1.25441259765625,-0.0006276245694607496,0.001263278303667903,-0.0015225978568196297
1772638988743458600,1.26445849609375,-0.0004951460286974907,0.0005516274832189083,-0.0013172337785363197
1772638988753504500,1.27450439453125,0.00011844618711620569,0.00001739710569381714,-0.0006061694584786892
1772638988763549400,1.284549560546875,0.0010704024462029338,-0.0008986275643110275,-0.0006007258780300617
1772638988773595400,1.294595458984375,0.000889573828317225,-0.0008709304966032505,-0.0005900734104216099
1772638988783640300,1.304640380859375,-0.0008067628950811923,-0.0006230282597243786,0.00022478634491562843
1772638988793686300,1.314686279296875,-0.0009745420538820326,-0.00020864000543951988,0.000568067654967308
1772638988803732500,1.324732421875,-0.0017902841791510582,0.00017099501565098763,0.00026105064898729324
1772638988813777400,1.33477734375,0.000027589616365730762,0.0006394449155777693,0.0008259071037173271
1772638988823823400,1.3448232421875,0.0012036280240863562,-0.0005714739672839642,0.00035616569221019745
1772638988833869600,1.35486962890625,0.000010531744919717312,-0.0010588327422738075,-0.0013032504357397556
1772638988843914500,1.36491455078125,-0.00037701940163969994,0.0004089958965778351,-0.00031774071976542473
1772638988853960400,1.37496044921875,-0.00035518151707947254,-6.565824151039124e-8,0.00011795246973633766
1772638988864006400,1.38500634765625,-0.0005453366320580244,-0.00044996244832873344,0.0002506999298930168
1772638988874051300,1.39505126953125,0.00002697668969631195,0.00013673165813088417,-0.000023073051124811172
1772638988884097300,1.40509716796875,0.0006903161993250251,0.0007565922569483519,0.0003697192296385765
1772638988894143200,1.415143310546875,0.00022852409165352583,-0.0013952418230473995,0.0006466880440711975
1772638988904188400,1.4251884765625,-0.0005135800456628203,0.000662078382447362,0.0010456698946654797
1772638988914234400,1.435234375,0.0006872392259538174,-0.0004202304407954216,0.0011844206601381302
1772638988924280300,1.4452802734375,-0.0005070510087534785,0.000540461391210556,0.0009844442829489708
1772638988934325500,1.455325439453125,-0.0004503256641328335,0.00040384125895798206,0.000417191069573164
1772638988944371500,1.465371337890625,-0.0010275904787704349,0.000126522034406662,-0.0008271173574030399
1772638988954416600,1.475416748046875,-0.0018366588046774268,-0.00007507950067520142,-0.0005922261625528336
1772638988964462600,1.485462646484375,0.00010762386955320835,-0.00038347532972693443,-0.0006687412969768047
1772638988974508500,1.495508544921875,0.00005835539195686579,-0.0016189157031476498,-0.000056214164942502975
1772638988984553200,1.50555322265625,0.0003972506383433938,-0.00015341397374868393,0.0019370433874428272
1772638988994599400,1.515599365234375,0.000010293442755937576,0.0021054791286587715,0.0010041380301117897
1772638989004645400,1.525645263671875,-0.0001289618667215109,0.0008668629452586174,-0.0001850724220275879
1772638989014690300,1.535690185546875,0.00004387728404253721,0.000854612560942769,-0.0020745848305523396
1772638989024736500,1.545736572265625,-0.000045142252929508686,0.001913208281621337,-0.0002872222103178501
1772638989034782500,1.555782470703125,0.0007801713654771447,0.0003158440813422203,-0.00011038826778531075
1772638989044827400,1.565827392578125,0.0008763789664953947,0.0014904085546731949,-0.0009241364896297455
1772638989054873300,1.575873291015625,-0.0007574703777208924,-0.00014237547293305397,-0.0013174857012927532
1772638989064919600,1.58591943359375,-0.00019283185247331858,0.0017988707404583693,0.00028038257732987404
1772638989074964500,1.595964599609375,0.0003360719420015812,-0.0002048918977379799,0.0009032958187162876
1772638989085010400,1.606010498046875,0.0005716212326660752,-0.0001363307237625122,-0.00015244679525494576
1772638989095056600,1.616056640625,0.00014631450176239014,0.00017765583470463753,-0.0003271503373980522
1772638989105101300,1.626101318359375,0.0007037383038550615,0.0013873458374291658,0.0007336065173149109
1772638989115147300,1.636147216796875,-0.00035433564335107803,-0.0005628871731460094,-0.0008831983432173729
1772638989125192400,1.6461923828125,0.00043600471690297127,-0.0014960914850234985,-0.0008428427390754223
1772638989135238400,1.65623828125,-0.00027426029555499554,0.0002485453151166439,-0.0016833366826176643
1772638989145284400,1.666284423828125,-0.0008081179694272578,-0.0009140209294855595,0.0010897102765738964
1772638989155329500,1.67632958984375,-0.0009878813289105892,0.0010410055983811617,0.00034082913771271706
1772638989165375500,1.68637548828125,-0.00008825771510601044,-0.0002360292710363865,0.001294117420911789
1772638989175421400,1.69642138671875,0.00006434135138988495,0.0010470817796885967,-0.0024383030831813812
1772638989185466600,1.706466552734375,0.000036983517929911613,0.0012722346000373363,0.00026501063257455826
1772638989195512600,1.7165126953125,-0.0005989792989566922,-0.00030595483258366585,0.001381940208375454
1772638989205558500,1.72655859375,0.00032718980219215155,-0.0006546950899064541,0.0009672418236732483
1772638989215603500,1.736603515625,-0.0021415604278445244,0.0006771518383175135,0.0008916081860661507
1772638989225649400,1.7466494140625,-0.0011749446857720613,0.0007092191372066736,0.0004055243916809559
1772638989235695400,1.7566953125,-0.0008247389341704547,0.001789663452655077,-0.000021646730601787567
1772638989245740300,1.766740234375,-0.0005667631048709154,0.0012049493379890919,0.0014591049402952194
1772638989255786500,1.776786376953125,0.0008407174609601498,-0.00033382512629032135,0.00014696549624204636
1772638989265832400,1.78683251953125,-0.0008755562594160438,0.00012514088302850723,0.0019088475964963436
1772638989275877400,1.79687744140625,-0.00046276627108454704,-0.00020881928503513336,0.0011969846673309803
1772638989285923600,1.806923583984375,-0.0006163609214127064,0.0009710185695439577,-0.00046354951336979866
1772638989295968500,1.816968505859375,0.0031458865851163864,0.00030309800058603287,0.00005203858017921448
1772638989306014500,1.827014404296875,0.00024529709480702877,0.0005898817908018827,-0.0008211703971028328
1772638989316060400,1.837060302734375,0.0012767394073307514,0.000944881234318018,-0.002405218780040741
1772638989326105300,1.847105224609375,0.00016881851479411125,-0.0018730312585830688,-0.0011328323744237423
1772638989336151300,1.8571513671875,0.0020221122540533543,0.0006516454741358757,0.00073244608938694
1772638989346197200,1.867197265625,0.0014064619317650795,0.000574180856347084,0.00023623323068022728
1772638989356242400,1.877242431640625,-0.0002606769558042288,0.0007512809243053198,0.0012080208398401737
1772638989366288400,1.887288330078125,0.0008551857899874449,-0.00030333222821354866,0.0017355112358927727
1772638989376334300,1.897334228515625,-0.0012766746804118156,-0.00043116370216012,0.0005309637635946274
1772638989386379500,1.907379638671875,0.0007225073641166091,0.0007366484496742487,-0.0002454100176692009
1772638989396425500,1.917425537109375,0.00004393397830426693,-0.0005909372121095657,0.0008028103038668633
1772638989406471400,1.927471435546875,0.0026152359787374735,0.0008363670203834772,0.0009406022727489471
1772638989416516600,1.9375166015625,0.0017638234421610832,-0.00020013516768813133,0.0019278363324701786
1772638989426562600,1.9475625,0.0012748070294037461,-0.001025266945362091,-0.0020001172088086605
1772638989436608500,1.9576083984375,0.0006897106068208814,0.0005353456363081932,-0.0002863723784685135
1772638989446653400,1.9676533203125,-0.00014178745914250612,-0.00021683517843484879,0.00020639318972826004
1772638989456699400,1.977699462890625,0.00128619943279773,-0.0017084716819226742,-0.0009709899313747883
1772638989466744300,1.987744384765625,0.0007019023178145289,0.000656801974400878,-0.001056533306837082
1772638989476790500,1.99779052734375,-0.0000680175144225359,-0.000007656868547201157,0.0007424321956932545
1772638989486836500,2.00783642578125,0.000448599923402071,-0.0004413430579006672,0.0011232895776629448
1772638989496881400,2.01788134765625,-0.000842500536236912,-0.00007409323006868362,-0.00010043289512395859
1772638989506927600,2.027927734375,0.0003163539804518223,0.000431557884439826,-0.0001133522018790245
1772638989516973600,2.0379736328125,-0.00009776756633073092,0.0005162465386092663,0.0020009316504001617
1772638989527018500,2.0480185546875,-0.002516535809263587,0.00015718676149845123,0.00039859721437096596
1772638989537064200,2.058064208984375,0.00029975688084959984,0.0008820993825793266,-0.0011114152148365974
1772638989547110100,2.068110107421875,-0.000247551710344851,-0.000427901279181242,-0.00013931188732385635
1772638989557155000,2.078155029296875,-0.0007631396874785423,-0.00010432722046971321,0.0009318115189671516
1772638989567201000,2.088200927734375,0.0006171431159600616,-0.0009246855042874813,-0.0001784665510058403
1772638989577247200,2.098247314453125,0.0007023642538115382,-0.0006450535729527473,-0.0004594298079609871
1772638989587292000,2.1082919921875,0.0007119318470358849,-0.0005824915133416653,0.0005639656446874142
1772638989597337900,2.118337890625,0.001078649191185832,0.0005970227066427469,0.000565829686820507
1772638989607384000,2.128384033203125,-0.0008361029322259128,-0.001213632058352232,-0.001021645963191986
1772638989617429000,2.138428955078125,-0.0003719138912856579,0.00007054442539811134,0.000491828192025423
1772638989627475000,2.148474853515625,0.001188148045912385,0.0008693104609847069,0.0011288030073046684
1772638989637520100,2.15852001953125,0.00024006282910704613,-0.0005541490390896797,-0.0005963928997516632
1772638989647566000,2.168566162109375,0.00013484316878020763,0.00009822100400924683,-0.0006733196787536144
1772638989657612000,2.178612060546875,0.002072026487439871,0.00029769167304039,-0.0016091549769043922
1772638989667657200,2.1886572265625,-0.0009688824648037553,0.0002600802108645439,-0.0004760865122079849
1772638989677703200,2.198703125,-0.00018884253222495317,0.0005503648426383734,0.00017399108037352562
1772638989687749000,2.2087490234375,-0.0011239693267270923,0.00129292206838727,-0.00011173076927661896
1772638989697794000,2.2187939453125,0.0012281346134841442,0.000005816109478473663,0.00044007599353790283
1772638989707840000,2.228840087890625,-0.0009488752111792564,-0.00013533607125282288,0.0009746323339641094
1772638989717886000,2.238885986328125,-0.0009960131719708443,-0.0003300132229924202,-0.0006413734517991543
1772638989727931100,2.24893115234375,-0.00012351362966001034,-0.00002730870619416237,0.00013333139941096306
1772638989737977000,2.25897705078125,-0.001619144924916327,-0.0009564855135977268,-0.00002539297565817833
1772638989748023000,2.26902294921875,0.0008760555647313595,0.00031229457817971706,-0.0000929790548980236
1772638989758068000,2.27906787109375,0.000015588244423270226,-0.0006509707309305668,0.000810098834335804
1772638989768114200,2.2891142578125,0.001339912647381425,0.00017118221148848534,0.00043341144919395447
1772638989778159000,2.2991591796875,-0.0003043229226022959,0.0013773278333246708,0.0002493872307240963
1772638989788205000,2.309205078125,-0.0007111242739483714,-0.0011011874303221703,-0.001483785454183817
1772638989798251300,2.319251220703125,-0.001846163533627987,-0.00045963190495967865,-0.0004326356574892998
1772638989808296000,2.3292958984375,-0.001168414019048214,0.0003033410757780075,-0.001086329109966755
1772638989818342000,2.339341796875,-0.0006935723358765244,0.00043623289093375206,0.000007431488484144211
1772638989828388000,2.34938818359375,-0.00003034586552530527,0.0007490280549973249,-0.00005884142592549324
1772638989838433000,2.35943310546875,0.0013824611669406295,0.000053676776587963104,-0.001160590909421444
1772638989848479000,2.36947900390625,-0.0013919130433350801,-0.00015557929873466492,-0.0007812269032001495
1772638989858525000,2.37952490234375,-0.00013996101915836334,-0.001281564123928547,-0.0004549897275865078
1772638989868570000,2.389570068359375,-0.0019090117421001196,0.00016822991892695427,-0.0008024205453693867
1772638989878616000,2.399615966796875,-0.00033108878415077925,-0.00013776728883385658,-0.0008982946164906025
1772638989888662000,2.409662109375,0.0004932779120281339,-0.0001208973117172718,0.0003208750858902931
1772638989898707200,2.419707275390625,-0.0000931501854211092,0.00021119904704391956,0.00017067277804017067
1772638989908753200,2.429753173828125,0.0005816277116537094,-0.0013288995251059532,0.0009764814749360085
1772638989918798000,2.439798095703125,-0.000549682998098433,0.0007584861014038324,0.00021295296028256416
1772638989928844000,2.449843994140625,0.0009336707880720496,0.0006786116864532232,-0.0006054248660802841
1772638989938890000,2.459889892578125,0.0004827977390959859,0.0009284161496907473,0.0006603756919503212
1772638989948935000,2.469934814453125,0.0007974456530064344,0.0015380936674773693,-0.002214832231402397
1772638989958981000,2.479981201171875,0.0017545856535434723,0.000015298370271921158,-0.0002491530030965805
1772638989969027000,2.490027099609375,-0.0005124704912304878,0.000973844900727272,0.0015064459294080734
1772638989979072000,2.500072021484375,0.00015331979375332594,0.00031204940751194954,0.00017513148486614227
1772638989989118200,2.5101181640625,0.0008908583549782634,0.0005013574846088886,-0.0001333584077656269
1772638989999164200,2.5201640625,0.00031135452445596457,-0.0007926723919808865,0.00030286703258752823
1772638990009209000,2.530208984375,-0.0004988756263628602,0.0004294461105018854,0.00035535404458642006
1772638990019255000,2.540255126953125,-0.000024566659703850746,0.0008307844400405884,-0.0006305482238531113
1772638990029301200,2.55030126953125,-0.0012712283059954643,-0.00085778022184968,0.00023607676848769188
1772638990039346000,2.560345947265625,-0.00029331562109291553,0.0002847157884389162,-0.0013538310304284096
1772638990049391900,2.570391845703125,0.00039868487510830164,-0.00004093023017048836,-0.0020361123606562614
1772638990059437000,2.58043701171875,-0.0003102485788986087,-0.0010601221583783627,-0.0007668496109545231
1772638990069483000,2.59048291015625,-0.0003431726945564151,0.0003993248101323843,-0.0002148691564798355
1772638990079529000,2.600529052734375,0.0006035809637978673,-0.000464871060103178,-0.0007672086358070374
1772638990089574100,2.61057421875,-0.00021467520855367184,0.0006151867564767599,-0.00093096774071455
1772638990099620000,2.6206201171875,-0.00046740914694964886,0.0009827029425650835,-0.0012638629414141178
1772638990109666000,2.630666015625,0.0002210172824561596,-0.0005835443735122681,-0.0010052346624433994
1772638990119711200,2.640711181640625,0.0005722881760448217,0.0005634792614728212,0.00044459011405706406
1772638990129757200,2.650757080078125,0.00006495567504316568,-0.0004772329702973366,0.00040155695751309395
1772638990139803100,2.66080322265625,-0.00020775198936462402,-0.00014886492863297462,-0.0010115164332091808
1772638990149848000,2.67084814453125,-0.00007768115028738976,0.0017644423060119152,0.0006947163492441177
1772638990159894000,2.68089404296875,-0.00020498025696724653,-0.00014930544421076775,0.0003085578791797161
1772638990169940000,2.69093994140625,0.00037151784636080265,0.0009310136083513498,0.00018885498866438866
1772638990179985200,2.700985107421875,-0.0011454186169430614,0.00007054628804326057,0.0008642328903079033
1772638990190031000,2.711031005859375,0.0009528613882139325,0.00028154393658041954,-0.000027419067919254303
1772638990200077000,2.7210771484375,-0.0012823296710848808,-0.0002391040325164795,0.0006389040499925613
1772638990210122000,2.7311220703125,-0.0005161571316421032,0.000559978885576129,0.0007932898588478565
1772638990220168200,2.741168212890625,-0.000023472239263355732,-0.0008986345492303371,0.0007370971143245697
1772638990230213000,2.751213134765625,0.0003271618625149131,-0.0001441403292119503,0.0002310057170689106
1772638990240259000,2.761259033203125,-0.00017830613069236279,0.00016292231157422066,0.0008933339267969131
1772638990250305300,2.77130517578125,0.0002606316702440381,-0.0010742014274001122,0.0013103857636451721
1772638990260350000,2.781349853515625,0.0010936682811006904,0.0005117109976708889,-0.000032646115869283676
1772638990270396000,2.79139599609375,0.0006184651283547282,-0.0002343878149986267,0.00045057013630867004
1772638990280442000,2.801442138671875,-0.0014593331143260002,0.0011256884317845106,-0.00019125128164887428
1772638990290487000,2.811487060546875,-0.0006828206824138761,0.000011605676263570786,0.0005122185684740543
1772638990300533000,2.821532958984375,0.0002444919664412737,0.0008821932133287191,0.0007588271982967854
1772638990310579000,2.831578857421875,-0.00021464726887643337,-0.00008628098294138908,0.0013751504011452198
1772638990320624000,2.8416240234375,0.0008620687294751406,0.0003046710044145584,-0.0006243507377803326
1772638990330670000,2.851670166015625,-0.00026360899209976196,0.0026024761609733105,-0.0003256681375205517
1772638990340716000,2.861716064453125,0.0012160432524979115,-0.00021088728681206703,0.0014719655737280846
1772638990350761200,2.87176123046875,-0.0005917459493502975,-0.00048338156193494797,-0.0007550050504505634
1772638990360807200,2.88180712890625,0.0008231914835050702,0.0009541930630803108,0.00018935184925794601
1772638990370852000,2.89185205078125,-0.00028563791420310736,0.00040694023482501507,0.0004604277200996876
1772638990380898000,2.90189794921875,-0.00006832391954958439,0.00010573677718639374,0.0024364935234189034
1772638990390944000,2.911944091796875,0.0003063639160245657,-0.001125104259699583,0.0000719740055501461
1772638990400989000,2.921989013671875,0.00017666805069893599,0.00017611635848879814,0.00001684669405221939
1772638990411035100,2.93203515625,-0.00009311223402619362,-0.0007401714101433754,-0.00046935630962252617
1772638990421081000,2.9420810546875,-0.0007876646122895181,0.0001607760787010193,0.0007090922445058823
1772638990431126000,2.9521259765625,-0.0008977105608209968,0.001109845470637083,-0.00040084589272737503
1772638990441172200,2.962172119140625,0.0004799426533281803,-0.0003775297664105892,0.0013741510920226574
1772638990451218200,2.97221826171875,0.00016728637274354696,-0.0009335600771009922,-0.001392178237438202
1772638990461263000,2.98226318359375,-0.00013471604324877262,-0.00012236088514328003,0.0009359573014080524
1772638990471309000,2.99230908203125,0.0011428032303228974,0.0003931622486561537,0.0007668221369385719
1772638990481355000,3.00235498046875,-0.0008439149241894484,-0.0015062042511999607,0.0012560444884002209
1772638990491400000,3.01239990234375,-0.0005468436283990741,-0.0010577458888292313,0.0008281809277832508
1772638990501446000,3.02244580078125,0.0004073668969795108,-0.0018489710055291653,0.0001703803427517414
1772638990511491000,3.032490966796875,-0.00001880992203950882,-0.00005999114364385605,-0.0014028693549335003
1772638990521537000,3.042537109375,0.0009420586284250021,0.0006332297343760729,0.0006333836354315281
1772638990531583000,3.0525830078125,0.00028304802253842354,-0.0004116636700928211,-0.0013420376926660538
1772638990541627400,3.06262744140625,0.00010514887981116772,-0.0007890337146818638,-0.000006995629519224167
1772638990551673300,3.07267333984375,0.00027926231268793344,-0.0001457887701690197,-0.0010166927240788937
1772638990561719300,3.08271923828125,-0.0004914564779028296,-0.0011647138744592667,0.0003881244920194149
1772638990571764200,3.09276416015625,-0.0004571464378386736,0.0007423120550811291,0.0006419066339731216
1772638990581810200,3.10281005859375,0.0004587145522236824,0.00006906501948833466,0.0020896010100841522
1772638990591856000,3.112856201171875,0.00014109094627201557,-0.0009130225516855717,0.00017947424203157425
1772638990601901300,3.1229013671875,0.0013280618004500866,-0.0011396575719118118,0.00101144565269351
1772638990611947300,3.132947265625,-0.0009471499943174422,-0.000702359713613987,0.0005006087012588978
1772638990621993200,3.1429931640625,0.0000755038345232606,-0.0002283169887959957,0.0008582714945077896
1772638990632038400,3.153038330078125,-0.00006686616688966751,0.000200984301045537,0.00021586474031209946
1772638990642084400,3.16308447265625,-0.00011906411964446306,0.000742404954507947,0.0004038838669657707
1772638990652129500,3.173129638671875,0.0004913705633953214,-0.002172328531742096,0.00029413914307951927
1772638990662175500,3.183175537109375,-0.0007848163368180394,-0.00044154003262519836,-0.00011412333697080612
1772638990672221400,3.193221435546875,0.0015008945483714342,-0.0008374415338039398,0.0011887913569808006
1772638990682266000,3.20326611328125,0.0009983561467379332,0.000043532345443964005,-0.0013044602237641811
1772638990692312300,3.213312255859375,0.0008738933829590678,0.0005786898545920849,-0.0002799094654619694
1772638990702358300,3.223358154296875,-0.00010508473496884108,0.00010917475447058678,0.0001017213799059391
1772638990712403200,3.2334033203125,0.00029643496964126825,-0.0006502955220639706,-0.0010469895787537098
1772638990722449400,3.243449462890625,0.0016884690849110484,-0.0007272609509527683,0.0009280107915401459
1772638990732495400,3.253495361328125,-0.000012873904779553413,-0.0009519648738205433,0.0005140127614140511
1772638990742540300,3.263540283203125,-0.0007066273828968406,-0.0014438508078455925,-0.0011419407092034817
1772638990752586200,3.273586181640625,0.0003764533903449774,-0.000028710346668958664,-0.0005549704656004906
1772638990762632400,3.283632568359375,0.0015557010192424059,0.00036517088301479816,0.0002692779526114464
1772638990772677400,3.293677490234375,0.0011810456635430455,-0.000930015929043293,-0.0001063183881342411
1772638990782723300,3.303723388671875,0.0005181849701330066,-0.0003036404959857464,0.0001799711026251316
1772638990792768300,3.313768310546875,0.00029717746656388044,0.000011986587196588516,-0.0006119841709733009
1772638990802814200,3.323814208984375,0.00008518993854522705,-0.0010458207689225674,-0.000554193276911974
1772638990812860200,3.333860107421875,-0.0007580702658742666,0.0010289305355399847,0.002626218367367983
1772638990822905300,3.3439052734375,-0.00027736963238567114,0.00025901058688759804,-0.00006836792454123497
1772638990832951300,3.353951416015625,0.00033269054256379604,-0.0009829802438616753,-0.0008376985788345337
1772638990842997200,3.363997314453125,0.00034760404378175735,-0.0014477018266916275,-0.0003285021521151066
1772638990853042400,3.37404248046875,0.00019602186512202024,-0.0007667490281164646,0.0003366195596754551
1772638990863088400,3.38408837890625,0.0007190668256953359,0.0004340703599154949,0.0005392860621213913
1772638990873134300,3.39413427734375,-0.0005211078096181154,0.0009347510058432817,0.00019330624490976334
1772638990883179500,3.404179443359375,0.001190505805425346,-0.00018910272046923637,-0.00004691071808338165
1772638990893225500,3.4142255859375,0.0009046492632478476,-0.0012640641070902348,-0.0005387053824961185
1772638990903271200,3.424271240234375,0.0008492555934935808,-0.0005372874438762665,0.0010165804997086525
1772638990913316400,3.43431640625,0.0005277583841234446,-0.00003224937245249748,-0.00042950548231601715
1772638990923362300,3.4443623046875,0.00024200137704610825,-0.00046448037028312683,-0.00022151274606585503
1772638990933407200,3.4544072265625,-0.0008758445037528872,0.0006827129982411861,0.0011068307794630527
1772638990943453200,3.464453125,0.0005662572802975774,-0.0006557917222380638,0.00005967589095234871
1772638990953499400,3.47449951171875,0.0003525430802255869,0.00030692038126289845,0.0002856869250535965
1772638990963544300,3.48454443359375,0.0003722505643963814,-0.0007317126728594303,0.00027396902441978455
1772638990973590300,3.49459033203125,0.00040792091749608517,-0.0011825701221823692,0.0006502345204353333
1772638990983636500,3.504636474609375,-0.0004746506456285715,-0.0000017248094081878662,0.00023877620697021484
1772638990993681400,3.514681396484375,-0.0008632655953988433,-0.000561937689781189,0.000036965589970350266
1772638991003727000,3.52472705078125,-0.0001487394329160452,0.0009613903239369392,-0.000005911104381084442
1772638991013773300,3.534773193359375,-0.00008436536882072687,0.00011461973190307617,-0.00023297173902392387
1772638991023818200,3.544818359375,0.001221116166561842,0.0004094315227121115,0.0005063218995928764
1772638991033864200,3.5548642578125,0.0003603575751185417,0.00012717349454760551,-0.0008914712816476822
1772638991043910100,3.56491015625,0.0001092215534299612,0.00013383151963353157,0.0007540960796177387
1772638991053955300,3.574955322265625,-0.0014965729787945747,0.0002915705554187298,-0.0011810129508376122
1772638991064001300,3.585001220703125,-0.00010054395534098148,-0.0005499883554875851,-0.0005650236271321774
1772638991074046500,3.59504638671875,-0.0011370977154001594,-0.0006830636411905289,-0.0003842748701572418
1772638991084092400,3.605092529296875,0.0007763835601508617,0.0008415959309786558,-0.00005217874422669411
1772638991094138400,3.615138427734375,-0.0011255777208134532,-0.00013314886018633842,-0.00006880564615130424
1772638991104183300,3.625183349609375,-0.00011091341730207205,-0.00003194902092218399,-0.0001955721527338028
1772638991114229200,3.635229248046875,0.0015869501512497663,0.00008140923455357552,-0.0012023006565868855
1772638991124275200,3.645275146484375,0.00013978849165141582,0.0008297574240714312,0.00047469185665249825
1772638991134320400,3.6553203125,0.0006681329105049372,-0.0016015050932765007,0.00004971632733941078
1772638991144366300,3.665366455078125,-0.0008237698348239064,0.0004195678047835827,0.0007988633587956429
1772638991154412300,3.675412353515625,-0.0010354164987802505,0.0003001806326210499,0.0001453440636396408
1772638991164457200,3.685457275390625,0.00006127334199845791,0.0006194938905537128,0.0005967500619590282
1772638991174503400,3.69550341796875,-0.00001028645783662796,0.0010224836878478527,0.00005393056198954582
1772638991184549400,3.70554931640625,0.0010845388751477003,0.0006309989839792252,-0.0010534119792282581
1772638991194594300,3.71559423828125,-0.00031982571817934513,0.0007457670290023088,0.000040289945900440216
1772638991204640500,3.725640625,0.0003701993264257908,0.00022778240963816643,0.00013137003406882286
1772638991214686500,3.7356865234375,0.0005217930302023888,0.000963923055678606,-0.0010020299814641476
1772638991224731100,3.745731201171875,0.00038091186434030533,0.00037749484181404114,-0.0011769994162023067
1772638991234777000,3.755777099609375,0.000993289751932025,0.0019326179753988981,-0.00009312061592936516
1772638991244822300,3.765822265625,-0.0008022135589271784,0.0002894476056098938,-0.0008601113222539425
1772638991254868200,3.7758681640625,0.00018883938901126385,-0.0006409799680113792,0.0009751557372510433
1772638991264914200,3.7859140625,0.00002771802246570587,0.0014994025696069002,0.0005956552922725677
1772638991274959400,3.79595947265625,0.0006982353515923023,-0.000109079759567976,-0.0014900830574333668
1772638991285005300,3.80600537109375,-0.0006748904706910253,0.0011577857658267021,0.00043351855129003525
1772638991295051300,3.81605126953125,-0.0011566387256607413,0.0008208383806049824,0.00029549142345786095
1772638991305096400,3.826096435546875,0.000552045414224267,-0.0006209970451891422,0.00009229220449924469
1772638991315142400,3.836142333984375,0.0007673248182982206,-0.0006158077158033848,-0.00021048448979854584
1772638991325188400,3.846188232421875,-0.00023029523435980082,-0.00036813365295529366,0.0005706208758056164
1772638991335233300,3.8562333984375,-0.0006289244629442692,0.0015102068427950144,0.0005853339098393917
1772638991345279200,3.866279296875,-0.0009418459376320243,-0.0009758542291820049,0.000016748905181884766
1772638991355324200,3.87632421875,-0.0017500186804682016,0.0003396780230104923,-0.00020991778001189232
1772638991365370400,3.886370361328125,-0.0001704979222267866,0.0014214541297405958,-0.0014437604695558548
1772638991375416300,3.896416259765625,-0.0017796363681554794,0.00032485509291291237,0.0009713140316307545
1772638991385461200,3.906461181640625,-0.00046243693213909864,0.0006236615590751171,0.0001204339787364006
1772638991395507500,3.916507568359375,-0.00005332101136445999,0.0006435057148337364,-0.0006651026196777821
1772638991405553400,3.926553466796875,0.00006385799497365952,0.0009500356391072273,-0.0014296961016952991
1772638991415598300,3.936598388671875,-0.00064038613345474,0.0005097207613289356,-0.0016028410755097866
1772638991425644300,3.946644287109375,0.0003604297526180744,-0.0006468901410698891,0.000590005423873663
1772638991435690500,3.9566904296875,-0.0010108256246894598,-0.00028782105073332787,-0.00020281504839658737
1772638991445735200,3.966735107421875,0.0014925457071512938,-0.0002782335504889488,-0.000345560722053051
1772638991455781000,3.976781005859375,0.00163999292999506,0.0006582576315850019,-0.0009997189044952393
1772638991465826300,3.986826416015625,-0.001975248334929347,-0.0002163243480026722,0.0006610285490751266
1772638991475872300,3.996872314453125,-0.0008188395295292139,0.001129956915974617,-0.0011147400364279747
1772638991485918200,4.006918212890625,0.0004799840971827507,-0.00001813191920518875,0.0004032617434859276
1772638991495963400,4.01696337890625,-0.0018159325700253248,0.00007404154166579247,-0.0010513989254832268
1772638991506009300,4.02700927734375,0.000604880740866065,-0.0003083883784711361,-0.0008862828835844994
1772638991516055300,4.03705517578125,-0.0012136995792388916,0.0009017770644277334,-0.0022062472999095917
1772638991526100500,4.0471005859375,0.0013626425061374903,0.0006578315515071154,-0.00039769522845745087
1772638991536146700,4.057146728515625,0.000405734172090888,-0.0007067597471177578,0.0008918088860809803
1772638991546192600,4.067192626953125,0.0006161238998174667,0.00085252127610147,-0.0006344486027956009
1772638991556237600,4.077237548828125,-0.0007407496450468898,-0.00020234938710927963,0.0007385541684925556
1772638991566283500,4.087283447265625,0.001002289354801178,0.001340952469035983,-0.00027451198548078537
1772638991576329500,4.09732958984375,-0.0015493826940655708,0.0010235579684376717,0.0017717075534164906
1772638991586374400,4.10737451171875,0.0006170987617224455,0.0010472601279616356,0.0009908685460686684
1772638991596420600,4.117420654296875,-0.0018950769444927573,-0.00019851606339216232,0.0003631920553743839
1772638991606466600,4.127466552734375,0.001285802572965622,0.000028918031603097916,0.00029821088537573814
1772638991616511500,4.137511474609375,-0.0000662787351757288,0.0008594559039920568,0.0006122621707618237
1772638991626557700,4.1475576171875,-0.00040796236135065556,-0.00026732776314020157,-0.00040586432442069054
1772638991636602600,4.1576025390625,-0.0006751053733751178,-0.0011172844097018242,-0.00032688118517398834
1772638991646648600,4.167648681640625,0.0008418310899287462,0.00033067609183490276,0.0005144113674759865
1772638991656694500,4.177694580078125,0.0007058472838252783,-0.0005800416693091393,-0.0005614212714135647
1772638991666739500,4.187739501953125,-0.00018258322961628437,-0.0010652695782482624,-0.001583276316523552
1772638991676785400,4.197785400390625,0.00006364425644278526,0.0010657296516001225,0.001424343790858984
1772638991686831400,4.207831298828125,-0.0018993717385455966,-0.001192364376038313,0.0007268618792295456
1772638991696876500,4.21787646484375,-0.0005838013021275401,0.001104708993807435,0.0005836221389472485
1772638991706922500,4.227922607421875,-0.0002897882368415594,-0.001694273203611374,0.0018542162142693996
1772638991716968400,4.237968505859375,-0.00020713871344923973,0.0005189853254705667,0.00011814059689640999
1772638991727013600,4.248013671875,0.000112973153591156,-0.00020353030413389206,0.00004756683483719826
1772638991737059600,4.2580595703125,0.0005270871333777905,-0.0008993363007903099,-0.0025750063359737396
1772638991747104800,4.268104736328125,-0.0018412620993331075,-0.00003753742203116417,-0.0007842970080673695
1772638991757150700,4.278150634765625,0.0003639482893049717,0.00023740180768072605,-0.00017445720732212067
1772638991767196700,4.28819677734375,-0.00047468103002756834,-0.0003580809570848942,0.001259921584278345
1772638991777241300,4.298241455078125,-0.00045746169053018093,-0.0013819560408592224,0.0005050222389400005
1772638991787287600,4.30828759765625,-0.0003946110373362899,0.0015216886531561613,-0.00007554702460765839
1772638991797333500,4.31833349609375,-0.001577806193381548,-0.0006353803910315037,0.00010482454672455788
1772638991807378400,4.32837841796875,-0.0003740573301911354,-0.00024016713723540306,-0.0008043786510825157
1772638991817424600,4.338424560546875,-0.0007155555067583919,-0.0016193259507417679,0.0005355747416615486
1772638991827470600,4.348470703125,0.00048313336446881294,0.0012829871848225594,-0.0006250306032598019
1772638991837515500,4.358515625,0.0007798848673701286,0.0006259824149310589,-0.00007213978096842766
1772638991847561500,4.3685615234375,0.00009758304804563522,0.00084302993491292,0.00137289147824049
1772638991857607700,4.378607666015625,-0.0013083401136100292,-0.00017544906586408615,-0.0002060229890048504
1772638991867652600,4.388652587890625,-0.00009500398300588131,0.000985955586656928,0.0008323434740304947
1772638991877698600,4.398698486328125,-0.0000914805568754673,0.00004514260217547417,0.00113329803571105
1772638991887743500,4.408743408203125,-0.0004486104007810354,0.0006504792254418135,-0.0013556922785937786
1772638991897789400,4.41878955078125,-0.0006375699304044247,-0.0004050987772643566,-0.0009661535732448101
1772638991907835400,4.42883544921875,-0.0003012127708643675,-0.00019737239927053452,-0.0016982564702630043
1772638991917880600,4.438880615234375,-0.00025805551558732986,0.0000011236406862735748,0.00022016232833266258
1772638991927926500,4.448926513671875,0.0005435559432953596,-0.0009506898932158947,0.0011562635190784931
1772638991937972500,4.458972412109375,0.0004919811617583036,-0.0004383418709039688,0.0003424915485084057
1772638991948017700,4.469017578125,0.0003034293185919523,0.0008261268958449364,0.00033396901562809944
1772638991958063600,4.479063720703125,-0.0010458208853378892,-0.00037150876596570015,0.00024015503004193306
1772638991968109600,4.489109619140625,-0.0001613851636648178,0.00031558703631162643,0.0004470823332667351
1772638991978154800,4.49915478515625,-0.0016384635819122195,0.00047374097630381584,-0.0005766055546700954
1772638991988200700,4.50920068359375,-0.00009036809206008911,0.00041994499042630196,-0.0011345376260578632
1772638991998245400,4.519245361328125,-0.0011118988040834665,0.0005539592821151018,-0.00036390265449881554
1772638992008291600,4.52929150390625,-0.00046075601130723953,0.001028002006933093,-0.001244876068085432
1772638992018337500,4.539337646484375,-0.0004348594229668379,-0.00012166472151875496,-0.0007676035165786743
1772638992028382500,4.549382568359375,0.0001550307497382164,0.0007790164090692997,0.0009141829796135426
1772638992038428700,4.5594287109375,-0.0001154064666479826,0.0011780213098973036,-0.00044592656195163727
1772638992048474600,4.569474609375,0.00021056435070931911,-0.00013411836698651314,-0.00013913074508309364
1772638992058519600,4.57951953125,0.000530704390257597,-0.0013539716601371765,-0.0007376647554337978
1772638992068565500,4.5895654296875,-0.0009201857028529048,0.0001933251041918993,0.0002463734708726406
1772638992078611700,4.59961181640625,-0.0004825311480090022,-0.0004410897381603718,0.0006240592338144779
1772638992088656600,4.60965673828125,-0.00020289910025894642,0.00038955011405050755,-0.0007155109196901321
1772638992098702600,4.61970263671875,-0.0008816085755825043,-0.0009144465439021587,0.0011286363005638123
1772638992108748800,4.629748779296875,-0.0004491112194955349,-0.000557316467165947,0.0008934792131185532
1772638992118793500,4.63979345703125,-0.0012991712428629398,0.00011360854841768742,0.0005764276720583439
1772638992128839400,4.64983935546875,-0.000035767676308751106,0.00021560769528150558,0.0003535212017595768
1772638992138884600,4.659884521484375,-0.0009625868406146765,0.0010737704578787088,-0.0006199260242283344
1772638992148930600,4.6699306640625,0.0001500819344073534,-0.0003121383488178253,0.00032389815896749496
1772638992158976500,4.6799765625,-0.00032797036692500114,-0.0003275773487985134,0.0005921926349401474
1772638992169021700,4.690021728515625,-0.000300806132145226,0.00021810410544276237,-0.0004056934267282486
1772638992179067600,4.700067626953125,-0.0002706230152398348,-0.00015670433640480042,-0.0014858520589768887
1772638992189113600,4.710113525390625,-0.0014035317581146955,0.0007061597425490618,0.00008834199979901314
1772638992199158800,4.72015869140625,-0.00008809752762317657,-0.0007409765385091305,-0.0006972141563892365
1772638992209204700,4.730204833984375,-0.000517931766808033,0.0006614439189434052,-0.0009648618288338184
1772638992219250700,4.740250732421875,-0.0003147362731397152,0.0002534077502787113,0.0002660132013261318
1772638992229295600,4.750295654296875,0.00034013506956398487,-0.0004898803308606148,0.001536074560135603
1772638992239341600,4.760341552734375,-0.0015153008280321956,-0.0008455086499452591,0.001432670745998621
1772638992249386500,4.770386474609375,0.000058627454563975334,-0.0005498980171978474,-0.002324250526726246
1772638992259432400,4.780432373046875,-0.0013619828969240189,-0.0003400379791855812,0.0007947157137095928
1772638992269478700,4.790478759765625,0.0007496373727917671,-0.0008660126477479935,0.0016402695327997208
1772638992279523600,4.800523681640625,-0.0008236183784902096,-0.00025511113926768303,-0.00010960735380649567
1772638992289569500,4.810569580078125,-0.0010310786310583353,-0.0008386098779737949,0.0007708338089287281
1772638992299615700,4.82061572265625,-0.0002858727239072323,0.00039400719106197357,0.0007175407372415066
1772638992309660700,4.83066064453125,0.00030641420744359493,0.00006271013990044594,0.00020221900194883347
1772638992319706600,4.84070654296875,-0.000533960061147809,0.0012983023189008236,0.001644323579967022
1772638992329752300,4.85075244140625,-0.0011161271249875426,-0.0010676500387489796,-0.0007043182849884033
1772638992339797500,4.860797607421875,-0.00046173855662345886,-0.0006785322912037373,-0.00008524628356099129
1772638992349843500,4.870843505859375,-0.002729153959080577,-0.0000771903432905674,0.00138162262737751
1772638992359889400,4.880889404296875,0.00034185987897217274,0.00021058483980596066,-0.00005043810233473778
1772638992369934600,4.8909345703125,-0.0009769374737516046,0.00025239656679332256,0.000010548625141382217
1772638992379980500,4.90098046875,-0.0012800426920875907,0.0002699182368814945,0.0006087846122682095
1772638992390025700,4.911025634765625,-0.0003894816618412733,-0.0013748500496149063,0.0001704283058643341
1772638992400071700,4.92107177734375,0.0026755519211292267,0.000744393328204751,0.00044934172183275223
1772638992410117600,4.93111767578125,0.00015779957175254822,-0.0006545651704072952,-0.001360808964818716
1772638992420162600,4.94116259765625,-0.0015331350732594728,-0.0007322393357753754,-0.0007122787646949291
1772638992430208500,4.95120849609375,0.0011079215910285711,0.00007682899013161659,-0.0005511571653187275
1772638992440254500,4.96125439453125,0.0002984630409628153,0.0005659377202391624,0.00019155815243721008
1772638992450299400,4.97129931640625,-0.0008144719759002328,0.0008032254409044981,-0.00022123195230960846
1772638992460345600,4.981345703125,0.000898049445822835,-0.00007847649976611137,-0.0011647790670394897
1772638992470391600,4.9913916015625,-0.0001038318732753396,-0.0005059139803051949,-0.0015591932460665703
1772638992480436500,5.0014365234375,-0.0005306153325363994,-0.0019266735762357712,-0.001303485594689846
1772638992490482700,5.011482666015625,-0.0005686985095962882,0.00011384044773876667,-0.0011562127619981766
1772638992500527600,5.021527587890625,0.002233598381280899,-0.0015724129043519497,0.0005742479115724564
1772638992510573600,5.031573486328125,0.0002143897581845522,0.0005629095248878002,-0.0004792986437678337
1772638992520619500,5.04161962890625,0.00032278825528919697,0.0006220925133675337,-0.001383957453072071
1772638992530664700,5.051664794921875,-0.0007291602669283748,0.0010175718925893307,-0.00013253837823867798
1772638992540710400,5.06171044921875,-0.00041710794903337955,0.000679622869938612,-0.0013387734070420265
1772638992550756400,5.07175634765625,-0.000026422319933772087,-0.0006567514501512051,0.000711061991751194
1772638992560801300,5.08180126953125,-0.0006277640350162983,0.00013116002082824707,0.0007623382844030857
1772638992570847200,5.09184716796875,0.0004918287741020322,-0.0008813738822937012,-0.0007567289285361767
1772638992580893200,5.10189306640625,-0.001055592903867364,0.0006168056279420853,-0.0015783007256686687
1772638992590938400,5.1119384765625,-0.000309108872897923,0.00007858057506382465,-0.0003172941505908966
1772638992600984300,5.121984375,0.0007647911552339792,0.0003185051027685404,-0.00014685885980725288
1772638992611029500,5.132029541015625,0.0011834402102977037,-0.000004802364856004715,-0.0005380772054195404
1772638992621075500,5.142075439453125,0.0007292244117707014,0.0005857248324900866,0.0008625905029475689
1772638992631121400,5.152121337890625,-0.0019230176694691181,-0.000170879065990448,-0.0005036112852394581
1772638992641166300,5.162166259765625,-0.0009110281243920326,-0.002197954338043928,0.00005111098289489746
1772638992651212500,5.172212646484375,-0.0000819861888885498,-0.0010493332520127296,-0.0009832605719566345
1772638992661258500,5.182258544921875,-0.0012505146441981196,-0.00030262116342782974,-0.00064899493008852
1772638992671303200,5.19230322265625,-0.0001647438621148467,-0.0011122222058475018,0.0004836474545300007
1772638992681349400,5.202349365234375,0.00043989450205117464,0.000396431190893054,0.0006499332375824451
1772638992691395300,5.212395263671875,-0.0007790342206135392,-0.0008430038578808308,-0.00045980606228113174
1772638992701440300,5.222440185546875,-0.0006129920948296785,0.000744914636015892,-0.0002190680243074894
1772638992711486500,5.232486572265625,-0.0012585422955453396,0.00006873812526464462,-0.0002670050598680973
1772638992721532400,5.242532470703125,-0.0002554372185841203,-0.00022352905943989754,0.0001781480386853218
1772638992731577300,5.252577392578125,-0.0021358951926231384,-0.0002435031346976757,-0.0008889804594218731
1772638992741623300,5.262623291015625,0.00013699661940336227,-0.0002035568468272686,-0.001325082965195179
1772638992751668500,5.27266845703125,-0.0007988382130861282,-0.00043125730007886887,-0.00020202761515974998
1772638992761714400,5.28271435546875,0.0003516743890941143,0.0003371771890670061,-0.0019598454236984253
1772638992771760400,5.292760498046875,-0.0006869584321975708,0.000774201937019825,0.00030703702941536903
1772638992781805300,5.302805419921875,-0.00019936810713261366,-0.00005301507189869881,-0.00009114854037761688
1772638992791851300,5.312851318359375,0.0005844001425430179,-0.00005647726356983185,0.0010625328868627548
1772638992801897200,5.322897216796875,0.0009245185647159815,0.00014083320274949074,0.0001989230513572693
1772638992811942400,5.3329423828125,-0.0016435676952823997,0.00022365734912455082,0.0006455350667238235
1772638992821988400,5.34298828125,0.0010450063273310661,0.0006328790914267302,-0.000577335711568594
1772638992832034300,5.353034423828125,-0.0010058940388262272,-0.0015674247406423092,-0.0000031581148505210876
1772638992842079500,5.36307958984375,-0.0005134091479703784,0.0006235153414309025,0.001476943027228117
1772638992852125400,5.37312548828125,-0.001213820418342948,0.0028517823666334152,-0.0002855365164577961
1772638992862170400,5.38317041015625,0.002119374228641391,0.0004303406458348036,0.0019020386971533298
1772638992872216600,5.393216552734375,-0.0007134302286431193,0.000007963273674249649,-0.00034087570384144783
1772638992882262500,5.403262451171875,-0.00010247004684060812,0.00008622230961918831,-0.00046525662764906883
1772638992892307200,5.41330712890625,-0.00019834388513118029,-0.0012232540175318718,0.00005246186628937721
1772638992902353400,5.423353515625,-0.0010543918469920754,-0.0004968126304447651,0.0009501343593001366
1772638992912399400,5.4333994140625,-0.00048580695874989033,0.0010395648423582315,0.000613777432590723
1772638992922444300,5.4434443359375,0.00009646685793995857,0.00038701086305081844,0.00099610211327672
1772638992932490200,5.453490234375,-0.0009924997575581074,-0.00009076017886400223,-0.00027449196204543114
1772638992942536400,5.463536376953125,-0.0004886842798441648,-0.00016536004841327667,0.0005742283537983894
1772638992952581400,5.473581298828125,0.0005669926758855581,-0.00015683798119425774,-0.0005379077047109604
1772638992962627300,5.48362744140625,0.0001393972197547555,0.000660379184409976,-0.0012162639759480953
1772638992972672500,5.493672607421875,0.0009149096440523863,-0.002102916594594717,-0.00045167049393057823
1772638992982718500,5.503718505859375,-0.0008094217628240585,0.0001534000039100647,0.0002590082585811615
1772638992992764400,5.513764404296875,-0.0010477746836841106,-0.0011590057983994484,-0.0011852243915200233
1772638993002809300,5.523809326171875,0.00026410375721752644,-0.0013731787912547588,0.0003111809492111206
1772638993012855300,5.533855224609375,0.0020697270520031452,-0.00019393116235733032,-0.0009682015515863895
1772638993022901200,5.5439013671875,0.0002879153471440077,-0.00019964389503002167,-0.0003241063095629215
1772638993032946400,5.553946533203125,0.0025840927846729755,0.0015652328729629517,0.0005012075416743755
1772638993042992400,5.563992431640625,0.0015640408964827657,-0.0008718175813555717,-0.0009146030060946941
1772638993053038300,5.574038330078125,0.0013208944583311677,0.00014231400564312935,-0.0009295167401432991
1772638993063083500,5.58408349609375,-0.00017903849948197603,0.00023245718330144882,0.0007023792713880539
1772638993073129500,5.59412939453125,0.0013663938734680414,0.00012619700282812119,0.00024671247228980064
1772638993083174400,5.60417431640625,0.00016261788550764322,-0.0005723875947296619,-0.0008121798746287823
1772638993093220400,5.614220458984375,-0.00011248665396124125,0.000012176111340522766,0.0006895768456161022
1772638993103266300,5.624266357421875,-0.0003171338466927409,-0.00033661117777228355,-0.00024780910462141037
1772638993113311200,5.634311279296875,-0.00007665040902793407,0.0005214593838900328,0.0014201286248862743
1772638993123357200,5.644357177734375,0.0016853292472660542,-0.0005096779204905033,-0.0011907056905329227
1772638993133403400,5.6544033203125,-0.00008673814591020346,-0.000878259539604187,-0.000901220366358757
1772638993143448300,5.6644482421875,0.001017521251924336,0.0005467105656862259,0.00263404892757535
1772638993153494300,5.674494384765625,-0.0014144773595035076,-0.0009742206893861294,0.0004071132279932499
1772638993163540500,5.68454052734375,-0.0003003687597811222,-0.0006024911999702454,0.00011234637349843979
1772638993173585400,5.69458544921875,-0.0011019802186638117,0.00005397805944085121,0.00010009575635194778
1772638993183631400,5.70463134765625,0.00009214296005666256,-0.0002821125090122223,-0.0004890528507530689
1772638993193677300,5.71467724609375,0.0010551419109106064,0.00043933792039752007,0.0020651849918067455
1772638993203722200,5.72472216796875,0.0006938275182619691,0.0015229845885187387,0.0003001270815730095
1772638993213768200,5.734768310546875,0.0000016718404367566109,-0.00008796155452728271,0.0005387463606894016
1772638993223813400,5.7448134765625,0.0010190726025030017,-0.00041808467358350754,-0.0016116849146783352
1772638993233859300,5.754859375,0.0005333119770511985,-0.0002516373060643673,-0.0006454898975789547
1772638993243905300,5.7649052734375,-0.00008516153320670128,0.00003280770033597946,0.0005754712037742138
1772638993253950500,5.774950439453125,-0.00032750912941992283,0.00018727127462625504,0.00031128572300076485
1772638993263996400,5.784996337890625,-0.00017925607971847057,0.0000898139551281929,0.00002473173663020134
1772638993274042400,5.79504248046875,-0.00016354350373148918,-0.0010430947877466679,0.001721964217722416
1772638993284087300,5.80508740234375,0.0003561659250408411,0.00019351113587617874,-0.0013280040584504604
1772638993294133500,5.815133544921875,-0.0004635552177205682,0.0022007355000823736,0.0002941279672086239
1772638993304179500,5.825179443359375,-0.001445823349058628,0.000776020111516118,-0.0006377818062901497
1772638993314224000,5.83522412109375,-0.00012329756282269955,-0.0007632868364453316,0.0004565115086734295
1772638993324270300,5.845270263671875,0.0007708780467510223,0.00021183770149946213,-0.0008876514621078968
1772638993334315300,5.855315185546875,0.0005919137038290501,0.0005772237200289965,0.0012298277579247952
1772638993344361200,5.865361328125,-0.0011122769210487604,0.0001240316778421402,0.00037589482963085175
1772638993354407400,5.875407470703125,-0.00009921053424477577,0.00029394146986305714,0.0005255644209682941
1772638993364452400,5.885452392578125,0.0004417453892529011,-0.00018816348165273666,0.00009605614468455315
1772638993374498300,5.895498291015625,0.0010606639552861452,0.00004992308095097542,0.0008183056488633156
1772638993384544300,5.905544189453125,0.0006441056029871106,0.002287795767188072,-0.000013292767107486725
1772638993394589400,5.91558935546875,-0.0007780223968438804,0.0005452896002680063,-0.0013259644620120525
1772638993404635400,5.925635498046875,0.00005893839988857508,0.00039282068610191345,-0.0006805127486586571
1772638993414681300,5.935681396484375,0.0004714621463790536,0.00008123088628053665,-0.0007782508619129658
1772638993424726300,5.945726318359375,-0.00031866575591266155,-0.000024156179279088974,0.00029682228341698647
1772638993434772200,5.955772216796875,0.0006853458471596241,-0.0004726322367787361,0.0010153432376682758
1772638993444817400,5.9658173828125,0.0009317796211689711,-0.0001099947839975357,0.000322848092764616
1772638993454863400,5.97586328125,0.0005400285590440035,0.0008117251563817263,0.003083480754867196
1772638993464909300,5.985909423828125,0.0011256318539381027,-0.0006596329621970654,-0.000454676803201437
1772638993474954200,5.995954345703125,0.0003216236364096403,0.0007774089463055134,-0.0006027487106621265
1772638993485000400,6.00600048828125,0.00018069834914058447,0.0007166315335780382,-0.0003990526311099529
1772638993495046400,6.01604638671875,-0.0006440826691687107,-0.00021307822316884995,0.00039483560249209404
1772638993505091300,6.02609130859375,0.001917511341162026,-0.0007521663792431355,0.0015613939613103867
1772638993515137500,6.036137451171875,0.0005603643367066979,-0.0007271328940987587,0.0010474040172994137
1772638993525183500,6.04618359375,-0.0006173799047246575,-0.0004455968737602234,0.00027721887454390526
1772638993535228200,6.056228271484375,-0.0006815620581619442,-0.00006449827924370766,-0.0006263917312026024
1772638993545275400,6.066275390625,0.0007816811557859182,-0.0007323566824197769,-0.0010737255215644836
1772638993555320600,6.076320556640625,0.0006450610235333443,0.0007020218763500452,-0.00035200919955968857
1772638993565366500,6.086366455078125,0.00014720333274453878,-0.0000474671833217144,-0.0010129301808774471
1772638993575412500,6.09641259765625,-0.001562812365591526,-0.00045786052942276,0.0015865815803408623
1772638993585457700,6.106457763671875,-0.00048074533697217703,-0.001192240510135889,0.0008648158982396126
1772638993595503600,6.116503662109375,0.0000678658252581954,-0.00042551616206765175,-0.0002957894466817379
1772638993605549600,6.126549560546875,0.00042951584327965975,-0.0010659825056791306,0.0007214527577161789
1772638993615594500,6.136594482421875,-0.00048261694610118866,0.00005307793617248535,-0.00023222528398036957
1772638993625640400,6.146640380859375,0.0010541093070060015,-0.000053491443395614624,-0.0023259283043444157
1772638993635686400,6.156686279296875,0.001031738705933094,0.0011630402877926826,0.0009087473154067993
1772638993645731300,6.1667314453125,-0.0005087265744805336,-0.0006951512768864632,0.00024526799097657204
1772638993655777500,6.176777587890625,-0.0008594648679718375,0.0006348311435431242,0.0003211679868400097
1772638993665822500,6.186822509765625,-0.00023417978081852198,-0.00016970094293355942,0.0000674552284181118
1772638993675868400,6.196868408203125,-0.00026001245714724064,-0.0010378914885222912,-0.0022305860184133053
1772638993685914600,6.20691455078125,0.000356805045157671,-0.0005874857306480408,-0.00020676758140325546
1772638993695959600,6.21695947265625,-0.0008096594829112291,0.0008482241537421942,-0.00007121264934539795
1772638993706005500,6.227005615234375,-0.000004318775609135628,0.0010200266260653734,-0.00022411858662962914
1772638993716051500,6.237051513671875,0.00020047836005687714,0.0013385405763983727,0.0008515319786965847
1772638993726096400,6.247096435546875,0.0000337997917085886,0.0006175930611789227,0.0011712359264492989
1772638993736142300,6.257142333984375,0.0009038544958457351,-0.0019896416924893856,0.0015608565881848335
1772638993746188300,6.267188232421875,-0.0006753208581358194,0.0006795225199311972,0.0007187309674918652
1772638993756233500,6.2772333984375,0.000402993056923151,-0.00009013107046484947,0.0001163240522146225
1772638993766279400,6.287279541015625,-0.0005427023861557245,-0.00022167572751641273,-0.0008934242650866508
1772638993776324600,6.29732470703125,-0.00015201664064079523,-0.0005606962367892265,-0.00006757816299796104
1772638993786370600,6.30737060546875,-0.0006420310819521546,0.0010445455554872751,-0.0009192046709358692
1772638993796416500,6.31741650390625,-0.0010622779373079538,-0.000064128078520298,-0.00036979466676712036
1772638993806461700,6.327461669921875,0.0010521237272769213,0.0010615433566272259,-0.0006436379626393318
1772638993816507600,6.337507568359375,0.00013439834583550692,0.00043463543988764286,-0.0005885106511414051
1772638993826553600,6.3475537109375,0.00039483688306063414,-0.00009948946535587311,0.00013014953583478928
1772638993836598300,6.357598388671875,-0.0010792226530611515,0.000147918239235878,-0.0008166041225194931
1772638993846644500,6.36764453125,0.0006196779431775212,0.00042962096631526947,-0.00013149529695510864
1772638993856690400,6.3776904296875,0.000077458331361413,0.0007734349928796291,-0.001877463422715664
1772638993866735400,6.3877353515625,0.00030940899159759283,-0.00008110376074910164,-0.0007204972207546234
1772638993876781600,6.397781494140625,0.0015720137162134051,-0.0002233167178928852,0.00012905104085803032
1772638993886826500,6.407826416015625,-0.00037612009327858686,0.00027229730039834976,0.000699206255376339
1772638993896872400,6.41787255859375,-0.00020621041767299175,-0.0006574122235178947,-0.0004438227042555809
1772638993906918400,6.42791845703125,0.00032269558869302273,0.00013803085312247276,-0.001615995541214943
1772638993916963600,6.437963623046875,0.00004732480738312006,0.0008443009573966265,-0.00002449052408337593
1772638993927009500,6.448009521484375,-0.0004919961793348193,0.00003853440284729004,-0.0016345912590622902
1772638993937055500,6.458055419921875,-0.0006565796211361885,-0.0009284592233598232,-0.0007642703130841255
1772638993947100400,6.468100341796875,-0.0002520837588235736,0.0007446382660418749,-0.00011659692972898483
1772638993957146400,6.478146484375,-0.0014521041885018349,-0.00013633538037538528,0.0003875391557812691
1772638993967192300,6.4881923828125,0.0013308519264683127,0.00023459945805370808,-0.0005232454277575016
1772638993977237500,6.498237548828125,-0.0005669165402650833,0.001492943149060011,-0.0008510807529091835
1772638993987283500,6.508283447265625,-0.0011495379731059074,-0.00036604609340429306,-0.0016222125850617886
1772638993997328600,6.51832861328125,-0.0006749627063982189,0.00163052580319345,0.0004537212662398815
1772638994007374600,6.52837451171875,0.0028107715770602226,0.0010210131295025349,0.0012174872681498528
1772638994017420500,6.538420654296875,-0.00003135425504297018,-0.0009151049889624119,-0.0008166348561644554
1772638994027465500,6.548465576171875,0.0013932534493505955,0.00028652744367718697,-0.0003068721853196621
1772638994037511700,6.55851171875,-0.001642217393964529,0.00024285167455673218,0.000028153415769338608
1772638994047557600,6.5685576171875,-0.0002967207692563534,-0.0004700636491179466,-0.00007043778896331787
1772638994057602300,6.578602294921875,-0.0008637077989988029,0.00041330698877573013,0.0003620595671236515
1772638994067648500,6.5886484375,-0.00009763380512595177,0.00017281528562307358,0.0006966749206185341
1772638994077694500,6.598694580078125,0.0005074364598840475,0.0002620310988277197,0.00017283111810684204
1772638994087739400,6.608739501953125,0.00023270794190466404,-0.00014544231817126274,-0.00041414424777030945
1772638994097785600,6.61878564453125,-0.00033374642953276634,-0.0013007214292883873,-0.0003353147767484188
1772638994107830500,6.62883056640625,0.0007569409208372235,0.001658368157222867,-0.0010380889289081097
1772638994117876500,6.63887646484375,-0.0008199167787097394,0.0006788575556129217,-0.00019093742594122887
1772638994127922400,6.64892236328125,-0.00020354706794023514,-0.0011214041151106358,0.0004484131932258606
1772638994137967600,6.658967529296875,-0.0004173989873379469,-0.0008878451772034168,0.0012462958693504333
1772638994148013600,6.669013671875,0.0001012865686789155,-0.0002488410100340843,-0.001283054705709219
1772638994158059500,6.6790595703125,0.00025788042694330215,-0.0008523133583366871,0.0009209779091179371
1772638994168104400,6.6891044921875,-0.0007453191210515797,-0.00031890207901597023,-0.0006405259482562542
1772638994178150400,6.699150390625,0.000854974496178329,0.0005740560591220856,-0.00039578136056661606
1772638994188195600,6.709195556640625,0.0018184592481702566,-0.0007710601203143597,0.0009301318787038326
1772638994198241500,6.719241455078125,0.000055712880566716194,-0.0013819891028106213,-0.0001340676099061966
1772638994208287500,6.72928759765625,0.0005283172940835357,-0.0010541556403040886,0.0009141741320490837
1772638994218332400,6.73933251953125,-0.00017369200941175222,0.001677714753895998,0.0006230906583368778
1772638994228378600,6.749378662109375,0.000429198844358325,0.00024280045181512833,-0.0017866683192551136
1772638994238424600,6.759424560546875,0.0000667425338178873,-0.0003074086271226406,-0.0006537595763802528
1772638994248469500,6.769469482421875,-0.001004623482003808,0.0006028478965163231,0.0019439556635916233
1772638994258515700,6.779515625,-0.00003230338916182518,0.0007139018271118402,-0.0014390582218766212
1772638994268561400,6.7895615234375,-0.0006776215159334242,0.0004150031600147486,-0.00014778319746255875
1772638994278606300,6.7996064453125,0.0009548962116241455,0.00003283936530351639,-0.0003680265508592129
1772638994288652500,6.809652587890625,-0.0012339692329987884,0.000019611790776252747,-0.001524167601019144
1772638994298698500,6.819698486328125,0.0008819123031571507,-0.00047946488484740257,0.0005477722734212875
1772638994308743400,6.829743408203125,0.0023580240085721016,0.00042254780419170856,-0.0011709211394190788
1772638994318789400,6.839789306640625,-0.00036132975947111845,-0.0012224866077303886,-0.00017250189557671547
1772638994328834600,6.84983447265625,-0.0005261203041300178,-0.0007033250294625759,0.001143965870141983
1772638994338880500,6.859880615234375,0.0017591383075341582,-0.0013997415080666542,-0.0017546182498335838
1772638994348926500,6.869926513671875,0.000447323196567595,-0.0016778581775724888,-0.0005649677477777004
1772638994358971600,6.8799716796875,0.00020044809207320213,0.00019940384663641453,0.0007663462311029434
1772638994369017300,6.890017333984375,-0.000002048094756901264,0.0015279038343578577,0.0002818796783685684
1772638994379063300,6.900063232421875,0.0002589416690170765,-0.0003464287146925926,-0.0003218590281903744
1772638994389108500,6.9101083984375,0.00016430870164185762,0.0011970112100243568,0.0008550798520445824
1772638994399154400,6.920154541015625,0.000450864783488214,-0.000722062774002552,0.00024202000349760056
1772638994409200400,6.930200439453125,0.0016837699804455042,0.0014407741837203503,0.0012385929003357887
1772638994419245600,6.94024560546875,0.0002448640298098326,0.000144879799336195,-0.0013023288920521736
1772638994429291500,6.95029150390625,0.00005720381159335375,0.00010388065129518509,0.00013829069212079048
1772638994439336400,6.96033642578125,-0.000042931060306727886,-0.0013768370263278484,0.0014576208777725697
1772638994449382700,6.970382568359375,0.0012878316920250654,0.00011388910934329033,-0.0003680521622300148
1772638994459428600,6.9804287109375,0.0012180570047348738,-0.0007686824537813663,0.0017454326152801514
1772638994469473300,6.990473388671875,-0.003191794268786907,-0.0018794531933963299,0.0007038782350718975
1772638994479519500,7.00051953125,-0.0006934827542863786,-0.0006714435294270515,0.00023196591064333916
1772638994489565400,7.0105654296875,-0.0005429945886135101,-0.00011040410026907921,-0.00027717603370547295
1772638994499610400,7.0206103515625,0.0015720878727734089,0.00048241554759442806,-0.00045134685933589935
1772638994509656300,7.03065625,0.0012060687877237797,0.0018267843406647444,-0.0003239484503865242
1772638994519701500,7.040701416015625,0.0005860850214958191,-0.00018629897385835648,-0.00012287963181734085
1772638994529747500,7.05074755859375,0.00046298629604279995,0.0002655903808772564,-0.000019640661776065826
1772638994539793000,7.06079296875,0.00016444595530629158,0.00025839987210929394,0.0014791861176490784
1772638994549838000,7.070838134765625,-0.002154290908947587,0.0002728307154029608,-0.00001111254096031189
1772638994559884000,7.080884033203125,0.0009956959402188659,0.0009482083842158318,-0.00043721823021769524
1772638994569930000,7.090929931640625,0.0005143642192706466,-0.0010035433806478977,0.00012265518307685852
1772638994579975000,7.100974853515625,0.0022888286039233208,0.0007855682633817196,0.0003841775469481945
1772638994590020900,7.111020751953125,0.0003502705367282033,-0.0012440644204616547,-0.0014507565647363663
1772638994600066800,7.12106689453125,-0.0009315088973380625,-0.0010552462190389633,-0.0009479513391852379
1772638994610112000,7.131112060546875,-0.0014655335107818246,-0.0003393278457224369,-0.00021057948470115662
1772638994620158000,7.141157958984375,-0.0002561920555308461,0.0002550897188484669,-0.002044965047389269
1772638994630203100,7.151203125,0.0015390245243906975,0.0004214327782392502,0.0012757298536598682
1772638994640249000,7.1612490234375,0.00048148329369723797,-0.00015700561925768852,0.0011750622652471066
1772638994650295000,7.171294921875,-0.0006108231609687209,-0.00017048977315425873,-0.00012498162686824799
1772638994660340000,7.181340087890625,-0.00016740686260163784,-0.00025517866015434265,-0.0013585579581558704
1772638994670386200,7.19138623046875,0.00018447765614837408,0.0012437019031494856,0.0005443068221211433
1772638994680432000,7.20143212890625,0.0014497453812509775,-0.00014087557792663574,0.0005893143825232983
1772638994690476800,7.211476806640625,0.0006190541898831725,0.0004976873751729727,-0.0009930599480867386
1772638994700523000,7.22152294921875,0.00005526305176317692,0.00024442095309495926,-0.00024737464264035225
1772638994710569000,7.23156884765625,-0.0012695793993771076,-0.001176765188574791,0.000011964701116085052
1772638994720614000,7.24161376953125,0.0006297871004790068,0.0010978407226502895,-0.0008927108719944954
1772638994730659800,7.251659912109375,-0.00006574415601789951,-0.00019027944654226303,-0.000509294681251049
1772638994740705000,7.261705078125,0.0004881934728473425,0.0005649931263178587,0.00023186299949884415
1772638994750751000,7.2717509765625,0.0006500357994809747,0.000817582244053483,0.0009294738993048668
1772638994760797000,7.281796875,0.002504394855350256,-0.00046126777306199074,0.0009800740517675877
1772638994770842000,7.291842041015625,0.0005082041025161743,0.0010687466710805893,-0.0005933963693678379
1772638994780888000,7.30188818359375,0.001807560445740819,0.0008399812504649162,0.000996244139969349
1772638994790934000,7.31193408203125,-0.0012548358645290136,-0.0019033439457416534,0.0006977426819503307
1772638994800979000,7.32197900390625,-0.001458301325328648,0.000050084665417671204,-0.0008080089464783669
1772638994811025000,7.33202490234375,-0.0007370209787040949,-0.0012162788771092892,0.00016214651986956596
1772638994821070800,7.34207080078125,0.00001745251938700676,0.00029080407693982124,0.0005855890922248363
1772638994831116000,7.352115966796875,-0.0005419051740318537,0.001695975661277771,0.001527540385723114
1772638994841162000,7.362161865234375,-0.0011893196497112513,0.0005737196188420057,-0.0007739635184407234
1772638994851207000,7.37220703125,-0.0005159721476957202,0.00043228338472545147,0.0021565849892795086
1772638994861253000,7.382253173828125,-0.0009708400466479361,-0.001425804104655981,0.0003706691786646843
1772638994871299000,7.392299072265625,-0.0005494717042893171,0.000360109843313694,-0.0017436784692108631
1772638994881344000,7.402343994140625,0.0007429603720083833,0.00018380861729383469,0.0009133578278124332
1772638994891390200,7.41239013671875,0.0009088600054383278,-0.0007126634009182453,0.00010269088670611382
1772638994901436200,7.422436279296875,-0.0002837034408003092,0.0000857524573802948,-0.0016097212210297585
1772638994911480800,7.432480712890625,0.0008455000352114439,-0.00033069681376218796,-0.0005907760933041573
1772638994921526800,7.44252685546875,-0.00041497393976897,-0.00025133462622761726,-0.0003425697796046734
1772638994931573000,7.452572998046875,-0.0011258008889853954,-0.0007841219194233418,-0.0014595510438084602
1772638994941618000,7.462617919921875,-0.001264818012714386,-0.0006493660621345043,-0.0004954868927598
1772638994951663900,7.472663818359375,0.0010822807671502233,-0.00042222626507282257,-0.0004363572224974632
1772638994961709000,7.482708984375,-0.0006285338895395398,0.0006076178979128599,0.000584965106099844
1772638994971755000,7.492755126953125,0.00046127208042889833,0.0001939903013408184,-0.000016281846910715103
1772638994981801000,7.502801025390625,-0.0006037261337041855,0.000449121231213212,-0.0014152401126921177
1772638994991846100,7.51284619140625,-0.0013860233593732119,0.0006434069946408272,-0.0008125347085297108
1772638995001892000,7.52289208984375,0.0015780747635290027,0.0007288944907486439,0.0010261121205985546
1772638995011938000,7.53293798828125,-0.00026251282542943954,-0.0009678518399596214,-0.0009035984985530376
1772638995021983000,7.54298291015625,-0.000864919857122004,0.00044282455928623676,0.000596560537815094
1772638995032029000,7.55302880859375,0.00035403482615947723,0.0007394691929221153,0.0008850865997374058
1772638995042073900,7.563073974609375,-0.00006221735384315252,0.0016097903717309237,0.0013881577178835869
1772638995052120000,7.5731201171875,0.00032039277721196413,-0.0018738862127065659,0.0004673432558774948
1772638995062166000,7.583166015625,0.0005214613629505038,0.0008731642737984657,0.00028145499527454376
1772638995072211000,7.5932109375,-0.00029388710390776396,-0.00008618645370006561,-0.0013015465810894966
1772638995082257200,7.603257080078125,0.001056069158948958,0.000308760441839695,-0.0013502826914191246
1772638995092303000,7.61330322265625,-0.0009769299067556858,-0.000522117130458355,-0.0017913058400154114
1772638995102348000,7.62334814453125,0.0011709094978868961,-0.000717592891305685,0.0007179239764809608
1772638995112394000,7.63339404296875,0.0005593710811808705,-0.0004893084987998009,-0.0013154223561286926
1772638995122440000,7.64343994140625,-0.0000419707503169775,0.0003866052720695734,-0.0006584208458662033
1772638995132484900,7.65348486328125,-0.0008964231237769127,-0.00005160970613360405,-0.00012036506086587906
1772638995142530800,7.66353076171875,0.0004937470657750964,0.0002599798608571291,-0.000610120128840208
1772638995152576000,7.673575927734375,0.0002455726498737931,0.0013014269061386585,-0.001311794389039278
1772638995162622000,7.6836220703125,0.000005089095793664455,0.0003573363646864891,-0.0007503996603190899
1772638995172668000,7.69366796875,0.0005314989248290658,-0.0003489833325147629,0.0002953787334263325
1772638995182713000,7.703713134765625,-0.0002871569013223052,0.00046194903552532196,-0.0013387366198003292
1772638995192759000,7.713759033203125,-0.00023769831750541925,-0.0008023525588214397,0.001294539775699377
1772638995202805000,7.723804931640625,-0.000492562772706151,0.00047436682507395744,0.0014604544267058372
1772638995212850200,7.73385009765625,0.0009635555325075984,-0.0001775166019797325,0.0007029250264167786
1772638995222896000,7.743896240234375,0.000290574855171144,0.00011596409603953362,0.00013354141265153885
1772638995232941800,7.75394189453125,0.0005282546626403928,-0.00025611789897084236,0.0005150330252945423
1772638995242987000,7.763987060546875,0.00029176578391343355,0.0010328518692404032,-0.0011787372641265392
1772638995253033000,7.774032958984375,0.000734022120013833,0.00011081481352448463,0.0003690025769174099
1772638995263078000,7.784077880859375,-0.0004963583778589964,-0.0011653723195195198,-0.00013753073289990425
1772638995273124000,7.7941240234375,0.0006074183620512486,0.00044638640247285366,0.0008979775011539459
1772638995283170000,7.804170166015625,0.0010843905620276928,0.0018389532342553139,0.0001299218274652958
1772638995293215000,7.814215087890625,-0.0012814498040825129,-0.0008128820918500423,0.00036746589466929436
1772638995303261000,7.824260986328125,0.00039820594247430563,-0.000058142002671957016,-0.00044106971472501755
1772638995313307100,7.83430712890625,0.000009145471267402172,0.0002049831673502922,-0.00009835325181484222
1772638995323352000,7.84435205078125,-0.00011948519386351109,0.0006468016654253006,0.00001270044595003128
1772638995333397800,7.854397705078125,-0.0015285923145711422,0.00012238416820764542,0.0011019525118172169
1772638995343443000,7.86444287109375,0.0004378857556730509,0.00000813417136669159,-0.00044294726103544235
1772638995353489000,7.874489013671875,-0.0006583501817658544,-0.0010756775736808777,0.00032393820583820343
1772638995363534800,7.884534912109375,0.00034992245491594076,-0.0010330667719244957,0.00014790333807468414
1772638995373580000,7.894580078125,-0.00040991022251546383,-0.0005386890843510628,-0.0009864866733551025
1772638995383626000,7.9046259765625,-0.0004298839485272765,-0.0012843739241361618,0.0003445609472692013
1772638995393672000,7.914671875,0.0008384111570194364,0.0003000563010573387,-0.00027669453993439674
1772638995403717000,7.924717041015625,0.0002405316336080432,-0.0015321983955800533,-0.0012202528305351734
1772638995413763000,7.93476318359375,0.000983683974482119,-0.0013340264558792114,0.0015087504871189594
1772638995423809000,7.94480908203125,0.0012020630529150367,0.0006673389580100775,-0.0006848950870335102
1772638995433854000,7.95485400390625,0.0017984460573643446,0.0006585507653653622,-0.00004467274993658066
1772638995443900000,7.96489990234375,-0.00139228708576411,0.00017145858146250248,-0.00030033616349101067
1772638995453944800,7.97494482421875,-0.0016489995177835226,0.00003521237522363663,0.00020496174693107605
1772638995463991000,7.984990966796875,-0.00012939982116222382,-0.000024442560970783234,-0.0007633636705577374
1772638995474037000,7.995037109375,-0.0007888944819569588,-0.00008772825822234154,0.00009072106331586838
1772638995484082000,8.00508203125,-0.00015373050700873137,-0.00048400647938251495,-0.0009231441654264927
1772638995494127900,8.0151279296875,0.0006039855070412159,0.0009487345814704895,-0.0006941580213606358
1772638995504174000,8.025174072265624,-0.0013435841538012028,-0.0008619483560323715,-0.0006100018508732319
1772638995514219000,8.035218994140624,0.0010209692409262061,0.0007692829240113497,-0.0009049591608345509
1772638995524265000,8.045264892578125,-0.0006139454199001193,-0.00002487190067768097,-0.0004807175137102604
1772638995534311200,8.055311279296875,-0.00012052466627210379,-0.0006111455149948597,-0.00011662160977721214
1772638995544355300,8.065355224609375,-0.0020555774681270123,0.000030143652111291885,-0.00036189891397953033
1772638995554401300,8.0754013671875,-0.0015849857591092587,-0.0010656313970685005,-0.00031020957976579666
1772638995564446500,8.085446533203125,-0.0017809943528845906,0.001430815551429987,0.0006549200043082237
1772638995574492400,8.095492431640626,-0.0008794906316325068,0.0008492446504533291,-0.00028875842690467834
1772638995584538400,8.105538330078126,-0.0009244980756193399,-0.0008290796540677547,0.000149597879499197
1772638995594583600,8.11558349609375,-0.0015447710175067186,-0.00037876982241868973,-0.0001090015284717083
1772638995604629500,8.12562939453125,-0.001066467259079218,0.0009464193135499954,-0.0007702643051743507
1772638995614675500,8.135675537109375,-0.0012302659451961517,-0.00027322303503751755,-0.0005542393773794174
1772638995624720600,8.145720703125,0.001380430767312646,0.0009960394818335772,0.0003520343452692032
1772638995634766600,8.1557666015625,-0.0011318924371153116,0.0006559111643582582,0.00003905268386006355
1772638995644811300,8.165811279296875,-0.00047222734428942204,0.0004372657276690006,-0.0015367399901151657
1772638995654857500,8.175857421875,-0.0011686633806675673,-0.0002713059075176716,0.0002870759926736355
1772638995664903400,8.1859033203125,-0.0010650663170963526,-0.0011458881199359894,-0.00014435593038797379
1772638995674948400,8.1959482421875,0.0011337323812767863,-0.00039534224197268486,-0.0004596044309437275
1772638995684994600,8.20599462890625,-0.0006974572315812111,0.0021911198273301125,0.0010301675647497177
1772638995695040500,8.21604052734375,-0.00036563153844326735,0.0009588766843080521,0.001002410426735878
1772638995705085400,8.22608544921875,-0.0014524676371365786,-0.0010502119548618793,0.0003507351502776146
1772638995715131600,8.236131591796875,-0.0012274055043235421,0.0015975241549313068,0.00006085867062211037
1772638995725177600,8.246177490234375,-0.0004468329716473818,0.00012692646123468876,-0.0009535392746329308
1772638995735222500,8.256222412109375,0.000953265349380672,-0.0008744755759835243,-0.0005742181092500687
1772638995745268500,8.2662685546875,0.00006669899448752403,0.0008203601464629173,0.00004256982356309891
1772638995755313400,8.2763134765625,-0.0014484404819086194,0.0006477793212980032,-0.0007029836997389793
1772638995765359400,8.286359375,-0.00030168332159519196,-0.001603124663233757,0.0005612187087535858
1772638995775405300,8.2964052734375,-0.002081453800201416,-0.000029287301003932953,0.00008015614002943039
1772638995785450500,8.306450439453124,-0.00045692548155784607,0.000916134798899293,-0.0012048189528286457
1772638995795496400,8.316496337890625,-0.0006958176381886005,0.00009576301090419292,-0.000183966476470232
1772638995805542400,8.32654248046875,-0.001220992999151349,-0.0004211566410958767,-0.00003243284299969673
1772638995815587600,8.336587646484375,-0.0004697208059951663,-0.0002795131877064705,0.0013771727681159973
1772638995825633500,8.346633544921875,0.0015404331497848034,0.0007311564404517412,0.0000634356401860714
1772638995835679500,8.356679443359376,-0.0001096848864108324,-0.0009257304482161999,0.0010009175166487694
1772638995845724700,8.366724609375,0.0002466461155563593,-0.00010654190555214882,-0.0005588959902524948
1772638995855770600,8.3767705078125,-0.0016173511976376176,0.0006319188978523016,-0.0021977517753839493
1772638995865815300,8.386815185546874,0.002043163636699319,-0.0002503865398466587,-0.0005814796313643456
1772638995875861500,8.396861572265625,-0.0010101344669237733,0.0014770238194614649,-0.0005302159115672112
1772638995885907500,8.406907470703125,0.0002836291678249836,-0.0003278004005551338,0.0003582146018743515
1772638995895952400,8.416952392578125,0.00034637819044291973,-0.0002168538048863411,0.00036709941923618317
1772638995905998600,8.42699853515625,0.00020363274961709976,-0.0003675888292491436,-0.0004635406658053398
1772638995916044500,8.43704443359375,0.0010818666778504848,0.0003721020184457302,0.0000568893738090992
1772638995926089500,8.44708935546875,0.0008951791096478701,-0.00022018514573574066,-0.0009082406759262085
1772638995936135400,8.457135498046876,-0.0012803267454728484,-0.0002456512302160263,0.000571531243622303
1772638995946181600,8.467181640625,-0.0013373183319345117,0.012402765452861786,0.007104531861841679
1772638995956226600,8.4772265625,-0.0017274494748562574,0.027767164632678032,0.014492794871330261
1772638995966272500,8.4872724609375,-0.0016707241302356124,0.014366937801241875,0.00903784204274416
1772638995976317400,8.4973173828125,-0.0005646129138767719,0.004344130866229534,0.0032491949386894703
1772638995986363400,8.50736328125,-0.0006437088595703244,0.01187262125313282,0.006315292324870825
1772638995996409300,8.517409423828125,0.00010468077380210161,0.008265811949968338,0.0034227960277348757
1772638996006454500,8.52745458984375,0.00012412189971655607,-0.005285949911922216,-0.0025203139521181583
1772638996016500500,8.53750048828125,0.000252819387242198,-0.025639068335294724,-0.01409943588078022
1772638996026546400,8.54754638671875,0.0008291273843497038,-0.032681528478860855,-0.01620279997587204
1772638996036591600,8.557591552734374,0.0008114990778267384,-0.012043915688991547,-0.004603405483067036
1772638996046637600,8.567637451171874,0.0015539885498583317,-0.003327122889459133,-0.0008017430081963539
1772638996056683500,8.57768359375,0.00047820049803704023,0.003924236632883549,0.0017710663378238678
1772638996066728700,8.587728759765625,0.0005423825932666659,-0.0018103481270372868,-0.0008116671815514565
