time,seconds_elapsed,z,y,x
1772642863704612900,0.05761279296875,2.63385505040586,0.586657294280082,0.26177085830513386
1772642863714657800,0.06765771484375,2.672187995931506,0.5747339245133102,0.23159210273846983
1772642863724702000,0.077701904296875,2.5627666672259566,0.5946893556967378,0.09941382076377049
1772642863734747000,0.087746826171875,2.334644140294194,0.6401216118335723,0.021442619267571718
1772642863744792000,0.0977919921875,2.244751103401184,0.7583193905822933,-0.12703826133827678
1772642863754836000,0.1078359375,2.124161314949393,0.9161800482861697,-0.28243029130576175
1772642863764881000,0.117880859375,1.995506293463707,1.0712431842260062,-0.42514644350558517
1772642863774925800,0.12792578125,1.983523594725132,1.2076532037526369,-0.4930105308767408
1772642863784969700,0.1379697265625,2.1319395477354526,1.2623847647629678,-0.5408832755008712
1772642863795015000,0.148014892578125,2.2710914133161304,1.1824655710041523,-0.5963917391678318
1772642863805059800,0.158059814453125,2.332342877614498,1.109514316561818,-0.582897357224673
1772642863815104000,0.16810400390625,2.204056104919314,1.061408457301557,-0.5497399146407842
1772642863825149000,0.17814892578125,2.0393062722235915,1.0844155311405659,-0.4549653162512928
1772642863835193900,0.18819384765625,1.8822247821986675,1.0505798970341682,-0.33998383266795423
1772642863845238000,0.198238037109375,1.578403163421154,0.879477188180387,-0.10475196692133322
1772642863855282700,0.20828271484375,1.1203192036926746,0.6321504868239164,0.19582570149889214
1772642863865327900,0.218327880859375,0.9868377849638461,0.34701953999102114,0.36995267181098457
1772642863875372000,0.2283720703125,0.969607248699665,-0.010852817925810812,0.22796002984642982
1772642863885417000,0.2384169921875,0.6714706898212432,-0.4313686790212989,-0.2034144943937659
1772642863895462000,0.2484619140625,-0.046804421272873875,-0.7575801165223122,-0.985662530639395
1772642863905505800,0.258505859375,-1.77761173055768,-0.9243526872172951,-1.8899322878360747
1772642863915551000,0.268551025390625,-3.884579334121942,-0.5950225331738591,-2.4448472670271992
1772642863925596000,0.278595947265625,-6.193093007859587,-0.003425152143090963,-2.4224003112889827
1772642863935640800,0.288640869140625,-10.482194807392359,-1.3561379842154682,-1.8482813038036225
1772642863945685000,0.29868505859375,-11.548830351692438,-0.5649243320301175,-1.92318003905192
1772642863955730000,0.30872998046875,-11.262125871932506,-0.02018544054701924,-2.0163105965614316
1772642863965775000,0.318775146484375,-10.188756635463237,-0.37321445008590814,-1.4314267416946589
1772642863975818800,0.32881884765625,-9.17017931188941,-1.6164368337392807,-0.6785434777516871
1772642863985864000,0.338864013671875,-8.472081896427273,-3.045807958078384,-0.4211602964788675
1772642863995908900,0.348908935546875,-7.778498158997297,-3.9369033955991264,-0.6831890385352075
1772642864005952800,0.358952880859375,-6.896478592857718,-4.416709650053083,-0.8497212246030569
1772642864015998000,0.368998046875,-6.341390887448191,-4.849754737854004,-0.540933105991967
1772642864026043000,0.37904296875,-6.09107231079936,-4.959968678241968,0.1355942096317187
1772642864036086800,0.389086669921875,-5.688825973626971,-4.594068496692181,0.7671815461475402
1772642864046132000,0.399132080078125,-5.047541747754812,-4.162630551826954,1.2734354433484374
1772642864056177000,0.409177001953125,-3.9362382096886632,-3.6267198405742644,1.6380480693057178
1772642864066221000,0.419220947265625,-2.6893577419191597,-2.8556156410902735,1.7717798095338047
1772642864076265700,0.429265625,-2.082303702428937,-2.047934838228673,2.032219382702559
1772642864086311000,0.439310791015625,-1.8876684345573185,-1.1815097315840422,2.598637606552243
1772642864096355000,0.44935498046875,-1.528044264537096,-0.3211526928067207,3.064560881604254
1772642864106400000,0.45939990234375,-0.8665016790121793,0.3487587848737836,3.1604101965531703
1772642864116445000,0.46944482421875,-0.09005261136889457,0.8912051815055311,2.997598346182704
1772642864126488800,0.47948876953125,0.8770967227846383,1.2273626973509788,2.757390829181671
1772642864136534000,0.489533935546875,2.095604498028755,1.3606862951695917,2.511256844741106
1772642864146578700,0.49957861328125,3.4919875450015065,1.3551276381291448,2.352863687595725
1772642864156624000,0.509623779296875,4.646012618941068,1.264136430735886,2.418886604079604
1772642864166668000,0.51966796875,5.246697123399376,1.2212287246406077,2.478919340237975
1772642864176713000,0.529712890625,5.281766683214903,1.4313970772087574,2.475221070241928
1772642864186758000,0.5397578125,5.086746215417981,1.537910117252171,2.3551167272195217
1772642864196801800,0.5498017578125,4.865658409428597,1.569602747980505,2.097890417008847
1772642864206847000,0.559846923828125,4.702490292966366,1.6913741474322974,1.9024787579372524
1772642864216892000,0.569891845703125,4.659707382294536,1.8187598796345292,1.931773241482675
1772642864226935800,0.579935791015625,4.730940142381191,1.93609534246549,2.0934362140789626
1772642864236981000,0.58998095703125,4.877077629065513,2.031183902174979,2.216868824741244
1772642864247026000,0.60002587890625,5.173241426566243,2.1264792365029455,2.318829608307779
1772642864257069800,0.61006982421875,5.650626883614063,2.2470149566799402,2.337120759540796
1772642864267114800,0.62011474609375,6.414571858993172,2.4719804808855055,2.1960461092039942
1772642864277160000,0.630159912109375,7.250581953629851,2.7271941360995173,1.98452517298311
1772642864287203800,0.640203857421875,7.903164987629651,3.0307229094102976,1.8315078636571764
1772642864297249300,0.650249267578125,8.074379047903419,3.3225922245875,1.8045199034884571
1772642864307294500,0.66029443359375,7.807403935486078,3.556332006879151,1.705374469603598
1772642864317339100,0.670339111328125,7.3228177532792085,3.7279374045580624,1.428189805600047
1772642864327383300,0.68038330078125,6.74432812949419,3.901603826420009,0.9648866499185561
1772642864337428200,0.69042822265625,6.105480775380134,4.0774893856361505,0.6892723039716482
1772642864347472100,0.70047216796875,5.55611261666119,3.9113939835503695,0.5693719590887427
1772642864357517300,0.710517333984375,5.176064667293429,3.6683836840882895,0.44061260044574735
1772642864367562200,0.720562255859375,4.967538236713409,3.618637364144623,0.1901537385433912
1772642864377607400,0.730607421875,4.678110469469428,3.461941074045002,-0.05584492907971143
1772642864387651300,0.7406513671875,4.241420595425367,2.930904983091354,-0.08868526853844523
1772642864397696300,0.7506962890625,3.92475527716577,2.33240396015197,-0.09447218137681483
1772642864407741200,0.7607412109375,3.9329198789209125,2.245095386794209,-0.18054434480741618
1772642864417785000,0.77078515625,3.829228618299961,2.2058105473712084,-0.16784823710247873
1772642864427830300,0.780830322265625,3.3494507131576534,1.8775974146589636,-0.06099193657934665
1772642864437875200,0.790875244140625,2.4691718532055615,1.5960729678854346,0.015652181031554937
1772642864447919400,0.80091943359375,1.5415367833167313,1.2849094619125128,0.07789630962908267
1772642864457964300,0.81096435546875,0.7229910337001085,0.9754407771587371,-0.010528262146562337
1772642864468009200,0.82100927734375,0.3650011868834495,0.9265873144015669,-0.3092974198400974
1772642864478053400,0.831053466796875,0.3668511986643076,1.0232590516492723,-0.772920016734302
1772642864488098300,0.841098388671875,0.24620588063299653,0.8167126889705657,-1.3430293501868844
1772642864498143200,0.851143310546875,-0.38371348613798617,0.4194973317027092,-1.8592657852850853
1772642864508187400,0.8611875,-1.4194167165577412,0.1040305755779147,-2.281695955569297
1772642864518232300,0.871232421875,-2.3903262800276277,-0.22225568072497842,-2.48247206428349
1772642864528277200,0.88127734375,-3.4685412029623985,-0.602475187267363,-2.4527087941825387
1772642864538322200,0.891322265625,-4.241261020949483,-1.0661810785308479,-2.174430343592912
1772642864548366300,0.901366455078125,-4.4596232013672585,-1.5759592774003743,-1.6642803888015447
1772642864558411300,0.911411376953125,-4.261735069179535,-1.8884557855427264,-1.3035057335719464
1772642864568456200,0.921456298828125,-4.125893351060152,-2.011537390810251,-1.2023783320896326
1772642864578500400,0.931500244140625,-4.409536689683795,-1.9662667549759147,-1.3793757980704306
1772642864588545300,0.941545166015625,-5.219848863962293,-1.9538133699856697,-1.7217442973852157
1772642864598590500,0.951590576171875,-6.311140710613131,-1.8618124010279773,-2.1034724549248813
1772642864608634000,0.961634033203125,-7.48301942115128,-1.800097995392978,-2.3562499690331515
1772642864618679300,0.97167919921875,-8.56461054252088,-2.0429710783414543,-2.591363816156983
1772642864628724200,0.98172412109375,-9.720764445182681,-2.4209596109613774,-2.9681442881613966
1772642864638768000,0.99176806640625,-10.650426052463054,-2.667550983780622,-3.4581980881243943
1772642864648813300,1.001813232421875,-11.330961507749556,-2.749218628641963,-3.870907367122173
1772642864658858200,1.011858154296875,-11.956731938147545,-2.746427536618709,-3.966242887330055
1772642864668902100,1.021902099609375,-12.300558235055208,-2.5884149032235144,-3.5846208205133676
1772642864678947300,1.031947265625,-12.261132233595847,-2.4366597227878866,-2.854747626084089
1772642864688992300,1.0419921875,-11.686050372427701,-2.236045672767609,-2.1664337918810546
1772642864699036400,1.052036376953125,-10.575499698555468,-2.126865897732973,-1.69913689038828
1772642864709081000,1.0620810546875,-9.135268157505989,-2.235308444534242,-1.4175553066000341
1772642864719126300,1.072126220703125,-7.493317527803778,-2.4645304571405053,-1.255079848577082
1772642864729171200,1.082171142578125,-5.992993044841289,-2.638851543518901,-1.1165051983624696
1772642864739215400,1.09221533203125,-4.776324175462126,-2.767782459336519,-0.9438882855534553
1772642864749260300,1.10226025390625,-3.593839899757504,-2.7943063091248272,-0.5951952593922615
1772642864759305200,1.11230517578125,-2.270284773108363,-2.7945225822240114,-0.143383511801064
1772642864769349400,1.122349365234375,-0.8192758174568414,-2.7516765431880947,0.3648682081535458
1772642864779394300,1.132394287109375,0.44513913795948024,-2.650872236180305,0.9819695944055914
1772642864789439200,1.142439208984375,1.1841209369957446,-2.318227696891874,1.743443211235106
1772642864799483400,1.1524833984375,1.8091554543346167,-1.8071135732434689,2.3858494268745183
1772642864809528300,1.1625283203125,2.308084634670615,-1.149993188074976,2.7827126097038386
1772642864819573200,1.1725732421875,2.703322554385662,-0.45634296128004787,2.9225504117220638
1772642864829617200,1.1826171875,3.143293934318423,0.17638905175887049,2.755921048890054
1772642864839662300,1.192662353515625,3.348349473917484,0.5918138002604246,2.179005542553961
1772642864849707300,1.202707275390625,3.1719793460547923,0.7832618163980544,1.2856541427999735
1772642864859751200,1.212751220703125,3.065807374534011,0.9271014744687824,0.5546133658960462
1772642864869796400,1.22279638671875,3.048325493857264,1.06694906722866,0.34652123508006333
1772642864879841300,1.23284130859375,3.1574960626721382,1.1141491367556153,0.6423132766589522
1772642864889885200,1.24288525390625,3.471326449766755,1.0522237187184393,1.2068953711226582
1772642864899930000,1.25293017578125,3.8976264472216364,1.0433842133764177,1.8102523096606133
1772642864909975300,1.262975341796875,4.367708303257823,0.975203315141052,2.2428113675102592
1772642864920019500,1.27301953125,4.768343698102235,0.889778363572806,2.4671409318998454
1772642864930064100,1.283064208984375,5.19980502384305,0.953831002897024,2.521978437502682
1772642864940109300,1.293109375,5.410565497085452,1.0696870408251882,2.4088348734036087
1772642864950154200,1.303154296875,5.469277798295021,1.1048278392460196,2.03677295435369
1772642864960198100,1.3131982421875,5.501014414295554,1.0269885935664176,1.5220795109137892
1772642864970243300,1.323243408203125,5.649557793077826,0.9638738926794379,1.0426654706478118
1772642864980288300,1.333288330078125,5.953401039165258,1.014902726714313,0.8719292570188641
1772642864990332400,1.34333251953125,6.460836766561865,1.217665333070606,1.0981655318126082
1772642865000377000,1.353377197265625,6.982682127583026,1.5146351862572132,1.3765133943766354
1772642865010422300,1.36342236328125,7.141743393248319,1.744482929546386,1.4887813446849583
1772642865020466400,1.373466552734375,7.002532490956783,1.9855138917595148,1.5452446979239582
1772642865030511400,1.383511474609375,6.9109870106816285,2.1925395623877644,1.5678589730530976
1772642865040556300,1.393556396484375,6.784228178206086,2.2560551722258326,1.303150636523962
1772642865050600200,1.40360009765625,6.70085489847064,2.199296197041124,0.7618084017418324
1772642865060645400,1.413645263671875,6.567132656723261,2.308324727036804,0.2948648437313735
1772642865070690300,1.423690185546875,6.2046969364136455,2.412554040057212,0.1399858321867883
1772642865080734200,1.433734130859375,5.676683115890622,2.246372420992702,0.31339594120010733
1772642865090779400,1.443779296875,5.1626569041877985,1.786575812127441,0.7659248971499503
1772642865100824300,1.45382421875,4.981092714813351,1.3510340852051972,1.226058336754143
1772642865110869200,1.463869140625,5.192967286777496,1.0392089004531502,1.4544149647027254
1772642865120913200,1.4739130859375,5.376965425300598,0.6750970636248588,1.3544275270357726
1772642865130958300,1.483958251953125,4.794916647729277,0.23500088826864957,0.9575938625618815
1772642865141003300,1.494003173828125,3.4479251159131525,0.031303485280275344,0.4778811316102743
1772642865151047200,1.504047119140625,1.6323200470477341,0.006632569882273674,-0.004141922110319138
1772642865161092400,1.51409228515625,-0.16428163066208362,-0.24288053560256956,-0.38097061717063185
1772642865171137300,1.52413720703125,-1.4582412449926136,-0.6426768492743372,-0.6489524224124849
1772642865181181200,1.53418115234375,-2.1081869162261486,-0.929453517487645,-0.8807888553008436
1772642865191226400,1.544226318359375,-2.396126490738988,-0.963305518206954,-0.9969190339952707
1772642865201271300,1.554271240234375,-2.601722713086009,-0.7788298252999782,-0.9660213530369103
1772642865211315500,1.5643154296875,-3.1456442968368528,-0.5745981693044304,-0.9324775414839387
1772642865221360000,1.574360107421875,-4.080972259315848,-0.36110154909640546,-1.1310752832457422
1772642865231405300,1.5844052734375,-5.091494286727905,-0.15644728377461434,-1.4036571296289562
1772642865241449500,1.594449462890625,-5.761598948892951,-0.0008469722181558609,-1.4498399118721483
1772642865251494100,1.604494140625,-5.9201335603356355,0.0814144007526338,-1.2396309350326657
1772642865261539300,1.614539306640625,-5.696438202196359,-0.020808833142369983,-1.0724420386217535
1772642865271583200,1.624583251953125,-5.60710279918611,-0.39243981342911716,-0.9401790557719767
1772642865281628400,1.63462841796875,-5.7124634543240065,-0.8182537809327244,-0.8307574348054826
1772642865291673300,1.64467333984375,-6.22182810395658,-1.185959258338809,-0.623472894045338
1772642865301718500,1.654718505859375,-7.126065931645035,-1.5789426771253345,-0.24963410151600837
1772642865311762700,1.6647626953125,-7.806286329632997,-2.0031747822649777,0.06765285577327013
1772642865321807600,1.6748076171875,-8.140838602238894,-2.2949008895792065,-0.1003073172710836
1772642865331852500,1.6848525390625,-8.269796990585327,-2.403878273909539,-0.5782851141888647
1772642865341896400,1.694896484375,-8.04901255145669,-2.406467559750378,-1.014752358458191
1772642865351941600,1.704941650390625,-7.798886282509565,-2.3262797781832516,-1.3251429803624748
1772642865361986600,1.714986572265625,-7.834606999710202,-2.323327796509862,-1.4267320080071686
1772642865372030500,1.725030517578125,-7.879636228004098,-2.369260695645213,-1.2152240773983298
1772642865382075600,1.73507568359375,-8.113647228452562,-2.4170642109580336,-0.9813906985390931
1772642865392120600,1.74512060546875,-8.533014796295761,-2.4872476081222294,-0.8299221530251204
1772642865402164500,1.75516455078125,-8.627194132205844,-2.6985119392335415,-0.540758808870986
1772642865412209400,1.76520947265625,-7.861376933214068,-3.0076509536415337,-0.1303873617036268
1772642865422254600,1.775254638671875,-6.578759381631016,-3.362296166205406,0.4630874305715784
1772642865432298500,1.785298583984375,-5.046785960951447,-3.4451913070350884,0.8751186276447027
1772642865442343400,1.795343505859375,-3.664264850592613,-3.2121342463105913,1.0070807278517633
1772642865452388600,1.805388671875,-2.6836229976594446,-3.002437602907419,1.0757544511053712
1772642865462432500,1.8154326171875,-2.172565572634339,-2.91808174187541,1.0590653282415121
1772642865472477400,1.8254775390625,-2.0208786351293324,-2.67878257189095,1.0463036079544574
1772642865482522400,1.8355224609375,-1.85275260399878,-2.3819893904455003,1.1807516066931187
1772642865492567600,1.845567626953125,-1.2787164524912833,-2.082427036547661,1.4207514722928405
1772642865502611700,1.85561181640625,-0.30113398712873457,-1.5563479834794998,1.6625126484766601
1772642865512656400,1.865656494140625,0.7867319767266512,-1.0978264360513537,1.8384961151093244
1772642865522701600,1.87570166015625,1.629459396919608,-0.7067220359444618,1.9403182208575307
1772642865532745500,1.885745361328125,2.263882504850626,-0.10466730257887392,1.8857313290148972
1772642865542790400,1.895790283203125,2.7877666782230137,0.48129872150141745,1.7400241965718566
1772642865552835600,1.905835693359375,3.0837288156718015,0.7506412571698426,1.5031139675505458
1772642865562879500,1.91587939453125,3.2459488376289602,0.8886413223668932,1.2569295680969952
1772642865572924700,1.925924560546875,3.454843516999483,1.0255905633367597,0.9357133085347712
1772642865582969300,1.93596923828125,3.837445827025175,1.2032955930650233,0.6872228240959346
1772642865593013500,1.946013427734375,4.365657800468802,1.3701811226151883,0.507336504805833
1772642865603058700,1.95605859375,5.016390238165855,1.4462502168171107,0.2893349743939936
1772642865613103600,1.966103515625,5.779720296517014,1.5442903198085725,0.0345328225903213
1772642865623147500,1.9761474609375,6.613918957817554,1.8059315238520501,-0.13530527315512297
1772642865633192400,1.9861923828125,7.371205644351243,2.0435142453074455,-0.09039280310869216
1772642865643237600,1.996237548828125,7.8552417914599175,2.153478740978986,0.223693458443135
1772642865653282600,2.006282470703125,8.031863263735175,2.1558124446235594,0.7544380191043019
1772642865663326500,2.016326416015625,7.7489681131303305,2.332978252908587,1.2363183033533394
1772642865673371600,2.02637158203125,7.425472656589746,2.6287954289287327,1.682856348325312
1772642865683416600,2.03641650390625,7.364580673253536,2.87264071791023,2.050573077777773
1772642865693460500,2.04646044921875,7.392536601671576,3.0080986974090336,2.2300265586085617
1772642865703505400,2.05650537109375,7.254415832704305,3.1647517328888175,2.2743454466760156
1772642865713550600,2.066550537109375,7.01024116563797,3.3387685756236314,2.1509017300978304
1772642865723594500,2.076594482421875,6.8303931325316425,3.4850662213057277,1.8637272947385906
1772642865733639400,2.086639404296875,6.715937901312112,3.6493700637996196,1.4934534281492233
1772642865743684600,2.0966845703125,6.7018778117775915,3.76685516423434,1.1300799885980783
1772642865753728500,2.106728515625,6.755937318745255,3.864980899682641,0.8253158282734453
1772642865763773400,2.1167734375,6.678951694220304,3.9671556182608008,0.7174450900107622
1772642865773818400,2.126818359375,6.309201266983151,4.1358135643109675,0.7757898730821907
1772642865783862500,2.136862548828125,5.726707083731889,4.202875468453764,0.9608497956179082
1772642865793907700,2.14690771484375,5.103371187004447,4.121185904021561,1.2370531934991478
1772642865803952400,2.156952392578125,4.700666584670543,3.841869196425378,1.5536650280058384
1772642865813997600,2.16699755859375,4.583915351468324,3.3744732184723016,1.7086648894511163
1772642865824041700,2.177041748046875,4.545442120689153,2.7370798625588417,1.6923802557349203
1772642865834086400,2.18708642578125,4.378812465596199,2.1382845328480005,1.4589499777838586
1772642865844131600,2.197131591796875,3.89323668783009,1.8108382928550242,0.9776759157996624
1772642865854175500,2.207175537109375,2.659944600430131,1.5342708839669823,0.5284215976063161
1772642865864220700,2.217220703125,0.6829466080814599,1.0534119055896998,0.4116445723757148
1772642865874265300,2.227265380859375,-1.394789640301466,0.572590336613357,0.516186531541869
1772642865884309500,2.2373095703125,-2.8975130010992287,0.3690259123548865,0.5543744425736368
1772642865894354700,2.247354736328125,-3.567441137653589,0.37671003711670636,0.4380542211998254
1772642865904399600,2.257399658203125,-4.2000680098176,0.34996421514078974,0.506080148069188
1772642865914443500,2.267443603515625,-5.151120195651054,0.33065935682058334,0.4851688409330323
1772642865924488400,2.277488525390625,-5.885279689097404,0.16214111150205135,0.2347755550801754
1772642865934533600,2.28753369140625,-6.334627969184518,-0.2584342246957123,-0.08353089971626176
1772642865944577500,2.29757763671875,-6.129026486140489,-0.8895771419122814,-0.36537319853361694
1772642865954622500,2.30762255859375,-5.392376929444074,-1.6845561379805207,-0.6144423231106251
1772642865964667600,2.317667724609375,-4.855310033893585,-2.489572251677513,-1.0703116024643182
1772642865974712600,2.327712646484375,-4.845723874902725,-2.9986078154861926,-1.5213292770683764
1772642865984756500,2.337756591796875,-5.390926730635762,-3.175332455874979,-1.7470660779073834
1772642865994801400,2.347801513671875,-6.368139193642139,-3.173660138748586,-1.5672059159718452
1772642866004846600,2.3578466796875,-7.612890832689404,-2.965747163891792,-1.0584477808650583
1772642866014890500,2.367890380859375,-9.23261794014573,-2.601896023826301,-0.32839068123623727
1772642866024935400,2.377935302734375,-10.789074644696711,-2.4317241660818456,0.15041945658614858
1772642866034980600,2.387980712890625,-11.964206804072857,-2.2871268945768475,-0.13294985086908565
1772642866045024500,2.3980244140625,-12.821274884307384,-2.1619294661991297,-0.9282263137802481
1772642866055069400,2.4080693359375,-13.20644207638502,-2.1300364905931053,-1.6344602739468217
1772642866065114600,2.418114501953125,-12.901111222088335,-2.1799757027603683,-1.996438313616812
1772642866075158500,2.428158447265625,-12.135284670746326,-2.2758786475926636,-1.9564219450488685
1772642866085203500,2.438203369140625,-10.864372754526137,-2.2111844954945146,-1.5874726050615309
1772642866095248400,2.448248291015625,-9.430489121198654,-2.122996362823248,-0.9939311042256652
1772642866105292500,2.45829248046875,-7.969989868146181,-2.014451086299866,-0.3580502717670053
1772642866115337700,2.468337646484375,-6.57718643322587,-1.9974160726077854,0.26934628026178103
1772642866125382400,2.47838232421875,-5.210637383502721,-2.0464393389739093,0.7142137799393385
1772642866135426600,2.488426513671875,-4.023393346050382,-2.0519128019489346,0.827450940605998
1772642866145471500,2.498471435546875,-2.970008912989497,-1.9424435424484312,0.8042363614961504
1772642866155516700,2.5085166015625,-1.9555577294349669,-1.8642500034384428,0.8685458981908857
1772642866165561300,2.518561279296875,-0.7503858211040496,-1.7871759699776768,0.9287982684493065
1772642866175605500,2.52860546875,0.5806915177434683,-1.594865345661342,0.9846348680920899
1772642866185650700,2.538650634765625,1.869936963033676,-1.3352145847827195,1.1679661402042953
1772642866195695600,2.548695556640625,3.0597850455045696,-1.0618035940989852,1.6273361211553214
1772642866205739500,2.558739501953125,4.004014107319712,-0.7303375970706343,2.02310274091959
1772642866215784400,2.568784423828125,4.52573496517837,-0.40206484312564134,2.2144944968253375
1772642866225829600,2.57882958984375,4.894349081861972,-0.18548516221046446,2.2830044078193605
1772642866235873500,2.58887353515625,5.039218156045675,0.04103036791607737,2.174843162177503
1772642866245918500,2.59891845703125,4.981418878027797,0.33148601690307256,1.9315775727801023
1772642866255963600,2.608963623046875,4.992642282831668,0.6783893831685185,1.667588782697171
1772642866266007300,2.61900732421875,5.123519656541943,0.9713261814467609,1.4860913749486206
1772642866276052500,2.629052490234375,5.275678887733817,1.222537469151616,1.336345634639263
1772642866286097400,2.639097412109375,5.483899028843641,1.4910123186074196,1.1132172627329826
1772642866296142300,2.649142333984375,5.5357706703782075,1.7133381419591605,0.788528212493658
1772642866306186500,2.6591865234375,5.298811926040053,1.852263943699002,0.42556262309104204
1772642866316231400,2.6692314453125,4.687084049519896,1.9575268375508486,0.10463847834318876
1772642866326276600,2.679276611328125,3.982120255419612,2.0302419451497493,0.04714227492511272
1772642866336320500,2.689320556640625,3.6458997573405503,2.0121815339326856,0.3476850181624293
1772642866346365400,2.699365478515625,3.573004032477736,1.88919520573318,0.8842471790611743
1772642866356410600,2.70941064453125,3.71954951544106,1.7674737829029559,1.3723825781822203
1772642866366454300,2.719454345703125,3.9957331857085228,1.8062480424553156,1.7339309942632912
1772642866376499500,2.72949951171875,4.31183794747591,1.9650524107500908,1.9441487389311194
1772642866386544400,2.73954443359375,4.563225614660978,2.1544255203098057,2.0997662938833237
1772642866396588300,2.74958837890625,4.734436752325296,2.352552575819939,2.23778301795423
1772642866406633500,2.759633544921875,5.037116215330362,2.5755326252967117,2.289944582346082
1772642866416678400,2.769678466796875,5.46726470490694,2.761855991896987,2.1477064411878586
1772642866426722600,2.77972265625,5.838005896747112,2.8652207970425483,1.8766513659805057
1772642866436767200,2.789767333984375,6.188088331440091,2.98387903290987,1.5608394496798514
1772642866446812400,2.7998125,6.5447244255602355,3.1284125915288925,1.3529951561450957
1772642866456857300,2.809857421875,6.865404824680089,3.3026445383191105,1.2752674810811877
1772642866466901500,2.819901611328125,7.04836076067388,3.4222043992012736,1.2740879159078
1772642866476946400,2.829946533203125,7.0111927672743795,3.4886665838852524,1.3630372422099113
1772642866486991400,2.839991455078125,6.904037629935145,3.5124674384504555,1.4968454086750744
1772642866497035500,2.850035400390625,6.576877805668115,3.4707226386547085,1.642557363423705
1772642866507080400,2.86008056640625,5.903361873754859,3.2505697754278775,1.8859677681192755
1772642866517125400,2.87012548828125,4.959121706023812,2.685346168190241,2.1084031893253323
1772642866527169500,2.88016943359375,4.238663405671716,2.093546104194224,2.029563461366296
1772642866537214500,2.89021435546875,4.165366114270687,1.615949342483282,1.795562397789955
1772642866547259400,2.90025927734375,4.817149522325396,1.3390902571722865,1.5145219351410866
1772642866557303600,2.910303466796875,5.205994526132941,1.0371823630616068,1.244076516264677
1772642866567348500,2.920348388671875,4.170549654388427,0.5450967650100589,1.056257358148694
1772642866577393400,2.930393310546875,1.9672277089625596,-0.19293927760869264,1.0437699247583747
1772642866587438300,2.940438232421875,-0.629281068867445,-0.7342638306036591,0.9057909023493528
1772642866597482500,2.950482421875,-2.659105226996541,-0.5517670365542173,0.4730085571378469
1772642866607527400,2.96052734375,-3.4701708499908444,-0.03693389238268137,0.08726239612847567
1772642866617572600,2.970572509765625,-3.4948499486953017,0.01664133819937706,-0.23940350714176892
1772642866627616500,2.980616455078125,-3.3121728296428916,-0.4643962116152048,-0.645374125534296
1772642866637661400,2.990661376953125,-3.2496915312886236,-0.8987395225331186,-1.1166095355197787
1772642866647706600,3.00070654296875,-3.539403960692882,-1.0738155189320444,-1.5039935268640516
1772642866657750300,3.010750244140625,-4.139477055254578,-1.0999962543711066,-1.5129147922053932
1772642866667795500,3.02079541015625,-4.704860529229045,-1.0270262952283025,-1.1784770858898759
1772642866677840400,3.03084033203125,-4.772465746468305,-0.9670213238596915,-0.726928957670927
1772642866687884300,3.04088427734375,-4.285893943402171,-1.2341872826740146,-0.2641641466498375
1772642866697929500,3.050929443359375,-3.7066637303829193,-1.5913468161463737,0.10128712208867073
1772642866707974400,3.060974365234375,-3.416377885004878,-1.825690847941488,0.20191607252955435
1772642866718019600,3.07101953125,-3.571126548168063,-1.99889476685822,0.12650135058313608
1772642866728063200,3.081063232421875,-4.475407630476355,-2.0850879263199866,-0.042138475288450716
1772642866738108400,3.0911083984375,-5.78355183750391,-1.9440142988964915,-0.4099474130690098
1772642866748153300,3.1011533203125,-7.312946932128072,-1.7746954047195613,-0.8285951422050595
1772642866758197500,3.111197509765625,-8.423063306236267,-1.625253031270951,-1.2458590157672762
1772642866768242400,3.121242431640625,-8.744895213478802,-1.4664835881590843,-1.635517089523375
1772642866778287400,3.131287353515625,-8.358146305167674,-1.5194468243226409,-1.970036482772976
1772642866788331500,3.14133154296875,-7.927181823033094,-1.6677921963147817,-2.3958764615006745
1772642866798376400,3.15137646484375,-8.232251980566978,-1.537428032823652,-2.9635230581015346
1772642866808421400,3.16142138671875,-9.184073397207259,-1.3529244289964437,-3.3892443788856266
1772642866818465500,3.171465576171875,-10.080274048912525,-1.2399888085596262,-3.404074283748865
1772642866828510500,3.181510498046875,-10.307856477618216,-1.3701583262614905,-3.0563211687862872
1772642866838555400,3.191555419921875,-9.478029455530644,-1.675095212804526,-2.628215290953219
1772642866848600300,3.201600341796875,-7.8476254712373015,-1.7454305856600403,-2.27770381719321
1772642866858644500,3.21164453125,-6.358329747289419,-1.9012946627192198,-1.8278985871188342
1772642866868689700,3.221689697265625,-5.328174798646569,-2.1488446514375505,-1.3009250694289802
1772642866878734300,3.231734375,-4.637434760209918,-2.1128487705573438,-0.7925979461506009
1772642866888778500,3.241778564453125,-4.031761945945024,-1.9673523582555352,-0.3602035773433745
1772642866898823400,3.251823486328125,-3.3326158982127905,-1.8021986209340393,-0.06036854398399591
1772642866908868600,3.26186865234375,-2.600225168004632,-1.642830773537606,0.18595891720205546
1772642866918912500,3.27191259765625,-1.8744868814229965,-1.5213411136366426,0.3929781580895185
1772642866928957400,3.28195751953125,-1.1694219650357962,-1.2984898051060736,0.607072451929748
1772642866939002600,3.292002685546875,-0.5970259819507598,-0.9956159885726868,0.8520908763438463
1772642866949046300,3.30204638671875,-0.12474340099990368,-0.5540007869556546,1.1554068836867808
1772642866959091500,3.312091552734375,0.41921091597676274,-0.07228197687864303,1.5959975645616649
1772642866969136400,3.322136474609375,1.178165243461728,0.26168109766244885,2.206355906294286
1772642866979180300,3.33218017578125,2.2080098109811543,0.41251814033985135,2.774034505468607
1772642866989225500,3.3422255859375,3.2748078523665667,0.1968465141803026,3.204898742099106
1772642866999270400,3.3522705078125,4.112755052545666,-0.14725743062496185,3.594494272013008
1772642867009315600,3.362315673828125,4.5718806302815675,-0.26271204814538357,3.6856510452315208
1772642867019359200,3.372359130859375,4.3676551117658615,-0.16824337389990687,3.254432003813982
1772642867029404400,3.382404296875,3.690359661313891,-0.028720483049750327,2.441716275525093
1772642867039449300,3.392449462890625,2.973448239788413,0.206481334618479,1.6188582156673073
1772642867049493500,3.402493408203125,2.391056932389736,0.5412661008059978,0.8892378269553184
1772642867059538400,3.412538330078125,2.0529080965965987,1.0100438885062932,0.4255731444850564
1772642867069583400,3.422583251953125,1.974802528131008,1.4604118670299648,0.3210296509489417
1772642867079627500,3.43262744140625,2.246110701316595,1.9286651924647389,0.7219678281322122
1772642867089672400,3.44267236328125,2.833518375572562,2.3025101955391465,1.5261962985828519
1772642867099717400,3.45271728515625,3.396194344154,2.6285721415668726,2.4007389529705048
1772642867109761500,3.462761474609375,3.9686797590881584,2.966689705438912,3.078052523601055
1772642867119806500,3.472806396484375,4.601768988066912,3.297894128921628,3.540151271928847
1772642867129851400,3.482851318359375,5.261318938469887,3.517324815353751,3.7260339090242978
1772642867139896300,3.492896240234375,5.817174705642461,3.660468088658154,3.6178199102818964
1772642867149940500,3.5029404296875,6.1756105426609516,3.672593995259702,3.2323212942928072
1772642867159985700,3.512985595703125,6.37516865388751,3.6758550428822634,2.6219024545446037
1772642867170030300,3.5230302734375,6.479343314111232,3.6285038013815876,1.9650477345749735
1772642867180074500,3.533074462890625,6.522983718395233,3.5541228063970802,1.4062702347368001
1772642867190119400,3.543119384765625,6.51840106678009,3.5365015172496435,1.0295917618021369
1772642867200164600,3.55316455078125,6.452139665365219,3.523216211479902,0.8565282742694019
1772642867210208500,3.56320849609375,6.39695203115046,3.462432072432339,0.7637038600996137
1772642867220253400,3.57325341796875,6.255284383356571,3.4873443953707812,0.6613935324430466
1772642867230298600,3.583298583984375,5.706189780882001,3.588519289256632,0.6281614171877503
1772642867240342300,3.59334228515625,4.657627653411031,3.7700861089795827,0.8304615205988287
1772642867250387500,3.603387451171875,3.3337416873723265,3.854221312998235,1.2807307149231433
1772642867260432400,3.613432373046875,2.1889403688520193,3.9081978178575634,1.6280784639552235
1772642867270477600,3.6234775390625,1.9844214203476904,4.094936487260461,1.83353381652683
1772642867280521500,3.633521484375,2.587194421517849,4.060832849867642,2.2562746601954102
1772642867290566700,3.643566650390625,3.549900804787874,3.4232726129546758,2.810131362505257
1772642867300611800,3.65361181640625,4.600451475727558,2.7412501339808104,3.005098931071162
1772642867310655500,3.663655517578125,4.6632782265186306,2.0240563883826135,2.8026816310212013
1772642867320700700,3.67370068359375,3.47411461918056,1.26601274600178,2.2060493245631454
1772642867330745600,3.68374560546875,1.942754361963272,0.9005062399446964,1.264593526853621
1772642867340789800,3.693789794921875,0.9808838449954986,0.9459145306840538,0.2305988539174199
1772642867350834700,3.703834716796875,0.5995183832883835,0.9292200009927153,-0.5451894117295741
1772642867360879600,3.713879638671875,0.5209487044423818,0.3993874406099319,-0.7306117378368974
1772642867370923800,3.723923828125,0.6054074413269758,-0.4729989125266671,-0.5120031814426184
1772642867380968700,3.73396875,0.4925824416577816,-1.141132274618745,-0.4169105300799012
1772642867391013600,3.744013671875,0.12718728702068327,-1.8706921653151511,-0.6463800877064466
1772642867401058600,3.75405859375,-0.8111684988468885,-2.4474314383015034,-1.1999454058542847
1772642867411102700,3.764102783203125,-2.0388252107083797,-2.694085062702,-1.9430869549185037
1772642867421147600,3.774147705078125,-3.160188955017924,-2.7367595445632933,-2.5897142953842875
1772642867431192600,3.784192626953125,-4.002111488568783,-2.8098054915517565,-3.000149491970241
1772642867441236700,3.79423681640625,-4.441369167274236,-3.075779025711119,-3.1749954790055748
1772642867451281700,3.80428173828125,-4.366843795382977,-3.4193010789752005,-3.3214234730690717
1772642867461326600,3.81432666015625,-3.972169354769587,-3.775704825644195,-3.502432951170206
1772642867471370800,3.824370849609375,-3.578935176092386,-4.09389194664359,-3.6453733953788876
1772642867481415700,3.834415771484375,-3.3837416898161172,-4.26209922631681,-3.8517493699267504
1772642867491460900,3.8444609375,-3.416493035817146,-4.3154236970081925,-4.2340322387397284
1772642867501504800,3.8545048828125,-3.8641421107709406,-4.223619273535907,-4.580476024669409
1772642867511549700,3.8645498046875,-4.574948201158643,-3.860612183079123,-4.620832877238095
1772642867521595000,3.874594970703125,-5.505183224412798,-3.402725499488413,-4.388626880384981
1772642867531639600,3.8846396484375,-6.691963151484727,-2.9565424054339524,-4.210299188713729
1772642867541683700,3.89468359375,-7.829305386170744,-2.648015677705407,-4.116698237213492
1772642867551728600,3.904728759765625,-8.507929454877972,-2.3700281728863715,-3.9628398008883
1772642867561773800,3.91477392578125,-8.582744749626517,-2.192668303333968,-3.6458000963583586
1772642867571817700,3.924817626953125,-8.27984433734715,-2.201062037669867,-3.1174834934964775
1772642867581862700,3.934862548828125,-8.049099060696363,-2.23360061770305,-2.639449217151105
1772642867591907800,3.944907958984375,-8.010100929260254,-2.1583128831371665,-2.368440026912093
1772642867601951500,3.954951416015625,-7.9088313428282735,-1.9766466946929693,-2.2066011132270096
1772642867611996700,3.96499658203125,-7.465761412358283,-1.679654337413609,-2.107257526421547
1772642867622041600,3.97504150390625,-6.782485133931041,-1.4752476171121,-1.9186402036651968
1772642867632085800,3.985085693359375,-6.225521697777509,-1.272455930791795,-1.6705661910727618
1772642867642130700,3.995130615234375,-5.699728475913405,-1.0071396914973854,-1.3203037236377597
1772642867652175600,4.005175537109375,-5.13699230157733,-0.7632607925072312,-1.015232689321041
1772642867662220800,4.015220703125,-4.672041378688812,-0.420489849871397,-0.9635466334864496
1772642867672264400,4.025264404296875,-4.379321584162116,0.04282119685560465,-0.8832657668083905
1772642867682309600,4.0353095703125,-4.197322510501742,0.40543958025574683,-0.7044239881351589
1772642867692354600,4.0453544921875,-4.2446880727887155,0.7274334000617265,-0.5246095650374889
1772642867702398700,4.055398681640625,-4.231960693162679,1.0198848990410565,-0.3419958666101098
1772642867712443600,4.065443603515625,-3.783205702793598,1.2282137612223625,-0.09114274469316005
1772642867722488600,4.075488525390625,-3.0102228499561545,1.3105576979100704,0.17549159146249294
1772642867732532700,4.08553271484375,-2.0187556516259906,1.2767714559033512,0.4789788637191057
1772642867742577700,4.09557763671875,-0.8749883523285389,1.314666886794567,0.7374263862878083
1772642867752622600,4.10562255859375,0.21902210563123226,1.33185650652647,1.134729421839118
1772642867762666800,4.115666748046875,1.2351964597165583,1.3699123886764049,1.6274933575436472
1772642867772711700,4.125711669921875,2.056900381103158,1.523228388687968,2.053688141058385
1772642867782756900,4.1357568359375,2.6925065613389014,1.6961936765432357,2.422210195544362
1772642867792801500,4.145801513671875,3.2199259231001136,1.8786162363126873,2.6512413617536423
1772642867802845700,4.155845703125,3.6906256187736988,2.0160650973677634,2.790351434019208
1772642867812891000,4.165890869140625,4.094361902242898,2.0213965215235947,2.7168445915207267
1772642867822935600,4.175935546875,4.347783121082187,1.9530580215737223,2.4120988436356186
1772642867832979700,4.185979736328125,4.613382268971204,1.827670769712329,2.0302946982502936
1772642867843024600,4.196024658203125,4.9346770005971194,1.6760653730109334,1.7072466932162642
1772642867853069800,4.20606982421875,5.321380316200852,1.5056182054564355,1.4516270875498651
1772642867863113700,4.21611376953125,5.656313697078824,1.2705807845696806,1.2203931505993009
1772642867873158700,4.22615869140625,5.9364218473136425,1.0606877418115734,1.0300067723438142
1772642867883203800,4.236203857421875,6.246251182073355,0.8626555249780415,0.9064256931215524
1772642867893247500,4.24624755859375,6.507481613358855,0.7301378367148339,0.7424652572378516
1772642867903292700,4.256292724609375,6.796967248269915,0.6880651201389729,0.5945180907830596
1772642867913337600,4.266337646484375,7.011199781537056,0.7470185366280376,0.30470921526700256
1772642867923382800,4.2763828125,6.888808496621251,0.7554052567012608,-0.3150805332861841
1772642867933426700,4.2864267578125,6.547250144645571,0.7286591424643993,-0.9270175225123762
1772642867943471600,4.2964716796875,6.277118614023924,0.8450232760451734,-0.9514587208077311
1772642867953516800,4.306516845703125,5.76197187385857,0.9875637611508369,-0.4232059769622981
1772642867963560700,4.316560791015625,5.044620891872048,0.9663234047234058,0.3287919555135071
1772642867973605600,4.326605712890625,4.642994147902727,0.8744684201076627,0.9605606034129858
1772642867983650600,4.336650634765625,5.026854933556914,0.6653644819006324,1.1276719045430421
1772642867993694700,4.34669482421875,5.806272203356027,0.4101686546042561,0.7727199641175567
1772642868003739600,4.35673974609375,6.458566483542323,0.2711211261808872,0.17154497272856534
1772642868013784600,4.36678466796875,6.448724888485669,0.17422580931037662,-0.510493726727739
1772642868023828700,4.376828857421875,5.688295227751135,-0.02206219420433044,-0.8231688063073903
1772642868033874000,4.3868740234375,4.739139230927825,-0.28864129304140806,-0.5366021275829523
1772642868043918600,4.396918701171875,4.226768969738483,-0.5116168124735355,-0.0937725817400962
1772642868053963800,4.4069638671875,4.318181763544678,-0.4543681540757417,0.0721088853340596
1772642868064007700,4.417007568359375,4.167596065279842,-0.00805792651027441,0.032687523517198856
1772642868074052900,4.427052978515625,3.249801421403885,0.646504298608005,-0.04509202786441892
1772642868084097500,4.43709765625,2.1319687738299367,1.3329247202798724,-0.0991691800866276
1772642868094141700,4.4471416015625,1.2280641236186027,1.6001149367526173,0.009992876628227532
1772642868104187000,4.457186767578125,0.6870932063668966,1.2146163207635283,0.2539642762074247
1772642868114231600,4.4672314453125,0.7533405792564153,0.5611433521866798,0.44938313220478593
1772642868124275700,4.477275634765625,1.2752642662107945,-0.08093143954128026,0.5869568617485463
1772642868134320600,4.487320556640625,1.7919453763365745,-0.7569222371354699,0.9049511635895818
1772642868144365800,4.49736572265625,2.5498195073693988,-1.0990841079622506,0.807209459022805
1772642868154409700,4.50740966796875,3.027995238012075,-0.7794789368584751,-0.02580404761377722
1772642868164454700,4.51745458984375,2.5684108105927703,-0.5089072612538933,-0.7779267389804124
1772642868174499800,4.527499755859375,1.3908844495564698,-0.650629854105413,-0.7896747521802783
1772642868184544800,4.537544677734375,0.3443126191198826,-0.712452688550949,-0.2905663793524727
1772642868194588700,4.547588623046875,-0.16553601463735101,-0.35043490139245986,0.25490590443909167
1772642868204633600,4.557633544921875,-0.7240186231821775,-0.11029957284480332,0.6276923383712768
1772642868214678800,4.5676787109375,-1.7825246370404957,-0.08793839569389819,0.9463381629236042
1772642868224722700,4.57772265625,-2.882886509853601,-0.051505730831623076,1.0940586810156703
1772642868234767600,4.587767578125,-3.8569191737800836,0.1262909227028489,1.0112769374325872
1772642868244812800,4.597812744140625,-4.723851645424962,0.35133360379785294,0.8087081000827252
1772642868254856700,4.607856689453125,-5.3649201827198265,0.3667529989868402,0.6549025629885494
1772642868264901600,4.617901611328125,-5.718420901423692,0.1061179032459855,0.479564335456863
1772642868274946800,4.62794677734375,-5.52159250742197,-0.24420360089987514,0.24506233662106094
1772642868284990700,4.63799072265625,-5.028543032774329,-0.6707946902558207,0.12444726759754121
1772642868295035600,4.64803564453125,-4.59727752186656,-0.9157099465563893,-0.0028927988320589064
1772642868305080600,4.65808056640625,-4.624160852617025,-0.8117235023811459,-0.2835897087402642
1772642868315125800,4.668125732421875,-5.17501895763278,-0.6431067651242017,-0.4965506877016276
1772642868325169700,4.678169677734375,-5.845210713559389,-0.6686182229995727,-0.4309641898736357
1772642868335214600,4.688214599609375,-6.299557240325212,-0.7550991133615375,-0.2645309341356158
1772642868345259800,4.698259765625,-6.169224056494236,-0.9632061494857073,-0.17456095954887568
1772642868355303700,4.7083037109375,-5.496082218590378,-1.6013238741509614,-0.08348053950220347
1772642868365348600,4.7183486328125,-4.757015663880109,-2.1875261181399224,-0.07055876981522888
1772642868375393500,4.7283935546875,-4.222535862213373,-2.385406067021191,-0.20215930670090018
1772642868385437700,4.738437744140625,-4.386004422926902,-2.539524615587294,-0.40256387868896126
1772642868395482600,4.748482666015625,-5.438079526954889,-2.4169557821474967,-0.43490499992128456
1772642868405527600,4.758527587890625,-6.476016800037026,-2.047178028512001,-0.2536044664517045
1772642868415571700,4.76857177734375,-7.087555875986814,-1.8674002841629087,0.027870149830728767
1772642868425616600,4.77861669921875,-7.346367555692791,-1.6502084626987576,0.2652626824762672
1772642868435661600,4.78866162109375,-6.808739519128203,-1.4825737222164868,0.5584004101540893
1772642868445706500,4.79870654296875,-5.652810072872042,-1.554624959079176,0.8358701747093349
1772642868455750700,4.808750732421875,-4.171124239405989,-1.402001179115474,0.7968273273486643
1772642868465795800,4.8187958984375,-2.6745535560190676,-1.0827493514940143,0.22204693334512413
1772642868475840500,4.828840576171875,-2.181639105927944,-0.702817283590883,-0.441717346817255
1772642868485884700,4.838884765625,-3.003053688979149,-0.2897857869014144,-0.6382173856474459
1772642868495929600,4.8489296875,-3.510996781376004,0.2675532045662403,-0.5934042843222618
1772642868505974500,4.858974609375,-3.121469640523195,0.687616645719111,-0.4427535579971969
1772642868516018700,4.869018798828125,-2.167615841272473,0.725056441797316,0.03824541337266564
1772642868526063600,4.879063720703125,-0.8128823170274495,0.5683370630830527,0.5224297367803752
1772642868536108800,4.88910888671875,0.7002490405380726,0.2086936038404703,0.9193924344614147
1772642868546152700,4.899152587890625,2.462930328467488,-0.40442485025525093,1.2771066792070864
1772642868556197600,4.90919775390625,4.276702921208739,-0.7526651642128824,1.5072620271407067
1772642868566242800,4.919242919921875,5.645761907926201,-0.5937234332740307,1.6146237929679452
1772642868576287700,4.929287841796875,6.026445232588053,-0.15347615900933742,1.5503244854062794
1772642868586331600,4.93933154296875,5.6019198435902595,0.39190293007344007,1.2547222673110663
1772642868596376600,4.94937646484375,4.805176760458946,0.9237776638083159,0.6316901758357882
1772642868606421800,4.959421875,4.205726766231656,1.3286422206550836,0.11037132290676235
1772642868616465700,4.969465576171875,3.936574894297123,1.701391245186329,0.005484130499511957
1772642868626510600,4.979510498046875,3.933668651461601,2.033556184264272,0.2961946310304105
1772642868636555800,4.9895556640625,4.030757152816653,2.2190308250807225,0.7180331190317869
1772642868646599400,4.999599365234375,4.2324440927654505,2.39268102646023,1.0531221288628876
1772642868656644600,5.00964453125,4.392317259335518,2.590519182026386,1.2233286195293067
1772642868666689500,5.019689453125,4.388980808389187,2.69387083542943,1.3179418168120085
1772642868676733700,5.029733642578125,4.426821001961827,2.719707871997356,1.4088620047956704
1772642868686778600,5.039778564453125,4.7086669357746835,2.6504163091063497,1.4320181317165492
1772642868696823600,5.049823486328125,5.083419116821885,2.496988080891967,1.3033921901948748
1772642868706868700,5.05986865234375,5.624079652950168,2.370442598906159,1.112997336371988
1772642868716912600,5.06991259765625,6.248127497339248,2.2723230009377002,0.9996892293609678
1772642868726957600,5.07995751953125,6.722178257006407,2.2533877065822483,0.9723343355759978
1772642868737002500,5.09000244140625,7.059533896595239,2.2574052716605366,0.9202250858932733
1772642868747046700,5.100046630859375,7.233309331789612,2.2737295067347585,0.7908037562102079
1772642868757091800,5.110091796875,7.340622874560951,2.40636088450551,0.7132257187500596
1772642868767136500,5.120136474609375,7.356597857806086,2.5733470979511734,0.699018183568865
1772642868777180700,5.1301806640625,7.378309338876605,2.6237171027511357,0.7336185184374451
1772642868787225600,5.1402255859375,7.634889898529648,2.5316513979941604,0.7277354517482221
1772642868797270500,5.1502705078125,7.784599398481846,2.4316152988798914,0.5348461507610976
1772642868807314700,5.160314697265625,7.410808171421289,2.4226116159521043,0.2845680522531271
1772642868817359600,5.170359619140625,6.321988267841935,2.3856682250887156,0.21621837332211433
1772642868827404800,5.18040478515625,4.795348024883866,2.069941648983955,0.18482341036610303
1772642868837449500,5.190449462890625,3.715423375421762,1.480210500216484,0.08052073984853923
1772642868847493600,5.20049365234375,3.4731647711098192,0.9217208774089812,0.06616020606271922
1772642868857538800,5.210538818359375,3.856220670121908,0.40757118545696136,0.1314312082007527
1772642868867583700,5.220583740234375,3.916215996879339,0.006867986073344945,0.1520995368938893
1772642868877627600,5.230627685546875,2.9365906275123357,-0.13590937652811408,0.0643400048982352
1772642868887672600,5.240672607421875,1.101002508804202,-0.07036196860149502,0.20285116142258047
1772642868897717800,5.2507177734375,-0.9113426912575959,-0.0630722499847412,0.5398671937935055
1772642868907761700,5.26076171875,-2.535665894332528,-0.2738666254967451,0.8866003180585801
1772642868917806600,5.270806640625,-3.0951591412246224,-0.8094922361977398,1.0972378955736755
1772642868927851800,5.280851806640625,-2.1437135721594096,-1.2182342189997435,0.7740035741873085
1772642868937895400,5.2908955078125,-1.2850444864690302,-1.25737336634174,0.34346312615107744
1772642868947940600,5.300940673828125,-1.3104723577141761,-1.5275835151575505,0.16500968920830636
1772642868957985500,5.310985595703125,-2.3524223735690115,-1.7904811490029096,0.14003186328560113
1772642868968030700,5.32103076171875,-3.5621553062051534,-1.4921974367387592,0.15674363637268543
1772642868978074600,5.33107470703125,-4.467526521837711,-1.0132815552532672,0.1074660664519295
1772642868988119600,5.34111962890625,-5.305775919833779,-0.767722155830264,0.1527201164776459
1772642868998164700,5.351164794921875,-5.737697848823666,-0.7762069294504821,0.3119262705063447
1772642869008208600,5.361208740234375,-5.533575790682435,-0.9617481326971202,0.3722134198172018
1772642869018253600,5.371253662109375,-4.942502579656243,-1.2176676711581647,0.23563947843313215
1772642869028298500,5.381298583984375,-4.368252493137121,-1.484505859322846,-0.03420680550634861
1772642869038342700,5.3913427734375,-4.073139081472158,-1.7319830750659106,-0.27440760050565005
1772642869048387800,5.401387939453125,-4.1595927915662525,-1.909248836594075,-0.3379797628365457
1772642869058432500,5.4114326171875,-4.226028380504251,-1.673402583542466,-0.17744389457404613
1772642869068476700,5.4214765625,-4.425772369691729,-1.2035153732955455,-0.027510303542390466
1772642869078521900,5.43152197265625,-4.691493682655691,-0.7948262897245586,0.01692358920685947
1772642869088566500,5.44156640625,-5.10759903383255,-0.5562006350874901,-0.06276745835188775
1772642869098611700,5.45161181640625,-5.643238526928425,-0.4548883785575628,-0.2553642061332241
1772642869108655600,5.461655517578125,-5.9421752962738275,-0.5430563452236354,-0.5546047441981733
1772642869118700800,5.47170068359375,-6.070028353726864,-0.7655350210495293,-0.9515899459719658
1772642869128745500,5.481745361328125,-6.305905148047208,-0.9527841972578316,-1.2589753947108984
1772642869138789600,5.49178955078125,-6.610583675915002,-1.0421267606612294,-1.4259133851006627
1772642869148834800,5.501834716796875,-6.724664228603244,-1.1307021390844136,-1.3126871111541987
1772642869158879700,5.511879638671875,-6.497219162541628,-1.1635047038160264,-0.9924946416817605
1772642869168923600,5.521923583984375,-6.23217764853537,-1.0606651646535843,-0.6899042451996356
1772642869178968600,5.531968505859375,-6.053237962445617,-0.9411574723500757,-0.44203857812825587
1772642869189013800,5.542013671875,-5.875853689104319,-0.8558731713615357,-0.19507000602707267
1772642869199057700,5.5520576171875,-5.6382659992128605,-0.7852548899114131,0.03119375956179574
1772642869209102600,5.5621025390625,-5.420244595056772,-0.7645984708517789,0.1808642974767834
1772642869219147800,5.572147705078125,-5.302255344492197,-0.6892749343201517,0.23526596894562243
1772642869229192700,5.582192626953125,-5.375875291976333,-0.5499649555683136,0.1867852302246727
1772642869239236600,5.592236572265625,-5.662115076833963,-0.2008091342009604,0.1584584957328625
1772642869249281500,5.602281494140625,-5.878782143771648,0.0566122601903975,0.10505337928701192
1772642869259326700,5.61232666015625,-5.7307613275587554,0.03375789269506931,0.00941944238813594
1772642869269370600,5.62237060546875,-5.207548185315728,-0.08791457642689347,-0.06735023783119395
1772642869279415600,5.63241552734375,-4.442478589820862,-0.25972601807191964,-0.016722659807279706
1772642869289460700,5.642460693359375,-3.6606028209537267,-0.3959294091105461,0.19062060713646933
1772642869299504600,5.652504638671875,-2.877206126129627,-0.3766948395475745,0.5916353749535977
1772642869309549300,5.66254931640625,-2.093271671167016,-0.31441140185296534,1.1913177166320383
1772642869319594500,5.672594482421875,-1.3134025659471749,-0.03330255014300346,1.863743369090557
1772642869329638400,5.682638427734375,-0.7030483158677816,0.5327054854705929,2.250729593288898
1772642869339683600,5.69268359375,-0.5520166274011135,0.9719478204764426,2.3664433001369236
1772642869349728300,5.702728271484375,-0.33317396999001503,1.186952214898914,2.382886485415697
1772642869359773400,5.7127734375,0.1322977619022131,1.2074860304921864,1.8155884099915622
1772642869369817600,5.722817626953125,0.7854881141453981,1.0973290809884666,0.6968177509151399
1772642869379862500,5.732862548828125,1.5153244836956261,0.9001629794649779,-0.2689825067169964
1772642869389907500,5.742907470703125,2.3950907179504632,0.6795771316483616,-0.8315145367830992
1772642869399951400,5.752951416015625,3.603109832406044,0.5616352273568511,-0.9859018192879855
1772642869409996500,5.76299658203125,4.8851814405441285,0.6717671885497868,-0.8519668115727603
1772642869420041200,5.773041259765625,5.51704317355454,0.9627093058794737,-0.49612376752644777
1772642869430085400,5.78308544921875,5.496490799391269,1.2408783047452567,-0.04382642837539315
1772642869440130600,5.793130615234375,5.397953852793574,1.3937566439919173,0.26029534239247437
1772642869450175500,5.803175537109375,5.561987646174431,1.5325840999238192,0.337209801377356
1772642869460220400,5.813220458984375,5.89713028588891,1.6743144376903771,0.3348272901549935
1772642869470264300,5.823264404296875,6.252552912566065,1.7379935675270854,0.4598847255401313
1772642869480309500,5.8333095703125,6.433309292688965,1.8743121093779802,0.8986747136685996
1772642869490354400,5.8433544921875,6.6503919546902175,1.9710462443374097,1.4690534386470913
1772642869500398300,5.8533984375,7.141372806370258,1.8591265229448675,1.749933157776296
1772642869510443500,5.863443603515625,7.865771368780732,1.5797840963855385,1.567806366083026
1772642869520488400,5.873488525390625,8.683758315470815,1.2991240113563836,1.1330812162406743
1772642869530532400,5.883532470703125,9.437333288004995,1.0417955559454857,0.6189725869514048
1772642869540577500,5.89357763671875,9.83503438296318,0.8857305494867265,0.24416465712897478
1772642869550622500,5.90362255859375,9.967660061645507,0.8376859188944101,0.093889997574687
1772642869560666400,5.913666259765625,9.87486954974532,0.8414511166468263,0.06385097927227616
1772642869570711300,5.923711181640625,9.550250642132758,0.8999053514420986,0.05840520802177489
1772642869580756500,5.933756591796875,9.095945616421103,0.9039718702286481,0.09668730014301836
1772642869590800600,5.943800537109375,8.478760059016942,0.9497124616622924,0.023517288383468983
1772642869600845300,5.95384521484375,7.849220046952366,1.0024391125909984,-0.14799597403258086
1772642869610890500,5.963890380859375,7.329709850880503,0.9260947085790335,-0.37080234744288026
1772642869620935400,5.973935302734375,6.90898911486268,0.9439845855347812,-0.4903041945274919
1772642869630979600,5.9839794921875,6.369014222911,1.1458531656607984,-0.3564139758020639
1772642869641024300,5.994024169921875,5.38013236489892,1.3042604974620045,0.01808057722225785
1772642869651069400,6.0040693359375,4.2035348091453315,1.2902039150588214,0.4827674058144912
1772642869661113600,6.014113525390625,3.458208024996519,1.0803300153926014,0.892799757220596
1772642869671158500,6.024158447265625,3.7422359790235755,0.709764326249808,1.072713622104749
1772642869681203500,6.034203369140625,4.6948757263094185,0.37095702654793855,0.9522549857519567
1772642869691247400,6.044247314453125,4.965068631729483,0.22979703601524232,0.5312537522923201
1772642869701292500,6.05429248046875,3.3265023837685583,0.14203575045391917,0.223506648900453
1772642869711337200,6.064337158203125,0.9057540774703026,-0.15805340379700064,0.22951007230002432
1772642869721381400,6.07438134765625,-0.8304045297145843,-0.533036470990628,0.24594845353951678
1772642869731426600,6.084426513671875,-1.575502765804529,-0.8378950316004454,-0.06278378843218088
1772642869741471500,6.094471435546875,-1.2007055765718222,-1.1223260134704411,-0.4062792094176635
1772642869751516400,6.104516357421875,-0.4602139574944973,-1.1656205269262194,-0.9013629298392682
1772642869761560300,6.114560302734375,-0.5670318257033825,-0.9002242811981588,-1.465245570796728
1772642869771605500,6.12460546875,-1.8853689254432915,-0.6544364798467606,-1.38017893114686
1772642869781650400,6.134650390625,-3.4942297709703443,-0.6457354331273585,-0.8075899097077548
1772642869791694300,6.1446943359375,-4.435436854615808,-0.6292413944441825,-0.5675285597117617
1772642869801739500,6.154739501953125,-5.037528303262591,-0.568248471484147,-0.5766132354538888
1772642869811784400,6.164784423828125,-5.807118006530404,-0.6806596661880612,-0.4639150039695203
1772642869821828400,6.174828369140625,-6.290787073892354,-0.8790297366738319,-0.17958225830961017
1772642869831873500,6.18487353515625,-6.1200727798342704,-1.231561171954125,0.17861209810320286
1772642869841918500,6.19491845703125,-5.554213505041599,-1.593996453872323,0.44781054912582036
1772642869851962400,6.20496240234375,-5.020254512378573,-1.7760066334486007,0.6032778088871389
1772642869862007300,6.21500732421875,-4.861538699150085,-1.8224910289868712,0.6385360231425613
1772642869872052500,6.225052490234375,-5.149507499757409,-1.8051149467721581,0.3486953642487526
1772642869882097400,6.235097412109375,-5.816267527669668,-1.6146172170966864,-0.27832988851591944
1772642869892141300,6.245141357421875,-6.903781609347463,-1.2052237115833908,-0.7703213054779916
1772642869902186500,6.2551865234375,-8.309987546676396,-0.6677920013085007,-1.0226349284015595
1772642869912231400,6.2652314453125,-9.551142622536421,-0.26383590107616034,-1.0724168311152606
1772642869922275600,6.275275634765625,-9.884835647964477,-0.17181641008108853,-1.0185657792665064
1772642869932320300,6.2853203125,-9.161971455514431,-0.3983700071956962,-0.7895181003138423
1772642869942365400,6.295365478515625,-7.901253601050376,-0.5888895103115588,-0.24838081351928412
1772642869952409600,6.30540966796875,-6.9041995424985885,-0.6880544526144862,0.30962716325111683
1772642869962454500,6.31545458984375,-6.678565909773111,-0.774229711093381,0.5896643671415746
1772642869972499500,6.32549951171875,-7.238154433733224,-0.7471824950180947,0.6014216596264392
1772642869982544400,6.33554443359375,-7.8022443607658145,-0.7116194525972008,0.4179938683371991
1772642869992588500,6.345588623046875,-8.183034068411589,-0.6763394649013876,0.1994056971438229
1772642870002633200,6.35563330078125,-8.350609479922056,-0.5518411977689713,0.07804609336331486
1772642870012678400,6.365678466796875,-8.550470958009361,-0.44776619852744043,-0.04430683230347931
1772642870022722600,6.37572265625,-9.011111031961441,-0.23915850113844497,-0.06672025109827517
1772642870032767500,6.385767578125,-9.915390945225953,0.0037769429891370233,0.05972220890447497
1772642870042812400,6.3958125,-10.629074636876583,0.1872277315614745,0.1943492905370891
1772642870052856300,6.405856201171875,-10.619116721963882,0.20540853602150455,0.38138347228784114
1772642870062901500,6.415901611328125,-9.673044078108667,0.29824478675955907,0.783732356519252
1772642870072946400,6.425946533203125,-8.031718302306533,0.3735424399312585,1.3324458507217467
1772642870082990300,6.435990234375,-6.538441984289884,0.3044755709079094,1.5466155478857457
1772642870093035500,6.446035400390625,-5.243212203893065,0.15157397864982486,1.161641394162178
1772642870103080400,6.45608056640625,-4.19583548681438,-0.1577235507881269,0.5349288971411064
1772642870113124400,6.466124267578125,-3.1145483168274164,-0.5457978259515017,0.10030004728008061
1772642870123169500,6.47616943359375,-1.9375638075828552,-0.96063900241144,-0.054548386463150376
1772642870133214500,6.48621435546875,-1.161827856644988,-1.2917246948853134,0.117333124743402
1772642870143259600,6.496259765625,-0.6172732356876135,-1.5489374149620532,0.46364042481184004
1772642870153303300,6.50630322265625,0.11155658716857432,-1.6812103346839546,0.5870923977617174
1772642870163348500,6.516348388671875,1.0313491268634796,-1.8618828359156845,0.6088546591714025
1772642870173393400,6.526393310546875,2.5477485463142395,-1.8263829218588767,0.5199204573731869
1772642870183437300,6.536437255859375,4.109929473730921,-1.372456958592683,0.41772900685593484
1772642870193482500,6.546482421875,4.793183540326357,-1.071288849998638,0.5200799587838352
1772642870203527400,6.55652734375,5.400378449591994,-1.0583782227601854,0.641326165317744
1772642870213571600,6.566571533203125,6.205240541771054,-1.1828045206349342,0.41445407683849333
1772642870223616300,6.5766162109375,6.625950756394863,-1.3460972133249043,0.20467012047804892
1772642870233661400,6.586661376953125,7.0455918804824345,-0.9595442659772931,-0.04231828883476555
1772642870243706400,6.596706298828125,7.460152340304851,-0.7316793670684099,-0.3256539497487247
1772642870253750300,6.606750244140625,8.128208253246545,0.5333349424805491,0.13302929104715586
1772642870263795500,6.61679541015625,8.402182430770992,-0.5338123507339507,0.5970203559275716
1772642870273840400,6.62684033203125,8.696380481156707,-1.3379774736247956,-0.1585891181088984
1772642870283884500,6.636884521484375,9.054476710957289,-0.14154752854555844,-0.4483733706403523
1772642870293929200,6.64692919921875,9.094301356345415,0.03150105367898941,-0.3563301699761301
1772642870303974400,6.656974365234375,9.07698431084156,0.17190408836454152,0.2881380196943879
1772642870314018300,6.667018310546875,9.270936272624134,0.6804916161447763,0.9959625369880348
1772642870324063200,6.677063232421875,9.557587560892104,1.1124567997545003,1.6307243022888898
1772642870334108400,6.6871083984375,9.853017783421278,1.4385219606526196,2.053604262167215
1772642870344152300,6.69715234375,10.069823966568707,1.866831690494716,2.381739653468132
1772642870354197200,6.707197265625,10.17013727518916,2.332630462384224,2.4959739354133603
1772642870364242400,6.717242431640625,9.969490784204005,2.806065720501542,2.2994541689693926
1772642870374286000,6.7272861328125,9.552657118752599,3.0955823350727556,1.7066002120062709
1772642870384331300,6.737331298828125,9.060345310729742,3.3348630926176903,0.6947516121655702
1772642870394376200,6.747376220703125,8.223989179134369,3.836463245728612,-0.5039248697314411
1772642870404421400,6.75742138671875,6.937362391909956,4.195925795446336,-1.259227177514881
1772642870414465300,6.76746533203125,5.7836108742147685,4.210609277576208,-1.3002860408730803
1772642870424510200,6.77751025390625,5.249892120048403,4.543709013286232,-1.13449722051844
1772642870434555400,6.787555419921875,5.058570506769418,4.933225048223138,-0.8503428636327386
1772642870444599300,6.797599365234375,4.8152615166217085,5.0326288407832385,-0.4805431173611432
1772642870454644200,6.807644287109375,4.561176865437626,4.766943183654546,0.004003646150790155
1772642870464689200,6.817689208984375,5.151123702782392,4.3430698288246985,0.2477994699673727
1772642870474733300,6.8277333984375,6.326724648714065,3.761304836630821,0.2668796526862308
1772642870484778200,6.8377783203125,7.07928255316019,2.8523595619037745,0.41793347991947083
1772642870494823200,6.8478232421875,7.395208451229333,1.8479224073633551,0.6128589994419366
1772642870504868400,6.857868408203125,7.301003396356105,1.0510951530799268,0.554848307163082
1772642870514912300,6.867912353515625,6.407810109773278,0.6454872305199504,0.15195665782447904
1772642870524957200,6.877957275390625,4.374156748744845,0.47144613012671466,-0.2743499520342797
1772642870535002000,6.888002197265625,2.072929724884033,0.3644473523929715,-0.42755379690825934
1772642870545046300,6.89804638671875,0.22821488139033316,0.6912602629184722,-0.5509975134864449
1772642870555091500,6.908091552734375,-0.9128852445244788,1.0980807761386036,-0.6407526762787252
1772642870565136100,6.91813623046875,-1.772798192796111,1.0753444820649922,-0.5315785272672772
1772642870575180300,6.92818017578125,-2.62719617703855,0.9518684706524014,-0.503169667449966
1772642870585225200,6.93822509765625,-3.6504292174637314,0.889598476961255,-0.7171160041868686
1772642870595270100,6.948270263671875,-5.3551288565456865,0.9021366176255047,-0.9958858184900135
1772642870605314300,6.958314208984375,-7.21846773648858,0.8753101316288113,-1.1451624799828977
1772642870615359200,6.968359130859375,-8.477319212558864,0.630798341562599,-1.2280071327343582
1772642870625404400,6.978404296875,-8.834186777347325,0.20820333610549568,-1.2807190244853497
1772642870635449000,6.988448974609375,-8.501601420900226,-0.3643338090158999,-1.3307261873222886
1772642870645493200,6.9984931640625,-8.182300493440032,-0.8071706613823771,-1.238541093969345
1772642870655538400,7.008538330078125,-8.659871243926883,-1.0808963440384716,-0.9046308455940335
1772642870665583400,7.018583251953125,-9.910505511271953,-1.2180027483314275,-0.44511933728046715
1772642870675627300,7.028627197265625,-11.246692155957222,-1.2305948111400007,-0.14620240514669566
1772642870685672200,7.038672119140625,-12.215650585359334,-1.1981782500512896,-0.31811157154515385
1772642870695717400,7.04871728515625,-13.095558273911475,-1.0038024368334562,-0.8022346662849187
1772642870705761300,7.05876123046875,-14.467968909144401,-0.7948532507967203,-1.434541074322909
1772642870715806200,7.06880615234375,-16.190407618534564,-0.6266681098900735,-2.1966534274473783
1772642870725851400,7.078851318359375,-17.19474014365673,-0.3544535624492913,-2.7078578597277403
1772642870735895000,7.08889501953125,-17.018331437349318,-0.17298830340467392,-2.5297698220312594
1772642870745940200,7.098940185546875,-15.745975752061604,-0.3360664765611291,-1.6183165100060402
1772642870755985200,7.108985107421875,-13.657894050753116,-0.6301526640702039,-0.612737163160555
1772642870766030300,7.1190302734375,-11.09136013994813,-1.0985264010142535,-0.11933313945420086
1772642870776074200,7.12907421875,-8.705192733165621,-1.702903403314948,-0.27413291175011545
1772642870786119200,7.139119140625,-6.945206091147661,-2.11722406303212,-0.46483116896636784
1772642870796164400,7.149164306640625,-5.702010449370741,-2.246817972803116,-0.47415977299958467
1772642870806208300,7.159208251953125,-4.952724113941192,-2.201107338116318,-0.39806799204181875
1772642870816253200,7.169253173828125,-4.5196027460336685,-2.085474587550014,-0.24240798618737608
1772642870826298000,7.179298095703125,-4.009685138693452,-1.9560664096094666,-0.07924586107451469
1772642870836342300,7.18934228515625,-3.604157295632362,-1.8224388604082167,-0.04373425657991319
1772642870846387500,7.199387451171875,-3.446721000820398,-1.5003677375823259,-0.1231592005483806
1772642870856432000,7.20943212890625,-3.552403727519512,-0.9616095279440283,0.10907499948590993
1772642870866476300,7.219476318359375,-3.2854572566747664,-0.1325914841517806,0.899986234658584
1772642870876521500,7.229521484375,-2.328361114501953,0.49929143777713175,1.9617228279359638
1772642870886566100,7.239566162109375,-1.1345289308309554,0.6214044902734458,2.588900640913844
1772642870896610300,7.2496103515625,-0.05508008218705654,0.5094540814816951,2.3491814919516445
1772642870906655200,7.2596552734375,1.0493617534160613,0.36940716675743457,1.5121610512286423
1772642870916700400,7.269700439453125,2.4580144993752238,0.3620144261576235,0.8658207110106945
1772642870926745000,7.2797451171875,3.8615047480046747,0.5944552546799182,0.6226183961078524
1772642870936789200,7.289789306640625,5.184153865724801,0.8770409009441733,0.43263508222792296
1772642870946834400,7.29983447265625,6.321871363463997,1.3190540158376096,0.29689952789675444
1772642870956879400,7.30987939453125,7.087067800208926,1.823824615678191,0.17138474066555498
1772642870966923300,7.31992333984375,7.254651979547739,2.213301487648487,-0.07183364858925342
1772642870976968200,7.32996826171875,7.208662381789088,2.3928987608641386,-0.29046076355352995
1772642870987013400,7.340013427734375,6.9127148573875425,2.5404735868752,-0.3586374605378136
1772642870997057300,7.350057373046875,6.490938474836945,2.794192619617283,-0.2179496906267479
1772642871007102200,7.360102294921875,6.3167930372864,2.958528318554163,-0.0014280235091224311
1772642871017147400,7.3701474609375,6.528122250327468,3.054941697126627,0.14512454678211362
1772642871027191000,7.38019091796875,7.043664711812138,3.079640961836278,0.3701142555808648
1772642871037236200,7.390236328125,7.8809204225957386,2.97598126539737,0.600127856956236
1772642871047281200,7.40028125,8.87636704595089,3.033198651874065,0.6767712804473937
1772642871057326300,7.410326416015625,9.74795523444712,3.03317059482336,0.8593592599116265
1772642871067370200,7.420370361328125,10.203850159698725,2.985936257700622,1.2516492896065115
1772642871077415200,7.430415283203125,10.493608181810378,2.971204260253906,1.531442382542789
1772642871087460400,7.44046044921875,10.455415521538256,2.859078056503832,1.6301228292644023
1772642871097504300,7.450504150390625,10.502942996388674,2.7762565654322504,1.245837096196413
1772642871107549200,7.460549072265625,10.863672497302293,2.9276421819031238,0.45606823599189517
1772642871117594400,7.470594482421875,10.553477251839636,2.981834959861636,-0.0609976356677711
1772642871127638300,7.48063818359375,9.880423676741122,2.9265172695264217,-0.4146416352998465
1772642871137683500,7.490683349609375,8.31527980786562,2.884388146588206,-0.633689459894225
1772642871147728100,7.50072802734375,5.555861856770515,2.7117864313483238,-0.7005619789447635
1772642871157772300,7.510772216796875,4.396737998387217,3.0902374669134614,-0.7636320369724184
1772642871167817500,7.5208173828125,4.832971945357323,3.384403660856187,-0.6337728273287415
1772642871177862100,7.530862060546875,5.425802229183912,3.3061008162528274,-0.17101912222355603
1772642871187907300,7.5409072265625,5.928730123767257,3.2295445230558513,0.17298662290424108
1772642871197951200,7.550951171875,6.242354174634814,3.16373992549777,0.402435576134175
1772642871207996400,7.560996337890625,6.284280760738254,3.0045500650167463,0.782670134115219
1772642871218041000,7.571041015625,6.081676705944537,2.584576055712998,1.1457371380656958
1772642871228085200,7.581085205078125,5.702051950424909,1.9187886722251772,1.3174379589430987
1772642871238130400,7.59113037109375,5.5631327245563265,1.1071703837841749,1.2884532719992101
1772642871248175400,7.60117529296875,5.5062078912854195,0.33257775766253467,1.1487605775400995
1772642871258219300,7.61121923828125,5.001156428676843,-0.3188353557750582,0.9222747118994593
1772642871268264200,7.62126416015625,3.8328064767867325,-0.7952282946541905,0.7453497266329825
1772642871278309400,7.631309326171875,2.359839956349134,-1.276721479281783,0.8019405787091701
1772642871288353300,7.641353271484375,1.6163555851966143,-1.6169009441196918,0.6973086031720042
1772642871298398500,7.6513984375,1.1106067879736423,-1.3984031546235083,0.11885193180851637
1772642871308443600,7.661443603515625,-0.4863397478759289,-0.7544350964948534,-0.14252331477515398
1772642871318488600,7.671488525390625,-2.9151971263498067,-0.6437614296406508,0.4021549325618893
1772642871328532500,7.681532470703125,-4.930266198417544,-0.5345677722111344,0.8141178501717746
1772642871338577400,7.691577392578125,-6.173811968806386,0.11350596767067908,0.5128030631160363
1772642871348622600,7.70162255859375,-7.4177745033025735,0.4395005475506186,-0.23093889952674507
1772642871358666800,7.711666748046875,-8.611736450833082,0.1755751780927181,-1.0128307427458465
1772642871368711400,7.72171142578125,-9.046748162531852,-0.1832413288064301,-1.6128630669057369
1772642871378756600,7.731756591796875,-8.744312445154785,-0.34988311272859574,-1.7660129165701568
1772642871388800500,7.741800537109375,-8.145662076872586,-0.3832958452478051,-1.347778590540588
1772642871398845700,7.751845703125,-7.574080917301774,-0.5709102745719253,-0.5625228969115763
1772642871408890400,7.761890380859375,-6.741496705460548,-0.9443392441913485,0.027769465935230254
1772642871418934500,7.7719345703125,-5.68522824139595,-1.4296442421920597,0.1694992557125166
1772642871428979700,7.781979736328125,-4.665688210269808,-1.8851634659990668,0.13802746466062962
1772642871439024400,7.7920244140625,-3.959693319556117,-2.2690819731898606,0.13168967647384852
1772642871449069600,7.802069580078125,-3.7844109869301317,-2.497372988556325,0.03269135944209993
1772642871459113500,7.812113525390625,-4.367502551552653,-2.478078213238716,-0.2775721654837951
1772642871469158700,7.82215869140625,-5.581438196575641,-2.3596913416586816,-0.7454946880616247
1772642871479203600,7.83220361328125,-6.972681542572379,-2.173789707601815,-1.1080842837587
1772642871489247500,7.84224755859375,-8.199981111559271,-1.8007567515626548,-1.3707023700103163
1772642871499292700,7.852292724609375,-8.749009078538418,-1.352457688267529,-1.2613405164070426
1772642871509337600,7.862337646484375,-8.696366452631354,-0.9819294085256755,-0.6982121278829873
1772642871519381500,7.872381591796875,-8.362505084899068,-0.7668992951400577,-0.11331512127369642
1772642871529426700,7.8824267578125,-7.857515581610798,-0.6942011386759579,0.05673037014473229
1772642871539471600,7.8924716796875,-7.348155608153343,-0.7725131894990801,-0.06646496116295457
1772642871549516800,7.902516845703125,-6.899224676695465,-0.964461702504754,-0.28202677027247847
1772642871559560400,7.912560546875,-6.348253174433112,-1.04662750614658,-0.33771957753039894
1772642871569605600,7.922605712890625,-5.6432999017268415,-1.1675609934695064,-0.19308277773261068
1772642871579650600,7.932650634765625,-4.993652921178937,-1.3191278117261827,0.11887092876993119
1772642871589694500,7.942694580078125,-4.326587772840261,-1.3563751539722084,0.4293333372687921
1772642871599739600,7.95273974609375,-3.600578268101811,-1.202239800401777,0.5704379808850586
1772642871609784600,7.96278466796875,-3.0682471689015625,-0.9473035008244216,0.5025321367314085
1772642871619828500,7.972828369140625,-2.900623826596141,-0.6016546646647155,0.2178551807437092
1772642871629873400,7.982873291015625,-2.9195465537309646,-0.3326988998241722,-0.09156444070395081
1772642871639918600,7.992918701171875,-2.9195845476537943,-0.2565466573834419,-0.2912845010265708
1772642871649962800,8.002962646484375,-2.5852958944201467,-0.31202494510784745,-0.28408848857525737
1772642871660007400,8.01300732421875,-1.6570084981024265,-0.4799671441040933,-0.16720840482898056
1772642871670052600,8.023052490234376,-0.2127548619300127,-0.6701425099574029,0.2797648166898638
1772642871680097500,8.03309765625,1.236845980489254,-0.935302243515849,1.1414949704512953
1772642871690141700,8.0431416015625,2.3399819941908118,-0.9746559103913605,2.070181156828254
1772642871700186400,8.053186279296876,3.25907953735888,-0.7349363230377435,2.5832354547590017
1772642871710231600,8.0632314453125,4.030848338231444,-0.3063435384705663,2.655095406833291
1772642871720275700,8.073275634765626,4.656183299821615,0.2745696591995656,2.428786066803336
1772642871730320400,8.0833203125,4.97876514864862,0.8982097995705902,1.7636092164292931
1772642871740365600,8.093365478515626,4.795296002435684,1.2531865821763872,0.7375728090211748
1772642871750409700,8.10340966796875,4.408392780345678,1.2712833798810839,-0.10978723940849304
1772642871760454700,8.11345458984375,4.069204664632678,1.217405805351585,-0.5681932706981897
1772642871770499600,8.12349951171875,3.6260160762190816,1.2294317587099968,-0.6715000620462
1772642871780543500,8.13354345703125,3.066351564413309,1.228704028957337,-0.7224348611220717
1772642871790588700,8.143588623046876,2.482328271898627,1.3180842940226196,-0.7641961736612022
1772642871800633600,8.153633544921876,1.9162761048823593,1.4613187527418137,-0.6165509127624332
1772642871810677500,8.163677490234376,1.7544459590256214,1.489882583925128,-0.27452859653681516
1772642871820722700,8.17372265625,2.0223364327222106,1.4625123464405536,-0.03903488324992358
1772642871830767600,8.183767578125,3.0702871502965685,1.3295814012013374,0.04181808422766626
1772642871840812800,8.193812744140626,4.47319872225523,1.0651045353405177,0.07662402467094362
1772642871850856400,8.2038564453125,5.852415530371665,0.8494150081980973,0.04778437222093344
1772642871860901600,8.213901611328126,6.836980109706521,0.6783000243846327,-0.1369005064573139
1772642871870946600,8.223946533203126,7.3791475432664155,0.44380379770249123,-0.39252961060442026
1772642871880990500,8.233990478515626,7.689265047317742,0.32569486628100275,-0.6517758823353796
1772642871891035600,8.24403564453125,7.5980965836614365,0.2994417962580919,-0.8488803898647427
1772642871901080600,8.25408056640625,7.218917233821749,0.3316196532201022,-0.9765832251921296
1772642871911124500,8.26412451171875,6.942405062252282,0.42553390845321115,-1.0613052161227912
1772642871921169400,8.27416943359375,6.719908558508753,0.5944137536257506,-1.0408961959529668
1772642871931214600,8.284214599609374,6.472163631740212,0.8463483141038566,-0.6554077360317111
1772642871941259500,8.294259521484374,6.150928521347046,1.008283162444085,-0.09183259012084453
1772642871951303400,8.304303466796876,5.69680937359631,0.9714962773166597,0.27869285834310575
1772642871961348600,8.3143486328125,5.15661177880466,1.0127117925412952,0.32159334924630817
1772642871971393500,8.3243935546875,4.5597272511512035,1.0104055614255367,0.06542584563987329
1772642871981437700,8.334437744140626,3.8189188212096687,0.6962335212863981,-0.3759940708670765
1772642871991482600,8.344482666015624,3.3065818777680396,0.4149750319726765,-0.7372028797302395
1772642872001527600,8.354527587890624,3.1073581130623817,0.40435689958557486,-0.7959156193312257
1772642872011571700,8.36457177734375,2.9275486584007737,0.4414753547549248,-0.45444863543342795
1772642872021616400,8.374616455078124,2.7950276091367003,0.3909050050772726,0.17433588208872824
1772642872031661600,8.38466162109375,2.776773575043678,0.4009456298373639,0.6829448545157909
1772642872041705700,8.394705810546874,2.8390152194231746,-0.44485359901636834,1.3715376517906783
1772642872051750700,8.404750732421874,4.147839809930324,-0.4809123159997165,1.301455961435288
1772642872061795600,8.414795654296874,4.985895731180906,1.6783993689164518,0.347454095483385
1772642872071839500,8.424839599609374,3.4435979003638026,2.252559000673145,0.22859949679374694
1772642872081884700,8.434884765625,1.0583324108570813,0.7775276566602289,1.4250916934542357
1772642872091929600,8.4449296875,0.4393909496963024,-0.6818102975279092,1.9345973589926957
1772642872101974500,8.454974609375,2.11396549962759,-0.8923137272693217,0.9105535136412829
1772642872112018700,8.465018798828124,3.399240287721157,-0.3586027180179953,-0.4368688838727772
1772642872122063600,8.475063720703124,3.2285464519292115,-0.11644114433974027,-0.8901477083418518
1772642872132108500,8.485108642578124,1.87145905803442,-0.2734003231592476,-0.4455226208517328
