time,seconds_elapsed,z,y,x
1772642729637973500,0.053973388671875,-0.98297119140625,-0.1831207275390625,0.0936126708984375
1772642729648018700,0.064018798828125,-0.967193603515625,-0.18475341796875,0.0962371826171875
1772642729658063600,0.074063720703125,-0.9557342529296875,-0.19586181640625,0.103515625
1772642729668108800,0.08410888671875,-0.944122314453125,-0.21502685546875,0.1103668212890625
1772642729678153700,0.09415380859375,-0.9399261474609375,-0.2295684814453125,0.1085968017578125
1772642729688199700,0.10419970703125,-0.9431610107421875,-0.2346343994140625,0.0993194580078125
1772642729698244600,0.11424462890625,-0.958221435546875,-0.2356414794921875,0.0940399169921875
1772642729708289500,0.12428955078125,-0.97796630859375,-0.241668701171875,0.1031494140625
1772642729718334700,0.134334716796875,-0.9938201904296875,-0.234222412109375,0.0993194580078125
1772642729728379600,0.144379638671875,-1.0010833740234375,-0.2175445556640625,0.0779266357421875
1772642729738424600,0.154424560546875,-1.0053558349609375,-0.2163543701171875,0.071136474609375
1772642729748469500,0.164469482421875,-1.00177001953125,-0.214813232421875,0.07550048828125
1772642729758514700,0.1745146484375,-0.989166259765625,-0.217010498046875,0.08355712890625
1772642729768559600,0.1845595703125,-0.9648284912109375,-0.2183837890625,0.09368896484375
1772642729778604800,0.194604736328125,-0.932037353515625,-0.22113037109375,0.1015625
1772642729788649500,0.2046494140625,-0.8998565673828125,-0.22161865234375,0.102630615234375
1772642729798694700,0.214694580078125,-0.8782806396484375,-0.221771240234375,0.1004638671875
1772642729808740600,0.22474072265625,-0.8570098876953125,-0.2236480712890625,0.0987701416015625
1772642729818785800,0.234785888671875,-0.8363494873046875,-0.222412109375,0.096954345703125
1772642729828830700,0.244830810546875,-0.8209228515625,-0.2167205810546875,0.0938262939453125
1772642729838875600,0.254875732421875,-0.8022613525390625,-0.2108154296875,0.09063720703125
1772642729848920600,0.264920654296875,-0.7848052978515625,-0.2032928466796875,0.0850372314453125
1772642729858965800,0.2749658203125,-0.773895263671875,-0.1945343017578125,0.075469970703125
1772642729869010700,0.2850107421875,-0.7705535888671875,-0.1797943115234375,0.0611572265625
1772642729879055600,0.2950556640625,-0.7735443115234375,-0.1636810302734375,0.0484619140625
1772642729889100500,0.3051005859375,-0.775054931640625,-0.1469573974609375,0.0318450927734375
1772642729899145700,0.315145751953125,-0.7744140625,-0.12457275390625,-0.003204345703125
1772642729909190700,0.325190673828125,-0.76416015625,-0.1044769287109375,-0.0325469970703125
1772642729919236600,0.335236572265625,-0.75042724609375,-0.0917205810546875,-0.0531005859375
1772642729929281800,0.34528173828125,-0.7330474853515625,-0.068084716796875,-0.0852203369140625
1772642729939326700,0.35532666015625,-0.718597412109375,-0.049285888671875,-0.1069183349609375
1772642729949371600,0.36537158203125,-0.7145233154296875,-0.045623779296875,-0.112518310546875
1772642729959416600,0.37541650390625,-0.7139739990234375,-0.0636444091796875,-0.0944671630859375
1772642729969461800,0.385461669921875,-0.7115478515625,-0.0886383056640625,-0.0673065185546875
1772642729979506700,0.395506591796875,-0.7017059326171875,-0.11083984375,-0.0479278564453125
1772642729989551600,0.405551513671875,-0.6925811767578125,-0.136383056640625,-0.034820556640625
1772642729999596500,0.415596435546875,-0.713348388671875,-0.166107177734375,-0.02099609375
1772642730009641700,0.425641845703125,-0.77935791015625,-0.1942901611328125,-0.0036773681640625
1772642730019686700,0.435686767578125,-0.859588623046875,-0.2127227783203125,0.008880615234375
1772642730029731800,0.44573193359375,-0.92645263671875,-0.234619140625,0.014923095703125
1772642730039776500,0.455776611328125,-0.99639892578125,-0.26812744140625,0.017730712890625
1772642730049822500,0.465822509765625,-1.1006011962890625,-0.275482177734375,0.0214996337890625
1772642730059867600,0.47586767578125,-1.2518157958984375,-0.234771728515625,0.0261077880859375
1772642730069912600,0.48591259765625,-1.3876495361328125,-0.22393798828125,0.060638427734375
1772642730079957800,0.495957763671875,-1.4720458984375,-0.2549896240234375,0.0782470703125
1772642730090002400,0.50600244140625,-1.5227813720703125,-0.318267822265625,0.0706634521484375
1772642730100047600,0.516047607421875,-1.540771484375,-0.4136810302734375,0.0489349365234375
1772642730110092500,0.526092529296875,-1.5255126953125,-0.477569580078125,-0.0314483642578125
1772642730120137700,0.5361376953125,-1.503326416015625,-0.5882110595703125,-0.057647705078125
1772642730130182700,0.5461826171875,-1.488037109375,-0.732574462890625,0.0509185791015625
1772642730140227600,0.5562275390625,-1.4549102783203125,-0.7916259765625,0.1304779052734375
1772642730150272500,0.5662724609375,-1.50958251953125,-0.778411865234375,0.1432342529296875
1772642730160318000,0.57631787109375,-1.6521453857421875,-0.7374114990234375,0.1161651611328125
1772642730170362600,0.586362548828125,-1.744140625,-0.7135772705078125,0.0846710205078125
1772642730180407800,0.59640771484375,-1.745452880859375,-0.7096710205078125,0.0555877685546875
1772642730190452700,0.60645263671875,-1.69268798828125,-0.7159576416015625,0.0308685302734375
1772642730200498000,0.616497802734375,-1.609039306640625,-0.717193603515625,0.00384521484375
1772642730210542800,0.62654296875,-1.5106658935546875,-0.7140350341796875,-0.0162353515625
1772642730220587800,0.636587890625,-1.4134521484375,-0.7108001708984375,-0.023345947265625
1772642730230632700,0.6466328125,-1.322174072265625,-0.6752777099609375,-0.046142578125
1772642730240678000,0.656677978515625,-1.231689453125,-0.6429901123046875,-0.059661865234375
1772642730250722800,0.666722900390625,-1.1387786865234375,-0.634796142578125,-0.02044677734375
1772642730260767700,0.676767822265625,-1.02215576171875,-0.5909271240234375,0.0014801025390625
1772642730270812700,0.686812744140625,-0.9080352783203125,-0.5268096923828125,-0.00250244140625
1772642730280859000,0.69685888671875,-0.818328857421875,-0.449981689453125,-0.0290069580078125
1772642730290903800,0.70690380859375,-0.7561492919921875,-0.375579833984375,-0.0566864013671875
1772642730300948700,0.71694873046875,-0.72296142578125,-0.3093719482421875,-0.0678253173828125
1772642730310994000,0.726993896484375,-0.7080841064453125,-0.2514495849609375,-0.071624755859375
1772642730321038800,0.737038818359375,-0.685760498046875,-0.1989593505859375,-0.088531494140625
1772642730331083800,0.747083740234375,-0.664215087890625,-0.1565704345703125,-0.1162109375
1772642730341128700,0.757128662109375,-0.6456146240234375,-0.122039794921875,-0.1376800537109375
1772642730351174000,0.767173828125,-0.6108856201171875,-0.090087890625,-0.1315460205078125
1772642730361218800,0.77721875,-0.564971923828125,-0.07769775390625,-0.102630615234375
1772642730371263700,0.787263671875,-0.5254974365234375,-0.0786895751953125,-0.0590667724609375
1772642730381308700,0.79730859375,-0.4838409423828125,-0.077911376953125,-0.0369415283203125
1772642730391355000,0.80735498046875,-0.4358062744140625,-0.05999755859375,-0.0320587158203125
1772642730401399800,0.81739990234375,-0.3995513916015625,-0.029052734375,-0.0421905517578125
1772642730411445000,0.827445068359375,-0.3875274658203125,-0.004730224609375,-0.058929443359375
1772642730421489700,0.83748974609375,-0.3988494873046875,0.00054931640625,-0.07904052734375
1772642730431534800,0.847534912109375,-0.40252685546875,-0.00311279296875,-0.089813232421875
1772642730441579800,0.857579833984375,-0.3780975341796875,0.0007171630859375,-0.0927886962890625
1772642730451625000,0.867625,-0.335357666015625,0.0241851806640625,-0.0965728759765625
1772642730461670000,0.877669921875,-0.29840087890625,0.04461669921875,-0.0936431884765625
1772642730471714800,0.88771484375,-0.27764892578125,0.04888916015625,-0.1003265380859375
1772642730481759700,0.897759765625,-0.2501983642578125,0.0379486083984375,-0.120025634765625
1772642730491805000,0.907804931640625,-0.22967529296875,0.01861572265625,-0.143310546875
1772642730501849900,0.917849853515625,-0.2250823974609375,-0.003753662109375,-0.163543701171875
1772642730511895800,0.927895751953125,-0.24786376953125,-0.01239013671875,-0.1742401123046875
1772642730521940700,0.937940673828125,-0.3005828857421875,-0.0114288330078125,-0.16607666015625
1772642730531985700,0.947985595703125,-0.3542327880859375,-0.008636474609375,-0.1371002197265625
1772642730542030800,0.95803076171875,-0.405487060546875,-0.012847900390625,-0.0995941162109375
1772642730552075800,0.96807568359375,-0.44183349609375,-0.035125732421875,-0.050445556640625
1772642730562121000,0.978120849609375,-0.4577178955078125,-0.081787109375,-0.0032958984375
1772642730572165600,0.98816552734375,-0.4433746337890625,-0.1409454345703125,0.0203399658203125
1772642730582210800,0.9982109375,-0.4319000244140625,-0.1966552734375,0.021636962890625
1772642730592255700,1.008255859375,-0.4669647216796875,-0.26031494140625,0.0111236572265625
1772642730602301000,1.018301025390625,-0.5572967529296875,-0.32977294921875,-0.00860595703125
1772642730612345600,1.028345703125,-0.65740966796875,-0.39129638671875,-0.0327606201171875
1772642730622390800,1.038390869140625,-0.7351531982421875,-0.4510955810546875,-0.042999267578125
1772642730632435700,1.048435791015625,-0.798431396484375,-0.5100555419921875,-0.0357666015625
1772642730642482000,1.05848193359375,-0.84063720703125,-0.54510498046875,-0.0392608642578125
1772642730652526800,1.06852685546875,-0.8708038330078125,-0.550201416015625,-0.0498199462890625
1772642730662572000,1.078572021484375,-0.9451141357421875,-0.5266571044921875,-0.0630035400390625
1772642730672616700,1.08861669921875,-1.137359619140625,-0.4915924072265625,-0.0484161376953125
1772642730682662000,1.098661865234375,-1.4165496826171875,-0.4549407958984375,-0.02276611328125
1772642730692706800,1.108706787109375,-1.598297119140625,-0.3961029052734375,-0.0680084228515625
1772642730702752000,1.118751953125,-1.6469573974609375,-0.4221038818359375,-0.101043701171875
1772642730712797000,1.128796875,-1.65191650390625,-0.5616302490234375,-0.084259033203125
1772642730722841900,1.138841796875,-1.6221771240234375,-0.7027740478515625,-0.06011962890625
1772642730732886800,1.14888671875,-1.6131591796875,-0.812408447265625,0.0074615478515625
1772642730742932000,1.158931884765625,-1.66986083984375,-0.8995361328125,0.053863525390625
1772642730752977000,1.168976806640625,-1.78839111328125,-0.9456024169921875,0.0390777587890625
1772642730763022800,1.17902294921875,-1.961822509765625,-0.9364776611328125,-0.027191162109375
1772642730773067800,1.18906787109375,-2.1741943359375,-0.9185333251953125,-0.095855712890625
1772642730783112700,1.19911279296875,-2.348724365234375,-0.900390625,-0.133026123046875
1772642730793158000,1.209157958984375,-2.3698883056640625,-0.8484954833984375,-0.1461181640625
1772642730803202800,1.219202880859375,-2.253143310546875,-0.79437255859375,-0.1353302001953125
1772642730813248000,1.229248046875,-2.1026458740234375,-0.7823944091796875,-0.1016693115234375
1772642730823292700,1.239292724609375,-1.9591064453125,-0.79217529296875,-0.072662353515625
1772642730833337900,1.249337890625,-1.8283843994140625,-0.8140411376953125,-0.062255859375
1772642730843382800,1.2593828125,-1.711944580078125,-0.8419189453125,-0.0580596923828125
1772642730853428000,1.269427978515625,-1.5855712890625,-0.8485565185546875,-0.063751220703125
1772642730863472600,1.27947265625,-1.4430084228515625,-0.84014892578125,-0.06182861328125
1772642730873517800,1.289517822265625,-1.28955078125,-0.8270416259765625,-0.0513916015625
1772642730883563800,1.299563720703125,-1.1375885009765625,-0.82586669921875,-0.0075836181640625
1772642730893608700,1.309608642578125,-0.9816436767578125,-0.8256683349609375,0.0493316650390625
1772642730903654000,1.31965380859375,-0.822784423828125,-0.8341217041015625,0.10205078125
1772642730913698800,1.32969873046875,-0.6886444091796875,-0.845977783203125,0.127655029296875
1772642730923743700,1.33974365234375,-0.6022491455078125,-0.84808349609375,0.1280059814453125
1772642730933788700,1.34978857421875,-0.5526580810546875,-0.814208984375,0.1099853515625
1772642730943833900,1.359833740234375,-0.51446533203125,-0.7464752197265625,0.08502197265625
1772642730953878800,1.369878662109375,-0.46710205078125,-0.6672210693359375,0.043609619140625
1772642730963923700,1.379923828125,-0.418212890625,-0.5989532470703125,-0.0284271240234375
1772642730973968600,1.38996875,-0.3928680419921875,-0.5340576171875,-0.115875244140625
1772642730984013800,1.400013916015625,-0.3758392333984375,-0.452484130859375,-0.2022857666015625
1772642730994058800,1.410058837890625,-0.3784027099609375,-0.355316162109375,-0.2743377685546875
1772642731004105000,1.42010498046875,-0.4189453125,-0.2628173828125,-0.3094329833984375
1772642731014150000,1.43014990234375,-0.487060546875,-0.184814453125,-0.30517578125
1772642731024194800,1.44019482421875,-0.5603485107421875,-0.123077392578125,-0.267608642578125
1772642731034239700,1.45023974609375,-0.5696563720703125,-0.071258544921875,-0.24432373046875
1772642731044285000,1.460284912109375,-0.533660888671875,-0.0328521728515625,-0.2091217041015625
1772642731054329900,1.470329833984375,-0.4980926513671875,-0.052154541015625,-0.12530517578125
1772642731064375000,1.480375,-0.464202880859375,-0.0591888427734375,-0.035919189453125
1772642731074419700,1.490419677734375,-0.4109039306640625,-0.06121826171875,-0.010894775390625
1772642731084465000,1.50046484375,-0.355987548828125,-0.0679473876953125,-0.0070953369140625
1772642731094509800,1.510509765625,-0.3037872314453125,-0.0828704833984375,-0.021759033203125
1772642731104555000,1.520554931640625,-0.2696380615234375,-0.1139984130859375,-0.0468292236328125
1772642731114599700,1.530599609375,-0.2328338623046875,-0.145660400390625,-0.09393310546875
1772642731124644900,1.540644775390625,-0.201507568359375,-0.172149658203125,-0.143341064453125
1772642731134690800,1.55069091796875,-0.203460693359375,-0.206695556640625,-0.1835784912109375
1772642731144735700,1.56073583984375,-0.2166290283203125,-0.223541259765625,-0.2337188720703125
1772642731154781700,1.57078173828125,-0.2359466552734375,-0.2239532470703125,-0.2571868896484375
1772642731164826600,1.58082666015625,-0.2659149169921875,-0.2126922607421875,-0.2532501220703125
1772642731174871600,1.59087158203125,-0.3095245361328125,-0.19305419921875,-0.2206878662109375
1772642731184916500,1.60091650390625,-0.36114501953125,-0.167266845703125,-0.1653900146484375
1772642731194961700,1.610961669921875,-0.3919677734375,-0.146820068359375,-0.1050872802734375
1772642731205006600,1.621006591796875,-0.41973876953125,-0.122772216796875,-0.0481109619140625
1772642731215051500,1.631051513671875,-0.44635009765625,-0.09326171875,-0.0013580322265625
1772642731225096400,1.641096435546875,-0.461883544921875,-0.05291748046875,0.0218048095703125
1772642731235141600,1.6511416015625,-0.482086181640625,-0.00897216796875,0.0164794921875
1772642731245186600,1.6611865234375,-0.5019073486328125,0.025238037109375,-0.0064239501953125
1772642731255232500,1.671232421875,-0.5228118896484375,0.0197601318359375,-0.0129547119140625
1772642731265277700,1.681277587890625,-0.5605010986328125,-0.0428924560546875,0.0250244140625
1772642731275322400,1.691322265625,-0.573089599609375,-0.143890380859375,0.0869293212890625
1772642731285367600,1.701367431640625,-0.512786865234375,-0.2204132080078125,0.1038360595703125
1772642731295412500,1.71141259765625,-0.410247802734375,-0.2745361328125,0.077545166015625
1772642731305457700,1.721457763671875,-0.306304931640625,-0.3062896728515625,0.0249481201171875
1772642731315502300,1.73150244140625,-0.2569732666015625,-0.318878173828125,-0.0321197509765625
1772642731325547500,1.741547607421875,-0.3927001953125,-0.3506317138671875,-0.04486083984375
1772642731335592400,1.751592529296875,-0.6910400390625,-0.3743133544921875,-0.0265045166015625
1772642731345637600,1.7616376953125,-0.948150634765625,-0.351898193359375,-0.0135955810546875
1772642731355682600,1.7716826171875,-1.130279541015625,-0.3076324462890625,0.0019683837890625
1772642731365727500,1.7817275390625,-1.2935028076171875,-0.27838134765625,0.015472412109375
1772642731375772400,1.7917724609375,-1.4348297119140625,-0.29547119140625,0.04766845703125
1772642731385818400,1.801818359375,-1.48358154296875,-0.34124755859375,0.06805419921875
1772642731395863600,1.811863525390625,-1.456787109375,-0.4011077880859375,0.0484466552734375
1772642731405908500,1.821908447265625,-1.435638427734375,-0.51947021484375,0.0384674072265625
1772642731415953700,1.83195361328125,-1.4198760986328125,-0.66424560546875,0.0250701904296875
1772642731425998300,1.841998291015625,-1.439208984375,-0.76055908203125,-0.0236968994140625
1772642731436043500,1.85204345703125,-1.5421142578125,-0.7838592529296875,-0.0951690673828125
1772642731446088400,1.86208837890625,-1.692626953125,-0.7601776123046875,-0.1364593505859375
1772642731456133600,1.872133544921875,-1.8605194091796875,-0.737701416015625,-0.1002655029296875
1772642731466178300,1.88217822265625,-2.0584869384765625,-0.71728515625,-0.054351806640625
1772642731476223500,1.892223388671875,-2.2492828369140625,-0.7040863037109375,-0.026031494140625
1772642731486268400,1.902268310546875,-2.365966796875,-0.699615478515625,-0.0526275634765625
1772642731496313600,1.912313720703125,-2.38897705078125,-0.6895751953125,-0.1342926025390625
1772642731506358500,1.922358642578125,-2.3672943115234375,-0.6719970703125,-0.243438720703125
1772642731516404700,1.93240478515625,-2.3069000244140625,-0.62860107421875,-0.33685302734375
1772642731526449400,1.942449462890625,-2.1766510009765625,-0.5639495849609375,-0.37054443359375
1772642731536494600,1.95249462890625,-1.9912261962890625,-0.5079498291015625,-0.3197784423828125
1772642731546539500,1.96253955078125,-1.766510009765625,-0.44439697265625,-0.2259063720703125
1772642731556584700,1.972584716796875,-1.5537261962890625,-0.40679931640625,-0.097686767578125
1772642731566629400,1.98262939453125,-1.3475341796875,-0.3936767578125,0.030303955078125
1772642731576674600,1.992674560546875,-1.14080810546875,-0.38055419921875,0.1235198974609375
1772642731586719500,2.002719482421875,-0.9608306884765625,-0.376953125,0.17608642578125
1772642731596764700,2.0127646484375,-0.83355712890625,-0.3848419189453125,0.193359375
1772642731606809600,2.0228095703125,-0.7600250244140625,-0.3626556396484375,0.16558837890625
1772642731616854500,2.0328544921875,-0.70849609375,-0.2882080078125,0.095733642578125
1772642731626899500,2.0428994140625,-0.6710662841796875,-0.1804351806640625,0.0339508056640625
1772642731636945400,2.0529453125,-0.6757659912109375,-0.09222412109375,0.02618408203125
1772642731646990600,2.062990478515625,-0.721771240234375,-0.0319671630859375,0.038238525390625
1772642731657035500,2.073035400390625,-0.7935638427734375,0.0185089111328125,0.031585693359375
1772642731667080400,2.08308056640625,-0.8796234130859375,0.0546875,-0.0120086669921875
1772642731677125400,2.09312548828125,-0.95147705078125,0.059326171875,-0.0766143798828125
1772642731687170600,2.103170654296875,-0.9853363037109375,0.0417938232421875,-0.130523681640625
1772642731697215500,2.113215576171875,-0.952117919921875,0.021636962890625,-0.156219482421875
1772642731707260700,2.1232607421875,-0.884033203125,-0.0027923583984375,-0.1336517333984375
1772642731717305300,2.133305419921875,-0.7730712890625,-0.009490966796875,-0.0815277099609375
1772642731727350500,2.1433505859375,-0.67889404296875,0.0111846923828125,-0.064239501953125
1772642731737395500,2.1533955078125,-0.6298828125,0.0064849853515625,-0.0946044921875
1772642731747440600,2.163440673828125,-0.574249267578125,-0.005889892578125,-0.097015380859375
1772642731757485600,2.173485595703125,-0.474029541015625,0.0050048828125,-0.083282470703125
1772642731767531500,2.183531494140625,-0.41021728515625,0.0160980224609375,-0.101959228515625
1772642731777576400,2.193576416015625,-0.400146484375,-0.015167236328125,-0.133697509765625
1772642731787621400,2.203621337890625,-0.3617095947265625,-0.0469207763671875,-0.1718902587890625
1772642731797666600,2.21366650390625,-0.358856201171875,-0.0745086669921875,-0.1928558349609375
1772642731807711500,2.22371142578125,-0.386138916015625,-0.087799072265625,-0.1866607666015625
1772642731817756400,2.23375634765625,-0.3969879150390625,-0.0782928466796875,-0.168853759765625
1772642731827801300,2.24380126953125,-0.4068450927734375,-0.067474365234375,-0.1355438232421875
1772642731837846500,2.253846435546875,-0.408843994140625,-0.061492919921875,-0.0873565673828125
1772642731847891500,2.263891357421875,-0.39617919921875,-0.0541839599609375,-0.0464935302734375
1772642731857936600,2.2739365234375,-0.386932373046875,-0.0437164306640625,-0.0200653076171875
1772642731867981300,2.283981201171875,-0.3820648193359375,-0.0177764892578125,-0.0134429931640625
1772642731878026500,2.294026611328125,-0.3603973388671875,-0.0014801025390625,-0.0051116943359375
1772642731888071400,2.304071533203125,-0.31866455078125,0.0179595947265625,-0.0167236328125
1772642731898117600,2.31411767578125,-0.278839111328125,0.038421630859375,-0.0348358154296875
1772642731908162600,2.32416259765625,-0.25830078125,0.03509521484375,-0.0217437744140625
1772642731918207500,2.33420751953125,-0.2990875244140625,-0.0271453857421875,0.0407562255859375
1772642731928252400,2.34425244140625,-0.31243896484375,-0.0978546142578125,0.0724945068359375
1772642731938297600,2.354297607421875,-0.2304229736328125,-0.1247711181640625,0.03424072265625
1772642731948342500,2.364342529296875,-0.1330718994140625,-0.1407928466796875,-0.0010223388671875
1772642731958387700,2.3743876953125,-0.098175048828125,-0.205413818359375,0.0125885009765625
1772642731968432400,2.384432373046875,-0.1650390625,-0.2931060791015625,0.0491180419921875
1772642731978477600,2.3944775390625,-0.38519287109375,-0.33935546875,0.071990966796875
1772642731988522500,2.4045224609375,-0.6816558837890625,-0.3384246826171875,0.0744781494140625
1772642731998567700,2.414567626953125,-0.8995513916015625,-0.303924560546875,0.0473175048828125
1772642732008612600,2.424612548828125,-1.0382537841796875,-0.25787353515625,0.0061492919921875
1772642732018657500,2.434657470703125,-1.05645751953125,-0.2144775390625,-0.0709075927734375
1772642732028703500,2.444703369140625,-1.023529052734375,-0.17340087890625,-0.118560791015625
1772642732038748400,2.45474853515625,-1.0865325927734375,-0.14483642578125,-0.1046295166015625
1772642732048793600,2.464793701171875,-1.2845611572265625,-0.1456451416015625,-0.0245208740234375
1772642732058838500,2.474838623046875,-1.495941162109375,-0.1634979248046875,0.1102142333984375
1772642732068883500,2.484883544921875,-1.596343994140625,-0.147674560546875,0.231536865234375
1772642732078928400,2.494928466796875,-1.6072845458984375,-0.1967010498046875,0.35626220703125
1772642732088973600,2.5049736328125,-1.6147613525390625,-0.2544097900390625,0.4218597412109375
1772642732099018500,2.5150185546875,-1.6694488525390625,-0.2171630859375,0.398651123046875
1772642732109063700,2.525063720703125,-1.776641845703125,-0.142608642578125,0.38238525390625
1772642732119108400,2.5351083984375,-1.90570068359375,-0.0928802490234375,0.424407958984375
1772642732129153500,2.545153564453125,-2.05255126953125,-0.0941619873046875,0.4904022216796875
1772642732139198500,2.555198486328125,-2.20196533203125,-0.1263275146484375,0.5025787353515625
1772642732149243600,2.56524365234375,-2.2413787841796875,-0.1736602783203125,0.438262939453125
1772642732159288800,2.575288818359375,-2.1864166259765625,-0.2071685791015625,0.3585968017578125
1772642732169334000,2.585333984375,-2.058135986328125,-0.2187347412109375,0.274017333984375
1772642732179379000,2.59537890625,-1.9356536865234375,-0.168121337890625,0.0979461669921875
1772642732189424000,2.605424072265625,-1.900665283203125,-0.1750640869140625,-0.026611328125
1772642732199468800,2.61546875,-1.8736419677734375,-0.26654052734375,-0.025390625
1772642732209514000,2.625513916015625,-1.7834930419921875,-0.2894439697265625,0.012298583984375
1772642732219559000,2.635558837890625,-1.74847412109375,-0.261444091796875,0.086669921875
1772642732229604000,2.64560400390625,-1.6060791015625,-0.2646484375,0.162445068359375
1772642732239648800,2.655648681640625,-1.3543548583984375,-0.3243408203125,0.2192535400390625
1772642732249694000,2.66569384765625,-1.12396240234375,-0.3561248779296875,0.2014923095703125
1772642732259739000,2.67573876953125,-0.9504547119140625,-0.3280029296875,0.165374755859375
1772642732269784000,2.6857841796875,-0.85577392578125,-0.3306884765625,0.153961181640625
1772642732279829000,2.6958291015625,-0.8787689208984375,-0.3135986328125,0.151092529296875
1772642732289875000,2.705875,-0.916778564453125,-0.269989013671875,0.051910400390625
1772642732299920000,2.715919921875,-0.9011993408203125,-0.231353759765625,-0.048828125
1772642732309964800,2.72596484375,-0.9331207275390625,-0.1826934814453125,-0.0365753173828125
1772642732320010000,2.736010009765625,-1.0044403076171875,-0.182891845703125,0.0205535888671875
1772642732330055000,2.746054931640625,-1.0365447998046875,-0.1358184814453125,0.0225067138671875
1772642732340100000,2.75610009765625,-0.9899749755859375,-0.0521392822265625,-0.033782958984375
1772642732350144800,2.766144775390625,-0.8897552490234375,0.0341949462890625,-0.1083221435546875
1772642732360190000,2.77618994140625,-0.7653045654296875,0.0427398681640625,-0.178009033203125
1772642732370235000,2.78623486328125,-0.6778106689453125,0.0502166748046875,-0.24005126953125
1772642732380280000,2.796280029296875,-0.6712646484375,0.0496978759765625,-0.2460479736328125
1772642732390324700,2.80632470703125,-0.659210205078125,0.08551025390625,-0.175933837890625
1772642732400370000,2.816369873046875,-0.64349365234375,0.1203155517578125,-0.1004791259765625
1772642732410414800,2.826414794921875,-0.5978851318359375,0.099395751953125,-0.047027587890625
1772642732420461000,2.8364609375,-0.537353515625,0.08740234375,-0.0236663818359375
1772642732430506000,2.846506103515625,-0.467681884765625,0.08294677734375,-0.0301666259765625
1772642732440551200,2.85655126953125,-0.47637939453125,0.0571136474609375,-0.05322265625
1772642732450595800,2.866595947265625,-0.547393798828125,-0.03466796875,-0.0277099609375
1772642732460641000,2.87664111328125,-0.5011138916015625,-0.0059814453125,-0.0642852783203125
1772642732470686000,2.88668603515625,-0.4285888671875,-0.0405120849609375,-0.101470947265625
1772642732480731100,2.896731201171875,-0.3483428955078125,-0.064453125,-0.0933837890625
1772642732490775800,2.90677587890625,-0.3103790283203125,-0.077972412109375,-0.0753631591796875
1772642732500821000,2.916821044921875,-0.3253936767578125,-0.077056884765625,-0.0601043701171875
1772642732510866000,2.926865966796875,-0.336395263671875,-0.070343017578125,-0.0628662109375
1772642732520911000,2.9369111328125,-0.330474853515625,-0.044158935546875,-0.0702972412109375
1772642732530956000,2.9469560546875,-0.3401641845703125,-0.0119476318359375,-0.0654449462890625
1772642732541001000,2.9570009765625,-0.3934326171875,-0.00115966796875,-0.0384979248046875
1772642732551047000,2.967046875,-0.3954010009765625,0.025634765625,-0.0363006591796875
1772642732561091800,2.977091796875,-0.406982421875,0.0439605712890625,-0.0243988037109375
1772642732571137000,2.987136962890625,-0.4572296142578125,0.0760345458984375,-0.0077667236328125
1772642732581182000,2.997181884765625,-0.4792633056640625,0.0866241455078125,-0.019500732421875
1772642732591227100,3.00722705078125,-0.4577484130859375,0.072845458984375,-0.0368804931640625
1772642732601271800,3.017271728515625,-0.4697723388671875,-0.0023956298828125,-0.0276947021484375
1772642732611317000,3.02731689453125,-0.4271240234375,-0.061431884765625,-0.0347900390625
1772642732621362000,3.03736181640625,-0.348846435546875,-0.0931243896484375,-0.03875732421875
1772642732631407000,3.047406982421875,-0.3232269287109375,-0.1495819091796875,0.006134033203125
1772642732641451800,3.05745166015625,-0.30615234375,-0.19818115234375,0.0479888916015625
1772642732651497000,3.0674970703125,-0.2928466796875,-0.2241058349609375,0.032440185546875
1772642732661542000,3.0775419921875,-0.3006591796875,-0.27471923828125,0.0216522216796875
1772642732671587000,3.087587158203125,-0.3174591064453125,-0.329803466796875,0.00262451171875
1772642732681633000,3.097633056640625,-0.3995208740234375,-0.36285400390625,-0.02496337890625
1772642732691678000,3.107677978515625,-0.5115203857421875,-0.3720550537109375,-0.0526885986328125
1772642732701723000,3.117722900390625,-0.5922088623046875,-0.3578948974609375,-0.0930328369140625
1772642732711767800,3.127767822265625,-0.7299957275390625,-0.3037109375,-0.1307525634765625
1772642732721813000,3.13781298828125,-0.8720703125,-0.2586669921875,-0.11846923828125
1772642732731858000,3.14785791015625,-0.9869842529296875,-0.2355194091796875,-0.1157684326171875
1772642732741902800,3.15790283203125,-1.1747589111328125,-0.23822021484375,-0.1505584716796875
1772642732751947800,3.16794775390625,-1.4278564453125,-0.2181396484375,-0.2060699462890625
1772642732761993000,3.177992919921875,-1.697723388671875,-0.1749114990234375,-0.2007904052734375
1772642732772038000,3.188037841796875,-1.92584228515625,-0.11614990234375,-0.1601409912109375
1772642732782083000,3.1980830078125,-2.1027374267578125,-0.0731048583984375,-0.13043212890625
1772642732792127700,3.208127685546875,-2.24578857421875,-0.08026123046875,-0.1102142333984375
1772642732802173000,3.2181728515625,-2.319915771484375,-0.098175048828125,-0.0374755859375
1772642732812219000,3.228218994140625,-2.2893524169921875,-0.092864990234375,0.015716552734375
1772642732822264000,3.23826416015625,-2.2135772705078125,-0.026397705078125,0.013214111328125
1772642732832309000,3.24830908203125,-2.221954345703125,0.07080078125,0.0301971435546875
1772642732842354000,3.25835400390625,-2.3618927001953125,0.1913909912109375,0.087158203125
1772642732852398800,3.26839892578125,-2.50872802734375,0.326416015625,0.1424407958984375
1772642732862444000,3.278444091796875,-2.52490234375,0.415130615234375,0.1845245361328125
1772642732872489000,3.288489013671875,-2.4517364501953125,0.458404541015625,0.2412872314453125
1772642732882534100,3.2985341796875,-2.2595672607421875,0.4079742431640625,0.2304229736328125
1772642732892578800,3.308578857421875,-2.0332794189453125,0.2564849853515625,0.194305419921875
1772642732902624000,3.3186240234375,-1.793548583984375,0.1229400634765625,0.1437530517578125
1772642732912669000,3.3286689453125,-1.6165618896484375,-0.0059661865234375,0.0781097412109375
1772642732922714000,3.338714111328125,-1.51556396484375,-0.114593505859375,0.039337158203125
1772642732932759000,3.348759033203125,-1.430084228515625,-0.1758270263671875,0.04815673828125
1772642732942805000,3.358804931640625,-1.3219146728515625,-0.2123870849609375,0.0791168212890625
1772642732952850000,3.368849853515625,-1.1535797119140625,-0.206512451171875,0.1063232421875
1772642732962894800,3.378894775390625,-0.982635498046875,-0.1672821044921875,0.0619354248046875
1772642732972940000,3.38893994140625,-1.038543701171875,-0.1096954345703125,0.01373291015625
1772642732982985000,3.39898486328125,-1.1741485595703125,-0.0645294189453125,0.0460662841796875
1772642732993030000,3.40902978515625,-1.1834716796875,-0.0121307373046875,0.079803466796875
1772642733003074800,3.41907470703125,-1.1455078125,0.03350830078125,0.0835723876953125
1772642733013120000,3.4291201171875,-1.072906494140625,0.071868896484375,0.0652923583984375
1772642733023165000,3.4391650390625,-1.0112762451171875,0.085235595703125,0.03729248046875
1772642733033210000,3.449210205078125,-0.938140869140625,0.0888214111328125,0.0334625244140625
1772642733043254800,3.4592548828125,-0.8148193359375,0.08880615234375,0.0472564697265625
1772642733053300000,3.469300048828125,-0.6633148193359375,0.075836181640625,0.0373992919921875
1772642733063345000,3.479344970703125,-0.5495758056640625,0.087005615234375,0.007415771484375
1772642733073390000,3.48939013671875,-0.52001953125,0.11395263671875,0.0051116943359375
1772642733083436000,3.49943603515625,-0.52392578125,0.1328582763671875,0.0280609130859375
1772642733093480700,3.509480712890625,-0.511077880859375,0.15765380859375,0.0456085205078125
1772642733103526000,3.51952587890625,-0.4781036376953125,0.1568603515625,0.049713134765625
1772642733113570800,3.52957080078125,-0.42059326171875,0.123809814453125,0.031036376953125
1772642733123616000,3.539615966796875,-0.34796142578125,0.0947418212890625,-0.023895263671875
1772642733133661000,3.549660888671875,-0.280029296875,0.0470428466796875,-0.0721893310546875
1772642733143705900,3.559705810546875,-0.2129364013671875,0.0139007568359375,-0.1082000732421875
1772642733153750800,3.569750732421875,-0.1496429443359375,-0.0203094482421875,-0.1343994140625
1772642733163795700,3.579795654296875,-0.0973968505859375,-0.0492401123046875,-0.1490020751953125
1772642733173840600,3.589840576171875,-0.0770111083984375,-0.0603790283203125,-0.137420654296875
1772642733183885600,3.599885498046875,-0.10504150390625,-0.0549468994140625,-0.106658935546875
1772642733193930800,3.6099306640625,-0.16302490234375,-0.04248046875,-0.0592498779296875
1772642733203975700,3.6199755859375,-0.215179443359375,-0.0171966552734375,-0.0307464599609375
1772642733214021600,3.630021728515625,-0.251312255859375,-0.028533935546875,-0.03204345703125
1772642733224066800,3.64006689453125,-0.247589111328125,-0.0122528076171875,-0.066009521484375
1772642733234111700,3.65011181640625,-0.248809814453125,0.0023345947265625,-0.0840301513671875
1772642733244156700,3.66015673828125,-0.2726898193359375,0.03363037109375,-0.0648040771484375
1772642733254201600,3.67020166015625,-0.306854248046875,0.0622711181640625,-0.022857666015625
1772642733264246800,3.680246826171875,-0.3363037109375,0.078338623046875,0.0186614990234375
1772642733274291700,3.690291748046875,-0.3392333984375,0.07452392578125,0.0397796630859375
1772642733284337000,3.7003369140625,-0.330047607421875,0.058380126953125,0.0467376708984375
1772642733294381600,3.710381591796875,-0.3322601318359375,-0.0352935791015625,0.072052001953125
1772642733304426800,3.7204267578125,-0.31463623046875,-0.122955322265625,0.0325469970703125
1772642733314471700,3.7304716796875,-0.285125732421875,-0.18963623046875,-0.0340728759765625
1772642733324516900,3.740516845703125,-0.3316650390625,-0.2543182373046875,-0.0391387939453125
1772642733334561500,3.7505615234375,-0.3980560302734375,-0.2655487060546875,-0.042266845703125
1772642733344606700,3.760606689453125,-0.5108795166015625,-0.2431488037109375,-0.03466796875
1772642733354652700,3.770652587890625,-0.671783447265625,-0.2296905517578125,0.001953125
1772642733364697600,3.780697509765625,-0.876861572265625,-0.224212646484375,0.0331573486328125
1772642733374742800,3.79074267578125,-1.0623626708984375,-0.2050018310546875,0.02459716796875
1772642733384787700,3.80078759765625,-1.20098876953125,-0.1950836181640625,0.0054168701171875
1772642733394832600,3.81083251953125,-1.2409515380859375,-0.1899261474609375,0.0002288818359375
1772642733404877600,3.820877685546875,-1.221343994140625,-0.1805267333984375,0.0077972412109375
1772642733414922800,3.8309228515625,-1.204742431640625,-0.1219329833984375,0.0400848388671875
1772642733424967700,3.8409677734375,-1.2715606689453125,-0.0539398193359375,0.095184326171875
1772642733435012600,3.8510126953125,-1.40997314453125,-0.0329437255859375,0.1808319091796875
1772642733445057500,3.8610576171875,-1.5459136962890625,-0.0508270263671875,0.25042724609375
1772642733455102700,3.871102783203125,-1.5648651123046875,-0.0596466064453125,0.2290802001953125
1772642733465147600,3.881147705078125,-1.5663909912109375,-0.038543701171875,0.1729736328125
1772642733475192800,3.89119287109375,-1.6405181884765625,-0.01300048828125,0.1475677490234375
1772642733485237500,3.901237548828125,-1.82440185546875,-0.0199432373046875,0.167633056640625
1772642733495283700,3.91128369140625,-2.0225372314453125,-0.058929443359375,0.2021942138671875
1772642733505328600,3.92132861328125,-2.1363983154296875,-0.0563812255859375,0.1954803466796875
1772642733515373800,3.931373779296875,-2.2055206298828125,-0.052215576171875,0.1822357177734375
1772642733525418800,3.941418701171875,-2.1952667236328125,-0.0256805419921875,0.1805572509765625
1772642733535463700,3.951463623046875,-2.1438140869140625,0.037078857421875,0.1721343994140625
1772642733545508600,3.961508544921875,-2.0996246337890625,0.1240692138671875,0.18780517578125
1772642733555553800,3.9715537109375,-2.0584869384765625,0.2027740478515625,0.2032318115234375
1772642733565598700,3.9815986328125,-1.99365234375,0.2269287109375,0.2272796630859375
1772642733575644000,3.991643798828125,-1.9104156494140625,0.1778411865234375,0.24017333984375
1772642733585688600,4.0016884765625,-1.8189239501953125,0.0731048583984375,0.217071533203125
1772642733595733800,4.011733642578125,-1.709014892578125,-0.0410614013671875,0.1607208251953125
1772642733605778700,4.02177880859375,-1.61492919921875,-0.1315155029296875,0.0917205810546875
1772642733615824000,4.031823974609375,-1.5366363525390625,-0.1914825439453125,0.031341552734375
1772642733625868800,4.041868896484375,-1.4730987548828125,-0.23114013671875,-0.018096923828125
1772642733635914800,4.051914794921875,-1.4140625,-0.227783203125,-0.0574798583984375
1772642733645959700,4.061959716796875,-1.3755645751953125,-0.22637939453125,-0.0521697998046875
1772642733656004600,4.072004638671875,-1.3057098388671875,-0.1987457275390625,-0.04730224609375
1772642733666049800,4.0820498046875,-1.2139434814453125,-0.1560516357421875,-0.0462799072265625
1772642733676094700,4.0920947265625,-1.120025634765625,-0.11529541015625,-0.038604736328125
1772642733686139600,4.1021396484375,-1.04217529296875,-0.083282470703125,-0.0442047119140625
1772642733696184600,4.1121845703125,-0.9609527587890625,-0.06103515625,-0.0591583251953125
1772642733706229800,4.122229736328125,-0.863128662109375,-0.0392303466796875,-0.0673065185546875
1772642733716274700,4.132274658203125,-0.7856597900390625,-0.0206298828125,-0.0611724853515625
1772642733726319900,4.14231982421875,-0.7273406982421875,0.0010223388671875,-0.044525146484375
1772642733736364500,4.152364501953125,-0.691864013671875,0.021514892578125,-0.0434722900390625
1772642733746409700,4.16240966796875,-0.6474761962890625,0.0349273681640625,-0.100006103515625
1772642733756454700,4.17245458984375,-0.59832763671875,0.061187744140625,-0.1823883056640625
1772642733766500600,4.18250048828125,-0.604339599609375,0.1128692626953125,-0.199615478515625
1772642733776545800,4.1925458984375,-0.620635986328125,0.173248291015625,-0.15447998046875
1772642733786590500,4.202590576171875,-0.6564178466796875,0.23846435546875,-0.096954345703125
1772642733796635600,4.2126357421875,-0.7118988037109375,0.2760467529296875,-0.004547119140625
1772642733806680600,4.2226806640625,-0.7347412109375,0.27490234375,0.0632171630859375
1772642733816725800,4.232725830078125,-0.689300537109375,0.237060546875,0.08416748046875
1772642733826770700,4.242770751953125,-0.59912109375,0.15869140625,0.0902557373046875
1772642733836815600,4.252815673828125,-0.4834747314453125,0.055694580078125,0.077667236328125
1772642733846860500,4.262860595703125,-0.3389129638671875,-0.0364990234375,0.0470428466796875
1772642733856905700,4.27290576171875,-0.1911773681640625,-0.07928466796875,-0.008880615234375
1772642733866950700,4.28295068359375,-0.1232452392578125,-0.099578857421875,-0.063232421875
1772642733876995800,4.292995849609375,-0.1960296630859375,-0.0883636474609375,-0.0788421630859375
1772642733887040500,4.30304052734375,-0.36029052734375,-0.070281982421875,-0.0486602783203125
1772642733897085700,4.313085693359375,-0.4803314208984375,-0.039306640625,-0.010345458984375
1772642733907131600,4.323131591796875,-0.5075836181640625,-0.028594970703125,0.0180206298828125
1772642733917176800,4.3331767578125,-0.4717559814453125,-0.0190887451171875,0.0058746337890625
1772642733927221800,4.3432216796875,-0.410797119140625,-0.0182037353515625,-0.039093017578125
1772642733937266700,4.3532666015625,-0.3491973876953125,-0.0193939208984375,-0.0655517578125
1772642733947311600,4.3633115234375,-0.3059844970703125,0.0079498291015625,-0.0779876708984375
1772642733957356800,4.373356689453125,-0.2953643798828125,0.0525970458984375,-0.0589141845703125
1772642733967401700,4.383401611328125,-0.323638916015625,0.095672607421875,-0.008819580078125
1772642733977447000,4.393447021484375,-0.36834716796875,0.13861083984375,0.029266357421875
1772642733987491600,4.40349169921875,-0.4047393798828125,0.1582794189453125,0.053009033203125
1772642733997536800,4.413536865234375,-0.435302734375,0.133880615234375,0.055084228515625
1772642734007581700,4.423581787109375,-0.454254150390625,0.0056915283203125,0.0624847412109375
1772642734017627000,4.433626953125,-0.3762969970703125,-0.147064208984375,0.022003173828125
1772642734027671600,4.443671630859375,-0.1837005615234375,-0.1890106201171875,-0.09783935546875
1772642734037716700,4.453716796875,-0.076171875,-0.242462158203125,-0.144317626953125
1772642734047762700,4.4637626953125,-0.2404632568359375,-0.2998046875,-0.0921630859375
1772642734057807600,4.4738076171875,-0.54669189453125,-0.333953857421875,-0.019012451171875
1772642734067852800,4.483852783203125,-0.77301025390625,-0.2761383056640625,-0.04498291015625
1772642734077897700,4.493897705078125,-0.9855194091796875,-0.1150054931640625,-0.0889129638671875
1772642734087942700,4.503942626953125,-1.279937744140625,-0.0093231201171875,-0.005828857421875
1772642734097987600,4.513987548828125,-1.5687255859375,0.0323486328125,0.1024322509765625
1772642734108032800,4.52403271484375,-1.7119903564453125,0.0190887451171875,0.1221466064453125
1772642734118077700,4.53407763671875,-1.6745758056640625,-0.00390625,0.0409698486328125
1772642734128122600,4.54412255859375,-1.5620880126953125,-0.06573486328125,-0.0173797607421875
1772642734138167600,4.55416748046875,-1.4136505126953125,-0.1591033935546875,-0.0379791259765625
1772642734148212700,4.564212646484375,-1.295684814453125,-0.2990875244140625,-0.032196044921875
1772642734158258400,4.574258544921875,-1.2643890380859375,-0.37274169921875,-0.0593109130859375
1772642734168303600,4.5843037109375,-1.3539276123046875,-0.3437957763671875,-0.1472015380859375
1772642734178348500,4.5943486328125,-1.55340576171875,-0.3102874755859375,-0.18304443359375
1772642734188393500,4.6043935546875,-1.720306396484375,-0.2751007080078125,-0.1566162109375
1772642734198439700,4.614439697265625,-1.8471527099609375,-0.2457427978515625,-0.1089630126953125
1772642734208484400,4.624484375,-1.941558837890625,-0.2567138671875,-0.045806884765625
1772642734218529500,4.634529541015625,-1.973876953125,-0.2731170654296875,-0.002838134765625
1772642734228574500,4.644574462890625,-1.9500732421875,-0.2780914306640625,-0.0152587890625
1772642734238619600,4.65461962890625,-1.9161529541015625,-0.2951812744140625,-0.0440673828125
1772642734248664600,4.66466455078125,-1.8771820068359375,-0.3253173828125,-0.0514984130859375
1772642734258709500,4.67470947265625,-1.817169189453125,-0.3484344482421875,-0.042877197265625
1772642734268754400,4.68475439453125,-1.721649169921875,-0.3680267333984375,-0.0471649169921875
1772642734278799600,4.694799560546875,-1.62200927734375,-0.373504638671875,-0.0319366455078125
1772642734288844500,4.704844482421875,-1.552886962890625,-0.3474578857421875,0.0337066650390625
1772642734298889700,4.7148896484375,-1.5303192138671875,-0.32916259765625,0.084991455078125
1772642734308934400,4.724934326171875,-1.5337982177734375,-0.336456298828125,0.0960693359375
1772642734318979600,4.7349794921875,-1.5342559814453125,-0.362823486328125,0.0536346435546875
1772642734329024500,4.7450244140625,-1.5004730224609375,-0.3980865478515625,0.0146331787109375
1772642734339070500,4.755070556640625,-1.4137420654296875,-0.4149322509765625,0.00335693359375
1772642734349115600,4.76511572265625,-1.325103759765625,-0.4067230224609375,0.0146636962890625
1772642734359160300,4.775160400390625,-1.24798583984375,-0.382476806640625,0.0545654296875
1772642734369205500,4.78520556640625,-1.172607421875,-0.34674072265625,0.1306304931640625
1772642734379250400,4.79525048828125,-1.1212310791015625,-0.3092041015625,0.188934326171875
1772642734389295600,4.805295654296875,-1.0776519775390625,-0.279876708984375,0.2263336181640625
1772642734399340500,4.815340576171875,-1.0050811767578125,-0.2548675537109375,0.2457733154296875
1772642734409385500,4.825385498046875,-0.92059326171875,-0.222076416015625,0.2359466552734375
1772642734419430400,4.835430419921875,-0.856964111328125,-0.20147705078125,0.2205047607421875
1772642734429475600,4.8454755859375,-0.790435791015625,-0.1784820556640625,0.1950531005859375
1772642734439520500,4.8555205078125,-0.7097015380859375,-0.1664276123046875,0.14202880859375
1772642734449565400,4.8655654296875,-0.63067626953125,-0.1603240966796875,0.0601654052734375
1772642734459610400,4.8756103515625,-0.602386474609375,-0.1548614501953125,-0.0234832763671875
1772642734469655600,4.885655517578125,-0.6375885009765625,-0.133636474609375,-0.086151123046875
1772642734479700500,4.895700439453125,-0.7127532958984375,-0.1186065673828125,-0.0886383056640625
1772642734489746700,4.90574658203125,-0.782257080078125,-0.11138916015625,-0.050201416015625
1772642734499791600,4.91579150390625,-0.8170318603515625,-0.110015869140625,-0.0240631103515625
1772642734509836500,4.92583642578125,-0.8057403564453125,-0.1009521484375,-0.0268096923828125
1772642734519881500,4.935881591796875,-0.76837158203125,-0.0827789306640625,-0.0471038818359375
1772642734529926700,4.9459267578125,-0.687347412109375,-0.06353759765625,-0.07598876953125
1772642734539971600,4.9559716796875,-0.5863800048828125,-0.0103302001953125,-0.1096038818359375
1772642734550016500,4.9660166015625,-0.5102996826171875,0.039825439453125,-0.0959625244140625
1772642734560061400,4.9760615234375,-0.473052978515625,0.0734405517578125,-0.043792724609375
1772642734570106600,4.986106689453125,-0.4411773681640625,0.08355712890625,0.00439453125
1772642734580151600,4.996151611328125,-0.3875732421875,0.0749969482421875,0.0124969482421875
1772642734590196700,5.00619677734375,-0.324676513671875,0.0584259033203125,-0.0200653076171875
1772642734600241400,5.016241455078125,-0.263885498046875,0.02294921875,-0.0689239501953125
1772642734610286600,5.02628662109375,-0.200225830078125,-0.0147705078125,-0.1216583251953125
1772642734620331500,5.03633154296875,-0.1385345458984375,-0.0275421142578125,-0.1760101318359375
1772642734630376700,5.046376708984375,-0.0990447998046875,-0.0167236328125,-0.2030487060546875
1772642734640422700,5.056422607421875,-0.1037139892578125,0.0127105712890625,-0.185791015625
1772642734650467600,5.066467529296875,-0.1528472900390625,0.0411376953125,-0.1108856201171875
1772642734660512500,5.076512451171875,-0.2042236328125,0.0711212158203125,-0.0162811279296875
1772642734670557400,5.086557373046875,-0.2192535400390625,0.0865631103515625,0.0550994873046875
1772642734680602600,5.0966025390625,-0.204986572265625,0.0836334228515625,0.086334228515625
1772642734690647600,5.1066474609375,-0.183319091796875,0.0683746337890625,0.094970703125
1772642734700692500,5.1166923828125,-0.166656494140625,0.048095703125,0.075714111328125
1772642734710737400,5.1267373046875,-0.173675537109375,0.032012939453125,0.0161285400390625
1772642734720782600,5.136782470703125,-0.23345947265625,0.033111572265625,-0.05841064453125
1772642734730827500,5.14682763671875,-0.3567962646484375,0.0160980224609375,-0.072723388671875
1772642734740872700,5.156872802734375,-0.471649169921875,-0.075042724609375,0.00396728515625
1772642734750917400,5.16691748046875,-0.510711669921875,-0.224395751953125,0.1008148193359375
1772642734760962600,5.176962646484375,-0.3976898193359375,-0.297515869140625,0.1076812744140625
1772642734771007500,5.187007568359375,-0.2788543701171875,-0.3070220947265625,0.03564453125
1772642734781053400,5.197053466796875,-0.31219482421875,-0.2973480224609375,-0.0480804443359375
1772642734791098600,5.2070986328125,-0.5112457275390625,-0.293212890625,-0.071624755859375
1772642734801143300,5.217143310546875,-0.734588623046875,-0.2806854248046875,-0.069580078125
1772642734811188500,5.2271884765625,-0.9651031494140625,-0.27557373046875,-0.06201171875
1772642734821233400,5.2372333984375,-1.1907806396484375,-0.2824554443359375,-0.0309906005859375
1772642734831278600,5.247278564453125,-1.2809295654296875,-0.2609100341796875,-0.0377349853515625
1772642734841323500,5.257323486328125,-1.2543487548828125,-0.1747589111328125,-0.07403564453125
1772642734851368400,5.267368408203125,-1.3738861083984375,-0.1731719970703125,0.007904052734375
1772642734861413400,5.277413330078125,-1.533477783203125,-0.2434234619140625,0.1212158203125
1772642734871458600,5.28745849609375,-1.6638641357421875,-0.304931640625,0.1201324462890625
1772642734881503500,5.29750341796875,-1.7003631591796875,-0.36614990234375,0.0625152587890625
1772642734891548700,5.307548583984375,-1.6362762451171875,-0.433197021484375,-0.029388427734375
1772642734901593300,5.31759326171875,-1.664947509765625,-0.4569854736328125,-0.056640625
1772642734911638500,5.327638427734375,-1.812835693359375,-0.4371337890625,-0.018463134765625
1772642734921683500,5.337683349609375,-2.0007781982421875,-0.376068115234375,-0.03082275390625
1772642734931729700,5.347729736328125,-2.2288970947265625,-0.3178253173828125,-0.0557403564453125
1772642734941774600,5.357774658203125,-2.43072509765625,-0.2474517822265625,-0.1045684814453125
1772642734951819500,5.367819580078125,-2.5865325927734375,-0.1607666015625,-0.144989013671875
1772642734961864400,5.377864501953125,-2.703369140625,-0.0659942626953125,-0.1386260986328125
1772642734971909600,5.38790966796875,-2.774932861328125,0.002471923828125,-0.118072509765625
1772642734981954600,5.39795458984375,-2.770172119140625,0.063323974609375,-0.104949951171875
1772642734991999700,5.407999755859375,-2.6680755615234375,0.0621337890625,-0.1121978759765625
1772642735002044400,5.41804443359375,-2.43194580078125,0.022735595703125,-0.1113739013671875
1772642735012089600,5.428089599609375,-2.1399688720703125,-0.0302276611328125,-0.0608367919921875
1772642735022134500,5.438134521484375,-1.84454345703125,-0.093994140625,0.0329742431640625
1772642735032179700,5.4481796875,-1.5806427001953125,-0.126617431640625,0.132781982421875
1772642735042224400,5.458224365234375,-1.37420654296875,-0.1587066650390625,0.2229156494140625
1772642735052269600,5.46826953125,-1.2262420654296875,-0.1835174560546875,0.2759246826171875
1772642735062314500,5.478314453125,-1.098724365234375,-0.2099609375,0.25555419921875
1772642735072359700,5.488359619140625,-0.998138427734375,-0.2532958984375,0.1826934814453125
1772642735082404600,5.498404541015625,-0.8847503662109375,-0.27911376953125,0.111846923828125
1772642735092450600,5.508450439453125,-0.790557861328125,-0.2658843994140625,0.049835205078125
1772642735102495500,5.51849560546875,-0.827178955078125,-0.2304229736328125,-0.0119781494140625
1772642735112540400,5.52854052734375,-0.9210357666015625,-0.2109375,-0.0241851806640625
1772642735122585600,5.538585693359375,-0.936920166015625,-0.1994476318359375,0.00115966796875
1772642735132630500,5.548630615234375,-0.91436767578125,-0.1900482177734375,0.0294036865234375
1772642735142675700,5.55867578125,-0.8925933837890625,-0.17755126953125,0.00738525390625
1772642735152720400,5.568720458984375,-0.8861236572265625,-0.168487548828125,-0.0514068603515625
1772642735162765300,5.578765380859375,-0.882659912109375,-0.1427459716796875,-0.120635986328125
1772642735172810200,5.588810302734375,-0.9097747802734375,-0.0966949462890625,-0.1775054931640625
1772642735182855400,5.59885546875,-0.963165283203125,-0.0518646240234375,-0.1930999755859375
1772642735192900000,5.608900146484375,-0.967803955078125,-0.0094451904296875,-0.2097625732421875
1772642735202945300,5.6189453125,-0.9080352783203125,0.02899169921875,-0.216949462890625
1772642735212990200,5.628990234375,-0.8133544921875,0.03936767578125,-0.1705169677734375
1772642735223035400,5.639035400390625,-0.6978607177734375,0.0523681640625,-0.10308837890625
1772642735233080300,5.649080322265625,-0.55767822265625,0.05072021484375,-0.0479736328125
1772642735243126300,5.659126220703125,-0.40887451171875,0.0306854248046875,-0.0132904052734375
1772642735253171200,5.669171142578125,-0.2829132080078125,0.0027923583984375,-0.0263824462890625
1772642735263216400,5.67921630859375,-0.2004852294921875,-0.027984619140625,-0.084625244140625
1772642735273261300,5.68926123046875,-0.153076171875,-0.055755615234375,-0.1527557373046875
1772642735283306200,5.69930615234375,-0.1105804443359375,-0.069732666015625,-0.2203826904296875
1772642735293351200,5.70935107421875,-0.074188232421875,-0.0611419677734375,-0.277618408203125
1772642735303396400,5.719396240234375,-0.06268310546875,-0.023651123046875,-0.2843170166015625
1772642735313441300,5.729441162109375,-0.113525390625,0.0232086181640625,-0.21734619140625
1772642735323486200,5.739486328125,-0.1757659912109375,0.059112548828125,-0.1339263916015625
1772642735333531400,5.749531494140625,-0.18701171875,0.08642578125,-0.0767822265625
1772642735343576300,5.759576416015625,-0.1640777587890625,0.0795135498046875,-0.0427398681640625
1772642735353621200,5.769621337890625,-0.1216583251953125,0.085968017578125,-0.058441162109375
1772642735363666200,5.779666259765625,-0.0861358642578125,0.1012115478515625,-0.089935302734375
1772642735373711400,5.78971142578125,-0.081268310546875,0.1456756591796875,-0.107086181640625
1772642735383756300,5.79975634765625,-0.138031005859375,0.184783935546875,-0.076629638671875
1772642735393801200,5.80980126953125,-0.2301025390625,0.19744873046875,-0.008636474609375
1772642735403847200,5.81984716796875,-0.290130615234375,0.158782958984375,0.060943603515625
1772642735413892400,5.829892333984375,-0.2921142578125,0.0718841552734375,0.1038665771484375
1772642735423937300,5.839937255859375,-0.24468994140625,-0.040618896484375,0.09844970703125
1772642735433982500,5.849982421875,-0.2091522216796875,-0.1921234130859375,0.0967559814453125
1772642735444027100,5.860027099609375,-0.179229736328125,-0.3269500732421875,0.105010986328125
1772642735454072300,5.870072265625,-0.1362152099609375,-0.4215087890625,0.122161865234375
1772642735464117200,5.8801171875,-0.0963134765625,-0.4602203369140625,0.1228179931640625
1772642735474162400,5.890162353515625,-0.134307861328125,-0.4671173095703125,0.1055145263671875
1772642735484207000,5.90020703125,-0.296234130859375,-0.48968505859375,0.1184844970703125
1772642735494252300,5.910252197265625,-0.4881744384765625,-0.481353759765625,0.129150390625
1772642735504297200,5.920297119140625,-0.680145263671875,-0.4345245361328125,0.134185791015625
1772642735514342400,5.93034228515625,-0.8787689208984375,-0.3669586181640625,0.1416778564453125
1772642735524387300,5.94038720703125,-1.0543975830078125,-0.3264923095703125,0.1400146484375
1772642735534432300,5.950432373046875,-1.161712646484375,-0.3120880126953125,0.1226806640625
1772642735544477200,5.960477294921875,-1.165863037109375,-0.3186187744140625,0.0987091064453125
1772642735554522400,5.9705224609375,-1.1213226318359375,-0.4545135498046875,0.1726531982421875
1772642735564568300,5.980568359375,-1.0267181396484375,-0.605682373046875,0.2391510009765625
1772642735574613200,5.99061328125,-0.8967437744140625,-0.6924896240234375,0.220489501953125
1772642735584658400,6.000658447265625,-0.9425048828125,-0.7222137451171875,0.1310272216796875
1772642735594703000,6.010703125,-1.2334747314453125,-0.67425537109375,0.0329742431640625
1772642735604748300,6.020748291015625,-1.6347503662109375,-0.6009368896484375,-0.0207977294921875
1772642735614793200,6.030793212890625,-2.0112457275390625,-0.5360870361328125,0.0007476806640625
1772642735624838400,6.04083837890625,-2.28033447265625,-0.49560546875,0.03515625
1772642735634883000,6.050883056640625,-2.4336090087890625,-0.500244140625,0.0190887451171875
1772642735644928300,6.06092822265625,-2.464935302734375,-0.5000762939453125,-0.030517578125
1772642735654973200,6.07097314453125,-2.3995819091796875,-0.4708404541015625,-0.078216552734375
1772642735665018400,6.081018310546875,-2.3478851318359375,-0.4279327392578125,-0.096649169921875
1772642735675063300,6.091063232421875,-2.323822021484375,-0.368438720703125,-0.1179962158203125
1772642735685108200,6.101108154296875,-2.3167266845703125,-0.302276611328125,-0.1124114990234375
1772642735695153200,6.111153076171875,-2.328094482421875,-0.2380218505859375,-0.0556793212890625
1772642735705198300,6.1211982421875,-2.32257080078125,-0.20123291015625,0.015625
1772642735715244300,6.131244384765625,-2.2573699951171875,-0.21185302734375,0.038909912109375
1772642735725289500,6.14128955078125,-2.13116455078125,-0.2618408203125,0.0227813720703125
1772642735735334100,6.151334228515625,-1.9859161376953125,-0.3291015625,-0.0093994140625
1772642735745379300,6.16137939453125,-1.8683013916015625,-0.3958892822265625,-0.0374908447265625
1772642735755424300,6.17142431640625,-1.7611236572265625,-0.4134063720703125,-0.063262939453125
1772642735765469400,6.181469482421875,-1.7186737060546875,-0.4287872314453125,-0.0598297119140625
1772642735775514400,6.191514404296875,-1.7178497314453125,-0.3830108642578125,-0.009735107421875
1772642735785559300,6.201559326171875,-1.730010986328125,-0.305694580078125,0.069671630859375
1772642735795604200,6.211604248046875,-1.696319580078125,-0.22381591796875,0.1403350830078125
1772642735805649400,6.2216494140625,-1.6070709228515625,-0.171600341796875,0.1775054931640625
1772642735815694300,6.2316943359375,-1.4744720458984375,-0.1701202392578125,0.1908111572265625
1772642735825739300,6.2417392578125,-1.3031463623046875,-0.19561767578125,0.1802520751953125
1772642735835784200,6.2517841796875,-1.122955322265625,-0.22900390625,0.1613006591796875
1772642735845829400,6.261829345703125,-0.9383544921875,-0.251220703125,0.1256561279296875
1772642735855874300,6.271874267578125,-0.7693328857421875,-0.2571563720703125,0.0839080810546875
1772642735865919200,6.281919189453125,-0.6270599365234375,-0.2507476806640625,0.0546722412109375
1772642735875964200,6.291964111328125,-0.5220489501953125,-0.247039794921875,0.0279693603515625
1772642735886010000,6.302010009765625,-0.4407196044921875,-0.2344970703125,-0.0043487548828125
1772642735896055300,6.31205517578125,-0.383819580078125,-0.20074462890625,-0.0482025146484375
1772642735906100200,6.322100341796875,-0.3492431640625,-0.1682891845703125,-0.0975494384765625
1772642735916145400,6.3321455078125,-0.320037841796875,-0.1195526123046875,-0.128875732421875
1772642735926190300,6.3421904296875,-0.3331756591796875,-0.0620269775390625,-0.131378173828125
1772642735936235300,6.3522353515625,-0.3905029296875,-0.01409912109375,-0.10003662109375
1772642735946280200,6.3622802734375,-0.4157867431640625,0.0035552978515625,-0.0604095458984375
1772642735956325400,6.372325439453125,-0.331390380859375,0.003570556640625,-0.018524169921875
1772642735966370300,6.382370361328125,-0.170806884765625,-0.023895263671875,0.0090789794921875
1772642735976415200,6.392415283203125,-0.0263519287109375,-0.06671142578125,0.0067138671875
1772642735986460200,6.402460205078125,0.1006622314453125,-0.11102294921875,-0.0358428955078125
1772642735996505300,6.41250537109375,0.1752166748046875,-0.16064453125,-0.0890350341796875
1772642736006550300,6.42255029296875,0.1955413818359375,-0.1863250732421875,-0.143157958984375
1772642736016595500,6.432595458984375,0.1651611328125,-0.1854400634765625,-0.17547607421875
1772642736026640100,6.44264013671875,0.1093292236328125,-0.16839599609375,-0.1681976318359375
1772642736036685300,6.452685302734375,0.0533599853515625,-0.13385009765625,-0.1515960693359375
1772642736046731300,6.462731201171875,0.0011138916015625,-0.0964813232421875,-0.1128387451171875
1772642736056776200,6.472776123046875,-0.025238037109375,-0.0752410888671875,-0.080322265625
1772642736066821400,6.4828212890625,-0.032257080078125,-0.056976318359375,-0.0793609619140625
1772642736076866300,6.4928662109375,-0.039306640625,-0.038299560546875,-0.072845458984375
1772642736086911200,6.5029111328125,-0.0543212890625,-0.01336669921875,-0.05718994140625
1772642736096956200,6.5129560546875,-0.073150634765625,0.027099609375,-0.0441131591796875
1772642736107001300,6.52300146484375,-0.1092071533203125,0.0623626708984375,-0.02410888671875
1772642736117046300,6.53304638671875,-0.149322509765625,0.083953857421875,0.010955810546875
1772642736127091200,6.54309130859375,-0.2191314697265625,0.080078125,0.029571533203125
1772642736137136000,6.55313623046875,-0.313507080078125,0.050201416015625,0.0162353515625
1772642736147181300,6.563181396484375,-0.4210052490234375,-0.00140380859375,-0.0048675537109375
1772642736157226200,6.573226318359375,-0.5150909423828125,-0.033935546875,-0.0159149169921875
1772642736167271700,6.583271728515625,-0.5782318115234375,-0.0946502685546875,-0.0095062255859375
1772642736177316600,6.593316650390625,-0.594573974609375,-0.223297119140625,0.0173797607421875
1772642736187361800,6.60336181640625,-0.4908447265625,-0.3413543701171875,0.0226898193359375
1772642736197406500,6.613406494140625,-0.345245361328125,-0.425445556640625,-0.017974853515625
1772642736207452400,6.623452392578125,-0.2903594970703125,-0.515838623046875,-0.059326171875
1772642736217497600,6.63349755859375,-0.3783111572265625,-0.5909423828125,-0.0528411865234375
1772642736227542500,6.64354248046875,-0.5505523681640625,-0.584808349609375,-0.03924560546875
1772642736237587700,6.653587646484375,-0.716400146484375,-0.4862213134765625,-0.007354736328125
1772642736247632600,6.663632568359375,-0.86285400390625,-0.3530731201171875,0.0348968505859375
1772642736257677600,6.673677490234375,-0.9924774169921875,-0.2559814453125,0.0827789306640625
1772642736267722500,6.683722412109375,-1.078338623046875,-0.250091552734375,0.117462158203125
1772642736277767700,6.693767578125,-1.101531982421875,-0.32904052734375,0.0641326904296875
1772642736287812600,6.7038125,-1.1619110107421875,-0.4143524169921875,-0.02215576171875
1772642736297857800,6.71385791015625,-1.3074951171875,-0.4614715576171875,-0.0682220458984375
1772642736307902500,6.72390234375,-1.481964111328125,-0.456207275390625,-0.0955047607421875
1772642736317947600,6.73394775390625,-1.6290130615234375,-0.4111480712890625,-0.1075286865234375
1772642736327992600,6.74399267578125,-1.8141632080078125,-0.34771728515625,-0.07098388671875
1772642736338037800,6.754037841796875,-2.048828125,-0.307037353515625,0.008880615234375
1772642736348082400,6.76408251953125,-2.215179443359375,-0.2938079833984375,0.0774993896484375
1772642736358127600,6.774127685546875,-2.274993896484375,-0.3016510009765625,0.080780029296875
1772642736368172500,6.784172607421875,-2.2957916259765625,-0.28192138671875,0.048980712890625
1772642736378217700,6.7942177734375,-2.2815399169921875,-0.26141357421875,0.0239410400390625
1772642736388263700,6.804263671875,-2.223876953125,-0.26116943359375,0.0297698974609375
1772642736398308900,6.814308837890625,-2.17083740234375,-0.2817230224609375,0.0265655517578125
1772642736408353500,6.824353515625,-2.126922607421875,-0.3006744384765625,0.0018157958984375
1772642736418398700,6.834398681640625,-2.109588623046875,-0.3027801513671875,-0.0008392333984375
1772642736428443600,6.844443603515625,-2.0939788818359375,-0.2762908935546875,0.00750732421875
1772642736438488800,6.85448876953125,-2.03314208984375,-0.2381591796875,0.0292510986328125
1772642736448533500,6.864533447265625,-1.9166717529296875,-0.2210693359375,0.0765380859375
1772642736458578700,6.87457861328125,-1.7607269287109375,-0.273956298828125,0.1294403076171875
1772642736468623600,6.88462353515625,-1.576080322265625,-0.3795013427734375,0.1286468505859375
1772642736478668800,6.894668701171875,-1.426666259765625,-0.488494873046875,0.0742034912109375
1772642736488713700,6.904713623046875,-1.3656463623046875,-0.569061279296875,0.010711669921875
1772642736498758700,6.914758544921875,-1.390533447265625,-0.585357666015625,-0.03192138671875
1772642736508803600,6.924803466796875,-1.432861328125,-0.5463104248046875,-0.059967041015625
1772642736518848800,6.934848876953125,-1.4808502197265625,-0.470062255859375,-0.05523681640625
1772642736528893700,6.944893798828125,-1.5299530029296875,-0.3758697509765625,-0.047943115234375
1772642736538939000,6.95493896484375,-1.560150146484375,-0.270843505859375,-0.0625152587890625
1772642736548983600,6.964983642578125,-1.568359375,-0.1764068603515625,-0.07421875
1772642736559029500,6.975029541015625,-1.567901611328125,-0.105499267578125,-0.08978271484375
1772642736569074700,6.98507470703125,-1.550567626953125,-0.054290771484375,-0.088134765625
1772642736579119600,6.99511962890625,-1.464752197265625,-0.03289794921875,-0.0440521240234375
1772642736589164800,7.005164794921875,-1.30413818359375,-0.029327392578125,-0.0018463134765625
1772642736599209500,7.01520947265625,-1.09967041015625,-0.0340118408203125,0.0164031982421875
1772642736609254700,7.025254638671875,-0.8828125,-0.0471649169921875,0.0289459228515625
1772642736619299600,7.035299560546875,-0.6858062744140625,-0.045135498046875,0.024505615234375
1772642736629344800,7.0453447265625,-0.5334930419921875,-0.035858154296875,0.0252227783203125
1772642736639389700,7.0553896484375,-0.4483489990234375,-0.0268707275390625,-0.0020294189453125
1772642736649434600,7.0654345703125,-0.418060302734375,-0.0159912109375,-0.0535888671875
1772642736659479600,7.0754794921875,-0.44439697265625,-0.00006103515625,-0.07171630859375
1772642736669524700,7.085524658203125,-0.5003814697265625,-0.0040130615234375,-0.0125732421875
1772642736679569700,7.095569580078125,-0.53466796875,0.004425048828125,0.058807373046875
1772642736689614600,7.105614501953125,-0.5273284912109375,0.005859375,0.10552978515625
1772642736699659500,7.115659423828125,-0.4801177978515625,-0.0118255615234375,0.133514404296875
1772642736709704700,7.12570458984375,-0.379791259765625,-0.040771484375,0.136810302734375
1772642736719749600,7.13574951171875,-0.262969970703125,-0.0838165283203125,0.0959625244140625
1772642736729795600,7.145795654296875,-0.131500244140625,-0.1275482177734375,0.01983642578125
1772642736739840800,7.1558408203125,0.0042572021484375,-0.15765380859375,-0.06195068359375
1772642736749885400,7.165885498046875,0.1181793212890625,-0.1625213623046875,-0.1173248291015625
1772642736759930600,7.1759306640625,0.17620849609375,-0.1594696044921875,-0.132720947265625
1772642736769975600,7.1859755859375,0.1759796142578125,-0.1450958251953125,-0.1210174560546875
1772642736780020700,7.196020751953125,0.1287994384765625,-0.1134796142578125,-0.107879638671875
1772642736790065400,7.2060654296875,0.030364990234375,-0.0706939697265625,-0.09478759765625
1772642736800110600,7.216110595703125,-0.0948486328125,-0.027099609375,-0.07562255859375
1772642736810155500,7.226155517578125,-0.2011566162109375,0.023681640625,-0.07916259765625
1772642736820200700,7.23620068359375,-0.282318115234375,0.0818328857421875,-0.084747314453125
1772642736830245600,7.24624560546875,-0.3494110107421875,0.1231842041015625,-0.07403564453125
1772642736840290600,7.25629052734375,-0.4091796875,0.1490020751953125,-0.057586669921875
1772642736850335500,7.26633544921875,-0.4426422119140625,0.16680908203125,-0.049407958984375
1772642736860380700,7.276380615234375,-0.4563446044921875,0.1971588134765625,-0.0276641845703125
1772642736870425600,7.286425537109375,-0.4603424072265625,0.1994171142578125,-0.0042572021484375
1772642736880470800,7.296470703125,-0.4239044189453125,0.193267822265625,0.0266571044921875
1772642736890515500,7.306515380859375,-0.3913116455078125,0.1818084716796875,0.0315704345703125
1772642736900561700,7.316561767578125,-0.3920745849609375,0.1715240478515625,0.02886962890625
1772642736910606600,7.326606689453125,-0.430755615234375,0.1391754150390625,0.0858306884765625
1772642736920651800,7.33665185546875,-0.462066650390625,0.0311737060546875,0.1590423583984375
1772642736930696700,7.34669677734375,-0.4849090576171875,-0.1073455810546875,0.1850128173828125
1772642736940741600,7.35674169921875,-0.508056640625,-0.2457427978515625,0.1789398193359375
1772642736950786600,7.36678662109375,-0.4860687255859375,-0.374237060546875,0.1698455810546875
1772642736960831700,7.376831787109375,-0.4798126220703125,-0.4651947021484375,0.12982177734375
1772642736970876700,7.386876708984375,-0.6006927490234375,-0.5172119140625,0.0779571533203125
1772642736980921900,7.396921875,-0.7991485595703125,-0.53851318359375,0.02008056640625
1772642736990966500,7.406966552734375,-0.962005615234375,-0.4879302978515625,-0.0776824951171875
1772642737001011700,7.41701171875,-1.0992431640625,-0.4483642578125,-0.1668701171875
1772642737011056600,7.427056640625,-1.2383880615234375,-0.3807830810546875,-0.2279510498046875
1772642737021101800,7.437101806640625,-1.3858795166015625,-0.264007568359375,-0.254302978515625
1772642737031146500,7.447146484375,-1.6021728515625,-0.19384765625,-0.107177734375
1772642737041191700,7.457191650390625,-1.79742431640625,-0.209136962890625,0.11077880859375
1772642737051236600,7.467236572265625,-1.8223419189453125,-0.1748504638671875,0.215362548828125
1772642737061281800,7.47728173828125,-1.717620849609375,-0.1469879150390625,0.1861572265625
1772642737071326700,7.48732666015625,-1.5953369140625,-0.1819000244140625,0.0912017822265625
1772642737081372700,7.49737255859375,-1.55859375,-0.2205963134765625,0.0120086669921875
1772642737091417600,7.50741748046875,-1.6771240234375,-0.2584991455078125,-0.03350830078125
1772642737101462500,7.517462646484375,-1.78900146484375,-0.2952423095703125,-0.0757293701171875
1772642737111507700,7.5275078125,-1.789306640625,-0.2899169921875,-0.1213226318359375
1772642737121552600,7.537552734375,-1.76812744140625,-0.2571258544921875,-0.1638946533203125
1772642737131597800,7.547597900390625,-1.7650909423828125,-0.2229461669921875,-0.2197723388671875
1772642737141642500,7.557642578125,-1.770477294921875,-0.1873931884765625,-0.2514495849609375
1772642737151687700,7.567687744140625,-1.742919921875,-0.129730224609375,-0.2568817138671875
1772642737161731800,7.57773193359375,-1.71917724609375,-0.059814453125,-0.26123046875
1772642737171776500,7.587776611328125,-1.6810455322265625,-0.04296875,-0.2263946533203125
1772642737181821700,7.59782177734375,-1.5968170166015625,-0.02630615234375,-0.19696044921875
1772642737191866600,7.60786669921875,-1.4898529052734375,-0.013580322265625,-0.17889404296875
1772642737201911800,7.617911865234375,-1.41864013671875,-0.0238037109375,-0.1690216064453125
1772642737211956700,7.627956787109375,-1.39898681640625,-0.02764892578125,-0.1893463134765625
1772642737222001700,7.638001708984375,-1.4181365966796875,-0.0134124755859375,-0.22430419921875
1772642737232046600,7.648046630859375,-1.435638427734375,0.0100860595703125,-0.2351837158203125
1772642737242091800,7.658091796875,-1.4723358154296875,0.0179290771484375,-0.2010498046875
1772642737252136700,7.66813671875,-1.47991943359375,0.05767822265625,-0.16961669921875
1772642737262181600,7.678181640625,-1.3568267822265625,0.1365814208984375,-0.1647186279296875
1772642737272227600,7.6882275390625,-1.2831573486328125,0.116180419921875,-0.114013671875
1772642737282272500,7.6982724609375,-1.2195587158203125,0.0716094970703125,-0.05120849609375
1772642737292317700,7.708317626953125,-1.1361083984375,0.0545196533203125,-0.0078125
1772642737302362600,7.718362548828125,-1.0445098876953125,0.0667724609375,0.013580322265625
1772642737312407800,7.72840771484375,-0.9810333251953125,0.0718231201171875,0.0273590087890625
1772642737322452500,7.738452392578125,-0.9828643798828125,0.0370330810546875,0.0351104736328125
1772642737332497700,7.74849755859375,-0.981903076171875,-0.0013275146484375,0.006134033203125
1772642737342542600,7.75854248046875,-0.969146728515625,-0.008880615234375,-0.042999267578125
1772642737352587800,7.768587890625,-0.9857330322265625,-0.0106658935546875,-0.068450927734375
1772642737362632700,7.7786328125,-1.0107879638671875,-0.0037689208984375,-0.0858154296875
1772642737372677600,7.788677734375,-1.0273284912109375,0.004730224609375,-0.0998382568359375
1772642737382722600,7.79872265625,-1.0257415771484375,0.0082550048828125,-0.0886077880859375
1772642737392767700,7.808767822265625,-1.00634765625,-0.001373291015625,-0.059112548828125
1772642737402812700,7.818812744140625,-0.972564697265625,-0.0131378173828125,-0.041534423828125
1772642737412857600,7.828857666015625,-0.9449462890625,-0.025360107421875,-0.0330047607421875
1772642737422902500,7.838902587890625,-0.9269256591796875,-0.0391845703125,-0.028564453125
1772642737432947700,7.84894775390625,-0.920654296875,-0.045623779296875,-0.0263519287109375
1772642737442992600,7.85899267578125,-0.922210693359375,-0.0511474609375,-0.0229644775390625
1772642737453038600,7.86903857421875,-0.93701171875,-0.046600341796875,-0.0123291015625
1772642737463083800,7.879083740234375,-0.93878173828125,-0.0381622314453125,0.002899169921875
1772642737473128400,7.88912841796875,-0.9308624267578125,-0.038818359375,0.0222320556640625
1772642737483173600,7.899173583984375,-0.9282684326171875,-0.048309326171875,0.0399017333984375
1772642737493218600,7.909218505859375,-0.9259185791015625,-0.0518646240234375,0.042510986328125
1772642737503263700,7.919263671875,-0.9250030517578125,-0.0569000244140625,0.0261077880859375
1772642737513308700,7.92930859375,-0.925323486328125,-0.0694732666015625,0.006317138671875
1772642737523353600,7.939353515625,-0.910186767578125,-0.081298828125,-0.0015411376953125
1772642737533398500,7.9493984375,-0.8406219482421875,-0.07232666015625,0.0115509033203125
1772642737543443700,7.959443603515625,-0.8156585693359375,-0.0561676025390625,0.02679443359375
1772642737553488600,7.969488525390625,-0.8840179443359375,-0.0626220703125,0.0260162353515625
1772642737563533600,7.979533447265625,-0.9321746826171875,-0.068939208984375,0.002532958984375
1772642737573578500,7.98957861328125,-0.9515533447265625,-0.06036376953125,0.0012969970703125
1772642737583623700,7.999623779296875,-0.9438323974609375,-0.058868408203125,0.0025177001953125
1772642737593668600,8.009668701171876,-0.953216552734375,-0.0632171630859375,-0.00531005859375
1772642737603713800,8.0197138671875,-0.9716644287109375,-0.066864013671875,-0.0171966552734375
1772642737613758500,8.029758544921876,-0.9696807861328125,-0.070709228515625,-0.0236053466796875
1772642737623803600,8.0398037109375,-0.9713897705078125,-0.0870513916015625,-0.0016632080078125
