time,seconds_elapsed,z,y,x
1772641340102184700,0.051184814453125,-1.0839385986328125,-0.0482635498046875,0.00543212890625
1772641340112229600,0.061229736328125,-1.0494232177734375,-0.0493316650390625,0.0079345703125
1772641340122274600,0.071274658203125,-1.05242919921875,-0.047271728515625,0.0051727294921875
1772641340132320800,0.08132080078125,-1.0464935302734375,-0.0460357666015625,0.0035400390625
1772641340142365700,0.09136572265625,-1.0280609130859375,-0.043426513671875,0.013214111328125
1772641340152410600,0.10141064453125,-0.9947357177734375,-0.04901123046875,0.025665283203125
1772641340162456800,0.111456787109375,-0.9578094482421875,-0.0497589111328125,0.036956787109375
1772641340172501500,0.12150146484375,-0.919952392578125,-0.052947998046875,0.0479278564453125
1772641340182546700,0.131546630859375,-0.8842315673828125,-0.0597381591796875,0.06268310546875
1772641340192591600,0.141591552734375,-0.8483123779296875,-0.0670166015625,0.0708160400390625
1772641340202637600,0.151637451171875,-0.824371337890625,-0.07635498046875,0.0762176513671875
1772641340212682800,0.161682861328125,-0.8109588623046875,-0.0875396728515625,0.086822509765625
1772641340222727400,0.1717275390625,-0.800079345703125,-0.096282958984375,0.09979248046875
1772641340232772600,0.181772705078125,-0.8004302978515625,-0.104339599609375,0.112274169921875
1772641340242818600,0.191818603515625,-0.81591796875,-0.112396240234375,0.1232147216796875
1772641340252863700,0.20186376953125,-0.8326873779296875,-0.109100341796875,0.1214141845703125
1772641340262908700,0.21190869140625,-0.850921630859375,-0.10443115234375,0.1145477294921875
1772641340272954600,0.22195458984375,-0.863861083984375,-0.1047821044921875,0.111724853515625
1772641340282999800,0.231999755859375,-0.8717803955078125,-0.100616455078125,0.115264892578125
1772641340293044500,0.24204443359375,-0.8824615478515625,-0.08929443359375,0.114898681640625
1772641340303089700,0.252089599609375,-0.9015045166015625,-0.072723388671875,0.114013671875
1772641340313135600,0.262135498046875,-0.921630859375,-0.0563201904296875,0.118255615234375
1772641340323180800,0.272180908203125,-0.9411468505859375,-0.0419769287109375,0.1215362548828125
1772641340333225700,0.282225830078125,-0.9662628173828125,-0.031585693359375,0.1298828125
1772641340343271700,0.292271728515625,-0.99139404296875,-0.026611328125,0.1321563720703125
1772641340353316600,0.302316650390625,-1.026336669921875,-0.02801513671875,0.12713623046875
1772641340363361500,0.312361572265625,-1.0473785400390625,-0.029144287109375,0.119842529296875
1772641340373406700,0.32240673828125,-1.051849365234375,-0.0456695556640625,0.1120147705078125
1772641340383452700,0.33245263671875,-1.0327301025390625,-0.0767059326171875,0.095123291015625
1772641340393497600,0.34249755859375,-1.0069580078125,-0.09710693359375,0.07684326171875
1772641340403542800,0.352542724609375,-0.9802703857421875,-0.1158447265625,0.0616607666015625
1772641340413588700,0.362588623046875,-0.9644927978515625,-0.135040283203125,0.053558349609375
1772641340423633700,0.372633544921875,-0.950897216796875,-0.148956298828125,0.0480194091796875
1772641340433678600,0.3826787109375,-0.9381103515625,-0.15899658203125,0.0385284423828125
1772641340443723800,0.392723876953125,-0.925506591796875,-0.1685333251953125,0.0315704345703125
1772641340453769700,0.402769775390625,-0.9133758544921875,-0.177703857421875,0.0182037353515625
1772641340463814700,0.412814697265625,-0.906494140625,-0.1872406005859375,0.0158843994140625
1772641340473859600,0.422859619140625,-0.896575927734375,-0.1909942626953125,0.0182037353515625
1772641340483905500,0.432905517578125,-0.8925018310546875,-0.19244384765625,0.0186767578125
1772641340493950700,0.44295068359375,-0.8984375,-0.1944122314453125,0.0257415771484375
1772641340503995600,0.45299560546875,-0.9005126953125,-0.1905975341796875,0.0336456298828125
1772641340514040800,0.463040771484375,-0.908599853515625,-0.18719482421875,0.0348968505859375
1772641340524086800,0.473086669921875,-0.920166015625,-0.185272216796875,0.0390625
1772641340534131700,0.483131591796875,-0.9477081298828125,-0.1791534423828125,0.034637451171875
1772641340544176600,0.4931767578125,-0.9617919921875,-0.1747283935546875,0.0346221923828125
1772641340554221600,0.5032216796875,-0.9821319580078125,-0.1688995361328125,0.0429840087890625
1772641340564267500,0.513267578125,-0.988250732421875,-0.1638031005859375,0.0533599853515625
1772641340574312700,0.523312744140625,-0.9992828369140625,-0.158447265625,0.061737060546875
1772641340584357600,0.533357666015625,-1.0077972412109375,-0.1517181396484375,0.065399169921875
1772641340594403800,0.54340380859375,-1.0145111083984375,-0.147918701171875,0.0689849853515625
1772641340604448500,0.553448486328125,-1.0188140869140625,-0.1468353271484375,0.073211669921875
1772641340614493700,0.56349365234375,-1.0137786865234375,-0.15081787109375,0.0783843994140625
1772641340624538600,0.57353857421875,-1.0081787109375,-0.1557769775390625,0.083099365234375
1772641340634584600,0.58358447265625,-1.002471923828125,-0.159515380859375,0.0838623046875
1772641340644629800,0.593629638671875,-0.996063232421875,-0.1634368896484375,0.08184814453125
1772641340654674700,0.6036748046875,-0.9870147705078125,-0.1688995361328125,0.0802001953125
1772641340664721000,0.613720947265625,-0.982574462890625,-0.1753082275390625,0.0752105712890625
1772641340674765600,0.623765625,-0.980224609375,-0.1818695068359375,0.07427978515625
1772641340684810800,0.633810791015625,-0.9771728515625,-0.18475341796875,0.0778045654296875
1772641340694855700,0.643855712890625,-0.97100830078125,-0.18634033203125,0.0851593017578125
1772641340704901600,0.653901611328125,-0.966552734375,-0.1864013671875,0.0930633544921875
1772641340714946800,0.66394677734375,-0.9687652587890625,-0.18475341796875,0.0970611572265625
1772641340724991500,0.673991455078125,-0.9771728515625,-0.180511474609375,0.0987701416015625
1772641340735037400,0.684037353515625,-0.9895477294921875,-0.1726531982421875,0.099700927734375
1772641340745082600,0.69408251953125,-1.001708984375,-0.1638336181640625,0.1017913818359375
1772641340755127600,0.70412744140625,-1.0123138427734375,-0.158355712890625,0.1091156005859375
1772641340765172700,0.7141728515625,-1.022125244140625,-0.1538238525390625,0.1196441650390625
1772641340775218700,0.72421875,-1.032318115234375,-0.1568756103515625,0.13250732421875
1772641340785263400,0.734263427734375,-1.0395050048828125,-0.1730194091796875,0.1466522216796875
1772641340795308300,0.744308349609375,-1.033905029296875,-0.185943603515625,0.153106689453125
1772641340805354200,0.754354248046875,-1.024200439453125,-0.1953125,0.1521148681640625
1772641340815399200,0.764399169921875,-1.0107574462890625,-0.1943817138671875,0.136199951171875
1772641340825444000,0.774444091796875,-1.0090789794921875,-0.18621826171875,0.0989532470703125
1772641340835489300,0.7844892578125,-1.0314178466796875,-0.156585693359375,0.059844970703125
1772641340845535200,0.79453515625,-1.054840087890625,-0.1168670654296875,0.038909912109375
1772641340855580400,0.804580322265625,-1.09771728515625,-0.08251953125,0.0430755615234375
1772641340865625300,0.814625244140625,-1.1461944580078125,-0.046661376953125,0.060882568359375
1772641340875670300,0.824670166015625,-1.166259765625,-0.0272216796875,0.0831756591796875
1772641340885716200,0.83471630859375,-1.18536376953125,-0.0178680419921875,0.0932464599609375
1772641340895761200,0.84476123046875,-1.174713134765625,-0.0006103515625,0.096893310546875
1772641340905806300,0.854806396484375,-1.1677703857421875,0.010650634765625,0.0991973876953125
1772641340915852300,0.864852294921875,-1.15728759765625,0.011627197265625,0.0964508056640625
1772641340925897500,0.8748974609375,-1.1474609375,0.002960205078125,0.0822601318359375
1772641340935942100,0.884942138671875,-1.133209228515625,-0.002838134765625,0.060760498046875
1772641340945987300,0.8949873046875,-1.111053466796875,-0.0071258544921875,0.04443359375
1772641340956033300,0.905033203125,-1.0713653564453125,-0.0104522705078125,0.0384368896484375
1772641340966078200,0.915078125,-1.0203094482421875,-0.0104522705078125,0.045623779296875
1772641340976123400,0.925123291015625,-0.9667510986328125,-0.0119781494140625,0.0600433349609375
1772641340986169300,0.93516943359375,-0.91937255859375,-0.014862060546875,0.076141357421875
1772641340996214300,0.94521435546875,-0.879241943359375,-0.018707275390625,0.0870208740234375
1772641341006259200,0.95525927734375,-0.84747314453125,-0.0196533203125,0.08941650390625
1772641341016304000,0.96530419921875,-0.827850341796875,-0.02557373046875,0.085906982421875
1772641341026350300,0.975350341796875,-0.810211181640625,-0.0326385498046875,0.0743255615234375
1772641341036395300,0.985395263671875,-0.8133087158203125,-0.0399627685546875,0.057403564453125
1772641341046440400,0.9954404296875,-0.8209991455078125,-0.044952392578125,0.0404510498046875
1772641341056485000,1.005485107421875,-0.8299102783203125,-0.042449951171875,0.02349853515625
1772641341066531000,1.015531005859375,-0.83544921875,-0.039642333984375,0.0157470703125
1772641341076576300,1.025576171875,-0.8404693603515625,-0.0392608642578125,0.0210723876953125
1772641341086621200,1.03562109375,-0.8370819091796875,-0.0395355224609375,0.031494140625
1772641341096667400,1.04566748046875,-0.831817626953125,-0.035919189453125,0.0331268310546875
1772641341106712300,1.05571240234375,-0.8361358642578125,-0.032562255859375,0.0303497314453125
1772641341116757500,1.065757568359375,-0.849822998046875,-0.0281982421875,0.0376434326171875
1772641341126802200,1.07580224609375,-0.868896484375,-0.01702880859375,0.04925537109375
1772641341136848100,1.08584814453125,-0.894683837890625,-0.0041961669921875,0.061370849609375
1772641341146893300,1.095893310546875,-0.9294281005859375,0.0095062255859375,0.0676116943359375
1772641341156938200,1.105938232421875,-0.9622802734375,0.022064208984375,0.067718505859375
1772641341166984200,1.115984130859375,-1.000335693359375,0.0303802490234375,0.0644683837890625
1772641341177029400,1.126029296875,-1.0243377685546875,0.037109375,0.0585479736328125
1772641341187074300,1.13607421875,-1.0526123046875,0.0363006591796875,0.055908203125
1772641341197119200,1.146119140625,-1.074005126953125,0.0292205810546875,0.0515289306640625
1772641341207165200,1.156165283203125,-1.08856201171875,0.0128631591796875,0.0424041748046875
1772641341217210400,1.16621044921875,-1.0752716064453125,-0.0081634521484375,0.0282440185546875
1772641341227255300,1.17625537109375,-1.0548858642578125,-0.0336456298828125,0.0160064697265625
1772641341237301200,1.18630126953125,-1.0279541015625,-0.056121826171875,0.0063629150390625
1772641341247346200,1.19634619140625,-1.0100860595703125,-0.0787200927734375,-0.00164794921875
1772641341257391000,1.20639111328125,-0.9958953857421875,-0.0978240966796875,-0.0052032470703125
1772641341267436300,1.216436279296875,-0.9860687255859375,-0.1126861572265625,-0.007568359375
1772641341277482200,1.226482177734375,-0.974273681640625,-0.1240997314453125,-0.008514404296875
1772641341287527400,1.23652734375,-0.958251953125,-0.1309051513671875,-0.0103607177734375
1772641341297572400,1.246572265625,-0.9464111328125,-0.1343231201171875,-0.0101776123046875
1772641341307618300,1.256618408203125,-0.93829345703125,-0.1366119384765625,-0.010284423828125
1772641341317663200,1.266663330078125,-0.9337158203125,-0.13287353515625,-0.0049896240234375
1772641341327708200,1.276708251953125,-0.9369049072265625,-0.1254119873046875,0.003173828125
1772641341337753300,1.28675341796875,-0.942169189453125,-0.11566162109375,0.011993408203125
1772641341347799300,1.29679931640625,-0.9544525146484375,-0.10760498046875,0.0203704833984375
1772641341357844500,1.306844482421875,-0.9678497314453125,-0.0992279052734375,0.03021240234375
1772641341367889200,1.31688916015625,-0.983062744140625,-0.09136962890625,0.0380401611328125
1772641341377934300,1.326934326171875,-0.9918670654296875,-0.08660888671875,0.0429840087890625
1772641341387980300,1.336980224609375,-0.9986114501953125,-0.0834197998046875,0.0505828857421875
1772641341398025200,1.347025146484375,-1.0056304931640625,-0.083404541015625,0.055450439453125
1772641341408070400,1.3570703125,-1.00946044921875,-0.0829315185546875,0.0593719482421875
1772641341418116400,1.367116455078125,-1.008544921875,-0.0819549560546875,0.0607452392578125
1772641341428161300,1.377161376953125,-1.0042724609375,-0.080780029296875,0.0601654052734375
1772641341438206200,1.387206298828125,-1.01202392578125,-0.0811767578125,0.0605010986328125
1772641341448251100,1.397251220703125,-1.020782470703125,-0.08343505859375,0.061065673828125
1772641341458297300,1.40729736328125,-1.0177154541015625,-0.0867919921875,0.0637664794921875
1772641341468342300,1.41734228515625,-1.009246826171875,-0.08868408203125,0.0665283203125
1772641341478387500,1.427387451171875,-1.0027008056640625,-0.0944061279296875,0.071868896484375
1772641341488433400,1.437433349609375,-0.996490478515625,-0.1012420654296875,0.076141357421875
1772641341498478000,1.44747802734375,-0.99041748046875,-0.10528564453125,0.076568603515625
1772641341508523300,1.457523193359375,-0.9847564697265625,-0.108734130859375,0.0726165771484375
1772641341518568200,1.467568115234375,-0.9810028076171875,-0.1134490966796875,0.06573486328125
1772641341528614400,1.477614501953125,-0.9806365966796875,-0.1187896728515625,0.064422607421875
1772641341538659300,1.487659423828125,-0.9831390380859375,-0.1206817626953125,0.065673828125
1772641341548704500,1.49770458984375,-0.987060546875,-0.1236724853515625,0.0695648193359375
1772641341558750500,1.50775048828125,-0.989349365234375,-0.1246185302734375,0.0699920654296875
1772641341568795100,1.517795166015625,-0.98748779296875,-0.1230010986328125,0.0700836181640625
1772641341578840300,1.52784033203125,-0.9892730712890625,-0.121856689453125,0.07208251953125
1772641341588885200,1.53788525390625,-0.9935760498046875,-0.1219940185546875,0.076263427734375
1772641341598931200,1.54793115234375,-1.0005645751953125,-0.1229705810546875,0.0800018310546875
1772641341608976400,1.557976318359375,-1.0010528564453125,-0.1226959228515625,0.0834808349609375
1772641341619021000,1.56802099609375,-0.997955322265625,-0.1210479736328125,0.086578369140625
1772641341629066200,1.578066162109375,-0.994140625,-0.1234130859375,0.092315673828125
1772641341639112200,1.5881123046875,-0.985443115234375,-0.1298370361328125,0.0978546142578125
1772641341649157400,1.598157470703125,-0.975616455078125,-0.131072998046875,0.1052703857421875
1772641341659202300,1.608202392578125,-0.958740234375,-0.1266021728515625,0.1136016845703125
1772641341669248300,1.618248291015625,-0.9495086669921875,-0.12445068359375,0.122406005859375
1772641341679293400,1.62829345703125,-0.9542388916015625,-0.120452880859375,0.1214141845703125
1772641341689338000,1.638338134765625,-0.976470947265625,-0.1114501953125,0.112701416015625
1772641341699383300,1.64838330078125,-1.0215606689453125,-0.101959228515625,0.10418701171875
1772641341709429200,1.65842919921875,-1.04937744140625,-0.0843048095703125,0.098480224609375
1772641341719474400,1.668474365234375,-1.0555572509765625,-0.0644378662109375,0.0814666748046875
1772641341729519400,1.678519287109375,-1.0621337890625,-0.0507049560546875,0.0658416748046875
1772641341739565300,1.6885654296875,-1.0644378662109375,-0.0424041748046875,0.054290771484375
1772641341749610200,1.6986103515625,-1.0607757568359375,-0.0345611572265625,0.0517120361328125
1772641341759655200,1.7086552734375,-1.0584564208984375,-0.0418853759765625,0.0475616455078125
1772641341769700400,1.718700439453125,-1.042816162109375,-0.032989501953125,0.04742431640625
1772641341779746300,1.728746337890625,-1.036407470703125,-0.0323638916015625,0.045013427734375
1772641341789792500,1.73879248046875,-1.027496337890625,-0.0406646728515625,0.0405426025390625
1772641341799837700,1.748837646484375,-1.0191650390625,-0.045928955078125,0.0385284423828125
1772641341809883600,1.758883544921875,-1.01361083984375,-0.0521697998046875,0.0343017578125
1772641341819928600,1.768928466796875,-1.016204833984375,-0.0583038330078125,0.0262908935546875
1772641341829973500,1.778973388671875,-1.025787353515625,-0.0629730224609375,0.0189361572265625
1772641341840018400,1.789018310546875,-1.0245361328125,-0.06683349609375,0.0145111083984375
1772641341850064600,1.799064697265625,-1.026763916015625,-0.0707550048828125,0.00390625
1772641341860109600,1.809109619140625,-1.03173828125,-0.0682220458984375,0.002716064453125
1772641341870154500,1.819154541015625,-1.0275726318359375,-0.0627899169921875,0.010040283203125
1772641341880199400,1.829199462890625,-1.020751953125,-0.0590057373046875,0.02166748046875
1772641341890245400,1.839245361328125,-1.0109100341796875,-0.0500946044921875,0.03594970703125
1772641341900290600,1.84929052734375,-0.997222900390625,-0.0439300537109375,0.052581787109375
1772641341910335500,1.85933544921875,-0.983795166015625,-0.0413055419921875,0.070068359375
1772641341920381400,1.86938134765625,-0.966400146484375,-0.0408782958984375,0.0879058837890625
1772641341930426600,1.879426513671875,-0.9488372802734375,-0.0412750244140625,0.1023712158203125
1772641341940471600,1.889471435546875,-0.928924560546875,-0.0442962646484375,0.1150970458984375
1772641341950516500,1.8995166015625,-0.91302490234375,-0.04766845703125,0.1233367919921875
1772641341960562400,1.9095625,-0.9041900634765625,-0.04815673828125,0.12811279296875
1772641341970607600,1.919607666015625,-0.9036865234375,-0.0466156005859375,0.1285247802734375
1772641341980652500,1.929652587890625,-0.9049072265625,-0.0418853759765625,0.131317138671875
1772641341990698500,1.939698486328125,-0.9121551513671875,-0.0370635986328125,0.1320037841796875
1772641342000743700,1.94974365234375,-0.924652099609375,-0.0308990478515625,0.1300201416015625
1772641342010788400,1.959788330078125,-0.9273681640625,-0.0248260498046875,0.12786865234375
1772641342020833500,1.96983349609375,-0.918670654296875,-0.01776123046875,0.13275146484375
1772641342030879500,1.97987939453125,-0.9074554443359375,-0.004180908203125,0.1380615234375
1772641342040924700,1.989924560546875,-0.9007568359375,0.0074615478515625,0.1471405029296875
1772641342050969600,1.999969482421875,-0.90240478515625,0.0182037353515625,0.155731201171875
1772641342061015600,2.010015625,-0.91131591796875,0.0265045166015625,0.1596221923828125
1772641342071060500,2.020060546875,-0.9201507568359375,0.037322998046875,0.1654815673828125
1772641342081105400,2.03010546875,-0.928680419921875,0.045074462890625,0.170684814453125
1772641342091150600,2.040150634765625,-0.942840576171875,0.0482635498046875,0.172332763671875
1772641342101196500,2.050196533203125,-0.957977294921875,0.04833984375,0.1760101318359375
1772641342111241500,2.060241455078125,-0.981201171875,0.04058837890625,0.1741790771484375
1772641342121286700,2.07028662109375,-0.978668212890625,0.0198211669921875,0.1631317138671875
1772641342131332600,2.08033251953125,-0.9748382568359375,-0.00250244140625,0.1429290771484375
1772641342141377500,2.09037744140625,-0.96490478515625,-0.0180511474609375,0.1129150390625
1772641342151422500,2.10042236328125,-0.9616546630859375,-0.0368499755859375,0.0937957763671875
1772641342161467600,2.110467529296875,-0.9584503173828125,-0.048583984375,0.0861663818359375
1772641342171513600,2.120513671875,-0.9553985595703125,-0.053924560546875,0.086029052734375
1772641342181558500,2.13055859375,-0.950653076171875,-0.0559234619140625,0.091644287109375
1772641342191603500,2.140603515625,-0.9482879638671875,-0.0537109375,0.0998382568359375
1772641342201648400,2.1506484375,-0.9452667236328125,-0.0527496337890625,0.1075286865234375
1772641342211694600,2.160694580078125,-0.942413330078125,-0.0522918701171875,0.1124267578125
1772641342221739500,2.170739501953125,-0.944091796875,-0.052734375,0.1092376708984375
1772641342231784700,2.18078466796875,-0.94525146484375,-0.0525360107421875,0.1031646728515625
1772641342241830700,2.19083056640625,-0.9527740478515625,-0.0521697998046875,0.0996246337890625
1772641342251875600,2.20087548828125,-0.9611053466796875,-0.0525970458984375,0.09661865234375
1772641342261920500,2.21092041015625,-0.9725799560546875,-0.0511627197265625,0.0948944091796875
1772641342271965400,2.22096533203125,-0.98358154296875,-0.0486907958984375,0.095550537109375
1772641342282011400,2.231011474609375,-0.9950714111328125,-0.0478363037109375,0.096954345703125
1772641342292056600,2.241056640625,-1.0050506591796875,-0.046722412109375,0.09759521484375
1772641342302101500,2.2511015625,-1.0151824951171875,-0.0469818115234375,0.0986328125
1772641342312147700,2.261147705078125,-1.0247650146484375,-0.0498809814453125,0.09844970703125
1772641342322192400,2.2711923828125,-1.0286102294921875,-0.0560760498046875,0.09735107421875
1772641342332237600,2.281237548828125,-1.027984619140625,-0.0635223388671875,0.092742919921875
1772641342342282500,2.291282470703125,-1.02984619140625,-0.0723724365234375,0.0858306884765625
1772641342352328400,2.301328369140625,-1.030975341796875,-0.08258056640625,0.08135986328125
1772641342362373600,2.31137353515625,-1.02850341796875,-0.0922393798828125,0.0797882080078125
1772641342372418600,2.32141845703125,-1.0249481201171875,-0.0982208251953125,0.080078125
1772641342382464800,2.33146484375,-1.023345947265625,-0.1027679443359375,0.0805816650390625
1772641342392509400,2.341509521484375,-1.020843505859375,-0.1071929931640625,0.08221435546875
1772641342402554600,2.3515546875,-1.01678466796875,-0.1122283935546875,0.0824737548828125
1772641342412599600,2.361599609375,-1.0110321044921875,-0.121002197265625,0.083343505859375
1772641342422645500,2.3716455078125,-1.005889892578125,-0.128509521484375,0.0808563232421875
1772641342432690700,2.381690673828125,-0.9995880126953125,-0.13311767578125,0.0785064697265625
1772641342442735400,2.3917353515625,-0.993133544921875,-0.1299896240234375,0.0787506103515625
1772641342452780500,2.401780517578125,-0.99591064453125,-0.1230316162109375,0.0818634033203125
1772641342462826500,2.411826416015625,-1.007965087890625,-0.1107330322265625,0.0885772705078125
1772641342472871400,2.421871337890625,-1.0309906005859375,-0.0967559814453125,0.100677490234375
1772641342482916600,2.43191650390625,-1.058319091796875,-0.091400146484375,0.122528076171875
1772641342492962600,2.441962646484375,-1.075592041015625,-0.100494384765625,0.1497802734375
1772641342503007500,2.452007568359375,-1.0691680908203125,-0.10662841796875,0.1584014892578125
1772641342513052400,2.462052490234375,-1.056427001953125,-0.103973388671875,0.14703369140625
1772641342523097600,2.47209765625,-1.0557861328125,-0.1166534423828125,0.1375274658203125
1772641342533143600,2.4821435546875,-1.0593719482421875,-0.1321563720703125,0.1310577392578125
1772641342543188500,2.4921884765625,-1.056732177734375,-0.121551513671875,0.104522705078125
1772641342553233700,2.502233642578125,-1.0700836181640625,-0.0977630615234375,0.0750885009765625
1772641342563279600,2.512279541015625,-1.10137939453125,-0.0685272216796875,0.0538482666015625
1772641342573324500,2.522324462890625,-1.1363983154296875,-0.035858154296875,0.049957275390625
1772641342583369500,2.532369384765625,-1.15692138671875,-0.0058135986328125,0.0641021728515625
1772641342593414700,2.54241455078125,-1.16217041015625,0.0193328857421875,0.0848236083984375
1772641342603460600,2.552460693359375,-1.1508636474609375,0.0361328125,0.1045379638671875
1772641342613505500,2.562505615234375,-1.1462249755859375,0.0453948974609375,0.1122283935546875
1772641342623550500,2.572550537109375,-1.130157470703125,0.0458831787109375,0.107879638671875
1772641342633595400,2.582595458984375,-1.1127471923828125,0.0418243408203125,0.0993194580078125
1772641342643641300,2.592641357421875,-1.0751800537109375,0.0315093994140625,0.090484619140625
1772641342653686500,2.6026865234375,-1.04327392578125,0.0206451416015625,0.087188720703125
1772641342663731500,2.6127314453125,-1.0052490234375,0.0175628662109375,0.0875396728515625
1772641342673777700,2.622777587890625,-0.966033935546875,0.015289306640625,0.0925750732421875
1772641342683822600,2.632822509765625,-0.9271240234375,0.0126495361328125,0.1030120849609375
1772641342693867500,2.642867431640625,-0.8869171142578125,0.0086669921875,0.1136474609375
1772641342703912400,2.652912353515625,-0.85223388671875,0.0118560791015625,0.1201324462890625
1772641342713958400,2.66295849609375,-0.827239990234375,0.0110931396484375,0.117767333984375
1772641342724003600,2.673003662109375,-0.8110809326171875,0.0098724365234375,0.105621337890625
1772641342734048500,2.683048583984375,-0.8124542236328125,0.009002685546875,0.088409423828125
1772641342744094700,2.6930947265625,-0.827606201171875,0.00439453125,0.070159912109375
1772641342754139400,2.703139404296875,-0.8408966064453125,-0.0011749267578125,0.0534515380859375
1772641342764184600,2.7131845703125,-0.8490447998046875,-0.0091552734375,0.04345703125
1772641342774229500,2.7232294921875,-0.8473663330078125,-0.0151519775390625,0.0303192138671875
1772641342784274000,2.73327392578125,-0.842803955078125,-0.0211181640625,0.017364501953125
1772641342794318800,2.74331884765625,-0.8409423828125,-0.0262603759765625,0.0016021728515625
1772641342804363800,2.75336376953125,-0.8354644775390625,-0.0219268798828125,-0.0121307373046875
1772641342814409700,2.76340966796875,-0.8376617431640625,-0.013702392578125,-0.01495361328125
1772641342824455000,2.773454833984375,-0.8516693115234375,-0.000244140625,-0.0074310302734375
1772641342834499800,2.783499755859375,-0.8772125244140625,0.015289306640625,0.009124755859375
1772641342844544800,2.793544677734375,-0.902801513671875,0.028106689453125,0.0277557373046875
1772641342854591000,2.803591064453125,-0.9292449951171875,0.038909912109375,0.044647216796875
1772641342864635600,2.8136357421875,-0.9534912109375,0.0413665771484375,0.053741455078125
1772641342874680800,2.823680908203125,-0.97418212890625,0.0360107421875,0.052154541015625
1772641342884726800,2.833726806640625,-0.9887237548828125,0.0256805419921875,0.046173095703125
1772641342894771700,2.843771728515625,-0.99920654296875,0.01324462890625,0.040435791015625
1772641342904817000,2.85381689453125,-1.004730224609375,-0.0008697509765625,0.03662109375
1772641342914861800,2.86386181640625,-1.0006866455078125,-0.0151824951171875,0.033660888671875
1772641342924908000,2.873907958984375,-0.99029541015625,-0.0345916748046875,0.033050537109375
1772641342934952700,2.88395263671875,-0.9749908447265625,-0.053985595703125,0.03631591796875
1772641342944998000,2.893997802734375,-0.9605560302734375,-0.0699920654296875,0.040802001953125
1772641342955042800,2.904042724609375,-0.95068359375,-0.0834197998046875,0.0392913818359375
1772641342965088800,2.9140888671875,-0.944793701171875,-0.0915985107421875,0.0415802001953125
1772641342975134000,2.924134033203125,-0.9423675537109375,-0.094696044921875,0.0489959716796875
1772641342985178600,2.9341787109375,-0.9496917724609375,-0.094207763671875,0.043487548828125
1772641342995224800,2.944224853515625,-0.967315673828125,-0.09906005859375,0.0380096435546875
1772641343005269800,2.954269775390625,-0.971923828125,-0.101165771484375,0.0354461669921875
1772641343015315000,2.96431494140625,-0.9726715087890625,-0.0964202880859375,0.035308837890625
1772641343025360000,2.97435986328125,-0.97552490234375,-0.0879364013671875,0.04345703125
1772641343035405800,2.98440576171875,-0.9841766357421875,-0.07940673828125,0.05474853515625
1772641343045451000,2.994450927734375,-0.990570068359375,-0.0696563720703125,0.0654296875
1772641343055495700,3.00449560546875,-0.9929962158203125,-0.0568695068359375,0.0766754150390625
1772641343065541600,3.014541748046875,-0.9947357177734375,-0.0482635498046875,0.08612060546875
1772641343075586800,3.0245869140625,-0.998382568359375,-0.041229248046875,0.0918426513671875
1772641343085631700,3.0346318359375,-1.0023040771484375,-0.0388946533203125,0.09490966796875
1772641343095677000,3.044677001953125,-1.0106964111328125,-0.03802490234375,0.0972442626953125
1772641343105723000,3.054722900390625,-1.0143280029296875,-0.038543701171875,0.100311279296875
1772641343115767800,3.064767822265625,-1.01190185546875,-0.042572021484375,0.1019439697265625
1772641343125812700,3.074812744140625,-1.0077972412109375,-0.0472564697265625,0.1013641357421875
1772641343135858700,3.084858642578125,-1.0039215087890625,-0.052459716796875,0.0964202880859375
1772641343145903900,3.09490380859375,-0.9986114501953125,-0.061614990234375,0.0927734375
1772641343155948800,3.10494873046875,-0.994049072265625,-0.07257080078125,0.09130859375
1772641343165994000,3.114993896484375,-0.9920196533203125,-0.0839385986328125,0.091217041015625
1772641343176040000,3.1250400390625,-0.9866943359375,-0.0923919677734375,0.0934906005859375
1772641343186084900,3.1350849609375,-0.9863128662109375,-0.1013336181640625,0.0927734375
1772641343196129800,3.1451298828125,-0.9925384521484375,-0.1097412109375,0.088287353515625
1772641343206175000,3.155175048828125,-1.000152587890625,-0.115753173828125,0.0827789306640625
1772641343216221000,3.165220947265625,-1.0004425048828125,-0.12091064453125,0.0751190185546875
1772641343226265900,3.175265869140625,-1.0054473876953125,-0.12725830078125,0.07574462890625
1772641343236310800,3.185310791015625,-1.0104217529296875,-0.124420166015625,0.0803375244140625
1772641343246356700,3.195356689453125,-1.016021728515625,-0.119384765625,0.09185791015625
1772641343256401700,3.205401611328125,-1.0233154296875,-0.11065673828125,0.105010986328125
1772641343266446800,3.21544677734375,-1.0289764404296875,-0.097808837890625,0.1160125732421875
1772641343276491800,3.22549169921875,-1.0382843017578125,-0.084136962890625,0.125457763671875
1772641343286538000,3.2355380859375,-1.04595947265625,-0.0757293701171875,0.130615234375
1772641343296583000,3.2455830078125,-1.053558349609375,-0.0661163330078125,0.1384735107421875
1772641343306627800,3.2556279296875,-1.061004638671875,-0.0589447021484375,0.13934326171875
1772641343316673800,3.265673828125,-1.0679779052734375,-0.0538482666015625,0.1419525146484375
1772641343326718700,3.27571875,-1.068206787109375,-0.0519561767578125,0.142120361328125
1772641343336764000,3.285763916015625,-1.06683349609375,-0.063568115234375,0.147857666015625
1772641343346808800,3.295808837890625,-1.0533294677734375,-0.0822296142578125,0.15118408203125
1772641343356855000,3.30585498046875,-1.029205322265625,-0.100128173828125,0.1455535888671875
1772641343366899700,3.315899658203125,-1.018218994140625,-0.1109619140625,0.1337738037109375
1772641343376945000,3.32594482421875,-1.022613525390625,-0.118621826171875,0.12994384765625
1772641343386990800,3.335990966796875,-1.0367584228515625,-0.1260223388671875,0.1251983642578125
1772641343397035800,3.346035888671875,-1.052734375,-0.1180572509765625,0.115386962890625
1772641343407081000,3.3560810546875,-1.0741119384765625,-0.091033935546875,0.100555419921875
1772641343417126000,3.3661259765625,-1.1020965576171875,-0.0626373291015625,0.0878753662109375
1772641343427171600,3.376171630859375,-1.135009765625,-0.039794921875,0.07635498046875
1772641343437216800,3.386216796875,-1.1553497314453125,-0.0140838623046875,0.07489013671875
1772641343447261700,3.39626171875,-1.1413421630859375,0.01702880859375,0.0768890380859375
1772641343457307000,3.406306884765625,-1.1661834716796875,0.03997802734375,0.08782958984375
1772641343467352800,3.416352783203125,-1.1575927734375,0.0579071044921875,0.0943145751953125
1772641343477398000,3.42639794921875,-1.1432342529296875,0.0725250244140625,0.095184326171875
1772641343487442700,3.436442626953125,-1.1475677490234375,0.0933074951171875,0.0995330810546875
1772641343497488600,3.446488525390625,-1.1082305908203125,0.090850830078125,0.09393310546875
1772641343507533800,3.456533935546875,-1.081512451171875,0.0832672119140625,0.085601806640625
1772641343517578800,3.466578857421875,-1.0471649169921875,0.0785675048828125,0.074005126953125
1772641343527624000,3.4766240234375,-1.0187835693359375,0.06903076171875,0.065277099609375
1772641343537670000,3.486669921875,-0.985626220703125,0.055877685546875,0.0549774169921875
1772641343547714800,3.49671484375,-0.9547882080078125,0.041839599609375,0.05511474609375
1772641343557759700,3.506759765625,-0.92010498046875,0.0261993408203125,0.063720703125
1772641343567805700,3.5168056640625,-0.880615234375,0.0175628662109375,0.066192626953125
1772641343577851000,3.526850830078125,-0.8529205322265625,0.0106353759765625,0.068267822265625
1772641343587895800,3.536895751953125,-0.8079833984375,-0.001678466796875,0.0725555419921875
1772641343597941000,3.54694091796875,-0.7928314208984375,-0.0071563720703125,0.0814361572265625
1772641343607987000,3.556987060546875,-0.77947998046875,-0.0033416748046875,0.0877532958984375
1772641343618031600,3.567031494140625,-0.768707275390625,-0.0020294189453125,0.082611083984375
1772641343628076800,3.577076904296875,-0.7865142822265625,-0.0010986328125,0.077850341796875
1772641343638122800,3.587122802734375,-0.7963714599609375,0.0041351318359375,0.0762786865234375
1772641343648168000,3.59716796875,-0.8071441650390625,0.0091705322265625,0.081756591796875
1772641343658212900,3.607212890625,-0.8111572265625,0.0144500732421875,0.0883026123046875
1772641343668257800,3.6172578125,-0.817352294921875,0.0191497802734375,0.0944366455078125
1772641343678303700,3.6273037109375,-0.824920654296875,0.0238494873046875,0.094970703125
1772641343688348700,3.6373486328125,-0.8369903564453125,0.031982421875,0.1006622314453125
1772641343698393900,3.647393798828125,-0.8618621826171875,0.039276123046875,0.10821533203125
1772641343708438800,3.657438720703125,-0.8867340087890625,0.0464630126953125,0.11895751953125
1772641343718485000,3.667485107421875,-0.908111572265625,0.05401611328125,0.1256866455078125
1772641343728530000,3.677530029296875,-0.933502197265625,0.0613861083984375,0.1307373046875
1772641343738574800,3.687574951171875,-0.960205078125,0.0699005126953125,0.1392822265625
1772641343748620800,3.697620849609375,-0.9859161376953125,0.0744781494140625,0.1448822021484375
1772641343758665700,3.707665771484375,-1.007293701171875,0.076019287109375,0.1427764892578125
1772641343768711000,3.7177109375,-1.0305633544921875,0.0677490234375,0.129547119140625
1772641343778755800,3.727755859375,-1.0563812255859375,0.052703857421875,0.115020751953125
1772641343788802300,3.73780224609375,-1.06915283203125,0.03460693359375,0.0989990234375
1772641343798847200,3.74784716796875,-1.0693511962890625,0.016448974609375,0.0836181640625
1772641343808892200,3.75789208984375,-1.065887451171875,-0.000823974609375,0.0721588134765625
1772641343818938400,3.7679384765625,-1.061279296875,-0.0151519775390625,0.065582275390625
1772641343828983300,3.7779833984375,-1.0558013916015625,-0.029998779296875,0.060089111328125
1772641343839028500,3.788028564453125,-1.0525360107421875,-0.04461669921875,0.059539794921875
1772641343849073200,3.7980732421875,-1.0388031005859375,-0.055419921875,0.0567779541015625
1772641343859119000,3.808119140625,-1.0202484130859375,-0.065826416015625,0.053680419921875
1772641343869164300,3.818164306640625,-1.0011749267578125,-0.0726470947265625,0.053253173828125
1772641343879209200,3.828209228515625,-0.9885406494140625,-0.0744476318359375,0.05975341796875
1772641343889254400,3.83825439453125,-0.9731597900390625,-0.075958251953125,0.070159912109375
1772641343899300400,3.84830029296875,-0.957000732421875,-0.0746307373046875,0.0846405029296875
1772641343909345300,3.85834521484375,-0.944091796875,-0.0728302001953125,0.0968780517578125
1772641343919390200,3.86839013671875,-0.936187744140625,-0.0691680908203125,0.1056365966796875
1772641343929436200,3.878436279296875,-0.934112548828125,-0.0649261474609375,0.1141510009765625
1772641343939481300,3.8884814453125,-0.9334564208984375,-0.0639801025390625,0.127166748046875
1772641343949526300,3.8985263671875,-0.9348907470703125,-0.0621185302734375,0.1376800537109375
1772641343959571500,3.908571533203125,-0.94244384765625,-0.0574493408203125,0.14312744140625
1772641343969617400,3.918617431640625,-0.9489898681640625,-0.0529937744140625,0.1503143310546875
1772641343979662000,3.928662109375,-0.9583587646484375,-0.0488739013671875,0.1591644287109375
1772641343989707300,3.938707275390625,-0.96807861328125,-0.0404052734375,0.1651458740234375
1772641343999753200,3.948753173828125,-0.9801025390625,-0.0351715087890625,0.1685943603515625
1772641344009798400,3.95879833984375,-0.9892120361328125,-0.03485107421875,0.1762542724609375
1772641344019843300,3.96884326171875,-0.989990234375,-0.03558349609375,0.184844970703125
1772641344029888500,3.978888427734375,-0.9804840087890625,-0.040496826171875,0.189453125
1772641344039934500,3.9889345703125,-0.9671783447265625,-0.0487213134765625,0.189453125
1772641344049979100,3.998979248046875,-0.9575042724609375,-0.0620269775390625,0.185577392578125
1772641344060024300,4.0090244140625,-0.9489898681640625,-0.0739898681640625,0.176116943359375
1772641344070070300,4.0190703125,-0.944366455078125,-0.08551025390625,0.1664276123046875
1772641344080115200,4.029115234375,-0.9467926025390625,-0.0931396484375,0.158233642578125
1772641344090160400,4.039160400390625,-0.9529876708984375,-0.0983428955078125,0.1488800048828125
1772641344100205000,4.049205078125,-0.961212158203125,-0.1051025390625,0.1392822265625
1772641344110251300,4.059251220703125,-0.9679107666015625,-0.1105804443359375,0.1338958740234375
1772641344120296200,4.069296142578125,-0.9735260009765625,-0.1142120361328125,0.132659912109375
1772641344130341400,4.07934130859375,-0.9775390625,-0.1152191162109375,0.126373291015625
1772641344140387300,4.08938720703125,-0.977569580078125,-0.1181793212890625,0.119659423828125
1772641344150432300,4.099432373046875,-0.9985198974609375,-0.1169586181640625,0.1113739013671875
1772641344160477200,4.109477294921875,-1.0105133056640625,-0.11273193359375,0.1082916259765625
1772641344170522000,4.119522216796875,-1.0225677490234375,-0.10784912109375,0.1092987060546875
1772641344180568300,4.129568359375,-1.0306549072265625,-0.0996246337890625,0.109283447265625
1772641344190613200,4.13961328125,-1.0402984619140625,-0.0951385498046875,0.108489990234375
1772641344200658400,4.149658447265625,-1.0489654541015625,-0.08880615234375,0.1062164306640625
1772641344210703400,4.159703369140625,-1.0576934814453125,-0.0853118896484375,0.1056671142578125
1772641344220749300,4.169749267578125,-1.0604400634765625,-0.088165283203125,0.1104736328125
1772641344230794200,4.179794189453125,-1.06378173828125,-0.0979461669921875,0.1207427978515625
1772641344240839200,4.189839111328125,-1.0623779296875,-0.1173095703125,0.134796142578125
1772641344250885400,4.199885498046875,-1.0540618896484375,-0.1380767822265625,0.135772705078125
1772641344260930300,4.209930419921875,-1.055206298828125,-0.1414337158203125,0.122894287109375
1772641344270975200,4.219975341796875,-1.0789031982421875,-0.1371612548828125,0.122772216796875
1772641344281020200,4.230020263671875,-1.1014862060546875,-0.1395263671875,0.13623046875
1772641344291066000,4.240066162109375,-1.118682861328125,-0.1279449462890625,0.139923095703125
1772641344301111300,4.250111328125,-1.1178131103515625,-0.09844970703125,0.126312255859375
1772641344311156200,4.26015625,-1.1194305419921875,-0.068756103515625,0.10516357421875
1772641344321202200,4.2702021484375,-1.124114990234375,-0.0378265380859375,0.097381591796875
1772641344331247400,4.280247314453125,-1.139923095703125,-0.014190673828125,0.1070404052734375
1772641344341292300,4.290292236328125,-1.1648712158203125,0.00921630859375,0.1096038818359375
1772641344351337200,4.300337158203125,-1.1653594970703125,0.0333404541015625,0.1193389892578125
1772641344361383200,4.310383056640625,-1.163177490234375,0.0366973876953125,0.12322998046875
1772641344371428400,4.320428466796875,-1.1769866943359375,0.045257568359375,0.12127685546875
1772641344381473300,4.330473388671875,-1.1551361083984375,0.046295166015625,0.11297607421875
1772641344391519200,4.340519287109375,-1.1411895751953125,0.0417938232421875,0.10882568359375
1772641344401564400,4.350564453125,-1.09613037109375,0.01690673828125,0.1116180419921875
1772641344411609000,4.360609130859375,-1.0520477294921875,0.0023193359375,0.1078033447265625
1772641344421654300,4.370654296875,-1.0112762451171875,0.0058746337890625,0.1027374267578125
1772641344431700200,4.3807001953125,-0.966064453125,-0.0024871826171875,0.100372314453125
1772641344441745400,4.390745361328125,-0.933807373046875,-0.014251708984375,0.109344482421875
1772641344451790300,4.400790283203125,-0.8940582275390625,-0.0252685546875,0.126983642578125
1772641344461836300,4.410836181640625,-0.852142333984375,-0.0144195556640625,0.1195068359375
1772641344471881500,4.420881591796875,-0.8189239501953125,-0.0126495361328125,0.1038818359375
1772641344481926100,4.430926025390625,-0.8054656982421875,-0.018035888671875,0.0872955322265625
1772641344491971300,4.440971435546875,-0.799896240234375,-0.0196533203125,0.0640411376953125
1772641344502017300,4.451017333984375,-0.8076324462890625,-0.0204010009765625,0.035552978515625
1772641344512062200,4.461062255859375,-0.8195343017578125,-0.024017333984375,0.01568603515625
1772641344522107400,4.471107421875,-0.8272552490234375,-0.02734375,0.0085906982421875
1772641344532152000,4.481152099609375,-0.830047607421875,-0.027496337890625,0.0136260986328125
1772641344542198300,4.4911982421875,-0.8273162841796875,-0.0271759033203125,0.0255279541015625
1772641344552243200,4.5012431640625,-0.8270111083984375,-0.024566650390625,0.0408935546875
1772641344562288400,4.511288330078125,-0.8301544189453125,-0.01904296875,0.0554046630859375
1772641344572334300,4.521334228515625,-0.8426361083984375,-0.0173797607421875,0.0647430419921875
1772641344582379300,4.531379150390625,-0.868621826171875,-0.0155792236328125,0.06768798828125
1772641344592424400,4.541424560546875,-0.8951568603515625,-0.013458251953125,0.0613555908203125
1772641344602469000,4.55146923828125,-0.9246063232421875,-0.01123046875,0.052734375
1772641344612515300,4.561515380859375,-0.9479827880859375,-0.006988525390625,0.0481109619140625
1772641344622560300,4.571560302734375,-0.9796295166015625,-0.0027923583984375,0.0431060791015625
1772641344632605400,4.58160546875,-0.991058349609375,-0.0023651123046875,0.0429534912109375
1772641344642651400,4.5916513671875,-0.9864959716796875,-0.006927490234375,0.048858642578125
1772641344652696300,4.6016962890625,-0.9708404541015625,-0.0199127197265625,0.054046630859375
1772641344662741200,4.6117412109375,-0.951995849609375,-0.039886474609375,0.05548095703125
1772641344672786200,4.6217861328125,-0.934844970703125,-0.0627899169921875,0.05242919921875
1772641344682832100,4.63183203125,-0.9154052734375,-0.0879364013671875,0.042633056640625
1772641344692877300,4.641877197265625,-0.8997650146484375,-0.10894775390625,0.030670166015625
1772641344702922200,4.651922119140625,-0.8938140869140625,-0.1260223388671875,0.0159454345703125
1772641344712968400,4.661968505859375,-0.8990020751953125,-0.1409454345703125,0.0059661865234375
1772641344723013000,4.67201318359375,-0.9087066650390625,-0.1497802734375,-0.000518798828125
1772641344733058300,4.682058349609375,-0.9153900146484375,-0.1504974365234375,-0.0039520263671875
1772641344743103200,4.692103271484375,-0.9221649169921875,-0.146820068359375,-0.0045318603515625
1772641344753149200,4.702149169921875,-0.93316650390625,-0.142333984375,-0.00067138671875
1772641344763194400,4.7121943359375,-0.944427490234375,-0.13775634765625,0.01043701171875
1772641344773239300,4.7222392578125,-0.9585418701171875,-0.13287353515625,0.0239410400390625
1772641344783284200,4.7322841796875,-0.970367431640625,-0.125640869140625,0.0355682373046875
1772641344793330700,4.74233056640625,-0.9797210693359375,-0.1185302734375,0.0441131591796875
1772641344803375600,4.752375732421875,-0.9929656982421875,-0.11187744140625,0.04962158203125
1772641344813420800,4.7624208984375,-1.003143310546875,-0.107666015625,0.0546875
1772641344823466800,4.772466796875,-1.0158538818359375,-0.1015167236328125,0.063812255859375
1772641344833512000,4.782511962890625,-1.02252197265625,-0.0944671630859375,0.0745849609375
1772641344843556900,4.792556884765625,-1.0236968994140625,-0.0909576416015625,0.08251953125
1772641344853601800,4.802601806640625,-1.02520751953125,-0.0888824462890625,0.08551025390625
1772641344863647700,4.812647705078125,-1.0283203125,-0.087493896484375,0.0888519287109375
1772641344873692700,4.822692626953125,-1.025421142578125,-0.0876922607421875,0.0894012451171875
1772641344883737900,4.83273779296875,-1.0209808349609375,-0.0904388427734375,0.0871734619140625
1772641344893783800,4.84278369140625,-1.014190673828125,-0.094024658203125,0.08642578125
1772641344903828700,4.852828857421875,-1.0081329345703125,-0.0986328125,0.0853729248046875
1772641344913873700,4.862873779296875,-1.002105712890625,-0.1026153564453125,0.087646484375
1772641344923918800,4.8729189453125,-0.99041748046875,-0.1079864501953125,0.0900421142578125
1772641344933964800,4.88296484375,-0.98370361328125,-0.112884521484375,0.0916290283203125
1772641344944009700,4.893009765625,-0.98291015625,-0.1154022216796875,0.08636474609375
1772641344954055000,4.903054931640625,-0.9865264892578125,-0.118499755859375,0.079193115234375
1772641344964100900,4.913100830078125,-0.993927001953125,-0.120880126953125,0.0728607177734375
1772641344974145800,4.923145751953125,-0.9979248046875,-0.1205291748046875,0.0668487548828125
1772641344984190700,4.933190673828125,-1.0016326904296875,-0.1219482421875,0.0664215087890625
1772641344994235600,4.943235595703125,-1.004730224609375,-0.119903564453125,0.067779541015625
1772641345004281900,4.95328173828125,-1.0020294189453125,-0.1164398193359375,0.071563720703125
1772641345014326800,4.963326904296875,-1.0051727294921875,-0.1111297607421875,0.08245849609375
1772641345024372000,4.9733720703125,-1.0103912353515625,-0.1025238037109375,0.0943450927734375
1772641345034416600,4.983416748046875,-1.018035888671875,-0.094085693359375,0.1044158935546875
1772641345044462600,4.993462646484375,-1.023895263671875,-0.0881195068359375,0.109649658203125
1772641345054507800,5.0035078125,-1.029052734375,-0.081634521484375,0.110504150390625
1772641345064552700,5.013552734375,-1.0364837646484375,-0.084075927734375,0.120635986328125
1772641345074599000,5.023598876953125,-1.028564453125,-0.0864715576171875,0.1345062255859375
1772641345084643800,5.033643798828125,-1.005218505859375,-0.08697509765625,0.1414031982421875
1772641345094688800,5.043688720703125,-0.9785614013671875,-0.084686279296875,0.158599853515625
1772641345104733700,5.053733642578125,-0.9725799560546875,-0.0896148681640625,0.166717529296875
1772641345114779600,5.063779541015625,-0.978759765625,-0.092681884765625,0.167083740234375
1772641345124824800,5.073824951171875,-0.99798583984375,-0.08135986328125,0.1409759521484375
1772641345134869800,5.083869873046875,-1.0424346923828125,-0.0667877197265625,0.0996551513671875
1772641345144915700,5.093915771484375,-1.09442138671875,-0.05572509765625,0.058349609375
1772641345154961000,5.1039609375,-1.1166534423828125,-0.041290283203125,0.0317840576171875
1772641345165005600,5.114005615234375,-1.1484527587890625,-0.0179290771484375,0.0144195556640625
1772641345175050800,5.12405078125,-1.1668243408203125,0.00604248046875,0.0034027099609375
1772641345185096700,5.1340966796875,-1.1968231201171875,0.029205322265625,0.016265869140625
1772641345195142000,5.144141845703125,-1.1876068115234375,0.04656982421875,0.033050537109375
1772641345205186800,5.154186767578125,-1.163726806640625,0.0539703369140625,0.0460968017578125
1772641345215232800,5.164232666015625,-1.134429931640625,0.056060791015625,0.055999755859375
1772641345225277700,5.174277587890625,-1.10272216796875,0.049957275390625,0.060150146484375
1772641345235322600,5.184322509765625,-1.0759735107421875,0.035247802734375,0.0470733642578125
1772641345245367800,5.194367919921875,-1.0548858642578125,0.0174102783203125,0.0251922607421875
1772641345255413800,5.204413818359375,-1.0328216552734375,-0.0001068115234375,0.0074920654296875
1772641345265459000,5.214458984375,-1.0056304931640625,-0.0135345458984375,-0.0040130615234375
1772641345275503900,5.22450390625,-0.97906494140625,-0.0242767333984375,-0.0095977783203125
1772641345285548800,5.234548828125,-0.95361328125,-0.03192138671875,-0.016845703125
1772641345295594800,5.2445947265625,-0.9293975830078125,-0.0368804931640625,-0.0127716064453125
1772641345305639700,5.2546396484375,-0.9019012451171875,-0.037506103515625,0.0041351318359375
1772641345315684900,5.264684814453125,-0.8777923583984375,-0.039520263671875,0.0283203125
1772641345325730800,5.274730712890625,-0.8565216064453125,-0.039276123046875,0.055694580078125
1772641345335775700,5.284775634765625,-0.8282623291015625,-0.041351318359375,0.0792236328125
1772641345345820700,5.294820556640625,-0.8162841796875,-0.0433807373046875,0.09527587890625
1772641345355865600,5.304865478515625,-0.801300048828125,-0.045806884765625,0.10601806640625
1772641345365911800,5.314911865234375,-0.80999755859375,-0.0467376708984375,0.1168670654296875
1772641345375956700,5.324956787109375,-0.82379150390625,-0.04742431640625,0.1242828369140625
1772641345386002000,5.335001953125,-0.843292236328125,-0.05023193359375,0.1248931884765625
1772641345396048000,5.3450478515625,-0.867828369140625,-0.04498291015625,0.119781494140625
1772641345406092800,5.3550927734375,-0.89288330078125,-0.0368499755859375,0.1153106689453125
1772641345416137700,5.3651376953125,-0.9163055419921875,-0.031585693359375,0.1086883544921875
1772641345426182700,5.3751826171875,-0.93682861328125,-0.02117919921875,0.1009368896484375
1772641345436228900,5.385228759765625,-0.9493560791015625,-0.0124664306640625,0.0981597900390625
1772641345446273800,5.395273681640625,-0.9565582275390625,-0.006683349609375,0.1040496826171875
1772641345456319000,5.405319091796875,-0.955474853515625,0.005645751953125,0.11712646484375
1772641345466363600,5.41536376953125,-0.957977294921875,0.022125244140625,0.1330718994140625
1772641345476409600,5.42540966796875,-0.96295166015625,0.0346527099609375,0.1497039794921875
1772641345486454800,5.435454833984375,-0.9677886962890625,0.04534912109375,0.16168212890625
1772641345496499700,5.445499755859375,-0.9884185791015625,0.051849365234375,0.18212890625
1772641345506545700,5.455545654296875,-0.99481201171875,0.045928955078125,0.1776275634765625
1772641345516590800,5.4655908203125,-1.0173797607421875,0.0446929931640625,0.185455322265625
1772641345526635800,5.4756357421875,-1.0164642333984375,0.029144287109375,0.1846771240234375
1772641345536680700,5.4856806640625,-1.014556884765625,0.0069122314453125,0.1669921875
1772641345546726700,5.4957265625,-1.00732421875,-0.012451171875,0.1472625732421875
1772641345556771800,5.505771728515625,-0.992950439453125,-0.0290374755859375,0.13153076171875
1772641345566816800,5.515816650390625,-0.9804534912109375,-0.045379638671875,0.120269775390625
1772641345576862700,5.52586279296875,-0.967681884765625,-0.059417724609375,0.1171112060546875
1772641345586908000,5.535907958984375,-0.9565582275390625,-0.069061279296875,0.116363525390625
1772641345596952600,5.54595263671875,-0.9520416259765625,-0.0733489990234375,0.1152191162109375
1772641345606997800,5.555997802734375,-0.9524688720703125,-0.07379150390625,0.116790771484375
1772641345617043700,5.566043701171875,-0.957489013671875,-0.0723114013671875,0.1181182861328125
1772641345627089000,5.5760888671875,-0.9631195068359375,-0.0681304931640625,0.12091064453125
1772641345637133800,5.5861337890625,-0.973907470703125,-0.0626220703125,0.1256866455078125
1772641345647179000,5.596178955078125,-0.98187255859375,-0.0600433349609375,0.1336212158203125
1772641345657225000,5.606224853515625,-0.99432373046875,-0.05633544921875,0.140228271484375
1772641345667269600,5.61626953125,-1.00286865234375,-0.0549468994140625,0.1485595703125
1772641345677314800,5.626314697265625,-1.004608154296875,-0.0548858642578125,0.153411865234375
1772641345687360800,5.63636083984375,-1.0076904296875,-0.051361083984375,0.1508636474609375
1772641345697405700,5.64640576171875,-1.0131072998046875,-0.046478271484375,0.1455535888671875
1772641345707451000,5.656450927734375,-1.0198974609375,-0.03448486328125,0.1431121826171875
1772641345717495600,5.66649560546875,-1.0391845703125,-0.0231781005859375,0.146484375
1772641345727541800,5.676541748046875,-1.06671142578125,-0.016571044921875,0.1513824462890625
1772641345737586700,5.686586669921875,-1.08349609375,-0.0142822265625,0.15875244140625
1772641345747631900,5.6966318359375,-1.0851287841796875,-0.0171051025390625,0.16180419921875
1772641345757677800,5.706677734375,-1.0772705078125,-0.026641845703125,0.15728759765625
1772641345767722800,5.71672265625,-1.051513671875,-0.04278564453125,0.1480255126953125
1772641345777768000,5.726767822265625,-1.018829345703125,-0.0578155517578125,0.14007568359375
1772641345787812900,5.736812744140625,-0.9905242919921875,-0.0715179443359375,0.13134765625
1772641345797859000,5.746859130859375,-0.972259521484375,-0.0867767333984375,0.1241455078125
1772641345807904000,5.756904052734375,-0.9583740234375,-0.105682373046875,0.1182098388671875
1772641345817949200,5.76694921875,-0.948272705078125,-0.118377685546875,0.1107940673828125
1772641345827995100,5.7769951171875,-0.937255859375,-0.1220245361328125,0.103240966796875
1772641345838039800,5.787039794921875,-0.9286041259765625,-0.12445068359375,0.1078643798828125
1772641345848085000,5.7970849609375,-0.9219207763671875,-0.129425048828125,0.115020751953125
1772641345858130000,5.8071298828125,-0.9237060546875,-0.13177490234375,0.120208740234375
1772641345868176000,5.81717578125,-0.9259490966796875,-0.1348876953125,0.1212615966796875
1772641345878221000,5.827220947265625,-0.921417236328125,-0.13470458984375,0.119415283203125
1772641345888265700,5.837265625,-0.92279052734375,-0.1318206787109375,0.121734619140625
1772641345898311000,5.847310791015625,-0.9281768798828125,-0.128448486328125,0.125244140625
1772641345908356900,5.85735693359375,-0.937896728515625,-0.1239776611328125,0.127685546875
1772641345918402000,5.867402099609375,-0.94866943359375,-0.118438720703125,0.1319122314453125
1772641345928447000,5.877447021484375,-0.963409423828125,-0.11224365234375,0.1342010498046875
1772641345938493000,5.887492919921875,-0.978607177734375,-0.105743408203125,0.1367340087890625
1772641345948538000,5.8975380859375,-0.992340087890625,-0.1026611328125,0.14105224609375
1772641345958582800,5.907582763671875,-1.0054473876953125,-0.108978271484375,0.1474151611328125
1772641345968628000,5.9176279296875,-1.013763427734375,-0.123443603515625,0.158782958984375
1772641345978674000,5.927673828125,-1.0129547119140625,-0.1425933837890625,0.16046142578125
1772641345988719000,5.937718994140625,-1.0147247314453125,-0.15106201171875,0.146881103515625
1772641345998764000,5.947763916015625,-1.016632080078125,-0.152008056640625,0.1287384033203125
1772641346008810000,5.95781005859375,-1.0124053955078125,-0.1558380126953125,0.1096954345703125
1772641346018855000,5.96785498046875,-1.01171875,-0.1528167724609375,0.087646484375
1772641346028899800,5.97789990234375,-1.0117950439453125,-0.1326904296875,0.0582427978515625
1772641346038945000,5.987945068359375,-1.023162841796875,-0.0944976806640625,0.0373077392578125
1772641346048991000,5.997990966796875,-1.04864501953125,-0.0530853271484375,0.04229736328125
1772641346059036000,6.008035888671875,-1.07476806640625,-0.0181884765625,0.071685791015625
1772641346069080800,6.018080810546875,-1.0901641845703125,0.0078582763671875,0.1079559326171875
1772641346079125800,6.028125732421875,-1.0975341796875,0.0294189453125,0.1313323974609375
1772641346089172000,6.038171875,-1.0931396484375,0.043121337890625,0.1314544677734375
1772641346099217000,6.048216796875,-1.0948028564453125,0.052520751953125,0.1189727783203125
1772641346109262000,6.058261962890625,-1.0968170166015625,0.0475311279296875,0.102447509765625
1772641346119308000,6.06830810546875,-1.0966949462890625,0.037109375,0.0863189697265625
1772641346129353000,6.07835302734375,-1.084442138671875,0.025604248046875,0.0738372802734375
1772641346139398000,6.08839794921875,-1.0652008056640625,0.01702880859375,0.0668182373046875
1772641346149442800,6.09844287109375,-1.0303802490234375,0.01171875,0.069122314453125
1772641346159489000,6.108489013671875,-0.9974822998046875,0.00848388671875,0.07623291015625
1772641346169534000,6.118533935546875,-0.9566802978515625,0.0045318603515625,0.0874176025390625
1772641346179579100,6.1285791015625,-0.9324951171875,0.0007476806640625,0.099945068359375
1772641346189625000,6.138625,-0.8951873779296875,-0.00238037109375,0.0999755859375
1772641346199669800,6.148669677734375,-0.85931396484375,-0.0139617919921875,0.0945587158203125
1772641346209715000,6.15871484375,-0.8460235595703125,-0.025848388671875,0.0849609375
1772641346219759900,6.168759765625,-0.8490447998046875,-0.0332794189453125,0.0722503662109375
1772641346229805800,6.178805908203125,-0.8514251708984375,-0.0344085693359375,0.060455322265625
1772641346239851000,6.18885107421875,-0.8602447509765625,-0.0352630615234375,0.0459442138671875
1772641346249896000,6.19889599609375,-0.8671722412109375,-0.03546142578125,0.0281982421875
1772641346259940900,6.20894091796875,-0.8766326904296875,-0.03826904296875,0.0125732421875
1772641346269986800,6.21898681640625,-0.885772705078125,-0.0410308837890625,0.001953125
1772641346280032000,6.229031982421875,-0.8897857666015625,-0.040863037109375,-0.0010223388671875
1772641346290077000,6.239076904296875,-0.8943328857421875,-0.0362701416015625,0.0028839111328125
1772641346300123000,6.249122802734375,-0.9139862060546875,-0.022613525390625,0.0131988525390625
1772641346310168000,6.25916796875,-0.9499664306640625,-0.005706787109375,0.027923583984375
1772641346320212700,6.269212646484375,-0.9913482666015625,0.011627197265625,0.0380401611328125
1772641346330258000,6.2792578125,-1.0333099365234375,0.02642822265625,0.044464111328125
1772641346340304000,6.289303955078125,-1.071685791015625,0.0341949462890625,0.0513153076171875
1772641346350349000,6.29934912109375,-1.0962371826171875,0.03338623046875,0.0592803955078125
1772641346360394000,6.30939404296875,-1.1180877685546875,0.0310821533203125,0.0660400390625
1772641346370440000,6.31943994140625,-1.107208251953125,0.0254364013671875,0.063568115234375
1772641346380485000,6.329485107421875,-1.0867919921875,0.012054443359375,0.054229736328125
1772641346390529800,6.33952978515625,-1.0628814697265625,-0.006378173828125,0.0451202392578125
1772641346400575000,6.349574951171875,-1.0380096435546875,-0.031280517578125,0.04071044921875
1772641346410621000,6.359620849609375,-1.00775146484375,-0.057037353515625,0.0435638427734375
1772641346420665900,6.369665771484375,-0.9729766845703125,-0.0813446044921875,0.0434417724609375
1772641346430711000,6.3797109375,-0.9394378662109375,-0.1020965576171875,0.0422210693359375
1772641346440756000,6.389755859375,-0.9163665771484375,-0.117523193359375,0.0399169921875
1772641346450802000,6.399802001953125,-0.901336669921875,-0.1290130615234375,0.037017822265625
1772641346460846800,6.409846923828125,-0.893157958984375,-0.1365966796875,0.037139892578125
1772641346470892000,6.41989208984375,-0.8935394287109375,-0.139190673828125,0.0388031005859375
1772641346480938000,6.42993798828125,-0.8998260498046875,-0.1368865966796875,0.0462188720703125
1772641346490983000,6.43998291015625,-0.901336669921875,-0.1273193359375,0.05462646484375
1772641346501028000,6.450028076171875,-0.89788818359375,-0.1177978515625,0.0620269775390625
1772641346511072800,6.46007275390625,-0.8971099853515625,-0.1046600341796875,0.0709381103515625
1772641346521119000,6.470118896484375,-0.9012603759765625,-0.088531494140625,0.0827789306640625
1772641346531164000,6.480163818359375,-0.9113922119140625,-0.071502685546875,0.092803955078125
1772641346541209000,6.490208984375,-0.9218902587890625,-0.0555419921875,0.1021728515625
1772641346551254000,6.50025390625,-0.92974853515625,-0.04449462890625,0.111846923828125
1772641346561300000,6.510300048828125,-0.9373016357421875,-0.037017822265625,0.11968994140625
1772641346571345000,6.520344970703125,-0.946014404296875,-0.03411865234375,0.119293212890625
1772641346581389800,6.530389892578125,-0.9583892822265625,-0.0342254638671875,0.115478515625
1772641346591436000,6.54043603515625,-0.97186279296875,-0.0340118408203125,0.1066131591796875
1772641346601481000,6.55048095703125,-0.987762451171875,-0.037200927734375,0.0972442626953125
1772641346611526000,6.56052587890625,-1.0044403076171875,-0.0426483154296875,0.0902099609375
1772641346621571000,6.570571044921875,-1.018585205078125,-0.04840087890625,0.0860748291015625
1772641346631616800,6.58061669921875,-1.035003662109375,-0.052978515625,0.0812530517578125
1772641346641662000,6.590661865234375,-1.04730224609375,-0.0607452392578125,0.0740203857421875
1772641346651707000,6.600706787109375,-1.0536956787109375,-0.06878662109375,0.0677337646484375
1772641346661752000,6.610751953125,-1.0506591796875,-0.078155517578125,0.06298828125
1772641346671798000,6.620798095703125,-1.0446014404296875,-0.08984375,0.0569000244140625
1772641346681843000,6.630843017578125,-1.0356597900390625,-0.100433349609375,0.0507049560546875
1772641346691887900,6.640887939453125,-1.0232086181640625,-0.1124420166015625,0.0472564697265625
1772641346701933800,6.650933837890625,-1.0116729736328125,-0.1239471435546875,0.0469207763671875
1772641346711979000,6.66097900390625,-1.0005340576171875,-0.1348419189453125,0.0471343994140625
1772641346722024000,6.67102392578125,-0.987060546875,-0.14202880859375,0.0500640869140625
1772641346732069000,6.681069091796875,-0.9797210693359375,-0.1459808349609375,0.0535430908203125
1772641346742115000,6.691114990234375,-0.9788970947265625,-0.1473846435546875,0.0585784912109375
1772641346752159700,6.70115966796875,-0.9787445068359375,-0.147064208984375,0.064239501953125
1772641346762205000,6.711204833984375,-0.9786529541015625,-0.1420440673828125,0.0666961669921875
1772641346772251000,6.7212509765625,-0.981597900390625,-0.136199951171875,0.06378173828125
1772641346782296000,6.731296142578125,-0.9886627197265625,-0.1286163330078125,0.0603179931640625
1772641346792340700,6.7413408203125,-0.9981231689453125,-0.1202850341796875,0.056488037109375
1772641346802385700,6.7513857421875,-1.007293701171875,-0.1140899658203125,0.0526885986328125
1772641346812431600,6.761431640625,-1.014862060546875,-0.1091766357421875,0.0510711669921875
1772641346822476500,6.7714765625,-1.0267791748046875,-0.1063385009765625,0.0521392822265625
1772641346832521700,6.781521728515625,-1.04248046875,-0.1063079833984375,0.0574493408203125
1772641346842566700,6.791566650390625,-1.057281494140625,-0.1097412109375,0.06915283203125
1772641346852612600,6.801612548828125,-1.0632781982421875,-0.118865966796875,0.072265625
1772641346862657500,6.811657470703125,-1.0726776123046875,-0.1224517822265625,0.063934326171875
1772641346872702700,6.82170263671875,-1.081695556640625,-0.123748779296875,0.0535736083984375
1772641346882748700,6.831748779296875,-1.09088134765625,-0.13323974609375,0.0478057861328125
1772641346892793600,6.841793701171875,-1.09759521484375,-0.14361572265625,0.0512542724609375
1772641346902838800,6.8518388671875,-1.101287841796875,-0.1462860107421875,0.04400634765625
1772641346912883700,6.8618837890625,-1.096771240234375,-0.1320037841796875,0.033660888671875
1772641346922929700,6.8719296875,-1.090789794921875,-0.109893798828125,0.0350799560546875
1772641346932974600,6.881974609375,-1.0980377197265625,-0.0910797119140625,0.036468505859375
1772641346943019500,6.89201953125,-1.098052978515625,-0.0753936767578125,0.042327880859375
1772641346953064700,6.902064697265625,-1.09088134765625,-0.061248779296875,0.0418701171875
1772641346963110700,6.912110595703125,-1.0797119140625,-0.0471954345703125,0.0387725830078125
1772641346973155800,6.92215576171875,-1.0676727294921875,-0.0320892333984375,0.0312042236328125
1772641346983200500,6.932200439453125,-1.0611572265625,-0.022796630859375,0.0270233154296875
1772641346993246500,6.94224658203125,-1.05584716796875,-0.0199432373046875,0.0284881591796875
1772641347003291600,6.952291748046875,-1.048370361328125,-0.01983642578125,0.0326080322265625
1772641347013336600,6.962336669921875,-1.028106689453125,-0.017059326171875,0.03973388671875
1772641347023381800,6.9723818359375,-1.0092926025390625,-0.01849365234375,0.0428314208984375
1772641347033427700,6.982427734375,-0.9958343505859375,-0.0254669189453125,0.0479736328125
1772641347043472600,6.99247265625,-0.9764251708984375,-0.03350830078125,0.0545501708984375
1772641347053517600,7.002517578125,-0.953155517578125,-0.03985595703125,0.0563812255859375
1772641347063562800,7.012562744140625,-0.93243408203125,-0.043670654296875,0.057708740234375
1772641347073608700,7.022608642578125,-0.9190521240234375,-0.0423736572265625,0.064178466796875
1772641347083653600,7.032653564453125,-0.909210205078125,-0.0395050048828125,0.074493408203125
1772641347093698800,7.04269873046875,-0.9034881591796875,-0.0415802001953125,0.0871124267578125
1772641347103744800,7.052744873046875,-0.8917388916015625,-0.0451812744140625,0.1021575927734375
1772641347113789400,7.06278955078125,-0.8704376220703125,-0.0430145263671875,0.1145477294921875
1772641347123834600,7.072834716796875,-0.85333251953125,-0.04278564453125,0.1194305419921875
1772641347133879600,7.082879638671875,-0.8159942626953125,-0.0473480224609375,0.1250457763671875
1772641347143925800,7.09292578125,-0.8081512451171875,-0.0548858642578125,0.1295318603515625
1772641347153970700,7.102970703125,-0.810577392578125,-0.0610504150390625,0.1323089599609375
1772641347164015900,7.113015869140625,-0.8247833251953125,-0.06524658203125,0.1296844482421875
1772641347174061600,7.1230615234375,-0.8416290283203125,-0.0724334716796875,0.121124267578125
1772641347184106500,7.1331064453125,-0.8487396240234375,-0.080230712890625,0.1110687255859375
1772641347194151700,7.143151611328125,-0.86297607421875,-0.08416748046875,0.1020050048828125
1772641347204196600,7.153196533203125,-0.859588623046875,-0.0820465087890625,0.097564697265625
1772641347214242800,7.163242919921875,-0.854766845703125,-0.0742034912109375,0.0904388427734375
1772641347224287700,7.173287841796875,-0.8691864013671875,-0.0662994384765625,0.07861328125
1772641347234332700,7.183332763671875,-0.907257080078125,-0.0544281005859375,0.0713043212890625
1772641347244377600,7.193377685546875,-0.9550628662109375,-0.038543701171875,0.070068359375
1772641347254423600,7.203423583984375,-1.0034027099609375,-0.0166473388671875,0.07745361328125
1772641347264468700,7.21346875,-1.044952392578125,0.0052032470703125,0.08856201171875
1772641347274513700,7.223513671875,-1.0731964111328125,0.021026611328125,0.100067138671875
1772641347284559600,7.2335595703125,-1.08477783203125,0.025421142578125,0.110809326171875
1772641347294604500,7.2436044921875,-1.0960693359375,0.0169677734375,0.1175537109375
1772641347304649500,7.2536494140625,-1.0876007080078125,0.0053863525390625,0.1123046875
1772641347314694700,7.263694580078125,-1.06134033203125,-0.0149078369140625,0.0982513427734375
1772641347324740600,7.27374072265625,-1.04473876953125,-0.03790283203125,0.0811309814453125
1772641347334785800,7.283785888671875,-1.03057861328125,-0.061676025390625,0.0657196044921875
1772641347344830700,7.293830810546875,-1.0126800537109375,-0.0843963623046875,0.0493927001953125
1772641347354875600,7.303875732421875,-0.9938201904296875,-0.10211181640625,0.0411529541015625
1772641347364921600,7.313921630859375,-0.968475341796875,-0.1176910400390625,0.03900146484375
1772641347374966500,7.323966552734375,-0.9446258544921875,-0.130859375,0.0348052978515625
1772641347385011700,7.33401171875,-0.922332763671875,-0.1399688720703125,0.0319061279296875
1772641347395057700,7.3440576171875,-0.909698486328125,-0.146636962890625,0.02984619140625
1772641347405102800,7.354102783203125,-0.9017791748046875,-0.1536102294921875,0.028106689453125
1772641347415147500,7.3641474609375,-0.9019317626953125,-0.153289794921875,0.023956298828125
1772641347425192700,7.374192626953125,-0.90960693359375,-0.1533660888671875,0.0218963623046875
1772641347435238700,7.38423876953125,-0.9219970703125,-0.1469268798828125,0.0237274169921875
1772641347445283600,7.39428369140625,-0.9339447021484375,-0.1372222900390625,0.027252197265625
1772641347455328800,7.404328857421875,-0.9519195556640625,-0.12701416015625,0.03387451171875
1772641347465373700,7.414373779296875,-0.969512939453125,-0.1167449951171875,0.040313720703125
1772641347475419600,7.424419677734375,-0.9825897216796875,-0.107208251953125,0.0460052490234375
1772641347485464600,7.434464599609375,-0.9936370849609375,-0.1036224365234375,0.053985595703125
1772641347495509500,7.444509521484375,-0.9990692138671875,-0.0998382568359375,0.0624237060546875
1772641347505555700,7.4545556640625,-1.0003509521484375,-0.096588134765625,0.066436767578125
1772641347515600600,7.4646005859375,-1.0008087158203125,-0.0941009521484375,0.07000732421875
1772641347525645800,7.474645751953125,-1.0051116943359375,-0.094940185546875,0.075408935546875
1772641347535690500,7.4846904296875,-1.0064849853515625,-0.09881591796875,0.0832672119140625
1772641347545736400,7.494736328125,-1.000244140625,-0.1069183349609375,0.092071533203125
1772641347555781600,7.50478173828125,-0.98846435546875,-0.117034912109375,0.0927581787109375
1772641347565826600,7.51482666015625,-0.9787445068359375,-0.129669189453125,0.0890655517578125
1772641347575871700,7.524871826171875,-0.96978759765625,-0.1426239013671875,0.082977294921875
1772641347585917700,7.534917724609375,-0.964630126953125,-0.1545867919921875,0.077056884765625
1772641347595963000,7.544962890625,-0.9650726318359375,-0.161346435546875,0.0756072998046875
1772641347606007600,7.555007568359375,-0.96685791015625,-0.1667938232421875,0.07427978515625
1772641347616053500,7.565053466796875,-0.970001220703125,-0.1669464111328125,0.077392578125
1772641347626098700,7.5750986328125,-0.9690704345703125,-0.1650238037109375,0.0829315185546875
1772641347636143600,7.5851435546875,-0.9724884033203125,-0.1600494384765625,0.0886383056640625
1772641347646188800,7.595188720703125,-0.9757232666015625,-0.15625,0.092041015625
1772641347656234800,7.60523486328125,-0.9881134033203125,-0.1474456787109375,0.0926361083984375
1772641347666279700,7.61527978515625,-1.0018463134765625,-0.1338653564453125,0.09832763671875
1772641347676324600,7.62532470703125,-1.0137481689453125,-0.1202850341796875,0.0999755859375
1772641347686369500,7.63536962890625,-1.0252685546875,-0.1130218505859375,0.1007537841796875
1772641347696415700,7.645415771484375,-1.03619384765625,-0.10687255859375,0.10009765625
1772641347706460700,7.655460693359375,-1.0491790771484375,-0.1024169921875,0.0999755859375
1772641347716505900,7.665505859375,-1.0610198974609375,-0.0977783203125,0.0996856689453125
1772641347726551800,7.6755517578125,-1.074737548828125,-0.0947265625,0.098907470703125
1772641347736596500,7.685596435546875,-1.08905029296875,-0.1054534912109375,0.1026458740234375
1772641347746641700,7.6956416015625,-1.0923309326171875,-0.1319732666015625,0.1082000732421875
1772641347756686600,7.7056865234375,-1.077728271484375,-0.1514892578125,0.1008148193359375
1772641347766732800,7.71573291015625,-1.060028076171875,-0.155364990234375,0.079437255859375
1772641347776777700,7.72577783203125,-1.069305419921875,-0.167022705078125,0.0654754638671875
1772641347786822700,7.73582275390625,-1.0798492431640625,-0.1894683837890625,0.065277099609375
1772641347796867600,7.74586767578125,-1.076080322265625,-0.194976806640625,0.0513763427734375
1772641347806913500,7.75591357421875,-1.062744140625,-0.1746673583984375,0.0205841064453125
1772641347816958700,7.765958740234375,-1.0609588623046875,-0.1521759033203125,-0.011260986328125
1772641347827003600,7.776003662109375,-1.0702972412109375,-0.13134765625,-0.0326080322265625
1772641347837049600,7.786049560546875,-1.087677001953125,-0.1042938232421875,-0.0313262939453125
1772641347847094800,7.7960947265625,-1.1042022705078125,-0.0730438232421875,-0.0175323486328125
1772641347857139700,7.8061396484375,-1.115966796875,-0.0433502197265625,-0.0014801025390625
1772641347867184600,7.8161845703125,-1.1259613037109375,-0.0183563232421875,0.0115814208984375
1772641347877230600,7.826230712890625,-1.1286773681640625,-0.0015869140625,0.01971435546875
1772641347887275800,7.83627587890625,-1.1333160400390625,0.0115814208984375,0.02825927734375
1772641347897320700,7.84632080078125,-1.121551513671875,0.01531982421875,0.0396575927734375
1772641347907365600,7.85636572265625,-1.09344482421875,0.01129150390625,0.0513763427734375
1772641347917411600,7.86641162109375,-1.063140869140625,0.0082855224609375,0.059722900390625
1772641347927456500,7.87645654296875,-1.009063720703125,0.0042724609375,0.0630645751953125
1772641347937501700,7.886501708984375,-0.9801483154296875,-0.0023956298828125,0.0651702880859375
1772641347947547600,7.896547607421875,-0.92437744140625,-0.0107574462890625,0.07305908203125
1772641347957592800,7.9065927734375,-0.8759002685546875,-0.0246734619140625,0.0850982666015625
1772641347967637500,7.916637451171875,-0.8519439697265625,-0.034149169921875,0.0852813720703125
1772641347977682700,7.9266826171875,-0.812042236328125,-0.030914306640625,0.0880279541015625
1772641347987728600,7.936728759765625,-0.7982635498046875,-0.040069580078125,0.0816192626953125
1772641347997773600,7.946773681640625,-0.8170013427734375,-0.0488739013671875,0.0719146728515625
1772641348007818800,7.95681884765625,-0.830413818359375,-0.0526275634765625,0.058624267578125
1772641348017863700,7.96686376953125,-0.830718994140625,-0.0609893798828125,0.0509490966796875
1772641348027909600,7.97690966796875,-0.81414794921875,-0.060028076171875,0.0377655029296875
1772641348037954600,7.98695458984375,-0.8220977783203125,-0.0612945556640625,0.0321807861328125
1772641348047999700,7.996999755859375,-0.8387298583984375,-0.067413330078125,0.0236968994140625
1772641348058045700,8.007045654296874,-0.8420867919921875,-0.071533203125,0.0158843994140625
1772641348068090600,8.017090576171874,-0.845123291015625,-0.0721435546875,0.0118560791015625
1772641348078135800,8.0271357421875,-0.8504180908203125,-0.074737548828125,0.0151519775390625
1772641348088180500,8.037180419921874,-0.85052490234375,-0.064239501953125,0.0098724365234375
1772641348098226400,8.047226318359375,-0.871978759765625,-0.0523681640625,0.0061187744140625
1772641348108271600,8.057271728515625,-0.9098358154296875,-0.0461578369140625,0.0013275146484375
1772641348118316500,8.067316650390625,-0.957122802734375,-0.037078857421875,-0.00250244140625
1772641348128361700,8.07736181640625,-1.0003814697265625,-0.0233306884765625,0.00006103515625
1772641348138407700,8.08740771484375,-1.0319366455078125,-0.0139617919921875,0.00701904296875
1772641348148452900,8.097452880859375,-1.057220458984375,-0.01409912109375,0.0152587890625
1772641348158497500,8.10749755859375,-1.0746307373046875,-0.016876220703125,0.0241851806640625
1772641348168542700,8.117542724609375,-1.0770263671875,-0.0304412841796875,0.0244598388671875
1772641348178588700,8.127588623046876,-1.064239501953125,-0.0516510009765625,0.014617919921875
1772641348188633600,8.137633544921876,-1.045745849609375,-0.0725860595703125,0.0044708251953125
1772641348198678800,8.1476787109375,-1.0209808349609375,-0.09527587890625,0.000030517578125
1772641348208724700,8.157724853515624,-0.9980010986328125,-0.1142425537109375,0.0013580322265625
1772641348218769700,8.167769775390624,-0.980499267578125,-0.1283721923828125,0.0039825439453125
1772641348228814600,8.177814697265624,-0.968170166015625,-0.1407623291015625,0.0062408447265625
1772641348238859800,8.18785986328125,-0.9597320556640625,-0.15185546875,0.008209228515625
1772641348248905700,8.19790576171875,-0.9534759521484375,-0.1563568115234375,0.00872802734375
1772641348258950700,8.20795068359375,-0.944976806640625,-0.156036376953125,0.0088043212890625
1772641348268995800,8.217995849609375,-0.9407501220703125,-0.155120849609375,0.0141754150390625
1772641348279040500,8.22804052734375,-0.943115234375,-0.149200439453125,0.0200347900390625
1772641348289086500,8.23808642578125,-0.949462890625,-0.1427459716796875,0.0273590087890625
1772641348299131600,8.248131591796875,-0.953582763671875,-0.1359100341796875,0.036163330078125
1772641348309176600,8.258176513671875,-0.9571075439453125,-0.126983642578125,0.042938232421875
1772641348319222800,8.268222900390626,-0.96820068359375,-0.11822509765625,0.049285888671875
1772641348329267700,8.278267822265626,-0.982269287109375,-0.1118621826171875,0.05340576171875
1772641348339312600,8.288312744140624,-0.99517822265625,-0.10699462890625,0.0589599609375
1772641348349357600,8.298357666015624,-1.002471923828125,-0.1053619384765625,0.0605316162109375
1772641348359403500,8.308403564453124,-1.0102996826171875,-0.105804443359375,0.0572052001953125
1772641348369448700,8.31844873046875,-1.0207061767578125,-0.1005401611328125,0.0575103759765625
1772641348379493600,8.32849365234375,-1.0192718505859375,-0.1021575927734375,0.057830810546875
1772641348389538800,8.338538818359375,-1.015106201171875,-0.1034088134765625,0.058746337890625
1772641348399584800,8.348584716796875,-1.0116424560546875,-0.1038970947265625,0.06195068359375
1772641348409629700,8.358629638671875,-1.001129150390625,-0.107391357421875,0.067047119140625
1772641348419674600,8.368674560546875,-0.9868316650390625,-0.1124267578125,0.0688629150390625
1772641348429720600,8.378720458984375,-0.9771881103515625,-0.11993408203125,0.0695648193359375
1772641348439765800,8.388765869140625,-0.9665679931640625,-0.12841796875,0.071075439453125
1772641348449810700,8.398810791015626,-0.9574737548828125,-0.138702392578125,0.07147216796875
1772641348459855600,8.408855712890626,-0.9548187255859375,-0.1467132568359375,0.0680389404296875
1772641348469901600,8.418901611328126,-0.953094482421875,-0.1521453857421875,0.063232421875
1772641348479946500,8.428946533203124,-0.96142578125,-0.1529693603515625,0.060546875
1772641348489991700,8.43899169921875,-0.971771240234375,-0.152069091796875,0.0586090087890625
1772641348500036600,8.44903662109375,-0.9825439453125,-0.1516265869140625,0.0599822998046875
1772641348510082800,8.459082763671875,-0.9903717041015625,-0.150482177734375,0.062957763671875
1772641348520127700,8.469127685546875,-0.9953460693359375,-0.1477508544921875,0.0617828369140625
1772641348530172700,8.479172607421875,-1.016265869140625,-0.139312744140625,0.0648956298828125
1772641348540217600,8.489217529296875,-1.0303955078125,-0.133087158203125,0.0666351318359375
1772641348550263600,8.499263671875,-1.0355682373046875,-0.135498046875,0.0677490234375
1772641348560308700,8.509308837890625,-1.033203125,-0.1351776123046875,0.0643463134765625
1772641348570353700,8.519353759765625,-1.033660888671875,-0.1324920654296875,0.058074951171875
1772641348580399900,8.52939990234375,-1.037261962890625,-0.131591796875,0.0535888671875
1772641348590444500,8.539444580078126,-1.041961669921875,-0.133758544921875,0.04937744140625
1772641348600489700,8.54948974609375,-1.0459442138671875,-0.1399078369140625,0.0503997802734375
1772641348610534700,8.55953466796875,-1.04833984375,-0.1492919921875,0.0527191162109375
1772641348620580600,8.56958056640625,-1.035491943359375,-0.1627197265625,0.0576019287109375
1772641348630625800,8.579625732421874,-1.0235443115234375,-0.167938232421875,0.056793212890625
1772641348640670500,8.58967041015625,-1.0257568359375,-0.167449951171875,0.052581787109375
1772641348650715600,8.599715576171874,-1.0345916748046875,-0.1669921875,0.0498199462890625
1772641348660761600,8.60976171875,-1.038848876953125,-0.1659698486328125,0.041778564453125
1772641348670806500,8.619806640625,-1.0360260009765625,-0.1636505126953125,0.038055419921875
1772641348680851700,8.629851806640625,-1.0314483642578125,-0.1587677001953125,0.0406341552734375
1772641348690897700,8.639897705078125,-1.0318145751953125,-0.1397552490234375,0.04315185546875
1772641348700942800,8.64994287109375,-1.037872314453125,-0.1234893798828125,0.0448760986328125
1772641348710987500,8.659987548828125,-1.046234130859375,-0.105560302734375,0.0501556396484375
1772641348721032700,8.67003271484375,-1.058868408203125,-0.089019775390625,0.0648651123046875
1772641348731078700,8.68007861328125,-1.0303802490234375,-0.08270263671875,0.0757904052734375
1772641348741123600,8.69012353515625,-1.0234375,-0.0667266845703125,0.07562255859375
1772641348751168800,8.700168701171876,-1.0330352783203125,-0.051116943359375,0.074920654296875
1772641348761213400,8.71021337890625,-1.0349884033203125,-0.0451202392578125,0.0764312744140625
1772641348771259600,8.720259765625,-1.03082275390625,-0.0334625244140625,0.0793609619140625
1772641348781304600,8.7303046875,-1.030426025390625,-0.0212860107421875,0.0808563232421875
1772641348791349800,8.740349853515625,-1.022796630859375,-0.0013580322265625,0.0950164794921875
1772641348801394700,8.750394775390625,-1.0151519775390625,0.0034027099609375,0.1035003662109375
1772641348811440600,8.760440673828125,-1.004425048828125,0.0020294189453125,0.10906982421875
1772641348821485800,8.77048583984375,-0.9929962158203125,0.001007080078125,0.108673095703125
1772641348831530500,8.780530517578125,-0.9941864013671875,-0.0023193359375,0.1053619384765625
1772641348841576700,8.79057666015625,-0.985809326171875,-0.014678955078125,0.0860595703125
