time,seconds_elapsed,z,y,x
1772731592993264000,0.06826416015625,-0.8053998523175716,-0.04619030796252191,-0.21040654523819682
1772731593003292200,0.078292236328125,-0.6630185032963752,-0.09372852340266108,-0.35156390542238947
1772731593013320200,0.0883203125,-0.2370885081976652,-0.057562692783027884,-0.4915700497448444
1772731593023348000,0.098347900390625,0.10796703824400901,-0.007900251730531454,-0.3762707689166069
1772731593033376300,0.108376220703125,0.09112579355835915,0.16632248883992432,-0.1537070451557636
1772731593043404000,0.118404052734375,0.015788520762324332,0.3706912152186036,-0.03832271639257669
1772731593053432300,0.128432373046875,0.18727789084613322,0.4932864982739091,-0.0016989128723740577
1772731593063460000,0.138460205078125,0.42890111986398693,0.20372370647341012,0.31016455806344745
1772731593073488100,0.148488037109375,0.509644635617733,0.15323738181740046,0.41195904515236614
1772731593083516200,0.15851611328125,0.41443595665991306,0.5986309329293668,0.22876579327136276
1772731593093544200,0.168544189453125,0.2997030775427818,0.5572830234967172,-0.002234919445216656
1772731593103572200,0.178572265625,0.3455167342126369,0.4325954443372786,-0.31387422623634337
1772731593113600000,0.18860009765625,0.3996878848612308,0.2570597214721143,-0.41117403225451704
1772731593123628000,0.1986279296875,0.38696693497598167,0.023961159693449734,-0.5331894695952535
1772731593133656000,0.208656005859375,0.2946528084158897,-0.0819125595331192,-0.6390232952028513
1772731593143683000,0.21868310546875,-0.0400151995241642,-0.03646013739109039,-0.5686795929104089
1772731593153711000,0.228711181640625,-0.5960626898765563,0.06361614760309457,-0.4086827999606728
1772731593163739100,0.2387392578125,-0.6843500451385974,0.1061792780444026,-0.27577976564168927
1772731593173767200,0.24876708984375,-0.44974517045021056,0.09571955108940601,-0.180967100264132
1772731593183795200,0.258795166015625,-0.22924656252562997,0.016752835749834775,-0.20458178460747004
1772731593193823000,0.268822998046875,-0.07548457231223583,-0.02034048497825861,-0.3397343514189124
1772731593203851300,0.278851318359375,0.0038730420410633083,-0.04345467245355248,-0.5887967905268072
1772731593213879000,0.288879150390625,0.19090484917163847,-0.37840529672726986,-0.8361334287554025
1772731593223907300,0.2989072265625,0.5781295583009719,-0.6804749572709202,-0.8946031533807516
1772731593233935000,0.30893505859375,0.7303817284733056,-0.8056722395181656,-0.7752499209865927
1772731593243963100,0.318963134765625,0.4996265149503946,-1.0464657397136092,-0.5986003916606306
1772731593253991200,0.3289912109375,0.2747241191089153,-0.9224088596731423,-0.49744098760485644
1772731593264019000,0.33901904296875,0.12702186732590198,-0.5758882091149687,-0.365938467733562
1772731593274047200,0.349047119140625,-0.06885258695185184,-0.36323709982037544,0.06871580882966517
1772731593284075000,0.359074951171875,-0.3517915766984224,-0.13514993646293877,0.43633448473513126
1772731593294103000,0.36910302734375,-0.6532447127789258,0.19379530991613864,0.3619879765421152
1772731593304131000,0.379131103515625,-0.5756073463469743,0.44923692866712805,0.059798050619661806
1772731593314159000,0.3891591796875,-0.2599988436639309,0.5838049735888838,-0.1557376742005348
1772731593324187400,0.3991875,0.20711481021642683,0.4379796215936541,0.022200141370296477
1772731593334215200,0.409215087890625,0.655450698390603,0.193444012260437,0.5714888051122426
1772731593344243200,0.4192431640625,0.8812953435182571,0.28678689734637736,0.481962263444066
1772731593354271200,0.429271240234375,0.9507739534139633,0.37836218823790546,0.19332593883872032
1772731593364299300,0.43929931640625,0.7340338212400674,0.28341888221800327,0.21128771198689936
1772731593374327300,0.449327392578125,0.4201806377917528,0.08943740207999944,0.35237814441472287
1772731593384355300,0.459355224609375,0.09262801481485367,0.11917115382552146,0.1470432033523917
1772731593394383000,0.469383056640625,-0.23326982669234275,0.14067425284236668,0.21514789454638958
1772731593404411400,0.479411376953125,-0.2683247734606266,0.2557850253611803,-0.04106529309898615
1772731593414439200,0.489439208984375,-0.08319149342775345,0.3736401281520724,-0.11669219649136066
1772731593424467200,0.49946728515625,0.12584580928385258,0.45706309224814173,-0.018000351592898367
1772731593434495200,0.5094951171875,0.3660685238540172,0.48081075532138345,0.3183174693807959
1772731593444523300,0.519523193359375,0.5662146641016006,0.5483376466274261,0.4529939431130886
1772731593454551300,0.52955126953125,0.7264975805163383,0.4303080640524626,0.3892749196574092
1772731593464579300,0.539579345703125,0.9172902014851569,0.2418263503745198,0.20536504393965005
1772731593474607000,0.549607177734375,0.9937146849960088,0.193106450869143,-0.08840192155241966
1772731593484635400,0.559635498046875,0.9639689505517482,0.1288899992853403,-0.07303980950862168
1772731593494663200,0.5696630859375,0.8548983349800109,-0.018607669836282727,-0.0839034410893917
1772731593504691500,0.57969140625,0.7550269249081611,-0.14995704497247933,-0.2152276817843318
1772731593514719200,0.58971923828125,0.7458586990684271,-0.0489317886903882,-0.37335575825273987
1772731593524747300,0.599747314453125,0.617729162761569,0.19800708239227532,-0.8055641029685735
1772731593534775300,0.609775390625,0.42501112668812274,-0.0010483400091528892,-0.8041586200848221
1772731593544803000,0.619802978515625,0.26757950805127617,-0.4378004656344652,-0.17137275796681642
1772731593554831400,0.629831298828125,0.01872048256099224,-0.541662991169095,0.5231783631905913
1772731593564859100,0.639859130859375,-0.442666610366106,-0.20293810905367135,0.8411167701259255
1772731593574887200,0.64988720703125,-0.9561889642000198,0.26837854947447776,0.8125260509356856
1772731593584915200,0.659915283203125,-1.1798317153692244,0.5861144195750355,0.5357245410308241
1772731593594943200,0.669943115234375,-1.0038105470746754,0.375110492965579,0.5368354248821735
1772731593604971300,0.67997119140625,-0.7398205879479646,-0.028701778349280355,0.4789923077225685
1772731593614999300,0.689999267578125,-0.6652525459587574,-0.12308102074563503,0.3729553607583046
1772731593625027000,0.700027099609375,-0.4695061019748449,-0.19308657712489366,0.29932401509732004
1772731593635055400,0.710055419921875,-0.23918694178164004,-0.11834580891728401,0.2678685541257262
1772731593645082000,0.72008203125,-0.006390577819943428,-0.008665537014603614,0.2018994136556983
1772731593655110400,0.7301103515625,0.2258031440734863,0.12387597051560878,0.21113047559857367
1772731593665138200,0.74013818359375,0.3729588678896427,0.1868085197687149,0.3077759093612432
1772731593675166500,0.75016650390625,0.364584422776103,0.18085282623469828,0.39063919374793765
1772731593685194200,0.7601943359375,0.22011516156494615,0.2044607885763049,0.3672182784110308
1772731593695222000,0.770221923828125,0.1350204648643732,0.16309797383546829,0.324613646915555
1772731593705250300,0.780250244140625,0.04015256216824054,0.07689560815393924,0.30273937649875876
1772731593715278000,0.790278076171875,-0.08668167363107204,0.09643822075277567,0.30144115338176486
1772731593725306400,0.800306396484375,-0.08083528569042682,0.08766016327440738,0.23505554106533527
1772731593735334100,0.810334228515625,0.04892682025432586,0.08335106790363789,0.21015169369429348
1772731593745362200,0.820362060546875,0.16343407392203807,0.08099544468820094,0.21251491569429634
1772731593755390200,0.83039013671875,0.2865016506642103,0.060824178797006606,0.21425182248950003
1772731593765418200,0.840418212890625,0.3314730112910271,0.11900047343373298,0.2849653810076415
1772731593775446300,0.8504462890625,0.3435790441483259,0.24588205550611017,0.3125019149698317
1772731593785474300,0.860474365234375,0.382770067808032,0.2630465407967567,0.23942411153838036
1772731593795502000,0.870502197265625,0.31897534876763817,0.17744214100837707,0.15086773007661103
1772731593805530400,0.8805302734375,0.029737551137804984,0.02672697114497423,0.16125570696964858
1772731593815558100,0.89055810546875,-0.36623335902690884,-0.09466390455663204,0.181702867192775
1772731593825586400,0.90058642578125,-0.4693190549701452,-0.09085895931571722,0.20698943027108907
1772731593835614200,0.9106142578125,-0.27553602001369,0.04377455205768346,0.18873378874287008
1772731593845642200,0.920642333984375,-0.015611995151638984,0.11360650543570518,0.17575199596434832
1772731593855670300,0.930670166015625,0.20054887582957742,0.12713847944289444,0.16786913376003504
1772731593865698300,0.9406982421875,0.21067980922162532,0.11503069301992654,0.14819193499609828
1772731593875726300,0.950726318359375,0.13556640830934047,0.10006956299245356,0.1881108345389366
1772731593885754400,0.96075439453125,0.18521043692231176,0.06608166093379259,0.220106101475656
1772731593895782100,0.9707822265625,0.28229367758035656,0.047023324720561505,0.28418124489262697
1772731593905810400,0.980810546875,0.40712884851694103,0.11960428454577922,0.3242031664185226
1772731593915838200,0.990838134765625,0.4273410309404134,0.1154287524268031,0.27973288718163963
1772731593925866200,1.0008662109375,0.3555833701968193,0.02832505399137735,0.2255256423063576
1772731593935894300,1.010894287109375,0.28793665190339085,-0.01945171944499016,0.19625527028888462
1772731593945922300,1.02092236328125,0.2121796923905611,-0.047368777157366274,0.16257979518026114
1772731593955950300,1.030950439453125,0.05197860904037952,-0.07565905209630727,0.06389759489297867
1772731593965978000,1.04097802734375,0.01287292557656765,-0.056500762639939785,-0.06268383518904447
1772731593976006100,1.051006103515625,0.08221417282819747,-0.029880466739833352,-0.08137684522122145
1772731593986034200,1.0610341796875,0.06429506977796554,-0.023346681056916712,-0.0696428605467081
1772731593996062200,1.071062255859375,-0.09751987850964068,-0.05999941841065883,-0.0024807108998298644
1772731594006090200,1.08109033203125,-0.2548743402570486,-0.012156301739811897,0.08250321890264749
1772731594016118300,1.0911181640625,-0.3602835107117891,0.0315907777890563,0.15556158698126674
1772731594026146000,1.10114599609375,-0.36731589356660843,0.028868951609730718,0.12004676761627196
1772731594036174300,1.11117431640625,-0.3422644544184208,-0.012757774764299392,-0.02350084870532155
1772731594046202000,1.1212021484375,-0.25405308700203894,-0.057765375748276705,-0.12822072172164917
1772731594056230400,1.13123046875,-0.20596037948429582,-0.04576455683112144,-0.13602481960132717
1772731594066258200,1.141258056640625,-0.20127251392900944,0.014233692535758017,-0.05178542455583811
1772731594076286200,1.1512861328125,-0.33512451953589917,0.05193067824542522,0.029095161581039426
1772731594086313200,1.161313232421875,-0.4411591284126043,0.0627346885934472,0.014641104292869567
1772731594096341200,1.17134130859375,-0.29348844081163405,0.04116992251724005,-0.03507657407820224
1772731594106369300,1.181369384765625,-0.09223229349553584,0.025876784056425094,-0.07518588162660599
1772731594116397000,1.19139697265625,0.004689619120955467,0.025822715781629084,-0.11609349994584918
1772731594126425300,1.20142529296875,0.07429857739806175,0.007428396435081959,-0.18530615238174794
1772731594136453000,1.211453125,0.14705284796357154,-0.0408253468632698,-0.19977292302101848
1772731594146481200,1.221481201171875,0.18976327792108058,-0.08484481359273195,-0.20798194843977688
1772731594156509200,1.23150927734375,0.23693419441878794,-0.06674450875669717,-0.21814780701473355
1772731594166537200,1.241537109375,0.2765893284589052,-0.06622574557960033,-0.2016409088499844
1772731594176565200,1.251565185546875,0.2171902140289545,-0.1143722291111946,-0.22789777826517818
1772731594186593300,1.26159326171875,0.1271042849123478,-0.09232640151977539,-0.30531624124944207
1772731594196621000,1.27162109375,0.07479074482917786,-0.047941316348314285,-0.3934044206775725
1772731594206649300,1.2816494140625,0.04648410327732563,-0.030640637457370758,-0.3596015197969973
1772731594216677000,1.291677001953125,0.08811901295781135,-0.039048400318622584,-0.27546149347275495
1772731594226705400,1.301705322265625,0.09472761744260788,0.0068473816767334935,-0.1681545265726745
1772731594236733200,1.311733154296875,0.06226677882075309,0.041949382457137106,-0.15392141855880617
1772731594246761200,1.32176123046875,0.06857377001047134,0.08932429709434508,-0.10686287639439106
1772731594256789200,1.331789306640625,-0.07378069100379943,0.041055063965916634,-0.02478533555790782
1772731594266817300,1.3418173828125,-0.19298574709892272,0.0041284781068563455,-0.16464885653927921
1772731594276845300,1.35184521484375,-0.11861761159598827,0.010441899037361145,-0.3386912721067667
1772731594286873300,1.361873291015625,-0.0073369187593460075,-0.06167290458083152,-0.3751290515355766
1772731594296901000,1.371901123046875,0.061118777829408645,-0.0651575318261981,-0.3243504659347236
1772731594306929400,1.381929443359375,0.10246376465260981,-0.0006000117197632789,-0.2433965223006904
1772731594316957200,1.391957275390625,0.06608604484796524,0.03920885157734155,-0.15889306949153542
1772731594326985200,1.401985107421875,0.03518587967157364,0.08590747438818216,-0.15902560983002184
1772731594337013000,1.412012939453125,0.0006534954726696014,0.11847148112356662,-0.16976371533498166
1772731594347040800,1.422040771484375,-0.018555647388100623,0.08463058632016182,-0.16068609038814902
1772731594357069000,1.432069091796875,-0.014585574713349342,0.052639118775725365,-0.17858078964948654
1772731594367096800,1.442096923828125,-0.020184125372767446,0.014874036265909671,-0.19277400404438375
1772731594377125000,1.452125,0.018680150550603864,-0.009758008426427841,-0.27868922334760426
1772731594387153000,1.46215283203125,0.12759469877779483,-0.02969897269308567,-0.331536431916058
1772731594397181000,1.472180908203125,0.25226678810715675,-0.04452741625159978,-0.32634163975194097
1772731594407209000,1.482208984375,0.28115444441735743,-0.027728841663897035,-0.22691022853255272
1772731594417237000,1.492237060546875,0.16989654793441294,0.06035334641486406,-0.137993635456264
1772731594427265000,1.50226513671875,0.07306991238594054,0.0990051486313343,-0.04871025489419698
1772731594437293000,1.51229296875,-0.10133037670850753,0.12987053475528954,-0.002431318800151348
1772731594447320800,1.52232080078125,-0.30966099245548245,0.11798515891134738,-0.00987520506531
1772731594457349000,1.53234912109375,-0.3494184178262949,0.08430880701988935,-0.04422258808612823
1772731594467377000,1.542376953125,-0.27105799781680107,0.053719899749755856,-0.13996654296442865
1772731594477405200,1.5524052734375,-0.10662088433206081,0.0233189162671566,-0.21512319849655032
1772731594487433000,1.562432861328125,-0.0167266783952713,-0.014090484672784804,-0.23327611030265688
1772731594497461000,1.5724609375,-0.013073416584730147,-0.057089376182854173,-0.28118673925176263
1772731594507489000,1.582489013671875,-0.05134557183384895,-0.04204933570027351,-0.2784586294621229
1772731594517517000,1.59251708984375,-0.05250818587243557,-0.04562602514326572,-0.2574478440068662
1772731594527545000,1.602545166015625,-0.013074001106619835,-0.029179040472209452,-0.19495909299850464
1772731594537571800,1.61257177734375,0.0439537080168724,0.02115560075342655,-0.10391264828667043
1772731594547600100,1.62260009765625,0.04570610464215279,0.049668286271393296,-0.05543342566937208
1772731594557628000,1.6326279296875,0.02909165444970131,0.03550035244822502,-0.06239946528971195
1772731594567656000,1.642656005859375,0.028110826718807217,0.03137479695081711,-0.0980512089073658
1772731594577684000,1.65268408203125,0.06990764896273613,-0.012255085939168929,-0.1435576993241906
1772731594587712000,1.6627119140625,0.10056231494545936,-0.020580138953030108,-0.16641235908046365
1772731594597740000,1.672739990234375,0.13315350194871425,0.00426554848998785,-0.1808699234999716
1772731594607768000,1.68276806640625,0.1870388213932514,0.021820202142000197,-0.15018544690087438
1772731594617795800,1.6927958984375,0.16376491331160067,0.07123159104287624,-0.07310279174223541
1772731594627824000,1.70282421875,0.050722471499443054,0.09891951617449521,-0.014438713588565587
1772731594637852000,1.712851806640625,-0.017698153775930404,0.11632219413518904,-0.05374897971376776
1772731594647880200,1.722880126953125,-0.07895604781508446,0.1116077328339219,-0.034919629950821394
1772731594657908000,1.732907958984375,-0.14443418989777565,0.09856178877800703,-0.0076550447978079314
1772731594667936000,1.74293603515625,-0.11110241366028785,0.11453560297936201,-0.04508651143908501
1772731594677964000,1.752964111328125,-0.028143559944629668,0.0986088427901268,-0.035895196984708305
1772731594687992000,1.762991943359375,0.10263152243494987,0.08597586344927549,-0.007706336593627929
1772731594698020000,1.77302001953125,0.17564298263192177,0.028625205981731412,-0.047567076208442444
1772731594708048100,1.783048095703125,0.1549637672185898,0.003158464030921459,-0.11430208648443221
1772731594718076000,1.793075927734375,0.14236381336450576,0.008598024736344814,-0.12736556619703768
1772731594728104200,1.803104248046875,0.2036743143737316,0.03358312065005302,-0.05353109917938709
1772731594738132000,1.813132080078125,0.23824819962680338,0.02835866400003433,0.03994724885448813
1772731594748160000,1.823159912109375,0.20306991873979569,0.03532996431738138,0.08761866222023963
1772731594758188000,1.83318798828125,0.14961071575284005,0.06758154410272836,0.13282397773340343
1772731594768215800,1.8432158203125,0.13879647627174854,0.06926759749352931,0.13101181374490262
1772731594778244000,1.853244140625,0.1758721152126789,0.017541501909494397,0.16346914523541928
1772731594788271900,1.86327197265625,0.2037000333368778,0.02400543722659349,0.16547274014279245
1772731594798300000,1.8732998046875,0.24665946961939333,-0.005573123957216739,0.14450988548249005
1772731594808328000,1.883327880859375,0.27671850779652596,-0.044623862363398076,0.1853711804419756
1772731594818356000,1.89335595703125,0.22502982161343096,-0.042080899882316586,0.2232856082946062
1772731594828384000,1.903384033203125,0.21908406495153904,-0.04843582186698913,0.09674772509336471
1772731594838412000,1.913412109375,0.08016893073618411,-0.12181494633257388,0.07016176985427737
1772731594848439800,1.923439697265625,-0.1737462090998888,-0.1603174032062292,0.09052417440339923
1772731594858468000,1.933468017578125,-0.3013940993696451,-0.1281824355378747,0.0966214683651924
1772731594868496000,1.943495849609375,-0.22062603369653225,-0.03701104927212,0.1526072672203183
1772731594878524200,1.953524169921875,-0.05845920323133468,-0.004743395134806633,0.1544663390904665
1772731594888552000,1.963552001953125,-0.00857201351225376,-0.027848376390337944,0.09243746067881584
1772731594898580000,1.973580078125,-0.21529577858448026,-0.07965484373420477,0.07970569713860749
1772731594908608000,1.98360791015625,-0.4478951586693525,-0.14402619361877442,0.09590703648552298
1772731594918636000,1.993635986328125,-0.5229647204399108,-0.17102993587851523,0.09054068714678287
1772731594928663000,2.0036630859375,-0.4467588481158018,-0.16000994469225405,0.04959872816652059
1772731594938690800,2.01369091796875,-0.2383879003584385,-0.13484481603652237,-0.010085925206542015
1772731594948719000,2.023718994140625,0.012373743882775306,-0.12390022817403078,-0.07465645092502236
1772731594958747000,2.033746826171875,0.10733458555936813,-0.2195321009799838,-0.1072884083300829
1772731594968775000,2.04377490234375,0.08568272572159767,-0.23496786278188228,-0.10866861064210534
1772731594978803000,2.053802978515625,0.07133271332979202,-0.19894640906900166,-0.11373246990293263
1772731594988831000,2.0638310546875,0.011004793617129326,-0.19138006546795366,-0.08769172745645046
1772731594998859000,2.07385888671875,-0.027664836516976356,-0.16425123552381993,-0.10779518880844116
1772731595008887000,2.083886962890625,0.01706687013506889,-0.18898118763267993,-0.17198928242996334
1772731595018914800,2.093914794921875,0.07809329350590706,-0.1727659658908844,-0.18252090557739137
1772731595028943000,2.103943115234375,0.1170697976320982,-0.11717676513791084,-0.16207842152938245
1772731595038971000,2.113970947265625,0.08934533988237381,-0.046967795141041276,-0.06661795976758003
1772731595048999200,2.123999267578125,-0.002357376781105995,-0.000611117635667324,0.02828019193634391
1772731595059027000,2.13402685546875,-0.08202069608271122,0.04325783470720052,0.08480725806131958
1772731595069055000,2.144054931640625,-0.07165069323778152,0.07099485967755317,0.059740475213527676
1772731595079083000,2.1540830078125,-0.1252513505220413,0.04150602260380983,0.0018146482065320014
1772731595089111000,2.164111083984375,-0.1252823301821947,0.0104983053997159,-0.05780307741016149
1772731595099139000,2.17413916015625,0.0006236848562955855,0.07312894909679889,-0.048126902048289774
1772731595109167000,2.1841669921875,0.12759995947480202,0.11225333726108074,-0.009848755449801683
1772731595119195000,2.19419482421875,0.15861995163857937,0.12610095308870076,0.00022635610178112982
1772731595129223200,2.20422314453125,0.1320142687857151,0.13956190768629312,-0.04685001398026943
1772731595139251000,2.2142509765625,0.03324059082269668,0.12717881145328283,-0.05119593423008918
1772731595149279200,2.224279296875,-0.014948562806844711,0.137490069848299,-0.05409034049734473
1772731595159307000,2.23430712890625,0.01302665483355522,0.14249533078968524,-0.09661080084070563
1772731595169334800,2.244334716796875,-0.011095394510030747,0.14976415274888277,-0.14206804528832434
1772731595179363000,2.254363037109375,-0.04781155248880386,0.06147504392117262,-0.16555165059790014
1772731595189390800,2.264390869140625,-0.016513327905535696,0.04039747684001922,-0.16072934500798583
1772731595199419100,2.274419189453125,0.025952187380194662,0.0957025999546051,-0.11587795749902724
1772731595209447000,2.284447021484375,0.0643622897952795,0.10504852044880389,-0.10216171296611427
1772731595219475000,2.294474853515625,0.15679156716763973,0.14292407759577036,-0.10042670586705207
1772731595229503000,2.3045029296875,0.21555647534728048,0.12316080798357724,-0.0818788033939898
1772731595239531000,2.314531005859375,0.21341303357779978,0.094124975374341,-0.07011983040869235
1772731595249559000,2.32455908203125,0.1433949099779129,0.09523469018191098,-0.08336027412340044
1772731595259587000,2.334587158203125,0.10109832151830196,0.12061024671792983,-0.08043167332559824
1772731595269614800,2.34461474609375,0.12272972308993339,0.0967328197851777,-0.11627981629818678
1772731595279643100,2.35464306640625,0.14048282192349434,0.04211830928325653,-0.12482377275973558
1772731595289671000,2.3646708984375,0.13565116398334504,0.0089341248229146,-0.05331014990508556
1772731595299699000,2.374698974609375,0.07973404645025729,0.03748451200276613,0.0004902677349746227
1772731595309727000,2.38472705078125,-0.009634089785814285,0.0815223911717534,0.007372428464144468
1772731595319755000,2.394755126953125,-0.0714729985833168,0.05859276648312807,-0.004004851727187633
1772731595329782300,2.4047822265625,-0.14116262088119982,0.05605097304582596,0.01682619324699044
1772731595339810300,2.414810302734375,-0.1602478451013565,0.05943447800427675,0.06315510596260428
1772731595349838300,2.42483837890625,-0.16359072578847408,0.036380642414093015,0.12297872941493987
1772731595359866400,2.434866455078125,-0.22264731039106844,0.03524579316526651,0.17278057893812657
1772731595369894100,2.44489404296875,-0.3303723565727472,0.0636696313560009,0.20667145036309956
1772731595379922400,2.45492236328125,-0.4604582876443863,0.05068009366244077,0.14488120301291346
1772731595389950200,2.4649501953125,-0.5455822104394435,0.0029909985095262527,0.09859276843816041
1772731595399978500,2.474978515625,-0.543352843952179,-0.03259089474231004,0.06972133261039852
1772731595410006300,2.48500634765625,-0.499823498827219,-0.05971154137998819,0.07024696391969919
1772731595420034300,2.495034423828125,-0.44412791509032246,-0.05888911908119917,0.06169920806586742
1772731595430062300,2.505062255859375,-0.39471068097054957,-0.04457563930749893,0.029193653519451617
1772731595440090000,2.515090087890625,-0.38139234971404073,-0.025248423025012016,-0.008868950632214545
1772731595450118400,2.525118408203125,-0.4379226307094097,-0.0005699088424444198,0.03512684296071529
1772731595460146200,2.535146240234375,-0.5013455938279628,0.009778466692566871,0.04443184692263603
1772731595470174200,2.54517431640625,-0.5193278252422809,0.0038838556960225103,0.015896803442388772
1772731595480202200,2.5552021484375,-0.3804875098288059,0.003933832317590713,-0.08794526382610202
1772731595490230300,2.565230224609375,-0.1921370213150978,-0.032721535384655,-0.2123269919067621
1772731595500258300,2.57525830078125,-0.019196867901086805,-0.05129471842944622,-0.17520605251938104
1772731595510286300,2.585286376953125,0.03929039238095283,0.030092648185789585,-0.03053995356187224
1772731595520314000,2.595314208984375,-0.033735096341371534,0.14102262788861988,0.07078881571143865
1772731595530342400,2.60534228515625,-0.11511164930164813,0.2794724826797843,0.1329229080632329
1772731595540370200,2.6153701171875,-0.1616471905052662,0.3318132030308246,0.14006284294575452
1772731595550398500,2.6253984375,-0.07487608502507209,0.2951163342744112,0.11396525574550032
1772731595560426200,2.63542626953125,0.23267361436486242,0.2781654917344451,0.0761735774897039
1772731595570454300,2.645454345703125,0.5804489411592483,0.27016397158652544,0.030149931330978867
1772731595580482300,2.655482421875,0.851623258832097,0.23204437655061483,0.017902590306848286
1772731595590510300,2.66551025390625,1.0008101962149143,0.19444675956219434,-0.036395109330862756
1772731595600538400,2.675538330078125,0.9921931745171546,0.19484978740513323,-0.054391223140060896
1772731595610566400,2.68556640625,0.7977139739900827,0.15658786128908395,-0.01742883531525731
1772731595620594200,2.69559423828125,0.6342354764044285,0.15814736569076776,0.016234218703210353
1772731595630622500,2.70562255859375,0.5222808298289775,0.17774667691290377,0.09031666913256049
1772731595640650200,2.715650146484375,0.5443623132556676,0.20097236193865536,0.12330489262938499
1772731595650678300,2.72567822265625,0.5455436319947242,0.20835487340539693,0.148191496604681
1772731595660706300,2.735706298828125,0.5103723653703928,0.1669379903897643,0.15898630073294043
1772731595670734300,2.745734375,0.41879999708831306,0.10636983218044042,0.11124357569664715
1772731595680762400,2.755762451171875,0.26666706938147544,0.043971243673563004,0.0816736362107098
1772731595690790400,2.765790283203125,0.12868775471150876,0.02514759299904108,0.05046878899931907
1772731595700818200,2.775818115234375,0.08037292887568473,-0.016497838075459,0.024067761873081326
1772731595710846200,2.78584619140625,0.11091595117747784,-0.06945902841240167,0.051972836886718866
1772731595720873500,2.79587353515625,0.15577566812336444,-0.09574790040105581,0.046566301668062804
1772731595730901200,2.8059013671875,0.08432429684996605,-0.08663724996745586,0.08417166357152163
1772731595740929300,2.81592919921875,0.023131869262456892,-0.06830430541932582,0.15033479224368929
1772731595750957300,2.825957275390625,-0.010854571491479873,-0.10384674344360828,0.20852431168816982
1772731595760985300,2.8359853515625,-0.04887655137181282,-0.12004238370209931,0.1891450729575008
1772731595771013400,2.846013427734375,-0.11803367422819137,-0.14936521655917168,0.14500351421833038
1772731595781041400,2.85604150390625,-0.17399638446867466,-0.15453881980478762,0.1980846776731312
1772731595791069200,2.866069091796875,-0.19945348180830477,-0.14476444476544856,0.24740751150771975
1772731595801097500,2.876097412109375,-0.15542261690199374,-0.10823825640082359,0.2550830876369029
1772731595811125200,2.886125244140625,-0.07169394785761833,-0.09604191491156816,0.2509256756965071
1772731595821153300,2.8961533203125,-0.015860416954755784,-0.11001987912058829,0.21369111986681819
1772731595831181300,2.906181396484375,-0.049483285093307496,-0.12823562702983618,0.16919395262300968
1772731595841209300,2.916209228515625,-0.12447393640875816,-0.1262900459200144,0.15952603363282977
1772731595851237400,2.9262373046875,-0.08236673304140567,-0.06556348227858542,0.17495850749909878
1772731595861265200,2.93626513671875,-0.030870354560017584,-0.056909343440830706,0.27174057325348255
1772731595871293200,2.946293212890625,-0.020941081219911575,-0.04556114321351051,0.30099479785375294
1772731595881321200,2.9563212890625,0.016440262669324874,0.0034054245293140407,0.25374036779105663
1772731595891349200,2.966349365234375,-0.000761047500371933,0.006968962229788303,0.1984882169727236
1772731595901377300,2.976377197265625,-0.03453764489591121,0.00043371524214744564,0.12735723676010965
1772731595911405300,2.9864052734375,-0.0998287399739027,0.033413317041099067,0.10337598412670194
1772731595921433000,2.99643310546875,-0.17027590264081954,0.08970102145224809,0.12300232948623598
1772731595931461400,3.00646142578125,-0.1981143421590328,0.14378098668605088,0.12932524889744818
1772731595941489200,3.0164892578125,-0.14484744687378406,0.15554945815205573,0.1343603204552084
1772731595951517400,3.026517333984375,-0.07555471493899822,0.14835107108056544,0.10832235448770225
1772731595961545200,3.036545166015625,-0.05368658200204372,0.15360270799845457,0.030103607971221205
1772731595971573200,3.0465732421875,-0.07042495083510875,0.13612871836721896,-0.04863755498416721
1772731595981601300,3.056601318359375,-0.09605155952274799,0.14726736749708652,-0.061218731072545045
1772731595991629300,3.06662939453125,-0.10019874233007431,0.18109803316742182,-0.02690985343120992
1772731596001657300,3.0766572265625,-0.1667792926967144,0.23225597347468135,-0.06275222425013781
1772731596011685400,3.086685302734375,-0.19927578715384006,0.2455757660359144,-0.12655585724934934
1772731596021713200,3.096713134765625,-0.13052724509835242,0.2489464115127921,-0.14663462255150078
1772731596031741400,3.106741455078125,-0.02252864267230034,0.2482011461034417,-0.14120587550103664
1772731596041769200,3.116769287109375,0.1015238534539938,0.22182693391889333,-0.1872054831970483
1772731596051797500,3.126797607421875,0.2144710181981325,0.19182342532128094,-0.29609774652719495
1772731596061825300,3.1368251953125,0.290161342215538,0.12562164513915777,-0.38714981726221737
1772731596071853300,3.146853271484375,0.35650399217307566,0.039864685137569904,-0.40266193223595614
1772731596081881300,3.15688134765625,0.4455868817269802,0.04911708212941885,-0.3635341100055724
1772731596091909400,3.166909423828125,0.46459319549202915,0.06666589056253433,-0.38983014238737523
1772731596101936400,3.176936279296875,0.5296715246021747,0.11271394051015377,-0.35422472212947903
1772731596111964200,3.186964111328125,0.5605810421288013,0.0708262251123786,-0.33229813700355587
1772731596121992400,3.196992431640625,0.6022492695569992,0.0017836685463786125,-0.3476554267417639
1772731596132020200,3.207020263671875,0.6012146658122539,-0.06053016428649425,-0.3618509061589837
1772731596142048300,3.21704833984375,0.5299766450285911,-0.06353752940893173,-0.3633065117947757
1772731596152076300,3.227076171875,0.48451370149254797,-0.050884384062886236,-0.3588562543876469
1772731596162104300,3.237104248046875,0.49791620390117164,-0.05253478161841631,-0.3478459808778018
1772731596172132400,3.24713232421875,0.5347060116380453,-0.06336947936564684,-0.25962051187083124
1772731596182160400,3.257160400390625,0.5473796152502298,-0.03780775260776281,-0.14958916150815785
1772731596192188200,3.267188232421875,0.5213765744656325,0.007112754614651203,-0.09781761934719979
1772731596202216400,3.277216552734375,0.42064357912838457,0.04093962089270353,-0.047153380841016765
1772731596212244200,3.287244140625,0.3121457950085401,0.05181611195504665,-0.0038821021303534504
1772731596222272500,3.2972724609375,0.24560440760850905,0.021881284679472444,0.02187178619876504
1772731596232300300,3.30730029296875,0.1835094782233238,0.024778175164759157,0.054182329629734155
1772731596242328300,3.317328369140625,0.11249065314829348,0.07568681688606739,0.06818352858386934
1772731596252356400,3.3273564453125,0.049610710865259165,0.06389905619770288,0.1173534368790686
1772731596262384400,3.33738427734375,-0.04989888015687465,0.054041971310973165,0.18833353737890718
1772731596272412400,3.347412353515625,-0.10778759002387522,0.08348901506960392,0.2340595157653093
1772731596282440200,3.357440185546875,-0.1118447564601898,0.10567863504588604,0.22015352081395684
1772731596292468200,3.36746826171875,-0.11082768837213515,0.10404957253932952,0.206231451510638
1772731596302496300,3.377496337890625,-0.10491291137039661,0.10346358934491873,0.18702786160781978
1772731596312524300,3.387524169921875,-0.09063245708346367,0.054659226426482195,0.20694529886841773
1772731596322552300,3.39755224609375,-0.05547346541881561,-0.00046001872718334194,0.20146102223843335
1772731596332580400,3.407580322265625,-0.03197276284396648,-0.01830781010687351,0.1695782757654786
1772731596342608100,3.417608154296875,-0.10537234557569027,-0.03040653644055128,0.14063823168091474
1772731596352636400,3.427636474609375,-0.1987421186685562,-0.022269991736114023,0.12586100685298443
1772731596362664200,3.437664306640625,-0.22993396026790142,-0.009288637349009513,0.179801928942278
1772731596372692200,3.447692138671875,-0.251990309253335,0.04220481852293014,0.2446373892072588
1772731596382720300,3.45772021484375,-0.3060153294295072,0.07292524321824312,0.31595892355591054
1772731596392748300,3.467748291015625,-0.37565234475731846,0.08826689699590205,0.32105748880393803
1772731596402776300,3.4777763671875,-0.4478618409216404,0.030902211003005504,0.23855266246609388
1772731596412804400,3.487804443359375,-0.4837573301672935,-0.04454992034435272,0.06831818781420589
1772731596422832000,3.49783203125,-0.4057540530323982,-0.10825608431845903,-0.07744805440492927
1772731596432860400,3.5078603515625,-0.29514497584700583,-0.17214929529726505,-0.13767368278689682
1772731596442888200,3.51788818359375,-0.20955694267153738,-0.16818389879763126,-0.15130992088615894
1772731596452916200,3.527916259765625,-0.1694452970355749,-0.11283347523659468,-0.1572618880931288
1772731596462944300,3.5379443359375,-0.17963000644147395,-0.06608429128229618,-0.08784165732115506
1772731596472972000,3.547971923828125,-0.17375556145012377,-0.041998190034925935,-0.06605046207793057
1772731596482999300,3.557999267578125,-0.11994272271990776,-0.0762938428685069,-0.11236534626819193
1772731596493027300,3.56802734375,0.01963935097157955,-0.1508452259838581,-0.17496493723988532
1772731596503055400,3.578055419921875,0.1751058070152998,-0.17301263412833212,-0.24544191052317618
1772731596513083100,3.588083251953125,0.291823137947917,-0.2015524999141693,-0.2835867861308157
1772731596523111400,3.598111328125,0.32638416371941564,-0.19240882399380205,-0.25248284201063215
1772731596533139200,3.60813916015625,0.32797990847826003,-0.15566285539865493,-0.22379626123048363
1772731596543167200,3.618167236328125,0.3282850289046764,-0.15773293967097995,-0.22642112984135745
1772731596553195300,3.6281953125,0.29570085616409775,-0.16169687486588954,-0.22025661586225032
1772731596563223300,3.638223388671875,0.23974457566440105,-0.1582765450283885,-0.20651794030182063
1772731596573251300,3.648251220703125,0.18512334316074847,-0.1263496671527624,-0.20173362863473593
1772731596583279400,3.658279296875,0.18150339909791946,-0.09005436493456363,-0.15881364757977426
1772731596593307100,3.66830712890625,0.10633037695288658,-0.05798895537108183,-0.10158617810048162
1772731596603335200,3.678335205078125,0.011757657811045647,-0.03872369840890169,-0.11241612660735845
1772731596613363200,3.68836328125,0.00008124854266643523,0.011156477047502994,-0.12076382984444499
1772731596623391200,3.69839111328125,0.07170037759840488,-0.0029147184029221533,-0.09846366216577589
1772731596633419300,3.708419189453125,0.1540437297642231,-0.0318783625587821,-0.05190203667283058
1772731596643447000,3.718447021484375,0.13430033389627932,-0.011153846698999404,-0.0787538763064891
1772731596653475300,3.728475341796875,0.07514847222566604,0.04978402160555124,-0.13471709800362586
1772731596663503000,3.738503173828125,0.06580781242847442,0.000985211645066738,-0.1824077275265008
1772731596673531400,3.748531494140625,-0.0032581250131130217,-0.015234978532791137,-0.164767660613358
1772731596683559200,3.75855908203125,-0.005576923349499702,0.013085107022523879,-0.1652509871508926
1772731596693587200,3.768587158203125,0.06244564251899719,0.02862403693795204,-0.14761172395534813
1772731596703615200,3.778615234375,0.14338205049633979,0.03418284010887146,-0.0662917234878987
1772731596713643300,3.788643310546875,0.1772013179898262,0.07140022560805082,-0.07253551324829459
1772731596723671300,3.79867138671875,0.14273849189579485,0.06536094544380903,-0.09496252217702567
1772731596733699300,3.80869921875,0.14077683643400668,-0.0052872927531599995,-0.16825411448962985
1772731596743727000,3.81872705078125,0.1576730261772871,-0.06788578774631022,-0.1595087171718478
1772731596753755400,3.82875537109375,0.13154372866451738,-0.0048000937581062315,-0.07774681815579533
1772731596763783200,3.838783203125,0.0986170260965824,0.07778671177476644,0.01029416112974286
1772731596773811500,3.8488115234375,0.06929740810990333,0.11458704090565443,0.11270378444232046
1772731596783839200,3.858839111328125,0.10493103154897689,0.14973843378573656,0.16895561382248997
1772731596793867300,3.8688671875,0.08336392738521099,0.13578648080080746,0.13142894317843018
1772731596803895300,3.878895263671875,0.01618424208164215,0.07947218064367771,0.07527933206371963
1772731596813923300,3.88892333984375,-0.036592823860049244,0.03253215029239654,0.024818214914202687
1772731596823951400,3.898951416015625,-0.05999883388876914,0.025077450372278688,0.02256795176938176
1772731596833979400,3.9089794921875,-0.07245207274854183,0.04676730413287878,0.04832563949078321
1772731596844007200,3.919007080078125,-0.09794307235777377,0.027372867833077907,0.06668233024068176
1772731596854035200,3.92903515625,-0.10707388879656791,0.025792612904310223,0.07293276893757283
1772731596864063200,3.939063232421875,-0.10648235264420508,0.001045125138759613,0.0498053566545248
1772731596874091300,3.94909130859375,-0.05262158311903476,-0.013821604603528976,0.0022589579079300166
1772731596884118300,3.9591181640625,-0.01860416270494461,-0.011591361333429813,-0.0032902737170457837
1772731596894146300,3.969146240234375,-0.10252163231968879,-0.05061901112496853,-0.004470715673267841
1772731596904174300,3.97917431640625,-0.14695289472043513,-0.07078676988482475,-0.014148169676773249
1772731596914202000,3.9892021484375,-0.16830138769745825,-0.05308686254322528,-0.031094409106858074
1772731596924230400,3.99923046875,-0.21909926252067088,-0.07752367692440748,-0.06098521457761526
1772731596934258200,4.009258056640625,-0.2415250293403864,-0.06357260072231292,-0.06051759706586599
1772731596944286500,4.019286376953125,-0.1954658734768629,-0.0323380890250206,-0.011348602086119352
1772731596954314200,4.029314208984375,-0.16013269428908825,-0.02280395248234272,0.04172028640899807
1772731596964342300,4.03934228515625,-0.18653204091489314,-0.005528700293600559,0.053158064615912735
1772731596974370300,4.049370361328125,-0.2150853507041931,0.0032046412602066993,0.03775076172351837
1772731596984398300,4.0593984375,-0.2705897957831621,-0.017688509164750576,0.006266476516239345
1772731596994426400,4.06942626953125,-0.30147593243420123,-0.014300035770237444,-0.05703669614754617
1772731597004454400,4.079454345703125,-0.3501058155685663,-0.01020809028148651,-0.10869009182155132
1772731597014482200,4.089482177734375,-0.41154666495919223,-0.05920359185785055,-0.1945417809018865
1772731597024510200,4.09951025390625,-0.4167383883833885,-0.07939297792762517,-0.27889336761757727
1772731597034538200,4.109538330078125,-0.32312194705307484,-0.014940087239444256,-0.27858941623494027
1772731597044566300,4.119566162109375,-0.13381927238106728,0.05124883346110582,-0.23344540245495735
1772731597054594300,4.12959423828125,0.09034896396696566,0.08165244729220866,-0.1863102148577571
1772731597064622000,4.1396220703125,0.22835808925330636,0.09068155692219734,-0.11899828147664665
1772731597074650400,4.149650390625,0.254211492434144,0.06611176381111145,-0.1429899093735963
1772731597084678100,4.15967822265625,0.26437925070524215,0.058093000267446036,-0.23492314685732124
1772731597094706200,4.1697060546875,0.28422961407899855,0.03180529732257128,-0.25081326483059674
1772731597104734200,4.179734130859375,0.3433440663486719,-0.022187281888723372,-0.271215672596544
1772731597114762200,4.18976220703125,0.4517196853935718,-0.024521570055186747,-0.26102734646145254
1772731597124790300,4.199790283203125,0.5584615657567977,0.025738252368569373,-0.2135649362038821
1772731597134818300,4.209818359375,0.6191758544385433,0.06732084733992814,-0.11648308378532528
1772731597144846000,4.21984619140625,0.6366641648560762,0.10726678102016449,-0.030355792634002864
1772731597154874400,4.229874267578125,0.6054758303880691,0.12079144850373268,0.061258624691516154
1772731597164902100,4.239902099609375,0.5137608387649059,0.10518968248516321,0.008369257481768727
1772731597174930400,4.249930419921875,0.44967152069211,0.05362111555039882,-0.0645539764424786
1772731597184958200,4.259958251953125,0.3920902693390846,0.03485474802106619,-0.031711116233095527
1772731597194986200,4.269986328125,0.34410920550227164,0.08898585892021656,0.021632789811119435
1772731597205014300,4.28001416015625,0.22954759129881858,0.14276479538083076,0.07906970079001038
1772731597215042300,4.290042236328125,0.1584656378597021,0.19989567261785268,0.14212328260689974
1772731597225070300,4.3000703125,0.08579670749008655,0.21004560297131536,0.20384890375565737
1772731597235098400,4.310098388671875,-0.043702363604307175,0.23303163402229546,0.208596463608928
1772731597245126100,4.320126220703125,-0.14482581956386564,0.20617256093025207,0.2039086711188778
1772731597255154400,4.330154541015625,-0.22925766844153403,0.2325236845001578,0.1690713126240298
1772731597265182200,4.34018212890625,-0.2608995918959379,0.2706190218776464,0.12652969989478588
1772731597275209200,4.350209228515625,-0.2709416779607534,0.22306232093274592,0.11937274081222712
1772731597285237200,4.3602373046875,-0.31985680777728553,0.1832549189403653,0.13142203851360826
1772731597295265300,4.370265380859375,-0.31858839527666566,0.21275603097379206,0.12765304136890918
1772731597305293300,4.380293212890625,-0.3194453043669462,0.1885731913536787,0.0903910495430231
1772731597315321000,4.390321044921875,-0.23698680138885975,0.12782704622894525,0.06141118490472436
1772731597325349400,4.400349365234375,-0.1790577595114708,0.10462269625216722,0.07686126749292016
1772731597335377000,4.410376953125,-0.1516173794001341,0.1529980201035738,0.1009710053442046
1772731597345405000,4.420405029296875,-0.12204290986955166,0.15513649343699215,0.09325666810721159
1772731597355433000,4.430432861328125,-0.05122749841213226,0.07187076572924853,0.10182265373747795
1772731597365461000,4.4404609375,-0.006642506754398345,0.04160509906411171,0.0691169369764626
1772731597375489000,4.450489013671875,0.01026654247045517,0.06698065560013056,0.05343845245987176
1772731597385516800,4.460516845703125,0.030812486892938612,0.06408785676807165,0.07776055442020297
1772731597395545000,4.470545166015625,0.034730537119507784,0.043159342768788335,0.08478135643508285
1772731597405572900,4.48057275390625,0.038899931758642196,0.06112637661397457,0.08216470766328275
1772731597415601000,4.490600830078125,0.03428454691767693,0.0560708467900753,0.10295940268244594
1772731597425629000,4.50062890625,-0.015364157870411873,0.04476122500747442,0.1425665693949908
1772731597435657000,4.510656982421875,-0.09139701171517371,0.0487988099604845,0.16185162703618405
1772731597445685000,4.52068505859375,-0.12985562944710255,0.04746054709404707,0.13212580286879091
1772731597455713000,4.530713134765625,-0.10573767175674438,0.03272065860182047,0.08687968042120336
1772731597465740800,4.54074072265625,-0.05937514903247356,-0.012006079614162444,0.011943754967674611
1772731597475768800,4.550768798828125,-0.01973345899581909,-0.05809855322539806,-0.0797543220533058
1772731597485796900,4.560796875,0.005528408032655715,-0.0616194208279252,-0.1257081909114495
1772731597495825000,4.570824951171875,-0.04865443305373192,-0.06561316663920878,-0.13159947743974626
1772731597505853000,4.58085302734375,-0.15023264704346656,-0.042454701630771155,-0.13402706991285085
1772731597515880700,4.590880615234375,-0.1923947954684496,-0.01155745906382799,-0.15539233136158437
1772731597525909000,4.600908935546875,-0.24032032972574233,-0.018333821330964565,-0.1265919514760375
1772731597535936800,4.610936767578125,-0.22130875526368618,0.0015209259569644927,-0.13950564745441077
1772731597545965000,4.620965087890625,-0.19185820437371728,-0.00847878227084875,-0.2681451791100204
1772731597555992800,4.630992919921875,-0.18630173929035662,-0.10738426991999149,-0.3745411686450243
1772731597566020900,4.641020751953125,-0.09138122962415218,-0.14199176518172024,-0.33668417006805534
1772731597576049000,4.651048828125,0.04209142127633095,-0.14430179568976162,-0.2422589696381241
1772731597586077000,4.661076904296875,0.1167991639971733,-0.09259645063281059,-0.1779202799141407
1772731597596105000,4.67110498046875,0.09828969383835792,-0.08999620500653982,-0.20354988427646456
1772731597606133000,4.681133056640625,0.1785427957266569,-0.12425678652673959,-0.2718382249416783
1772731597616160800,4.691160888671875,0.36485680997669695,-0.17411387336850165,-0.20705482365749775
1772731597626189000,4.70118896484375,0.5143371773481369,-0.2116854791328311,-0.13795878333859146
1772731597636216800,4.711216796875,0.5769610990434885,-0.16936317171007395,-0.13378054780587553
1772731597646245000,4.7212451171875,0.49891515181064605,-0.12389379843324422,-0.09215564806275069
1772731597656272000,4.73127197265625,0.33159459184408185,-0.09697159697711467,-0.08954798631500452
1772731597666300000,4.7412998046875,0.1612462084889412,-0.08886778549849987,-0.09836564515139908
1772731597676328000,4.751327880859375,0.0560708467900753,-0.12544891892075538,-0.10986918207090347
1772731597686355700,4.761355712890625,0.05072656315267086,-0.13807839113026857,-0.14833415647838263
1772731597696384000,4.771384033203125,0.11088730960488319,-0.08338701599985361,-0.11864194231964648
1772731597706411800,4.781411865234375,0.19288111768066882,-0.06492547663599252,-0.11378686697129159
1772731597716440000,4.791440185546875,0.318608269020915,-0.07209522213488817,-0.0667048343334347
1772731597726467800,4.8014677734375,0.37571781120896336,-0.0531383004695177,0.006722768916375935
1772731597736495900,4.811495849609375,0.3599456570595503,-0.010557342110574245,0.041886254093050954
1772731597746524000,4.82152392578125,0.25574060169756413,0.024569208589196204,0.0720353451738134
1772731597756552000,4.831552001953125,0.167637955352664,0.06422083549797535,0.155056377405487
1772731597766580000,4.841580078125,0.06542319702506065,0.10066665210276841,0.16905984138194471
1772731597776608000,4.85160791015625,-0.033144729232788085,0.17507073570191858,0.17248462819885463
1772731597786635800,4.8616357421875,-0.060147886970639226,0.2274456505835056,0.20460772276632486
1772731597796664000,4.8716640625,-0.11578735660612582,0.24459493830502033,0.28326413004770873
1772731597806691800,4.88169189453125,-0.19758885698020456,0.28054566486924887,0.354580294101499
1772731597816720100,4.89172021484375,-0.20559446878135204,0.3255921365588903,0.3691291170010343
1772731597826748000,4.901747802734375,-0.10888181500136851,0.3513309734493494,0.3493084546457976
1772731597836776000,4.91177587890625,0.00890928264260292,0.33224399566352364,0.33720837660524994
1772731597846804000,4.921803955078125,0.11855389871001243,0.28165742550343276,0.29655926309172065
1772731597856832000,4.93183203125,0.19883155051767826,0.23940233809798955,0.22675679153651
1772731597866860000,4.941860107421875,0.2257610584974289,0.22767010698914528,0.15384977809470146
1772731597876888000,4.95188818359375,0.19123276595175265,0.19852555330842733,0.08302720624413341
1772731597886915800,4.961915771484375,0.14317337618172168,0.13452946647703648,0.012461495231464505
1772731597896943900,4.97194384765625,0.12278700623512268,0.016914309921860694,-0.045467948504723604
1772731597906972000,4.981971923828125,0.1498264043301344,-0.061009764496982095,-0.06474358073044569
1772731597917000000,4.992,0.21187223387658594,-0.1359028006568551,-0.10254077541157602
1772731597927028000,5.002028076171875,0.16271218938827514,-0.21261019276231527,-0.13512158715128897
1772731597937055700,5.0120556640625,0.09857903217375277,-0.2366422257348895,-0.05990428747311234
1772731597947084000,5.022083984375,-0.029232524225115776,-0.17073416780233383,-0.006391418070159852
1772731597957111800,5.03211181640625,-0.24353753820657728,-0.11398118396699428,-0.006838321587443351
1772731597967139800,5.042139892578125,-0.4737380404561758,-0.11495499743521213,0.04145589985176921
1772731597977168000,5.05216796875,-0.6333154389500618,-0.12296937706470489,0.0555787158915773
1772731597987196000,5.06219580078125,-0.655870385107398,-0.11956395253539084,0.09085190852042287
1772731597997224000,5.072223876953125,-0.6127689100056887,-0.11051175429075956,-0.0064221054693683974
1772731598007252000,5.082251953125,-0.4590419911056757,-0.150205759036541,0.0001720686312764883
1772731598017279700,5.09227978515625,-0.2883370493978262,-0.14153963750004767,-0.015402809380367397
1772731598027308000,5.10230810546875,-0.13625029892027377,-0.08409954818338156,-0.049944545929506416
1772731598037335800,5.112335693359375,-0.02419686814546585,-0.08939707006961106,-0.042355698235705494
1772731598047362800,5.12236279296875,-0.020690905851125718,-0.1016042252138257,-0.12270871683452278
1772731598057390800,5.132390869140625,-0.009891863939166069,-0.09299714038819074,-0.2319718045047484
1772731598067419000,5.1424189453125,0.002034136176109314,-0.0500099393159151,-0.2960719362325035
1772731598077447000,5.152447021484375,-0.012081482937932014,-0.05062777895331382,-0.30486827828623353
1772731598087475000,5.162474853515625,-0.07556640537679195,-0.03632365152984857,-0.33767526346463705
1772731598097503000,5.1725029296875,-0.10008417603969573,0.006874854205548763,-0.44259241261873394
1772731598107530800,5.18253076171875,-0.04822539398670196,0.03315641967058182,-0.5789161421013995
1772731598117559000,5.19255908203125,0.01575812562406063,0.017725626304745674,-0.660035468897596
1772731598127586800,5.2025869140625,0.035707857719063756,0.0013034838140010834,-0.6690824795104563
1772731598137614800,5.21261474609375,0.0395358915746212,0.06834609873443842,-0.6712871499478816
1772731598147643000,5.222642822265625,0.06641688423752784,0.13859890787303447,-0.6901238062344491
1772731598157671000,5.2326708984375,0.14601006091237068,0.17131284447312353,-0.6866099528945983
1772731598167699000,5.242698974609375,0.2715443200290203,0.18373188880234956,-0.659134720665589
1772731598177727000,5.25272705078125,0.38998306792676446,0.22302286570519209,-0.5874983116814866
1772731598187754800,5.262754638671875,0.5026543383389711,0.31151421910673377,-0.5079821822982281
1772731598197783000,5.272782958984375,0.5225491253763437,0.36381373066455125,-0.4532978944957256
1772731598207810800,5.282810791015625,0.5022305599689484,0.3963540642634034,-0.3920213688213378
1772731598217839000,5.292839111328125,0.5069798003226519,0.399551398999989,-0.2888924730571918
1772731598227867000,5.302866943359375,0.5738263081490993,0.3821963595733046,-0.2936343886209652
1772731598237895000,5.31289501953125,0.6566045446008444,0.40693391046673055,-0.26248035828135907
1772731598247923000,5.3229228515625,0.6502426083534956,0.41257396218031644,-0.20536805788064375
1772731598257951000,5.332950927734375,0.6093880353957414,0.40956981192827224,-0.0928824462336488
1772731598267978000,5.34297802734375,0.505437247055769,0.3991968864738941,0.031547413571365174
1772731598278005800,5.353005859375,0.3926595936596393,0.3814168996334076,0.05179919735286385
1772731598288034000,5.363033935546875,0.4052940343052149,0.3635267304167151,0.05712039237562567
1772731598298061800,5.373061767578125,0.45306817739307875,0.2934077767908573,0.03974591759610921
1772731598308089900,5.38308984375,0.4536597135454416,0.2619347801625728,0.07519808352105319
1772731598318118000,5.393117919921875,0.4035293627202511,0.23361411008536814,0.10596716966368257
1772731598328146000,5.40314599609375,0.3592588438391685,0.19916648156046865,0.1371780447570607
1772731598338173700,5.413173583984375,0.334953254622221,0.1615425610870123,0.1308997316725552
1772731598348201500,5.423201416015625,0.2747118441492319,0.0970487538665533,0.11120174584891647
1772731598358229800,5.433229736328125,0.18302140244543552,0.044423663616180414,0.05950779896881431
1772731598368257500,5.443257568359375,0.0027022446960210797,0.01852963616400957,0.04269910484589636
1772731598378285600,5.45328564453125,-0.16644143904447556,0.006134557232260703,0.06476856904122978
1772731598388313600,5.463313720703125,-0.3228367003709078,0.023213410066068172,0.046861996679008006
1772731598398341600,5.473341552734375,-0.40771220136284825,0.016269874538481235,0.039866804029420014
1772731598408369700,5.48336962890625,-0.41975627489984035,-0.031522973249852655,0.016056962440162897
1772731598418397700,5.493397705078125,-0.3628150750160217,-0.08724661403745412,-0.03778256336757913
1772731598428425500,5.503425537109375,-0.2822223659098148,-0.11877221763581036,-0.10816765711633487
1772731598438453500,5.51345361328125,-0.2261485965102911,-0.17145196068286894,-0.15811216651322318
1772731598448481500,5.5234814453125,-0.2004500916302204,-0.20587211667895317,-0.1609125378214754
1772731598458509600,5.533509521484375,-0.18650573742985724,-0.20706746394336223,-0.17134413466053083
1772731598468537600,5.54353759765625,-0.14420155018568037,-0.22293547968268393,-0.20233265397381037
1772731598478565400,5.5535654296875,-0.1569879665225744,-0.22865414959043262,-0.2098152100152336
1772731598488593700,5.56359375,-0.2222965972572565,-0.1756818533375859,-0.19326149530038236
1772731598498621400,5.573621337890625,-0.27964930055141446,-0.1468535259991884,-0.1887899759095162
1772731598508649500,5.5836494140625,-0.33702713828682895,-0.1475865164488554,-0.18323029595576226
1772731598518677500,5.593677490234375,-0.3659147945970297,-0.17655512904077766,-0.22698254485009237
1772731598528705500,5.60370556640625,-0.32191958552598954,-0.18952274716347456,-0.25340209401370956
1772731598538733600,5.613733642578125,-0.21254326500594614,-0.1778887157320976,-0.2602369450024329
1772731598548761600,5.62376171875,-0.10509820480942726,-0.14050649506002663,-0.2300547371033579
1772731598558789400,5.633789306640625,-0.03633855683803558,-0.09798866506516933,-0.20245759552773088
1772731598568817700,5.643817626953125,0.0008978256225585938,-0.05785071594417095,-0.17005498989913612
1772731598578845400,5.653845458984375,0.07641746924817562,-0.07617489266395569,-0.22111436520274727
1772731598588873700,5.663873779296875,0.17034604526758193,-0.08174129461944103,-0.19075999734085053
1772731598598900500,5.673900390625,0.26409692663252354,-0.039730245102941986,-0.14459612072752787
1772731598608930600,5.6839306640625,0.3547276301503181,0.01546440337449312,-0.05656076746517792
1772731598618957600,5.69395751953125,0.40518882036507126,0.06842150205820799,0.05101588322175667
1772731598628985600,5.703985595703125,0.4067272819787264,0.08773615112006664,0.11778643973516299
1772731598639013600,5.714013671875,0.3889700914919376,0.11490648211836814,0.10281305301431566
1772731598649041700,5.724041748046875,0.3451028927147388,0.09149024295657873,0.07676873037125914
1772731598659069400,5.7340693359375,0.2766863590925932,0.07982727769166231,0.05590078745279461
1772731598669097700,5.74409765625,0.2605512168496847,0.1426975753635168,0.07749182048141956
1772731598679125500,5.75412548828125,0.2199485728263855,0.1266568334057927,0.10350244178427383
1772731598689153500,5.764153564453125,0.15863807181715964,0.1282628072977066,0.12686857646033167
1772731598699181600,5.774181640625,0.12252747851610182,0.12719634710997343,0.1358820775292348
1772731598709209300,5.784209228515625,0.1429249543786049,0.09132979169785976,0.09467663617404178
1772731598719237600,5.794237548828125,0.16126666675508022,0.07564356226623058,0.08038039979608728
1772731598729265400,5.804265380859375,0.19751871435344218,0.058443128879368304,0.0860393936721608
1772731598739293700,5.814293701171875,0.21992051577568053,0.07443418647646903,0.07046844291696325
1772731598749321500,5.824321533203125,0.18788988526463507,0.07042407405227423,0.05904333239537663
1772731598759349500,5.834349609375,0.0784662184715271,0.014843348866701125,0.01700527614094317
1772731598769377500,5.84437744140625,-0.03458089951574802,0.022414953164756297,-0.031826833300944414
1772731598779405600,5.854405517578125,-0.08050444630086422,0.03110328653305769,-0.014107755467994138
1772731598789433600,5.86443359375,-0.18651918143332002,0.07136456977277994,0.0311836948255077
1772731598799461600,5.874461669921875,-0.29740064581930636,0.10984423029273747,0.08622650460894218
1772731598809489400,5.884489501953125,-0.32888591740727424,0.1360480543464422,0.15293499220418744
1772731598819517700,5.894517578125,-0.27127602448165417,0.1535395796343684,0.1637074657696299
1772731598829545500,5.90454541015625,-0.19217209262847898,0.1092401269197464,0.13392527177250013
1772731598839573500,5.914573486328125,-0.10292319885790348,0.03984393461048603,0.09847106002094223
1772731598849601500,5.9246015625,-0.0844049608707428,0.028491350468993187,0.04897199283661321
1772731598859629600,5.934629638671875,-0.15041092621982097,0.015014321519434451,0.027221969853993503
1772731598869657600,5.94465771484375,-0.23842063358426094,0.04774667055904865,0.04903508466808125
1772731598879685600,5.954685546875,-0.30384675321877,0.07793108868151903,0.061618233517836775
1772731598889713400,5.96471337890625,-0.3259294056892395,0.10407821411192417,0.022705515342857686
1772731598899741700,5.97474169921875,-0.33119419434964653,0.1046840710505843,-0.020729338165372608
1772731598909769500,5.98476953125,-0.3557826921612024,0.09483400042653083,-0.06583990633348002
1772731598919797800,5.9947978515625,-0.35060908891558645,0.10378215377479791,-0.0864910829624161
1772731598929825500,6.004825439453125,-0.2566600546300411,0.08726794908642768,-0.10500922961803152
1772731598939853300,6.014853271484375,-0.17723346669375895,0.031601299183070655,-0.13729701322792098
1772731598949881600,6.024881591796875,-0.11709668563902377,0.005271802923083305,-0.17790396810015663
1772731598959909400,6.034909423828125,-0.017715104910731316,-0.04122779018431902,-0.175822942308709
1772731598969936600,6.0449365234375,0.0918465090483427,-0.07630114939212798,-0.16505318129016086
1772731598979965400,6.05496533203125,0.24639643476903436,-0.12197539759129285,-0.17401050432557238
1772731598989992700,6.06499267578125,0.37659985474050045,-0.1668617102831602,-0.2124692864542827
1772731599000020500,6.0750205078125,0.34512802715599533,-0.19424509951025246,-0.1885839684760198
1772731599010048500,6.085048583984375,0.21601941668391225,-0.18949059845954178,-0.15162706054393202
1772731599020076500,6.09507666015625,0.029056583136320112,-0.16858020463883877,-0.1364302768633701
1772731599030104600,6.1051044921875,-0.1246902095079422,-0.12305559404343366,-0.15276517946207896
1772731599040132600,6.115132568359375,-0.21786299872398376,-0.12341945891976355,-0.20580692422194405
1772731599050160600,6.12516064453125,-0.2524170102328062,-0.1289879067018628,-0.24129461811799555
1772731599060188400,6.1351884765625,-0.23186814320087432,-0.09970365228950977,-0.2472302917772904
1772731599070216700,6.145216796875,-0.20850363422632215,-0.07651070048958063,-0.252926055733487
1772731599080244500,6.155244384765625,-0.17665420550107955,-0.0759366999939084,-0.252803379201889
1772731599090272800,6.165272705078125,-0.13523615344166756,-0.10062982722371816,-0.28484699705867095
1772731599100300500,6.175300537109375,-0.11336977407038211,-0.11248743827790021,-0.2961630303157493
1772731599110328300,6.185328369140625,-0.012190204009413718,-0.12308043622374534,-0.29454434307273475
1772731599120356600,6.195356689453125,0.13001169679164887,-0.13982348123192787,-0.24453151767998932
1772731599130384400,6.20538427734375,0.2978530657619238,-0.130343412964046,-0.21151311824060975
1772731599140412700,6.21541259765625,0.43133740710020063,-0.11425444795042276,-0.1761130478290841
1772731599150440400,6.2254404296875,0.5381880085349082,-0.07700929766148329,-0.12506650460758245
1772731599160468500,6.235468505859375,0.5372603722959757,-0.052448272378742694,-0.08110346250678412
1772731599170496500,6.24549658203125,0.42324060988426204,-0.04481704684793949,-0.07254408471381757
1772731599180524500,6.255524658203125,0.3519809617906809,0.000732113666832447,-0.038777908247592856
1772731599190552600,6.265552490234375,0.34036592732071874,0.05660276170969009,0.03097236504621105
1772731599200580600,6.27558056640625,0.2947270426958799,0.12234306185990572,0.14546548744058235
1772731599210608400,6.2856083984375,0.2571826171994209,0.1784428424835205,0.1554703285012394
1772731599220636700,6.29563671875,0.2778717694848776,0.22175094607323406,0.17673972836006432
1772731599230664400,6.30566455078125,0.40185763011574743,0.24410306313484906,0.2492627291866578
1772731599240692700,6.315692626953125,0.5522539432883262,0.2643836346194148,0.337854419423826
1772731599250720500,6.325720458984375,0.6410784741669893,0.21101561704725025,0.37463476521261035
1772731599260748500,6.33574853515625,0.6515607052147389,0.22810499127507208,0.4285702439418062
1772731599270776600,6.345776611328125,0.5838789156079291,0.27979776911139487,0.4400060859199613
1772731599280804600,6.3558046875,0.46621933538913723,0.24594109221696853,0.34877935273777694
1772731599290832600,6.36583251953125,0.36166181332767006,0.1834723610833287,0.34324257873557507
1772731599300860700,6.375860595703125,0.2507949619889259,0.20001023890823125,0.38570349091142414
1772731599310888400,6.385888427734375,0.1478261704236269,0.2680757671356201,0.41302766076456754
1772731599320916700,6.395916748046875,0.05885141741931438,0.3156885821819305,0.4416223254775628
1772731599330945800,6.40594580078125,0.04328092332184314,0.3013818244099617,0.423282184003666
1772731599340973800,6.415973876953125,0.06344166781902313,0.2506260351628065,0.3644115138946101
1772731599351001900,6.426001953125,0.03896890534162521,0.21195991216003893,0.2915826802555471
1772731599361028600,6.436028564453125,-0.00021101240217685698,0.1754562278881669,0.2101516571616754
1772731599371057000,6.446056884765625,0.04832534722983837,0.1467129484847188,0.1343383095527999
1772731599381084700,6.456084716796875,0.14651216521561145,0.05910977609455585,0.1027996181440074
1772731599391112700,6.46611279296875,0.22156536037325858,0.0027238720059394833,0.12585349939996376
1772731599401140700,6.476140625,0.29768355441391464,0.015176818604767321,0.14165756479129193
1772731599411168800,6.486168701171875,0.28737200375795363,0.04073912988454103,0.12388407162367365
1772731599421196800,6.49619677734375,0.22574235379695892,0.021604513564705847,0.10729878359362482
1772731599431224800,6.506224853515625,0.1372556765705347,-0.009935118559002875,0.11691895445194095
1772731599441252600,6.516252685546875,0.0504980150938034,-0.012400631889700888,0.1165829365637619
1772731599451281000,6.526281005859375,-0.029523031604290005,-0.0019520108506083486,0.09494708714587613
1772731599461308700,6.53630859375,-0.07860299659371375,-0.02129851635545492,0.041635877794865515
1772731599471337000,6.5463369140625,-0.10122574729025363,-0.060926762388646596,-0.023797813224745914
1772731599481364700,6.55636474609375,-0.1775491085141897,-0.0776075558155775,-0.05257401765026152
1772731599491392800,6.566392822265625,-0.2795060926884413,-0.07844371437877416,-0.07130022213256451
1772731599501420800,6.5764208984375,-0.34457506944835187,-0.07839549132287502,-0.04586109427446499
1772731599511448800,6.58644873046875,-0.4593669852763414,-0.06536532935798167,-0.006317667847359552
1772731599521476900,6.596476806640625,-0.49500177775919435,-0.01518120251893997,0.011569610725925304
1772731599531505000,6.6065048828125,-0.479897732129693,-0.00936199484616518,-0.012619183710939251
1772731599541532700,6.61653271484375,-0.41270168021321296,-0.036272505864500995,-0.0503562320029363
1772731599551560700,6.626560791015625,-0.36397593548893925,-0.08881839339882135,-0.11825899828351102
1772731599561588700,6.636588623046875,-0.3255494664609432,-0.10275631785839795,-0.17584590305918826
1772731599571616800,6.64661669921875,-0.3091045276165008,-0.12510989622473717,-0.1994118346236646
1772731599581644800,6.656644775390625,-0.2604372350811958,-0.13056816163063048,-0.20961157720191403
1772731599591672600,6.666672607421875,-0.14772855526804923,-0.13293518302291632,-0.1883940536607988
1772731599601700900,6.676700927734375,-0.04125087879896164,-0.12268442264348267,-0.1683273258563131
1772731599611728600,6.686728759765625,0.06959317618608474,-0.09268588248193263,-0.1811149112369865
1772731599621756700,6.696756591796875,0.15022095660567283,-0.11583616418391465,-0.17005634160600602
1772731599631784700,6.70678466796875,0.16542261739075184,-0.15636019001305101,-0.22218374799992888
1772731599641812700,6.716812744140625,0.12987550319135188,-0.1931353847026825,-0.31052582912389187
1772731599651840800,6.7268408203125,0.1523521234154701,-0.22474808206260202,-0.3145319960253313
1772731599661868800,6.736868896484375,0.23229893583357333,-0.2105453691869974,-0.2920462426466867
1772731599671896600,6.746896484375,0.28965047008395195,-0.19288930098712442,-0.2618150079741143
1772731599681924900,6.7569248046875,0.32037937034666536,-0.184713885577023,-0.24654753367751836
1772731599691952600,6.76695263671875,0.3193564570397138,-0.1557031874090433,-0.19442328735506162
1772731599701981000,6.77698095703125,0.30262393342554567,-0.14831483072340487,-0.1886710622375831
1772731599712008700,6.7870087890625,0.23119009780883787,-0.1687877099096775,-0.18431257476713508
1772731599722035700,6.79703564453125,0.1493599558621645,-0.15920651935487984,-0.20190169694432988
1772731599732063700,6.807063720703125,0.16408113965392113,-0.16588438968360422,-0.24728618668299168
1772731599742091800,6.817091796875,0.1866127049356699,-0.18487550587952137,-0.2220702594217844
1772731599752119800,6.827119873046875,0.16699147414267063,-0.22132658318132162,-0.28968541353316973
1772731599762147600,6.837147705078125,0.1813572686254978,-0.25498832202553745,-0.31994123465772717
1772731599772176000,6.84717578125,0.24118951377570627,-0.28432956732213494,-0.3448524981502443
1772731599782203600,6.85720361328125,0.25170856970250605,-0.28463001157343387,-0.3118444739744067
1772731599792231700,6.867231689453125,0.18706921653151512,-0.2502475572392344,-0.2384875065417029
1772731599802259700,6.877259765625,0.11398995179533958,-0.20469956576824186,-0.16564740258995442
1772731599812287700,6.887287841796875,0.0735381144195795,-0.18010346917212008,-0.07844939520088955
1772731599822315800,6.897315673828125,0.043325931507349015,-0.1457455647572875,-0.06466563838971778
1772731599832343800,6.90734375,0.04079553624689579,-0.10242430942505598,-0.03737412869716063
1772731599842371600,6.91737158203125,0.07048574111163616,-0.05635960060358047,-0.012311821095086634
1772731599852399900,6.92739990234375,0.07236439446508884,-0.06267974353581666,0.03662679919488728
1772731599862427600,6.937427734375,0.10218611675500869,-0.040004385869204996,0.10622991225309669
1772731599872456000,6.9474560546875,0.15748773273825645,-0.012539455838501452,0.1821964959286153
1772731599882483700,6.957483642578125,0.16238602617383002,0.01207768354564905,0.1846873994288966
1772731599892511700,6.96751171875,0.15584113457500934,0.0423071098536253,0.1916651660196483
1772731599902539800,6.977539794921875,0.07666355296373367,0.061412792339920995,0.23050215207729488
1772731599912567800,6.98756787109375,-0.05097556947767734,0.15129589236080646,0.33049364486485716
1772731599922595800,6.997595947265625,-0.22734686638414858,0.2470493457198143,0.3656880001038313
1772731599932624000,7.007623779296875,-0.43605917492508883,0.34322102449089287,0.3941542891968041
1772731599942651600,7.017651611328125,-0.6109720897167921,0.409245694540441,0.37082521686181424
1772731599952680000,7.027679931640625,-0.7254162150204181,0.41115912694633006,0.3511480911631137
1772731599962707700,7.037707763671875,-0.767645583462715,0.4432192758128047,0.30430490878243
1772731599972735700,7.04773583984375,-0.7366022104233503,0.4675888701766729,0.2639091124428436
1772731599982763800,7.057763671875,-0.637539194124937,0.5031690098628402,0.22332444246765223
1772731599992791600,7.06779150390625,-0.5238526091903448,0.50174248419106,0.15669380588158965
1772731600002819800,7.07781982421875,-0.4522884251922369,0.47093175086379047,0.056219936404563485
1772731600012847600,7.08784765625,-0.4400900378763675,0.44170828672796486,-0.03845869079716503
1772731600022876000,7.0978759765625,-0.5759785177469253,0.33991350737810133,-0.10484463190715759
1772731600032903700,7.107903564453125,-0.6807558200389147,0.23144261126518248,-0.08180011213459074
1772731600042931700,7.117931640625,-0.697687665617466,0.20005553935468195,-0.04059526443444192
1772731600052959700,7.127959716796875,-0.6599988632142544,0.16732231353223323,-0.010452383898757397
1772731600062987800,7.13798779296875,-0.5273813678383827,0.09740063604414463,-0.022397673236392437
1772731600073015800,7.148015869140625,-0.3660872285544872,0.008733926075696945,-0.0935591947177425
1772731600083043800,7.1580439453125,-0.16420096664130687,-0.12317249842137097,-0.2553886464547366
1772731600093070800,7.16807080078125,0.019651041409373283,-0.29832360588312146,-0.4084272542970255
1772731600103099000,7.178098876953125,0.1620470034778118,-0.38057080419808625,-0.5080953603491187
1772731600113126700,7.188126708984375,0.2601677704900503,-0.3610921967461705,-0.5536926708545535
1772731600123154700,7.19815478515625,0.32506723590195175,-0.3449436104997992,-0.7031142937760799
1772731600133182700,7.2081826171875,0.37926761264503,-0.422397729319334,-0.7571065076611936
1772731600143210800,7.218210693359375,0.4197223726302385,-0.4396560303732753,-0.786837629058212
1772731600153238800,7.22823876953125,0.39020635528862474,-0.335911870521307,-0.8572982357285917
1772731600163266600,7.2382666015625,0.37376258548796176,-0.28125176731199025,-0.8908744882464409
1772731600173294800,7.248294921875,0.3494482284426689,-0.25273119074851275,-0.8660098038420081
1772731600183322600,7.258322509765625,0.3274544232994318,-0.24857670141756533,-0.7699956537202001
1772731600193351000,7.268350830078125,0.37101357904076576,-0.195542153583467,-0.6972139106258749
1772731600203378700,7.278378662109375,0.48697278508245945,-0.1534361192598939,-0.5978268500048667
1772731600213406700,7.28840673828125,0.626532062420249,-0.1043970708027482,-0.4799282003331929
1772731600223434800,7.298434814453125,0.8241700192391872,-0.07781184621602297,-0.3444317154549062
1772731600233462800,7.308462890625,0.9599988778769969,-0.046615036180615424,-0.19701624472402035
1772731600243490800,7.31849072265625,1.0450006355971098,-0.005384323386847973,-0.12051679628081619
1772731600253518800,7.328518798828125,1.0684510692894458,0.0535784454524517,-0.03474825543928891
1772731600263546600,7.338546630859375,0.9980804789900779,0.10413374369144439,0.05475479575544595
1772731600273575000,7.348574951171875,0.8269745552659035,0.17325901010483502,0.1464517402652651
1772731600283602700,7.358602783203125,0.5660322932720184,0.24845044468939304,0.21829620250947773
1772731600293630700,7.368630615234375,0.2634837631702423,0.27776918589323757,0.32013898571953175
1772731600303658800,7.37865869140625,0.01642740318775177,0.3382809377402067,0.4145430702961981
1772731600313686800,7.388686767578125,-0.09040916972160339,0.41524142782390117,0.5051462647525593
1772731600323714800,7.39871484375,-0.047771220478415484,0.45578035896122454,0.5274154893036932
1772731600333743000,7.4087431640625,0.018355156379938124,0.436801225464046,0.516856466692686
1772731600343771000,7.41877099609375,0.07278700379133224,0.3898275851041078,0.5472396953228861
1772731600353799200,7.428799072265625,0.014627660289406775,0.3992945016294718,0.5778967359257862
1772731600363827000,7.438826904296875,-0.11523615246415138,0.39499475860893724,0.5555452033860608
1772731600373855200,7.448855224609375,-0.3178565738707781,0.36842765420079227,0.5312190097725018
1772731600383883000,7.458883056640625,-0.41890930268168447,0.3191261554151773,0.483425467864424
1772731600393911000,7.4689111328125,-0.43039808042347427,0.2830845356971025,0.42307840505987404
1772731600403939000,7.47893896484375,-0.3665641984164715,0.23874270514547824,0.2980679506216198
1772731600413967000,7.488967041015625,-0.17845628648698328,0.16255758334845302,0.16937055129893122
1772731600423995100,7.4989951171875,0.13801087885200977,0.1105754671767354,0.128116348031722
1772731600434023200,7.509023193359375,0.4056155213445425,0.06188187115639448,0.12843414527662098
1772731600444050200,7.51905029296875,0.5590607006937265,0.056143327504396434,0.12245083308331668
1772731600454078000,7.529077880859375,0.4516945509523153,0.03653846332430839,0.11837441395726055
1772731600464106000,7.53910595703125,0.2601420515269041,-0.0015147884771227835,-0.048714090819098055
1772731600474134000,7.549134033203125,0.14767068760097027,-0.0964019803956151,-0.16849533936697988
1772731600484162000,7.559162109375,0.1010965679526329,-0.31740210810154673,-0.20921751811672
1772731600494190000,7.569190185546875,0.10353343971073627,-0.3489142676964402,-0.2476912968851626
1772731600504218000,7.579218017578125,0.11087211203575134,-0.28452596667706964,-0.30184688463844356
1772731600514246000,7.589245849609375,0.06278174260556697,-0.23095628905296325,-0.2659390473678708
1772731600524274200,7.599274169921875,-0.010900164198875427,-0.22422581175416706,-0.18083127199001608
1772731600534302000,7.609302001953125,-0.12730360687673092,-0.22367022369801998,-0.1432099087998271
1772731600544330200,7.619330322265625,-0.2986269727438688,-0.1837584845483303,-0.1263423240965232
1772731600554358000,7.62935791015625,-0.44509179168641566,-0.15209230343550442,-0.12142591048236935
1772731600564386000,7.639385986328125,-0.49499651706218717,-0.14163316100239753,-0.1284957027381286
1772731600574414000,7.6494140625,-0.4820809213876724,-0.14791238740235566,-0.11276161557678133
1772731600584442000,7.659442138671875,-0.4321007926881313,-0.14199264196455477,-0.09190335380211472
1772731600594470100,7.66947021484375,-0.33116379921138284,-0.08499912737160921,-0.04045841324701905
1772731600604498200,7.679498291015625,-0.24173662626445291,-0.09069558544754981,-0.03308430428244173
1772731600614526000,7.68952587890625,-0.18932605554759502,-0.06474047545790672,0.0019391148364171385
1772731600624554200,7.69955419921875,-0.13907821582257746,-0.07548837170451879,0.042016346746124325
1772731600634582000,7.70958203125,-0.12421557773351669,-0.05346767855435609,0.0464683942515403
1772731600644610000,7.719610107421875,-0.10757423953413962,-0.06395838516950607,-0.029333317718468605
1772731600654638000,7.72963818359375,-0.09170388570725917,-0.09088643184453249,-0.08294606729932129
1772731600664665900,7.739665771484375,-0.09869359846413135,-0.09870382759720087,-0.09610628538466989
1772731600674694100,7.749694091796875,-0.12790683346688747,-0.07981120333969592,-0.10903353496436029
1772731600684722000,7.759721923828125,-0.12478256396651267,-0.03896335238367319,-0.1292126919010654
1772731600694750000,7.76975,-0.09470774369835853,-0.03966565543413162,-0.14819620931241662
1772731600704778000,7.779778076171875,-0.03358896586894989,-0.07336626498401165,-0.20851327883750198
1772731600714806000,7.789805908203125,0.054070612883567806,-0.085711951816082,-0.2397118424385786
1772731600724834000,7.799833984375,0.1493763224750757,-0.11073971782773732,-0.2766304276542738
1772731600734862000,7.809862060546875,0.11472469581067561,-0.11396189474463463,-0.2007930233163759
1772731600744889900,7.819889892578125,0.07582476405203342,-0.011183365054428577,-0.10449106922913343
1772731600754918100,7.829918212890625,0.06539221736490726,0.09129413586258887,-0.02492792236637324
1772731600764946000,7.83994580078125,0.14726269132196904,0.12478899370729922,0.001097512913122773
1772731600774974200,7.84997412109375,0.25285890878140926,0.058548342819511885,-0.01779390576798469
1772731600785002000,7.860001953125,0.3391396003961563,0.024832243439555167,-0.04336271985378116
1772731600795029200,7.870029296875,0.3574345510214567,0.06025894612967968,-0.028037103895470497
1772731600805057000,7.88005712890625,0.3434960420399904,0.07810732203125953,0.023208770423568784
1772731600815085000,7.8900849609375,0.3070399963021278,0.11921966914236545,0.09099595663361251
1772731600825113000,7.900113037109375,0.2545429163455963,0.1589934611260891,0.12100205904711037
1772731600835140900,7.910140869140625,0.18985738594532012,0.15874766967147588,0.15649678547214715
1772731600845169200,7.920169189453125,0.11248889958262442,0.18847966785132883,0.15674487848170102
1772731600855197000,7.930197021484375,0.11824468663036823,0.18131869018077848,0.10043551022801547
1772731600865225000,7.940224853515625,0.12457155156433582,0.16685265019387005,0.07082045295871794
1772731600875253000,7.9502529296875,0.14408406128585338,0.20031243672519922,0.07426551537867634
1772731600885281000,7.960281005859375,0.12991291259229182,0.20855273406505584,0.07115794128477573
1772731600895309000,7.97030908203125,0.061525605064630506,0.20492080730348824,0.08551496793925761
1772731600905337000,7.980337158203125,-0.050149640047550195,0.2147229471325874,0.12200345464199781
1772731600915364900,7.99036474609375,-0.13599778546392916,0.2251779979124665,0.08787976084183902
1772731600925393200,8.00039306640625,-0.1401443837493658,0.2347790622115135,0.023935952186957002
1772731600935421000,8.0104208984375,-0.08242635427415371,0.2039753431469202,0.016298479578457772
1772731600945449200,8.02044921875,-0.08652677533030509,0.1810650076806545,0.053144839808158574
1772731600955477000,8.03047705078125,-0.07019815634191036,0.19156740473359823,0.05929362649517134
1772731600965505000,8.040505126953125,-0.05886018524765968,0.2046680015861988,0.02364356337795034
1772731600975533000,8.050532958984375,-0.02988368161022663,0.15357085155546665,-0.035421058400627224
1772731600985561000,8.06056103515625,-0.022410569250583646,0.09422989705353975,-0.06520319759882987
1772731600995589000,8.070589111328125,-0.008557400465011597,0.0737163935959339,-0.07292873208327219
1772731601005617200,8.0806171875,0.03221884655952453,0.09400105673372745,-0.08761069810949265
1772731601015645000,8.09064501953125,0.06000467910766601,0.09559855505824089,-0.06880398030346259
1772731601025673200,8.100673095703126,0.12575170125961302,0.07312719553112983,-0.017361432634852826
1772731601035701000,8.110700927734374,0.19237024554908275,0.028338497994840145,0.0009795125566422938
1772731601045729300,8.120729248046874,0.2479945176154375,-0.005649696324765682,-0.017309994708560407
1772731601055757000,8.130757080078125,0.29599545519649983,-0.04200461977571249,-0.061125883423630144
1772731601065784800,8.140784912109375,0.3436538629502058,-0.03403027989566326,-0.03668760773772373
1772731601075813000,8.150813232421875,0.34870062494575976,-0.025604689116775988,-0.005337799097690731
1772731601085841000,8.1608408203125,0.3179378224134445,-0.01341799223870039,-0.02337232695482671
1772731601095869200,8.170869140625,0.2886065139889717,-0.020867139200866223,-0.026783085246384144
1772731601105897000,8.18089697265625,0.26315935352146624,-0.0475701449483633,-0.0323367738507688
1772731601115925000,8.190925048828126,0.25224925245046614,-0.06919803938865661,-0.011152915117237715
1772731601125953000,8.200953125,0.24775369459688662,-0.07399287244975566,0.010060772498976439
1772731601135981000,8.21098095703125,0.22993571383357048,-0.07403641933053731,0.02494648093637079
1772731601146009000,8.221009033203124,0.23425123894512653,-0.045913025391101835,0.05739498979961499
1772731601156036000,8.2310361328125,0.20084815103709697,-0.07072393378168344,0.06348926982041447
1772731601166064000,8.241064208984374,0.14465630821585654,-0.05902326685488224,0.04887185693038627
1772731601176092200,8.251092041015625,0.029088147318363188,-0.04160714489072561,0.03989506200952455
1772731601186120000,8.261119873046875,-0.02105798559784889,-0.0386468337804079,-0.0028101437835954127
1772731601196148200,8.271148193359375,-0.015011691170930862,-0.09978139370083808,0.039011593705881385
1772731601206176000,8.281176025390625,-0.24681553696393965,0.05327917024493217,0.16687104436708614
1772731601216204300,8.291204345703125,-0.36782267404496666,0.16939590493589637,0.10224581105299294
1772731601226232000,8.301232177734375,-0.40525194872915743,0.1183566225722432,0.23801881131771951
1772731601236259800,8.311259765625,-0.393109675514698,0.12401128733307122,0.19128769274307414
1772731601246288100,8.3212880859375,-0.3863701381266117,0.17355623948574064,0.13108399306512436
1772731601256316000,8.33131591796875,-0.42485272125601764,0.20092296983897684,0.10945890250327064
1772731601266344200,8.34134423828125,-0.4775707504868507,0.2027440477862954,0.11951758350986055
1772731601276372000,8.3513720703125,-0.4991051214247942,0.21159224789142608,0.11322271201619878
1772731601286400000,8.36139990234375,-0.4436392547905445,0.2332911617413163,0.11641237490298226
1772731601296428000,8.371427978515625,-0.3191016054958105,0.2713984818175435,0.14468160705389455
1772731601306456000,8.3814560546875,-0.18224457285404205,0.29148908368796106,0.14018463356136343
1772731601316484000,8.391484130859375,-0.06596914047002791,0.3096104313120246,0.1309302272755187
1772731601326512000,8.40151220703125,0.03172960173785686,0.29094606285244223,0.1227528756366577
1772731601336539100,8.4115390625,0.06161854404509067,0.22823300156891344,0.09158895409069955
1772731601346567000,8.42156689453125,0.15485446162521838,0.19259587099850176,0.03562531226845458
1772731601356595000,8.431594970703125,0.21352526178061962,0.14905337413102387,-0.02808535435083322
1772731601366623000,8.441623046875,0.2712251710772514,0.11295739387720823,-0.10495409276415593
1772731601376651000,8.451651123046876,0.28501988767385483,0.0715317430332303,-0.14814239676594734
1772731601386679000,8.461678955078124,0.3041752545207739,0.06197188752740621,-0.1746921116478741
1772731601396707000,8.47170703125,0.3004606179118156,0.07851677961498499,-0.20507740437099709
1772731601406734800,8.48173486328125,0.29128888494074345,0.024466332736611366,-0.1786652713288553
1772731601416763100,8.49176318359375,0.26195816103816033,-0.014152736254036426,-0.18912666051797566
1772731601426791000,8.501791015625,0.2125619697064161,-0.037002865965664385,-0.2258077837159857
1772731601436819200,8.511819091796875,0.16655600533485412,-0.011877192537486552,-0.25284133659210056
1772731601446847000,8.521846923828125,0.1203764379620552,-0.04722907642573118,-0.2555136245412752
1772731601456875000,8.531875,0.09171499162316321,-0.0962798153206706,-0.2333199311780743
1772731601466903000,8.541903076171875,0.08192424997091292,-0.10218436318933963,-0.19822909111250192
1772731601476931000,8.55193115234375,0.12907003202736378,-0.12520108163952826,-0.2102187310485169
1772731601486959000,8.561958984375,0.11351648906469344,-0.09351122739017009,-0.165086151978001
1772731601496985900,8.57198583984375,0.022554946157336234,-0.10287585258483886,-0.13881349133863113
1772731601507015000,8.582014892578124,-0.05406301409900188,-0.12006810266524552,-0.1090196069037076
1772731601517042000,8.5920419921875,-0.06113046826720237,-0.11158259839266538,-0.07065170422911178
1772731601527070000,8.602070068359374,-0.05815758993625641,-0.10300386287868023,-0.11457515867161563
1772731601537098000,8.612097900390625,-0.07459142286479473,-0.11643179198950529,-0.12269159216978587
1772731601547126000,8.6221259765625,-0.09074000911116599,-0.16368220346421003,-0.1282677026685327
1772731601557154000,8.632154052734375,-0.10991641874611377,-0.16787731706649064,-0.12631394738540985
1772731601567182000,8.64218212890625,-0.1626087290138006,-0.15179624309837816,-0.0921753391439095
1772731601577209900,8.6522099609375,-0.1631722081154585,-0.12455021651536226,-0.0656050929306075
1772731601587238100,8.662238037109375,-0.12135901925861835,-0.12026391749829053,-0.03401087194229476
1772731601597266000,8.672265869140626,-0.08686755159199237,-0.10026917721778154,0.008353715136053506
1772731601607294200,8.682294189453126,-0.07934300130605697,-0.1060308094844222,0.034297801408183295
1772731601617322000,8.692322021484374,-0.04082710042893886,-0.09805617734342813,0.045661507448600605
1772731601627350000,8.70235009765625,0.02939969748556614,-0.08377309270799159,0.04607093763286248
1772731601637378000,8.7123779296875,0.08998363778591155,-0.0714580932751298,0.03215823209622176
1772731601647406000,8.722406005859375,0.11316051523387431,-0.041842707212269306,0.06809231576961465
1772731601657434000,8.73243408203125,0.10328267982006073,-0.02919920647740364,0.12005873204870149
1772731601667462100,8.742462158203125,0.09083703974485396,-0.008115209655463695,0.14944061988294124
1772731601677490000,8.752489990234375,0.07923544927835464,0.04344137458056211,0.14681721257679164
1772731601687518200,8.762518310546875,0.09378653720021247,-0.00360153162330389,0.11135387680386193
1772731601697546000,8.7725458984375,0.13971592920422554,-0.07680179239064455,0.01673170848012669
1772731601707574000,8.782573974609376,0.10731880346834659,-0.10393792885839938,-0.035534026388963684
1772731601717602000,8.79260205078125,0.08012099994122981,-0.04179448415637016,0.001735335892625153
1772731601727629800,8.8026298828125,0.0954237830132246,0.049663025574386115,0.09782730049099772
1772731601737658000,8.812658203125,0.08836801928281783,0.0713446960285306,0.168118651541695
1772731601747686000,8.822685791015624,0.12592238165140152,0.09391922366917133,0.18925134634356944
1772731601757714000,8.8327138671875,0.179113289090991,0.10877075584232807,0.1800556479750201
1772731601767742000,8.842741943359375,0.25495792688727376,0.10823445700854062,0.13372925601005553
1772731601777770000,8.85277001953125,0.2734802565276623,0.1133008004873991,0.14062253178828396
1772731601787798000,8.862798095703125,0.22997078514695166,0.15651479605287313,0.18603234776444733
1772731601797826000,8.872825927734375,0.17412614832818507,0.2007645644068718,0.21308710782537235
1772731601807853800,8.882853759765625,0.08395078736245631,0.1967228878006339,0.183222587573342
1772731601817882000,8.892882080078126,0.015271803411841391,0.13675561809390782,0.1416272883840371
1772731601827910000,8.902909912109376,-0.008996960926055907,0.127952426174283,0.058995145872095596
1772731601837938200,8.912938232421874,-0.001925415104627609,0.1294832890033722,-0.017293112072418442
1772731601847965000,8.92296484375,0.07380933257639408,0.116594581335783,-0.015547229669603984
1772731601857993000,8.932992919921874,0.15045242727398872,0.09528408228158951,0.02734575834715506
1772731601868021000,8.94302099609375,0.16586743854880331,0.10771014087349176,0.03667623696033843
1772731601878049000,8.953049072265625,0.18296821095347404,0.1300233872294426,0.04271549885827117
1772731601888077000,8.9630771484375,0.20472236212193964,0.11048778889328241,0.014294204251072369
1772731601898104800,8.973104736328125,0.1985322753101587,0.011583470287919043,0.014165157344192266
1772731601908133000,8.983133056640625,0.16186112551689147,-0.05538374130874872,-0.006380202556401491
1772731601918161000,8.993160888671875,0.10154664980769157,-0.10736001226156949,-0.07461072122030891
1772731601928189000,9.00318896484375,-0.023788287344574926,-0.10036562332957982,-0.09036039867643267
1772731601938217000,9.013217041015626,-0.19823124653697013,-0.0868400790631771,-0.04682049562484026
1772731601948245000,9.023244873046876,-0.3242962515294552,-0.037405017025768754,0.02340813805372454
1772731601958273000,9.03327294921875,-0.3610778759598732,-0.006978899101912975,0.06853773058271036
1772731601968301000,9.043301025390624,-0.3308171777307987,-0.03627016777694225,0.05334508422114886
1772731601978328800,9.053328857421874,-0.20657412746846673,-0.05729571240991354,0.0028975115397945044
1772731601988357000,9.063357177734375,-0.04676175117492676,-0.08583528593480587,-0.0693635960807558
1772731601998385000,9.073385009765625,-0.029518355429172513,-0.11927666002660989,-0.1282859233118128
1772731602008413200,9.0834130859375,-0.007294833183288574,-0.1358677293434739,-0.15017789378208107
1772731602018441000,9.09344091796875,0.04173895457684994,-0.15773557001948355,-0.18408687625247985
1772731602028469000,9.103468994140625,0.08346680323779583,-0.13390344353318215,-0.1745616902012378
1772731602038497000,9.1134970703125,0.05646247645616531,-0.08688508724868298,-0.16029884463623165
1772731602048525000,9.123525146484376,0.010304536393284797,-0.04254501026272774,-0.11207608099803328
1772731602058553000,9.133552978515626,-0.012038812839984894,0.025234394499659536,-0.055750784522853786
1772731602068581000,9.1435810546875,-0.03681961835324764,0.040058161883056165,-0.04461543246177025
1772731602078609000,9.15360888671875,-0.009307342049479484,0.020126257705688474,-0.11505021970430389
1772731602088637200,9.16363720703125,0.018318916022777555,0.021224282075464725,-0.18298903454579413
1772731602098665000,9.1736650390625,0.021575871992111206,0.020736206297576425,-0.19183944487432017
1772731602108693200,9.183693359375,-0.003996960681676864,0.043482583373785015,-0.1686384741647169
1772731602118721000,9.193720947265625,-0.03254033359885215,0.07611790177971124,-0.12563887026859447
1772731602128748800,9.203748779296875,-0.021948796957731245,0.13850450758785007,-0.09242005288628861
1772731602138777000,9.213777099609375,0.024047230541706082,0.1864136752322316,-0.06601131737763062
1772731602148804900,9.223804931640625,0.060597968825697894,0.1803477993220091,-0.06790030032885261
1772731602158833200,9.233833251953126,0.06214753635525703,0.18725567901432513,-0.08610447653131559
1772731602168861000,9.24386083984375,0.04212999972105026,0.1673106230944395,-0.08904702365607954
1772731602178889000,9.253888916015624,0.05107376915514469,0.15536796410530804,-0.1194112735911738
1772731602188916000,9.263916015625,0.0981248586654663,0.14592092132419346,-0.1417069386246614
1772731602198944000,9.273944091796874,0.11139525912702083,0.13707856643795965,-0.19183316126400604
1772731602208972000,9.283971923828124,0.09574527005255222,0.1129369356110692,-0.23485488566039128
1772731602219000000,9.294,0.0923912834495306,0.12043839728236198,-0.19290088182706386
1772731602229028000,9.304028076171875,0.10819967795610427,0.13954261846393345,-0.15239313127929344
1772731602239056100,9.31405615234375,0.12549041997492313,0.17403788552284238,-0.13935580892125143
1772731602249084000,9.324083984375,0.10624795936644077,0.18747049080878495,-0.12130250329840928
1772731602259111000,9.33411083984375,0.023877134671807288,0.1457759598955512,-0.11675839359536766
1772731602269139000,9.344138916015625,0.004373977300524711,0.17345540945976973,-0.1208579652681481
1772731602279167000,9.3541669921875,-0.038436405900120735,0.20179040032327175,-0.1341824157381896
1772731602289195000,9.364195068359376,-0.0645493367999792,0.17186054148375987,-0.16867553650578482
1772731602299223000,9.37422314453125,-0.03820785784125328,0.1158648057565093,-0.19942186282733454
1772731602309251000,9.3842509765625,0.05381050064265728,0.09206745832264422,-0.24556542730499056
1772731602319278800,9.39427880859375,0.17630583045482634,0.13748013297617434,-0.16156265402697026
1772731602329307100,9.40430712890625,0.1567448054164648,0.17075345702469347,-0.1082385029959958
1772731602339335000,9.4143349609375,0.05921265194714069,0.06344517495036125,-0.11777551648234948
1772731602349363200,9.42436328125,0.09111118051111698,0.018758476483821868,-0.16635423568505792
1772731602359391000,9.434390869140625,0.2448796004652977,-0.040432255892455575,-0.1455874881187454
1772731602369419000,9.4444189453125,0.2544692665874958,-0.1105620231732726,-0.23233800746863706
1772731602379447000,9.454447021484375,0.13199030338823795,-0.18038024028688668,-0.30900198055747896
1772731602389475000,9.46447509765625,0.20846973195672033,-0.20422873338609931,-0.3164850297892466
1772731602399503000,9.474503173828126,0.19006430669426916,-0.26230741286724807,-0.28768530749082566
1772731602409531100,9.48453125,0.11982523382008076,-0.25085955165773627,-0.2260493739195168
1772731602419559000,9.494558837890626,0.059958501878380775,-0.15867138956487178,-0.18777619575709104
1772731602429587000,9.5045869140625,0.041896775487065316,-0.09382949955910444,-0.10426600090214051
1772731602439615000,9.514614990234374,0.048363341152667993,-0.07997194685935974,-0.00019793372489511964
1772731602449643000,9.52464306640625,0.0059866731941699974,-0.03405716790258884,0.07234860324091277
1772731602459671000,9.534671142578125,-0.08929039482474327,-0.009849778363108635,0.09463667862298898
1772731602469698800,9.54469873046875,-0.18826923997104167,0.02364391043782234,0.17673039427613838
1772731602479727000,9.55472705078125,-0.3034212212830782,0.04014525564461946,0.18013755410481244
1772731602489755000,9.5647548828125,-0.24663199709057806,0.033383798685669895,0.17890574728753417
1772731602499782100,9.5747822265625,-0.11183598863184452,0.047106911350786686,0.20789649864602833
1772731602509810000,9.584809814453125,0.07077391040325165,0.08211831123828887,0.22253765773782505
1772731602519838200,9.594838134765626,0.1010486371576786,0.11683248174488543,0.25406941708233205
1772731602529866000,9.604865966796876,0.05964052197039127,0.14544424372315407,0.3478040048995986
1772731602539894000,9.61489404296875,-0.012328151175379753,0.19278554835170505,0.42463454846069215
1772731602549922000,9.624922119140624,-0.10674831010401248,0.18763269563317297,0.41216114359572525
1772731602559950000,9.6349501953125,-0.11714578547775745,0.17553221573382616,0.3665360683005303
1772731602569978000,9.64497802734375,-0.015037994655966757,0.14819588051885366,0.29489052616190164
1772731602580006100,9.655006103515625,0.09190671480298042,0.13320610891878604,0.22160731808515263
1772731602590034000,9.665033935546875,0.11691782194077968,0.10522241571098566,0.21461018920680508
1772731602600062000,9.67506201171875,0.07685702970921993,0.10497253260314464,0.19887493300167844
1772731602610091000,9.685091064453125,0.06273614989817142,0.14885346764475108,0.22209833473879842
1772731602620119000,9.695119140625,0.1089823527663946,0.16962854464799165,0.2640532701538876
1772731602630147000,9.70514697265625,0.1640519135594368,0.17720365607738495,0.24939758934639392
1772731602640175000,9.715175048828126,0.18440438123643396,0.1330985568910837,0.17718062226166947
1772731602650203000,9.725202880859374,0.2309878532350063,0.08915566252917051,0.1248086025900673
1772731602660231200,9.735231201171874,0.16510346843898296,0.020029227072000503,0.05393862053435296
1772731602670259000,9.745259033203125,0.06352408540546893,0.06267156022936106,0.03637514425506815
1772731602680287200,9.755287353515625,0.08841945720911025,0.10896598615348338,0.027340764794917774
1772731602690315000,9.76531494140625,0.08998948300480843,0.09159574915766716,0.06614193975366651
1772731602700342800,9.7753427734375,0.0971317559748888,0.09102204092293978,0.04228619492975995
1772731602710371000,9.78537109375,0.1107388410449028,0.0773132490441203,-0.04769652040754445
1772731602720398800,9.79539892578125,0.12408990552723408,0.057438628011941904,-0.08513067219625227
1772731602730427100,9.80542724609375,0.13194821781218052,-0.002389525485038757,-0.15726681999657302
1772731602740455000,9.815454833984376,0.09294950185418129,-0.025626608687639236,-0.1995977673835121
1772731602750483000,9.82548291015625,0.04735796350240707,-0.015896365050971507,-0.17431525942580772
1772731602760511000,9.835510986328124,0.028237667968869208,0.02712123115956783,-0.1499054243830964
1772731602770539000,9.8455390625,0.04385141668617725,0.04747311431467533,-0.13345842144573106
1772731602780567000,9.855567138671875,0.025417934373021124,0.044105391447246074,-0.1215496829925105
1772731602790595000,9.865594970703125,0.0045101709008216855,0.015426409451663493,-0.17606414891975
1772731602800622800,9.875622802734375,0.011586392897367476,-0.02529839964658022,-0.26401624434543775
1772731602810650000,9.885650146484375,0.06115268009901046,-0.061931263256072996,-0.3299043737348169
1772731602820678000,9.895677978515625,0.10071896681189536,-0.11158172160983085,-0.36138350784294304
1772731602830706200,9.9057060546875,0.03158522483110428,-0.15546733282655475,-0.36423944526333357
1772731602840734000,9.91573388671875,-0.048753801774978636,-0.11548691235482691,-0.33587592242509123
1772731602850762000,9.925761962890626,-0.06432604943811893,-0.04302314916849136,-0.2960627300127409
1772731602860790000,9.9357900390625,-0.028473814812302586,-0.048750294643640515,-0.20258173336405305
1772731602870817800,9.94581787109375,0.013230652973055838,-0.014402034839987754,-0.16363321322333066
1772731602880846000,9.95584619140625,0.06052724167704582,-0.022387188374996186,-0.19248391679031773
1772731602890873900,9.965873779296874,0.09163491212427616,-0.04136164569705725,-0.206973465516977
1772731602900902100,9.975902099609375,0.10750000525414943,-0.029438275930285453,-0.1595721012642607
1772731602910930000,9.985929931640625,0.10579437038004398,0.0010477554872632027,-0.09913226387603208
1772731602920958000,9.9959580078125,0.10920973178148269,0.04109422693252563,-0.036316089277900754
1772731602930986000,10.005986083984375,0.07181611293256282,0.0751636697947979,0.007173508358560502
1772731602941014000,10.016013916015625,0.01628302628099918,0.10281477004736661,-0.0009288783479481935
1772731602951042000,10.0260419921875,0.01415302851498127,0.12832915053218602,0.014169870051927864
1772731602961070000,10.036070068359376,0.08079553820192813,0.11662936038821935,0.06692081517167389
1772731602971097900,10.046097900390626,0.13645488158166408,0.1255348436385393,0.10530267787296324
1772731602981126100,10.056126220703124,0.17343933510780332,0.1521785204142332,0.0670356006577611
1772731602991154000,10.06615380859375,0.12655951051115988,0.1373643976420164,0.02229063266534358
1772731603001182000,10.076181884765624,0.02439385202229023,0.10706336740255355,0.03869920328846201
1772731603011210000,10.0862099609375,-0.07827800242304801,0.1226852994263172,0.08094331264216452
1772731603021238000,10.096238037109375,-0.0829319657087326,0.1356152158871293,0.1105306599206291
1772731603031266000,10.10626611328125,0.03151215959489345,0.14239566980749369,0.09381766299083828
1772731603041294000,10.116294189453125,0.17968378245532513,0.09535276360362768,0.043819596775807435
1772731603051321900,10.12632177734375,0.29808161382079124,0.07054419330060481,0.03915036285575479
1772731603061350100,10.13635009765625,0.2832797660082578,0.038732173976302145,0.03952465779455378
1772731603071378000,10.1463779296875,0.19346388600468634,-0.0009305588483810425,0.00019696561051532624
1772731603081406200,10.15640625,0.09606967970132828,-0.03263298031836748,-0.06913657325869425
1772731603091434000,10.16643408203125,0.067115972417593,-0.042428105884790415,-0.11702175723928958
1772731603101461800,10.176461669921874,0.08083002499341964,-0.04161269784867763,-0.10409887330746277
1772731603111490000,10.186489990234374,0.08347323297858238,-0.02867284451574087,-0.09725830496400595
1772731603121517800,10.196517822265625,0.10578852516114712,0.014119126245379447,-0.0957765967725776
1772731603131546000,10.206546142578125,0.10964110893607139,0.03983049060702323,-0.10652482181275263
1772731603141572900,10.21657275390625,0.0873807618111372,-0.021595453475415704,-0.15992730791009963
1772731603151601200,10.22660107421875,0.06033844110667705,-0.10241203446537256,-0.18853733458900823
1772731603161629000,10.23662890625,0.12923720528781413,-0.10365677382946013,-0.21876020329203455
1772731603171657000,10.246656982421875,0.18612755176723003,-0.11588643306642771,-0.23363168227467684
1772731603181685000,10.25668505859375,0.22236264823079108,-0.11377163286954164,-0.21034254009127615
1772731603191713000,10.266713134765626,0.2443430093705654,-0.12616086658239364,-0.1680407092009671
1772731603201741000,10.276740966796876,0.26846155158281326,-0.13164865034371614,-0.13163014657264574
1772731603211769000,10.28676904296875,0.24060440736413,-0.12964753965437412,-0.14206731463596223
1772731603221796900,10.296796875,0.10240823507308959,-0.11785305696427821,-0.1150604853699915
1772731603231825200,10.3068251953125,-0.05909925470054149,-0.08041033827662468,-0.061708158557303244
1772731603241853000,10.31685302734375,-0.1847656157642603,-0.0411392351180315,-0.024258389074355364
1772731603251881200,10.326881103515625,-0.22526479941308497,-0.047294250616431235,-0.04974398185610771
1772731603261909000,10.336908935546875,-0.1821598171800375,-0.04932341835647821,-0.05776775036845356
1772731603271936800,10.346936767578125,-0.1702916847318411,-0.026600714416801927,-0.002911649663001299
1772731603281965000,10.356965087890625,-0.2104541837722063,0.01820055034011602,0.06666039240350946
1772731603291992800,10.366992919921875,-0.22636896126270292,0.09000000439882277,0.07969028037376702
1772731603302021000,10.377021240234376,-0.21550503742098806,0.10737082591652869,0.11435091232853009
1772731603312049000,10.387048828125,-0.21625614804923532,0.10830343059152364,0.1433331150543876
1772731603322077000,10.397076904296876,-0.21595453475415705,0.10940379304885864,0.11727487348383292
1772731603332106000,10.40710595703125,-0.191526780462265,0.11990414427518845,0.06234167068786919
1772731603342133800,10.4171337890625,-0.18774550835788248,0.11146832436323165,0.03787871721843257
1772731603352161800,10.427161865234375,-0.18516659778058528,0.11857903315126896,0.06560008796192705
1772731603362189800,10.43718994140625,-0.15831190860271452,0.16431436388790607,0.12960711631244048
1772731603372217900,10.4472177734375,-0.11396481735408305,0.22080518965572118,0.1752955939663574
1772731603382246000,10.457245849609375,-0.08070435278713703,0.22367402309030293,0.1927651448844932
1772731603392274000,10.46727392578125,0.014449381113052367,0.20323972234874962,0.11510958520872518
1772731603402301700,10.4773017578125,0.11532441526949405,0.14449907182753086,0.05440912412293255
1772731603412330000,10.487330078125,0.17023673967421055,0.10594517702758312,0.04205487039191648
1772731603422357800,10.497357666015626,0.16878069564700127,0.10130728809386491,0.04346121179219335
1772731603432385800,10.5073857421875,0.1978881321877241,0.1116015953540802,0.016706987314112482
1772731603442413800,10.517413818359374,0.19647125112712382,0.08188713283091784,-0.009562211859691888
1772731603452440800,10.52744091796875,0.18972703756392,0.06873860518336296,-0.005895999236032366
1772731603462468900,10.53746875,0.2041501151919365,0.07255407181829214,-0.010156926349829882
1772731603472496600,10.54749658203125,0.1923147159695625,0.0518204958692193,-0.005196746659185737
1772731603482525000,10.55752490234375,0.1525666429489851,0.03923340149670839,-0.008294182951562106
1772731603492552700,10.567552734375,0.13537468512952328,0.027674481128156184,-0.03709081824375316
1772731603502581000,10.5775810546875,0.13032558504641056,0.006425941394269466,-0.04178756122523918
1772731603512608800,10.58760888671875,0.11244915209412575,-0.035033319458365436,-0.051733913564309474
1772731603522636800,10.59763671875,0.11502864719331264,-0.033413024780154225,-0.044618199807591734
1772731603532664800,10.607664794921876,0.06796294463574885,-0.02085544876307249,-0.029438367261830717
1772731603542692900,10.61769287109375,0.06681319007873535,-0.018288813145458698,-0.01949628923907876
1772731603552721000,10.627720947265624,0.04149930060207844,0.0046820203363895415,-0.046820002434495835
1772731603562749000,10.6377490234375,-0.038293782559037204,-0.017651976546645163,-0.052874133107997476
1772731603572776700,10.647776611328124,-0.07151449963748455,-0.052119478815793985,-0.07666371736051514
1772731603582804700,10.6578046875,-0.08943418720960616,-0.054470718117058274,-0.1116390960865654
1772731603592832800,10.667832763671875,-0.0482674795627594,-0.038733635281026364,-0.12518219427596777
1772731603602860800,10.67786083984375,-0.0006757073044776916,-0.03566168048977852,-0.10946089353095739
1772731603612888800,10.687888916015625,0.016277765583992004,-0.05726531727164983,-0.07727171145733445
1772731603622916600,10.69791650390625,-0.0008136544704437256,-0.0988221932798624,-0.1310047081506811
1772731603632945000,10.70794482421875,0.003251110750436783,-0.11518413001596926,-0.206790126573015
1772731603642972700,10.71797265625,0.04422083452045917,-0.120404787273705,-0.23235914158821105
1772731603653000700,10.728000732421876,0.108446346193552,-0.12716565971076488,-0.15145829811459408
1772731603663028700,10.73802880859375,0.10401216313838958,-0.11288578994572163,-0.10574227486662566
1772731603673056800,10.748056884765624,0.14833470446765423,-0.07729103721231222,-0.08000955718969925
1772731603683084800,10.758084716796875,0.23204116168022154,-0.06191285081654787,-0.029946974371094254
1772731603693112800,10.76811279296875,0.26537176887392994,-0.053912207451462746,-0.005951894141733646
1772731603703140600,10.778140625,0.2212853743880987,-0.031461890712380404,0.010981321409996598
1772731603713169000,10.7881689453125,0.08370821077823638,-0.04196399550437927,-0.02769464713335037
1772731603723196700,10.79819677734375,-0.06301379779577256,-0.029009529124200344,-0.04391081872321665
1772731603733225000,10.808224853515625,-0.18747136759161948,-0.02820493474304676,0.011670947641972452
1772731603743252700,10.818252685546875,-0.2434066053032875,0.005149053326249122,0.05374273263607174
1772731603753279700,10.82827978515625,-0.19378478852212427,0.06577069528847933,0.10171546703595667
1772731603763307800,10.838307861328126,-0.13308745097517966,0.1155009408801794,0.13011170483371243
1772731603773335800,10.848335693359376,-0.12313713484704494,0.13448182794302702,0.17578392547257243
1772731603783363800,10.85836376953125,-0.11198796432316302,0.10141104072928428,0.175361991999764
1772731603793391600,10.8683916015625,-0.07901274643838405,0.09713964702039957,0.1341854388123378
1772731603803420000,10.878419921875,-0.0185480486035347,0.10272650724202394,0.08590338273495435
1772731603813447700,10.88844775390625,0.01714285798072815,0.09990385103672743,0.05275571262640878
1772731603823475700,10.898475830078125,0.036945290559530254,0.08964140021950005,0.07806344635691494
1772731603833503700,10.908503662109375,0.0592471387386322,0.0971492916315794,0.0792989247023128
1772731603843531800,10.91853173828125,0.0699959117680788,0.12297989845871925,0.10663657509153708
1772731603853559800,10.928559814453125,0.0690595077008009,0.1597469098418951,0.1125252130050212
1772731603863587800,10.938587890625,0.09363046985566616,0.16440817965120078,0.09079831516966223
1772731603873615600,10.94861572265625,0.1334253046274185,0.10617518639117479,0.013701668018288909
1772731603883644000,10.958643798828126,0.21272622035741806,0.054232817707955835,-0.06498475080886855
1772731603893671700,10.968671630859374,0.39253158336579796,0.0002530979782342911,0.020313633503951132
1772731603903700000,10.978699951171874,0.28750527474880216,0.08373568330705165,0.23479846103172747
1772731603913727700,10.988727783203124,0.1958791304528713,0.17928426174372433,0.05024727346943691
1772731603923755800,10.998755859375,0.0065747022151947014,0.08509732704907655,-0.04911423258520663
1772731603933783800,11.00878369140625,-0.09331365899145602,-0.08095978885293006,-0.03700222664484754
1772731603943811800,11.018811767578125,0.05235504113733768,-0.025737960107624528,-0.039881380544044075
1772731603953839900,11.02883984375,0.24232348624169825,0.05151829805225134,-0.08718956835428253
1772731603963868000,11.038867919921875,0.16475743148028849,0.03335486485213041,0.011171364089380948
1772731603973895700,11.048895751953125,-0.14608604875802994,-0.06827127993255853,-0.09861845086868852
1772731603983924000,11.058924072265626,-0.5355301875025034,-0.19063918397277593,-0.17926093566706403
1772731603993951700,11.06895166015625,-0.9864110839843749,-0.3612438801765442,-0.2093164301802404
1772731604003979800,11.078979736328124,-1.2715724259555339,-0.4409083685219288,-0.17301645178692415
1772731604014007800,11.0890078125,-1.0180009849905967,-0.2909121605828404,-0.2863515381364152
1772731604024035600,11.09903564453125,-0.49949382848143575,-0.0639464024707675,-0.46852914670147
1772731604034064000,11.10906396484375,0.04058043219149112,-0.03816811035275459,-0.36758784237578507
1772731604044091600,11.119091552734375,0.4132745116651058,-0.0594280482634902,-0.14672593583045526
1772731604054120000,11.129119873046875,0.4637637589305639,0.10915537124574184,-0.14678570319367573
1772731604064146700,11.139146728515625,0.5098772753298282,0.24736498754024505,-0.2517832789065316
1772731604074175000,11.149175048828125,0.4833902504205703,0.16615736140608786,-0.10333508586073294
1772731604084202800,11.15920263671875,0.32683307653069493,0.003763444186747074,-0.0017726539620198309
1772731604094230800,11.169230712890625,0.1462958921164274,-0.06611643998622894,-0.012516696017421782
1772731604104258800,11.1792587890625,-0.0001613280415534973,-0.10136223315149545,0.004203278642427176
1772731604114286800,11.189286865234376,0.014724690923094749,-0.01516688173264265,-0.07262993179978802
1772731604124315000,11.19931494140625,0.03968085300326347,0.010552958196401596,-0.002639828717987984
1772731604134343000,11.209343017578124,0.09510229597389698,0.058818099671602245,0.13608093370273708
1772731604144370700,11.21937060546875,0.21517595159709452,0.04936579619348049,0.24322343075610695
1772731604154398700,11.229398681640625,0.23366145635843275,0.029069150356948376,0.3004630290646106
1772731604164426800,11.2394267578125,0.09758300687372684,0.05556231274604797,0.2215701096136123
1772731604174454800,11.249454833984375,-0.018075754916667935,0.08498568336814641,0.1361485190462321
1772731604184482800,11.25948291015625,0.005969722059369087,0.19423019420206544,0.12758414085116238
1772731604194510600,11.269510498046875,0.09815525380373001,0.22296762838661668,0.01252959203161299
1772731604204539000,11.279538818359375,0.06178221017420291,0.0928752675741911,-0.1549490445734933
1772731604214566700,11.289566650390626,-0.032872926554083824,0.008063771729171276,-0.18971593164801598
1772731604224595000,11.299594970703126,-0.051233928152918815,0.048156420403718946,-0.09128463738188147
1772731604234622700,11.309622802734374,0.001939443629980087,0.17341829231977463,0.028026436370983718
1772731604244650800,11.319650634765624,0.08019698778688907,0.2808659828647971,0.14082257527187467
1772731604254678800,11.3296787109375,0.15566753157377242,0.30483664103895425,0.23592344647366553
1772731604264706800,11.339706787109375,0.16392857944071293,0.23405104019790887,0.2721421032590791
1772731604274734800,11.34973486328125,0.13256547292768955,0.14552461548298595,0.2547934935731813
1772731604284763000,11.359762939453125,0.045019291421771045,0.022822072660923003,0.10884407680686563
1772731604294790700,11.369790771484375,-0.0035001170754432676,-0.0827948953256011,-0.14145871775094418
1772731604304819000,11.37981884765625,0.11557166802883148,-0.1379071262165904,-0.3357705258218571
1772731604314846700,11.3898466796875,0.28612872569859027,-0.1287044135853648,-0.25999343683645126
1772731604324874800,11.399874755859376,0.3457219013959169,0.012837854263186455,-0.0658718175753951
1772731604334902500,11.409902587890626,0.38159517880976196,0.2204024540737271,0.02903961373521015
1772731604344930600,11.4199306640625,0.39193127938508987,0.3348094622373581,0.1675206856485456
1772731604354957600,11.42995751953125,0.36273031934201716,0.3562865500301122,0.2592595878702588
1772731604364985600,11.439985595703124,0.2661976983040571,0.29740035355836153,0.302135729783494
1772731604375013600,11.450013671875,0.19141455225944518,0.2712824542224407,0.2664547966039739
1772731604385041700,11.460041748046875,0.1293517715781927,0.21113661307841539,0.15521617107708005
1772731604395069700,11.470069580078125,0.09023147506713866,0.15766016669571398,0.012562690583616495
1772731604405097700,11.48009765625,0.04992401459813118,-0.044029111340641976,-0.16283700307803228
1772731604415125500,11.49012548828125,0.12002689387202262,-0.13368337104171513,-0.3247621885407716
1772731604425153800,11.50015380859375,0.18389292458295822,-0.16097323676645756,-0.3653951546370983
1772731604435181600,11.510181640625,0.1419564016073942,-0.20506313838362691,-0.2293040648665279
1772731604445209900,11.5202099609375,-0.1466407600313425,-0.1380760530427098,-0.054750009982474146
1772731604455237600,11.530237548828126,-0.3365536755561828,0.02184095266908407,0.04024447823539376
1772731604465265400,11.540265380859376,-0.39819735404253004,0.045727439691126345,0.12127864749878645
1772731604475293700,11.550293701171874,-0.46984395562708375,-0.18494564850628376,0.2895932234713808
1772731604485321500,11.560321533203124,-0.4499339710205793,-0.32260406065881253,0.3480325529584661
1772731604495349800,11.570349853515625,-0.22748305998444557,-0.19252865098118782,0.1394780653277412
1772731604505377500,11.58037744140625,0.0910053820490837,-0.01642652640491724,-0.1702114225698635
1772731604515405600,11.590405517578125,0.3858592659950256,0.16272066495567558,-0.3525241287566721
1772731604525433600,11.60043359375,0.5911749178349971,0.2466384268313646,-0.41340515230745073
1772731604535461600,11.610461669921875,0.6180874746799468,0.2519163672342896,-0.36918756919000295
1772731604545489700,11.62048974609375,0.5645522838473319,0.16577771443873643,-0.2931236991524696
1772731604555517700,11.630517578125,0.35865678629279135,0.03526215977817774,-0.1250934200139716
1772731604565545500,11.64054541015625,0.1523836875975132,-0.0316170812740922,0.05188888493031263
1772731604575573800,11.65057373046875,0.05324994415044784,-0.03317833924144506,0.08826180069567635
1772731604585601500,11.6606015625,-0.01578209102153778,0.036004502578079696,0.054832975558191534
1772731604595629600,11.670629638671874,-0.06848141555190086,0.017663374723494052,-0.04149710864499211
1772731604605657600,11.68065771484375,-0.00788929194509983,-0.039196284356713296,-0.21124151649130507
1772731604615685600,11.690685546875,0.006725508862733841,-0.11551759975403547,-0.23479338299781083
1772731604625713700,11.700713623046875,-0.1393459268480539,-0.1808542875394225,-0.1339907016915269
1772731604635740400,11.710740478515625,-0.28687925180494783,-0.03392126656323671,-0.023630996157322077
1772731604645768700,11.720768798828125,-0.32234862459301944,0.18841537044346332,0.05510804790621623
1772731604655796500,11.73079638671875,-0.2497416535437107,0.2820794503077865,0.09349045859677717
1772731604665824800,11.74082470703125,-0.10650456447601318,0.2123059491187334,0.052579314879886804
1772731604675852500,11.7508525390625,0.022415829947590827,0.046777241005003446,-0.03941317851040512
1772731604685880600,11.760880615234376,0.08159399510324,-0.11436842971891165,-0.10745718902572989
1772731604695908600,11.77090869140625,0.04329728993475437,-0.12099661568701267,-0.0683362166612409
1772731604705936600,11.7809365234375,-0.05721767873764038,0.04213964433223009,-0.04488832198586315
1772731604715964700,11.790964599609374,-0.14842121370732783,0.15583791970461605,0.034966939691267906
1772731604725992700,11.80099267578125,-0.18584464317262173,0.21586831777542828,0.1789613133996725
1772731604736020500,11.8110205078125,-0.3410153311401605,0.3040162645667791,0.13192388708852232
1772731604746048800,11.821048828125,-0.10820260056555271,0.38143501981198785,0.014978409955836831
1772731604756076500,11.83107666015625,0.4990747262865305,0.41348727763295173,0.3820142444720492
1772731604766104600,11.8411044921875,0.5172060107827187,0.24078619367182252,0.29105903997393323
1772731604776132600,11.851132568359375,0.30310908659398555,0.10915186411440372,-0.034663335368502884
1772731604786160600,11.86116064453125,0.14946809241175651,0.054881929266452786,-0.20963137788092717
1772731604796188700,11.871188720703126,-0.00027881694138050077,0.03591127133667469,-0.14779385732291264
1772731604806216700,11.881216796875,-0.17414952920377252,0.05872165355980396,-0.14048459375547245
1772731604816244500,11.891244384765624,-0.20382102936804294,0.10728402441591024,-0.13645855310978366
1772731604826272800,11.901272705078124,-0.024117957690358162,0.18152853353917597,-0.27887663567848503
1772731604836300500,11.911300537109375,0.2118693112671375,0.14808978979587553,-0.4835124154955148
1772731604846328800,11.921328857421875,0.352708107021451,0.0023167525097727774,-0.354493638731353
