time,seconds_elapsed,z,y,x
1772642982094052600,0.047052490234375,-0.9914398193359375,-0.017059326171875,-0.0164337158203125
1772642982104117500,0.057117431640625,-0.990478515625,-0.0174407958984375,-0.016876220703125
1772642982114175500,0.067175537109375,-0.9899139404296875,-0.0194854736328125,-0.015716552734375
1772642982124227800,0.077227783203125,-0.990753173828125,-0.0190582275390625,-0.0175323486328125
1772642982134272500,0.0872724609375,-0.99249267578125,-0.018524169921875,-0.017059326171875
1772642982144316700,0.097316650390625,-0.9909515380859375,-0.017303466796875,-0.01678466796875
1772642982154361600,0.107361572265625,-0.9911041259765625,-0.017547607421875,-0.01727294921875
1772642982164406500,0.117406494140625,-0.989837646484375,-0.01885986328125,-0.0163726806640625
1772642982174450700,0.12745068359375,-0.990264892578125,-0.0184173583984375,-0.0171661376953125
1772642982184495600,0.13749560546875,-0.9906158447265625,-0.0184478759765625,-0.0166473388671875
1772642982194540800,0.147540771484375,-0.991058349609375,-0.017425537109375,-0.0170440673828125
1772642982204584700,0.157584716796875,-0.9913330078125,-0.017486572265625,-0.0167236328125
1772642982214629600,0.167629638671875,-0.99078369140625,-0.0190582275390625,-0.0163726806640625
1772642982224674800,0.1776748046875,-0.9907989501953125,-0.0189361572265625,-0.0163726806640625
1772642982234718500,0.187718505859375,-0.99102783203125,-0.0184783935546875,-0.01666259765625
1772642982244763600,0.197763671875,-0.991363525390625,-0.0188446044921875,-0.0167236328125
1772642982254808600,0.20780859375,-0.9901580810546875,-0.018768310546875,-0.01763916015625
1772642982264852700,0.217852783203125,-0.99078369140625,-0.0188446044921875,-0.016632080078125
1772642982274897700,0.227897705078125,-0.98980712890625,-0.0189208984375,-0.01708984375
1772642982284942600,0.237942626953125,-0.9907684326171875,-0.0185546875,-0.0173187255859375
1772642982294986800,0.24798681640625,-0.99169921875,-0.018524169921875,-0.0164031982421875
1772642982305031400,0.258031494140625,-0.9909820556640625,-0.0171051025390625,-0.0164031982421875
1772642982315076600,0.26807666015625,-0.99053955078125,-0.0189208984375,-0.0162506103515625
1772642982325120800,0.278120849609375,-0.9917755126953125,-0.019317626953125,-0.0186920166015625
1772642982335165700,0.288165771484375,-0.9903717041015625,-0.0186767578125,-0.0171966552734375
1772642982345210600,0.298210693359375,-0.990966796875,-0.0182952880859375,-0.0166168212890625
1772642982355254500,0.308254638671875,-0.9914703369140625,-0.0177459716796875,-0.01666259765625
1772642982365299700,0.3182998046875,-0.99066162109375,-0.01800537109375,-0.016448974609375
1772642982375344600,0.3283447265625,-0.99072265625,-0.0188751220703125,-0.0163116455078125
1772642982385388500,0.338388427734375,-0.99053955078125,-0.0178985595703125,-0.01715087890625
1772642982395433700,0.348433837890625,-0.9917449951171875,-0.0181884765625,-0.01806640625
1772642982405467000,0.358466796875,-0.990509033203125,-0.0184173583984375,-0.0164337158203125
1772642982415510500,0.368510498046875,-0.99017333984375,-0.0179443359375,-0.0166168212890625
1772642982425555700,0.3785556640625,-0.991241455078125,-0.01861572265625,-0.016815185546875
1772642982435600600,0.3886005859375,-0.9918212890625,-0.01849365234375,-0.0172882080078125
1772642982445644500,0.39864453125,-0.9912261962890625,-0.018280029296875,-0.01654052734375
1772642982455689700,0.408689697265625,-0.991058349609375,-0.017822265625,-0.0175628662109375
1772642982465734000,0.41873388671875,-0.991302490234375,-0.017791748046875,-0.0167694091796875
1772642982475778600,0.428778564453125,-0.9905242919921875,-0.0178375244140625,-0.017913818359375
1772642982485823700,0.43882373046875,-0.9910888671875,-0.01947021484375,-0.0182037353515625
1772642982495867600,0.44886767578125,-0.9915618896484375,-0.01812744140625,-0.01702880859375
1772642982505912800,0.458912841796875,-0.9929351806640625,-0.0181732177734375,-0.01678466796875
1772642982515957500,0.46895751953125,-0.992401123046875,-0.018951416015625,-0.0170745849609375
1772642982526001700,0.479001708984375,-0.9904022216796875,-0.0182342529296875,-0.0168609619140625
1772642982536046800,0.489046875,-0.99090576171875,-0.018218994140625,-0.0160980224609375
1772642982546091800,0.499091796875,-0.9901275634765625,-0.0189361572265625,-0.015472412109375
1772642982556135700,0.5091357421875,-0.9905853271484375,-0.018524169921875,-0.0177001953125
1772642982566180600,0.5191806640625,-0.991455078125,-0.0179901123046875,-0.0170135498046875
1772642982576225800,0.529225830078125,-0.99029541015625,-0.017669677734375,-0.0181427001953125
1772642982586270500,0.5392705078125,-0.9905853271484375,-0.0187225341796875,-0.0174407958984375
1772642982596314600,0.549314697265625,-0.9904632568359375,-0.018707275390625,-0.0167388916015625
1772642982606359800,0.55935986328125,-0.9898223876953125,-0.0180206298828125,-0.0166473388671875
1772642982616403500,0.569403564453125,-0.99090576171875,-0.017791748046875,-0.0171966552734375
1772642982626448600,0.57944873046875,-0.99151611328125,-0.0184326171875,-0.016021728515625
1772642982636493600,0.58949365234375,-0.9923248291015625,-0.018890380859375,-0.017669677734375
1772642982646538800,0.599538818359375,-0.98895263671875,-0.0184326171875,-0.01800537109375
1772642982656582700,0.609582763671875,-0.991241455078125,-0.018096923828125,-0.0162200927734375
1772642982666627600,0.619627685546875,-0.9908294677734375,-0.01898193359375,-0.015838623046875
1772642982676672800,0.6296728515625,-0.990875244140625,-0.018218994140625,-0.016143798828125
1772642982686716700,0.639716552734375,-0.9902801513671875,-0.0178985595703125,-0.0152740478515625
1772642982696761600,0.64976171875,-0.9905242919921875,-0.018310546875,-0.0168609619140625
1772642982706805800,0.6598056640625,-0.990325927734375,-0.0186004638671875,-0.0169830322265625
1772642982716850700,0.6698505859375,-0.9919586181640625,-0.018280029296875,-0.0167236328125
1772642982726895600,0.6798955078125,-0.990142822265625,-0.017791748046875,-0.015716552734375
1772642982736939800,0.689939697265625,-0.99072265625,-0.0178375244140625,-0.0169677734375
1772642982746984700,0.699984619140625,-0.9907379150390625,-0.0171356201171875,-0.0173492431640625
1772642982757030000,0.71002978515625,-0.9908294677734375,-0.017608642578125,-0.0162353515625
1772642982767073500,0.720073486328125,-0.9907684326171875,-0.018280029296875,-0.016021728515625
1772642982777118700,0.73011865234375,-0.9915008544921875,-0.018646240234375,-0.0180511474609375
1772642982787163600,0.74016357421875,-0.9908599853515625,-0.019256591796875,-0.0164337158203125
1772642982797208800,0.750208740234375,-0.990936279296875,-0.019287109375,-0.0161285400390625
1772642982807252700,0.760252685546875,-0.9908294677734375,-0.0186004638671875,-0.0174560546875
1772642982817297700,0.770297607421875,-0.991302490234375,-0.0180206298828125,-0.0146026611328125
1772642982827342800,0.7803427734375,-0.989898681640625,-0.017913818359375,-0.0162353515625
1772642982837386500,0.790386474609375,-0.990478515625,-0.018707275390625,-0.0175933837890625
1772642982847431700,0.800431640625,-0.9916839599609375,-0.01898193359375,-0.0167388916015625
1772642982857476600,0.8104765625,-0.9904022216796875,-0.0186309814453125,-0.0162353515625
1772642982867520500,0.8205205078125,-0.99176025390625,-0.018707275390625,-0.01751708984375
1772642982877565700,0.830565673828125,-0.990814208984375,-0.017578125,-0.0164794921875
1772642982887609600,0.840609619140625,-0.992156982421875,-0.0174102783203125,-0.016937255859375
1772642982897654800,0.85065478515625,-0.99017333984375,-0.0185699462890625,-0.0182342529296875
1772642982907699700,0.86069970703125,-0.9903717041015625,-0.018646240234375,-0.017059326171875
1772642982917744600,0.87074462890625,-0.991180419921875,-0.0184783935546875,-0.01702880859375
1772642982927788800,0.880788818359375,-0.991607666015625,-0.01806640625,-0.0162200927734375
1772642982937833700,0.890833740234375,-0.9915008544921875,-0.0172271728515625,-0.017181396484375
1772642982947877600,0.900877685546875,-0.9914398193359375,-0.0173797607421875,-0.0175628662109375
1772642982957922800,0.9109228515625,-0.9908905029296875,-0.0182647705078125,-0.017669677734375
1772642982967967700,0.9209677734375,-0.99053955078125,-0.0176849365234375,-0.0170745849609375
1772642982978013000,0.931012939453125,-0.9914398193359375,-0.0166473388671875,-0.01593017578125
1772642982988056600,0.941056640625,-0.989959716796875,-0.0182952880859375,-0.0164947509765625
1772642982998101800,0.951101806640625,-0.9899444580078125,-0.01898193359375,-0.017578125
1772642983008146700,0.961146728515625,-0.9913177490234375,-0.017974853515625,-0.0165252685546875
1772642983018190600,0.971190673828125,-0.9907073974609375,-0.018646240234375,-0.0159149169921875
1772642983028235800,0.98123583984375,-0.9905242919921875,-0.0181884765625,-0.01654052734375
1772642983038280700,0.99128076171875,-0.9909210205078125,-0.017578125,-0.0173492431640625
1772642983048324600,1.00132470703125,-0.9910430908203125,-0.0187225341796875,-0.016021728515625
1772642983058369500,1.01136962890625,-0.9907073974609375,-0.0183563232421875,-0.016937255859375
1772642983068414700,1.021414794921875,-0.9907989501953125,-0.0191650390625,-0.0165557861328125
1772642983078459000,1.031458984375,-0.9903564453125,-0.019775390625,-0.0157928466796875
1772642983088503600,1.041503662109375,-0.9915771484375,-0.0190277099609375,-0.0163726806640625
1772642983098548700,1.051548828125,-0.9912567138671875,-0.018646240234375,-0.0174407958984375
1772642983108592600,1.061592529296875,-0.9910430908203125,-0.019073486328125,-0.0177459716796875
1772642983118637800,1.071637939453125,-0.9913787841796875,-0.0178375244140625,-0.016510009765625
1772642983128682500,1.0816826171875,-0.99005126953125,-0.0177001953125,-0.017333984375
1772642983138726700,1.0917265625,-0.9896240234375,-0.019500732421875,-0.01629638671875
1772642983148771800,1.101771728515625,-0.9896087646484375,-0.018310546875,-0.0175018310546875
1772642983158816500,1.11181640625,-0.991455078125,-0.0179901123046875,-0.017578125
1772642983168860700,1.121860595703125,-0.990692138671875,-0.018585205078125,-0.01800537109375
1772642983178905600,1.131905517578125,-0.99151611328125,-0.0181884765625,-0.0162506103515625
1772642983188950800,1.14195068359375,-0.9902496337890625,-0.0184478759765625,-0.016510009765625
1772642983198994700,1.15199462890625,-0.9906158447265625,-0.0181121826171875,-0.016632080078125
1772642983209039600,1.16203955078125,-0.9906768798828125,-0.0177459716796875,-0.0153961181640625
1772642983219084800,1.172084716796875,-0.9902496337890625,-0.017486572265625,-0.014923095703125
1772642983229128700,1.182128662109375,-0.9907379150390625,-0.0190887451171875,-0.016754150390625
1772642983239173600,1.192173583984375,-0.9903717041015625,-0.0172119140625,-0.0158233642578125
1772642983249218800,1.20221875,-0.989776611328125,-0.017913818359375,-0.0167694091796875
1772642983259262700,1.2122626953125,-0.9911956787109375,-0.0177154541015625,-0.0168609619140625
1772642983269307600,1.2223076171875,-0.989990234375,-0.0175628662109375,-0.0171966552734375
1772642983279352600,1.2323525390625,-0.990264892578125,-0.0185546875,-0.0165863037109375
1772642983289396700,1.242396728515625,-0.99102783203125,-0.016754150390625,-0.016998291015625
1772642983299441700,1.252441650390625,-0.9919586181640625,-0.0174407958984375,-0.018341064453125
1772642983309486600,1.262486572265625,-0.9911041259765625,-0.018646240234375,-0.0162506103515625
1772642983319530800,1.27253076171875,-0.9907684326171875,-0.0180511474609375,-0.016937255859375
1772642983329575700,1.28257568359375,-0.990997314453125,-0.0181427001953125,-0.0162506103515625
1772642983339620600,1.29262060546875,-0.99261474609375,-0.01885986328125,-0.015655517578125
1772642983349664800,1.302664794921875,-0.9906463623046875,-0.017547607421875,-0.0165557861328125
1772642983359709700,1.312709716796875,-0.9926910400390625,-0.0172576904296875,-0.0170135498046875
1772642983369755000,1.3227548828125,-0.9905242919921875,-0.0174713134765625,-0.016845703125
1772642983379798500,1.332798583984375,-0.9900360107421875,-0.01812744140625,-0.0157928466796875
1772642983389843700,1.34284375,-0.991241455078125,-0.01763916015625,-0.015533447265625
1772642983399888600,1.352888671875,-0.9903411865234375,-0.0179901123046875,-0.0161285400390625
1772642983409932300,1.362932373046875,-0.98919677734375,-0.0191497802734375,-0.0167694091796875
1772642983419977500,1.3729775390625,-0.9921875,-0.018524169921875,-0.016571044921875
1772642983430022400,1.3830224609375,-0.9909210205078125,-0.0193328857421875,-0.016845703125
1772642983440066300,1.39306640625,-0.9911041259765625,-0.018646240234375,-0.0168304443359375
1772642983450111500,1.403111572265625,-0.99139404296875,-0.0174560546875,-0.016754150390625
1772642983460156400,1.413156494140625,-0.9905548095703125,-0.0178375244140625,-0.016571044921875
1772642983470200300,1.423200439453125,-0.9912872314453125,-0.016876220703125,-0.0159912109375
1772642983480245200,1.433245361328125,-0.9912567138671875,-0.0189056396484375,-0.016632080078125
1772642983490290400,1.44329052734375,-0.9898529052734375,-0.01971435546875,-0.016357421875
1772642983500334600,1.45333447265625,-0.9903564453125,-0.0182647705078125,-0.0167236328125
1772642983510379300,1.463379150390625,-0.9912872314453125,-0.0177764892578125,-0.016845703125
1772642983520424400,1.473424560546875,-0.9915618896484375,-0.0186920166015625,-0.0168304443359375
1772642983530468400,1.48346826171875,-0.991424560546875,-0.0181121826171875,-0.0172271728515625
1772642983540513500,1.493513427734375,-0.9912567138671875,-0.019012451171875,-0.016387939453125
1772642983550558200,1.50355810546875,-0.9913787841796875,-0.0176849365234375,-0.015533447265625
1772642983560602400,1.513602294921875,-0.990264892578125,-0.0191497802734375,-0.016082763671875
1772642983570647600,1.5236474609375,-0.99066162109375,-0.0179901123046875,-0.01751708984375
1772642983580692200,1.533692138671875,-0.98974609375,-0.01806640625,-0.016326904296875
1772642983590736400,1.543736328125,-0.9908294677734375,-0.0182647705078125,-0.0168914794921875
1772642983600781600,1.553781494140625,-0.990325927734375,-0.0182037353515625,-0.0164031982421875
1772642983610826500,1.563826416015625,-0.9905853271484375,-0.0177154541015625,-0.0174102783203125
1772642983620870400,1.573870361328125,-0.990631103515625,-0.0177001953125,-0.0161285400390625
1772642983630915300,1.583915283203125,-0.990753173828125,-0.0179595947265625,-0.01568603515625
1772642983640960500,1.59396044921875,-0.9913787841796875,-0.0192413330078125,-0.01812744140625
1772642983651004400,1.60400439453125,-0.9919281005859375,-0.01776123046875,-0.0163421630859375
1772642983661049300,1.61404931640625,-0.9911651611328125,-0.017669677734375,-0.0171661376953125
1772642983671094500,1.624094482421875,-0.991058349609375,-0.0185089111328125,-0.0181884765625
1772642983681138400,1.634138427734375,-0.990386962890625,-0.0178985595703125,-0.0177001953125
1772642983691183400,1.644183349609375,-0.9911346435546875,-0.01861572265625,-0.016082763671875
1772642983701228300,1.654228271484375,-0.9909820556640625,-0.018218994140625,-0.0160675048828125
1772642983711272400,1.6642724609375,-0.9911651611328125,-0.0177001953125,-0.015960693359375
1772642983721317400,1.6743173828125,-0.9909515380859375,-0.0186614990234375,-0.0157470703125
1772642983731362300,1.6843623046875,-0.991790771484375,-0.01788330078125,-0.0166168212890625
1772642983741406500,1.694406494140625,-0.990966796875,-0.017730712890625,-0.015869140625
1772642983751451400,1.704451416015625,-0.9907073974609375,-0.0194244384765625,-0.016693115234375
1772642983761496300,1.714496337890625,-0.9900360107421875,-0.018218994140625,-0.01544189453125
1772642983771540500,1.72454052734375,-0.990509033203125,-0.0178070068359375,-0.015716552734375
1772642983781585400,1.73458544921875,-0.9901885986328125,-0.0190277099609375,-0.0169525146484375
1772642983791630600,1.744630615234375,-0.9900970458984375,-0.019073486328125,-0.0164642333984375
1772642983801674200,1.75467431640625,-0.9914398193359375,-0.018585205078125,-0.0165557861328125
1772642983811719400,1.764719482421875,-0.99169921875,-0.0173187255859375,-0.0169219970703125
1772642983821764400,1.774764404296875,-0.9907989501953125,-0.017669677734375,-0.0163116455078125
1772642983831808300,1.784808349609375,-0.9907684326171875,-0.018798828125,-0.0156097412109375
1772642983841853400,1.794853515625,-0.9906463623046875,-0.0181732177734375,-0.0163421630859375
1772642983851898400,1.8048984375,-0.9910736083984375,-0.017791748046875,-0.0165863037109375
1772642983861942300,1.8149423828125,-0.991302490234375,-0.0178375244140625,-0.0157928466796875
1772642983871987500,1.824987548828125,-0.990203857421875,-0.018524169921875,-0.0166015625
1772642983882032400,1.835032470703125,-0.99066162109375,-0.0185546875,-0.01507568359375
1772642983892076500,1.84507666015625,-0.990692138671875,-0.01806640625,-0.016510009765625
1772642983902121200,1.855121337890625,-0.9916534423828125,-0.01849365234375,-0.01629638671875
1772642983912166400,1.86516650390625,-0.9900665283203125,-0.0176544189453125,-0.016876220703125
1772642983922210600,1.87521044921875,-0.990509033203125,-0.018310546875,-0.016021728515625
1772642983932255500,1.88525537109375,-0.99139404296875,-0.017303466796875,-0.017120361328125
1772642983942300400,1.895300537109375,-0.99090576171875,-0.017822265625,-0.017547607421875
1772642983952344300,1.90534423828125,-0.990325927734375,-0.0189208984375,-0.0168609619140625
1772642983962389500,1.915389404296875,-0.99090576171875,-0.018585205078125,-0.017578125
1772642983972434200,1.92543408203125,-0.99072265625,-0.0179290771484375,-0.01593017578125
1772642983982478300,1.935478271484375,-0.99078369140625,-0.017486572265625,-0.0149383544921875
1772642983992523500,1.9455234375,-0.99072265625,-0.0179443359375,-0.017303466796875
1772642984002568400,1.955568359375,-0.990875244140625,-0.0180206298828125,-0.017547607421875
1772642984012612400,1.9656123046875,-0.991943359375,-0.01824951171875,-0.0167388916015625
1772642984022657300,1.9756572265625,-0.9902801513671875,-0.0175018310546875,-0.01715087890625
1772642984032702500,1.985702392578125,-0.990875244140625,-0.0179290771484375,-0.0167388916015625
1772642984042746400,1.995746337890625,-0.9914703369140625,-0.0188446044921875,-0.0166473388671875
1772642984052791300,2.005791259765625,-0.99163818359375,-0.017852783203125,-0.0153656005859375
1772642984062836500,2.01583642578125,-0.990203857421875,-0.0177459716796875,-0.01837158203125
1772642984072880400,2.02588037109375,-0.99066162109375,-0.018798828125,-0.017242431640625
1772642984082925300,2.03592529296875,-0.99066162109375,-0.0167388916015625,-0.017333984375
1772642984092970500,2.045970458984375,-0.991607666015625,-0.0182952880859375,-0.015228271484375
1772642984103014400,2.056014404296875,-0.990570068359375,-0.0186920166015625,-0.0157470703125
1772642984113059300,2.066059326171875,-0.990966796875,-0.018218994140625,-0.0162811279296875
1772642984123104300,2.076104248046875,-0.9914093017578125,-0.0184783935546875,-0.0173492431640625
1772642984133148400,2.0861484375,-0.9912872314453125,-0.01776123046875,-0.0164337158203125
1772642984143193600,2.096193603515625,-0.9908599853515625,-0.018463134765625,-0.01708984375
1772642984153238300,2.10623828125,-0.99053955078125,-0.018585205078125,-0.0162200927734375
1772642984163282400,2.116282470703125,-0.9901580810546875,-0.0181427001953125,-0.01702880859375
1772642984173327400,2.126327392578125,-0.9910736083984375,-0.018157958984375,-0.0176239013671875
1772642984183372500,2.13637255859375,-0.9904632568359375,-0.017791748046875,-0.0161590576171875
1772642984193416400,2.14641650390625,-0.9906768798828125,-0.018310546875,-0.0174407958984375
1772642984203461400,2.15646142578125,-0.990325927734375,-0.0174102783203125,-0.01678466796875
1772642984213506600,2.166506591796875,-0.9909210205078125,-0.0174560546875,-0.0162506103515625
1772642984223550200,2.17655029296875,-0.9904937744140625,-0.0178985595703125,-0.01776123046875
1772642984233595400,2.186595458984375,-0.9907684326171875,-0.01861572265625,-0.017486572265625
1772642984243640300,2.196640380859375,-0.991058349609375,-0.017822265625,-0.017669677734375
1772642984253684200,2.206684326171875,-0.9903106689453125,-0.017852783203125,-0.016815185546875
1772642984263729400,2.2167294921875,-0.992218017578125,-0.017608642578125,-0.0160064697265625
1772642984273774300,2.2267744140625,-0.9919586181640625,-0.0176544189453125,-0.0173492431640625
1772642984283818500,2.236818603515625,-0.991180419921875,-0.0194091796875,-0.0173187255859375
1772642984293863400,2.246863525390625,-0.9907989501953125,-0.0170745849609375,-0.017181396484375
1772642984303908400,2.256908447265625,-0.990814208984375,-0.0189361572265625,-0.017486572265625
1772642984313952500,2.266952392578125,-0.9918060302734375,-0.018768310546875,-0.015869140625
1772642984323997400,2.27699755859375,-0.99066162109375,-0.018768310546875,-0.0179595947265625
1772642984334042400,2.28704248046875,-0.99053955078125,-0.0180816650390625,-0.0162353515625
1772642984344086500,2.29708642578125,-0.992340087890625,-0.0193023681640625,-0.016998291015625
1772642984354131500,2.30713134765625,-0.99127197265625,-0.0183563232421875,-0.0165863037109375
1772642984364176400,2.31717626953125,-0.9897308349609375,-0.0178375244140625,-0.016571044921875
1772642984374220300,2.32722021484375,-0.9900360107421875,-0.0189361572265625,-0.016998291015625
1772642984384265500,2.337265380859375,-0.99127197265625,-0.0177154541015625,-0.0166473388671875
1772642984394310400,2.347310302734375,-0.990509033203125,-0.017913818359375,-0.0167999267578125
1772642984404354300,2.357354248046875,-0.99005126953125,-0.0176544189453125,-0.01568603515625
1772642984414399500,2.3673994140625,-0.990234375,-0.018829345703125,-0.016448974609375
1772642984424444200,2.377444091796875,-0.9911041259765625,-0.0185089111328125,-0.0164031982421875
1772642984434488300,2.38748828125,-0.990631103515625,-0.01800537109375,-0.0160369873046875
1772642984444533200,2.397533203125,-0.990631103515625,-0.019805908203125,-0.016998291015625
1772642984454578200,2.407578125,-0.9903106689453125,-0.0194091796875,-0.01678466796875
1772642984464622300,2.417622314453125,-0.991363525390625,-0.017578125,-0.0159454345703125
1772642984474667300,2.427667236328125,-0.9917144775390625,-0.0181121826171875,-0.0167388916015625
1772642984484712400,2.43771240234375,-0.9900665283203125,-0.01910400390625,-0.0171661376953125
1772642984494756000,2.447756103515625,-0.989959716796875,-0.017425537109375,-0.0168304443359375
1772642984504801300,2.45780126953125,-0.9911651611328125,-0.0175018310546875,-0.0166778564453125
1772642984514846200,2.46784619140625,-0.9909820556640625,-0.0185089111328125,-0.0177001953125
1772642984524890000,2.47789013671875,-0.990997314453125,-0.019256591796875,-0.016510009765625
1772642984534935300,2.487935302734375,-0.990570068359375,-0.0182952880859375,-0.0172882080078125
1772642984544980200,2.497980224609375,-0.9914703369140625,-0.018890380859375,-0.0158538818359375
1772642984555025400,2.508025390625,-0.990325927734375,-0.0178680419921875,-0.01580810546875
1772642984565069300,2.5180693359375,-0.9885101318359375,-0.018280029296875,-0.0159912109375
1772642984575114200,2.5281142578125,-0.9894866943359375,-0.0179443359375,-0.0161285400390625
1772642984585159400,2.538159423828125,-0.9909210205078125,-0.0172576904296875,-0.0158843994140625
1772642984595203000,2.548203125,-0.98974609375,-0.0177154541015625,-0.0171661376953125
1772642984605248300,2.558248291015625,-0.9899444580078125,-0.01824951171875,-0.01702880859375
1772642984615293200,2.568293212890625,-0.9911651611328125,-0.0189971923828125,-0.015899658203125
1772642984625337300,2.57833740234375,-0.9903106689453125,-0.018341064453125,-0.01824951171875
1772642984635382300,2.58838232421875,-0.99078369140625,-0.017822265625,-0.0165252685546875
1772642984645427200,2.59842724609375,-0.991058349609375,-0.018402099609375,-0.016754150390625
1772642984655471400,2.608471435546875,-0.9917449951171875,-0.018341064453125,-0.015960693359375
1772642984665516300,2.618516357421875,-0.9915771484375,-0.0183868408203125,-0.0162200927734375
1772642984675561200,2.628561279296875,-0.9903411865234375,-0.0184478759765625,-0.0166473388671875
1772642984685605400,2.63860546875,-0.9910736083984375,-0.0183868408203125,-0.01702880859375
1772642984695650300,2.648650390625,-0.9911346435546875,-0.017730712890625,-0.0175628662109375
1772642984705695500,2.658695556640625,-0.9920501708984375,-0.017913818359375,-0.0165252685546875
1772642984715739100,2.6687392578125,-0.991180419921875,-0.018585205078125,-0.0165863037109375
1772642984725784300,2.678784423828125,-0.9911651611328125,-0.0187835693359375,-0.0175933837890625
1772642984735829200,2.688829345703125,-0.990081787109375,-0.0186767578125,-0.0173187255859375
1772642984745873200,2.698873046875,-0.99017333984375,-0.0175933837890625,-0.0173797607421875
1772642984755918300,2.70891845703125,-0.9912261962890625,-0.0175933837890625,-0.0169830322265625
1772642984765963300,2.71896337890625,-0.9913177490234375,-0.019012451171875,-0.016204833984375
1772642984776007200,2.729007080078125,-0.990264892578125,-0.01953125,-0.017303466796875
1772642984786052400,2.73905224609375,-0.99041748046875,-0.017364501953125,-0.0172576904296875
1772642984796097300,2.74909716796875,-0.99066162109375,-0.017578125,-0.0171356201171875
1772642984806141400,2.759141357421875,-0.9907073974609375,-0.0191650390625,-0.01727294921875
1772642984816186000,2.76918603515625,-0.9917144775390625,-0.018829345703125,-0.0163421630859375
1772642984826231300,2.779231201171875,-0.991424560546875,-0.018096923828125,-0.01654052734375
1772642984836275500,2.789275390625,-0.9910736083984375,-0.0185699462890625,-0.0159149169921875
1772642984846320400,2.7993203125,-0.990966796875,-0.018310546875,-0.016357421875
1772642984856365300,2.809365234375,-0.9909210205078125,-0.017120361328125,-0.0166015625
1772642984866409200,2.8194091796875,-0.9910888671875,-0.01861572265625,-0.015869140625
1772642984876454400,2.829454345703125,-0.9910125732421875,-0.01824951171875,-0.016845703125
1772642984886499000,2.8394990234375,-0.9907684326171875,-0.017852783203125,-0.01629638671875
1772642984896543200,2.849543212890625,-0.990966796875,-0.019256591796875,-0.0158843994140625
1772642984906588400,2.85958837890625,-0.989959716796875,-0.0174102783203125,-0.0172119140625
1772642984916633300,2.86963330078125,-0.99005126953125,-0.0188751220703125,-0.016082763671875
1772642984926677200,2.87967724609375,-0.9918060302734375,-0.0179290771484375,-0.016998291015625
1772642984936722200,2.88972216796875,-0.990966796875,-0.0185699462890625,-0.016326904296875
1772642984946767400,2.899767333984375,-0.990966796875,-0.0177764892578125,-0.0168914794921875
1772642984956811300,2.909811279296875,-0.990692138671875,-0.0179443359375,-0.01629638671875
1772642984966856200,2.919856201171875,-0.991943359375,-0.017303466796875,-0.016387939453125
1772642984976901400,2.9299013671875,-0.9917755126953125,-0.01806640625,-0.0161590576171875
1772642984986945300,2.9399453125,-0.9921875,-0.017913818359375,-0.016845703125
1772642984996990200,2.949990234375,-0.99090576171875,-0.019256591796875,-0.0175018310546875
1772642985007035100,2.96003515625,-0.9915771484375,-0.0180816650390625,-0.0165252685546875
1772642985017079300,2.970079345703125,-0.990936279296875,-0.0180816650390625,-0.01593017578125
1772642985027124200,2.980124267578125,-0.9902496337890625,-0.01776123046875,-0.0175933837890625
1772642985037169200,2.990169189453125,-0.991241455078125,-0.01824951171875,-0.01678466796875
1772642985047213300,3.00021337890625,-0.991729736328125,-0.01849365234375,-0.01531982421875
1772642985057258200,3.01025830078125,-0.9906005859375,-0.018096923828125,-0.0163421630859375
1772642985067303200,3.02030322265625,-0.990814208984375,-0.0186767578125,-0.017120361328125
1772642985077347300,3.030347412109375,-0.9907073974609375,-0.0190887451171875,-0.0171661376953125
1772642985087392300,3.040392333984375,-0.991729736328125,-0.01873779296875,-0.015594482421875
1772642985097437400,3.0504375,-0.991790771484375,-0.0171051025390625,-0.01580810546875
1772642985107481300,3.0604814453125,-0.992431640625,-0.0184173583984375,-0.0164337158203125
1772642985117526300,3.0705263671875,-0.9892730712890625,-0.018096923828125,-0.01617431640625
1772642985127571500,3.080571533203125,-0.9910430908203125,-0.0180206298828125,-0.016204833984375
1772642985137615000,3.090614990234375,-0.9905242919921875,-0.0178680419921875,-0.017181396484375
1772642985147660300,3.100660400390625,-0.991180419921875,-0.018829345703125,-0.0184173583984375
1772642985157705200,3.110705322265625,-0.9915924072265625,-0.016937255859375,-0.0165863037109375
1772642985167749000,3.1207490234375,-0.99090576171875,-0.0169219970703125,-0.0166168212890625
1772642985177794300,3.130794189453125,-0.9913177490234375,-0.018218994140625,-0.0160064697265625
1772642985187839200,3.140839111328125,-0.9928131103515625,-0.01776123046875,-0.016448974609375
1772642985197883400,3.15088330078125,-0.9908294677734375,-0.0184326171875,-0.0161285400390625
1772642985207928000,3.160927978515625,-0.990631103515625,-0.019775390625,-0.016632080078125
1772642985217973200,3.17097314453125,-0.9904937744140625,-0.019500732421875,-0.0162353515625
1772642985228017400,3.181017333984375,-0.9918975830078125,-0.017669677734375,-0.0168304443359375
1772642985238062300,3.191062255859375,-0.990997314453125,-0.0179290771484375,-0.0171966552734375
1772642985248107300,3.201107177734375,-0.9924163818359375,-0.0185089111328125,-0.0169219970703125
1772642985258151200,3.211151123046875,-0.9913177490234375,-0.0184326171875,-0.0166015625
1772642985268196400,3.2211962890625,-0.9904022216796875,-0.0180511474609375,-0.0166015625
1772642985278241300,3.2312412109375,-0.9905548095703125,-0.0174560546875,-0.0175933837890625
1772642985288285200,3.24128515625,-0.99151611328125,-0.018157958984375,-0.015777587890625
1772642985298330400,3.251330322265625,-0.991363525390625,-0.0184326171875,-0.0172271728515625
1772642985308375300,3.261375244140625,-0.9914703369140625,-0.01885986328125,-0.0161285400390625
1772642985318419200,3.271419189453125,-0.99114990234375,-0.0185699462890625,-0.0163726806640625
1772642985328464400,3.28146435546875,-0.9903717041015625,-0.0192413330078125,-0.0169525146484375
1772642985338509300,3.29150927734375,-0.9912261962890625,-0.018829345703125,-0.0157318115234375
1772642985348553200,3.30155322265625,-0.9922943115234375,-0.01861572265625,-0.0166778564453125
1772642985358598100,3.31159814453125,-0.99139404296875,-0.0183868408203125,-0.016571044921875
1772642985368643300,3.321643310546875,-0.9911956787109375,-0.018646240234375,-0.016326904296875
1772642985378687500,3.3316875,-0.9913482666015625,-0.018280029296875,-0.0166168212890625
1772642985388732200,3.341732177734375,-0.9908599853515625,-0.0180511474609375,-0.0159759521484375
1772642985398777300,3.35177734375,-0.9902801513671875,-0.017578125,-0.016326904296875
1772642985408821800,3.36182177734375,-0.9904022216796875,-0.0174407958984375,-0.0174102783203125
1772642985418867000,3.371866943359375,-0.9907684326171875,-0.019287109375,-0.0174407958984375
1772642985428911900,3.381911865234375,-0.9922943115234375,-0.017852783203125,-0.018524169921875
1772642985438955800,3.391955810546875,-0.9915771484375,-0.0178985595703125,-0.0169830322265625
1772642985449001000,3.4020009765625,-0.9898223876953125,-0.018646240234375,-0.0157318115234375
1772642985459046000,3.4120458984375,-0.990447998046875,-0.01873779296875,-0.0169525146484375
1772642985469090000,3.422090087890625,-0.9908905029296875,-0.0179595947265625,-0.015899658203125
1772642985479134700,3.432134765625,-0.990020751953125,-0.017578125,-0.016204833984375
1772642985489180000,3.442179931640625,-0.9919281005859375,-0.0189971923828125,-0.01605224609375
1772642985499224000,3.45222412109375,-0.991180419921875,-0.0186309814453125,-0.016998291015625
1772642985509269000,3.46226904296875,-0.990478515625,-0.0185394287109375,-0.017669677734375
1772642985519314000,3.47231396484375,-0.990264892578125,-0.0174560546875,-0.017791748046875
1772642985529357800,3.48235791015625,-0.9913177490234375,-0.0185699462890625,-0.0175323486328125
1772642985539403000,3.492403076171875,-0.9912567138671875,-0.01824951171875,-0.01715087890625
1772642985549448000,3.502447998046875,-0.99041748046875,-0.018096923828125,-0.0163726806640625
1772642985559491800,3.512491943359375,-0.9904632568359375,-0.0181427001953125,-0.015655517578125
1772642985569537000,3.522537109375,-0.99029541015625,-0.01788330078125,-0.0170745849609375
1772642985579582000,3.53258203125,-0.9911651611328125,-0.0181121826171875,-0.016204833984375
1772642985589625900,3.5426259765625,-0.990692138671875,-0.01806640625,-0.0162353515625
1772642985599670800,3.5526708984375,-0.9912261962890625,-0.01806640625,-0.0180511474609375
1772642985609716000,3.562716064453125,-0.99005126953125,-0.0184326171875,-0.01580810546875
1772642985619759900,3.572759765625,-0.991180419921875,-0.0191497802734375,-0.0178375244140625
1772642985629804800,3.5828046875,-0.9909820556640625,-0.0177764892578125,-0.0175018310546875
1772642985639850000,3.59285009765625,-0.99072265625,-0.0182647705078125,-0.017120361328125
1772642985649894000,3.602893798828125,-0.99072265625,-0.0178070068359375,-0.0175933837890625
1772642985659938800,3.612938720703125,-0.9916839599609375,-0.0182342529296875,-0.0172576904296875
1772642985669983700,3.622983642578125,-0.9904937744140625,-0.0178985595703125,-0.0162200927734375
1772642985680028000,3.63302783203125,-0.990692138671875,-0.019073486328125,-0.016632080078125
1772642985690073000,3.643072998046875,-0.991363525390625,-0.017913818359375,-0.0172119140625
1772642985700117800,3.65311767578125,-0.9917449951171875,-0.0185699462890625,-0.0159454345703125
1772642985710162000,3.663161865234375,-0.9906768798828125,-0.0185394287109375,-0.0174102783203125
1772642985720206800,3.673206787109375,-0.9922943115234375,-0.01727294921875,-0.016326904296875
1772642985730251800,3.683251708984375,-0.991241455078125,-0.01806640625,-0.016204833984375
1772642985740296000,3.6932958984375,-0.99139404296875,-0.0187225341796875,-0.0169219970703125
1772642985750340900,3.7033408203125,-0.9905548095703125,-0.0190582275390625,-0.017303466796875
1772642985760386000,3.713385986328125,-0.9895782470703125,-0.01812744140625,-0.0167694091796875
1772642985770430000,3.723429931640625,-0.99163818359375,-0.017852783203125,-0.0156097412109375
1772642985780475000,3.733474853515625,-0.9910888671875,-0.0191192626953125,-0.0167083740234375
1772642985790520000,3.74352001953125,-0.9920196533203125,-0.0182342529296875,-0.01678466796875
1772642985800563700,3.753563720703125,-0.9916534423828125,-0.0183868408203125,-0.01568603515625
1772642985810609000,3.76360888671875,-0.9928436279296875,-0.0183868408203125,-0.0176849365234375
1772642985820653800,3.77365380859375,-0.9906005859375,-0.0190582275390625,-0.0157318115234375
1772642985830698000,3.783697998046875,-0.990966796875,-0.0175323486328125,-0.015625
1772642985840743000,3.793742919921875,-0.9915771484375,-0.0179443359375,-0.0167083740234375
1772642985850787800,3.803787841796875,-0.99188232421875,-0.0192108154296875,-0.01605224609375
1772642985860832000,3.81383203125,-0.9904632568359375,-0.0193023681640625,-0.0157318115234375
1772642985870876700,3.823876708984375,-0.989776611328125,-0.0182037353515625,-0.016571044921875
1772642985880921900,3.833921875,-0.9911956787109375,-0.0175323486328125,-0.016510009765625
1772642985890966800,3.843966796875,-0.991058349609375,-0.0185089111328125,-0.016326904296875
1772642985901011000,3.854010986328125,-0.9902496337890625,-0.0178985595703125,-0.0179290771484375
1772642985911056000,3.864055908203125,-0.9902191162109375,-0.018341064453125,-0.01727294921875
1772642985921099800,3.874099853515625,-0.991790771484375,-0.0189666748046875,-0.016815185546875
1772642985931145000,3.88414501953125,-0.990966796875,-0.01751708984375,-0.016815185546875
1772642985941190000,3.89418994140625,-0.9910888671875,-0.017425537109375,-0.0162506103515625
1772642985951234800,3.90423486328125,-0.9912567138671875,-0.018096923828125,-0.0175628662109375
1772642985961279000,3.914279052734375,-0.9916839599609375,-0.0191650390625,-0.01702880859375
1772642985971324000,3.924323974609375,-0.99090576171875,-0.0182952880859375,-0.0174407958984375
1772642985981368800,3.934368896484375,-0.9895477294921875,-0.0176544189453125,-0.016754150390625
1772642985991413000,3.9444130859375,-0.9904327392578125,-0.01763916015625,-0.017547607421875
1772642986001458000,3.9544580078125,-0.9914703369140625,-0.017486572265625,-0.0172882080078125
1772642986011503000,3.964503173828125,-0.9909820556640625,-0.018768310546875,-0.016754150390625
1772642986021546800,3.974546630859375,-0.991851806640625,-0.018218994140625,-0.0165252685546875
1772642986031592000,3.984592041015625,-0.9910888671875,-0.017730712890625,-0.0168304443359375
1772642986041636900,3.994636962890625,-0.9905242919921875,-0.018524169921875,-0.0156707763671875
1772642986051680800,4.0046806640625,-0.9908447265625,-0.0190582275390625,-0.018096923828125
1772642986061726000,4.014725830078125,-0.990631103515625,-0.018768310546875,-0.016510009765625
1772642986071771000,4.02477099609375,-0.9918060302734375,-0.01702880859375,-0.016021728515625
1772642986081815000,4.03481494140625,-0.991668701171875,-0.017791748046875,-0.0169677734375
1772642986091859700,4.044859619140625,-0.9911651611328125,-0.0178375244140625,-0.0169830322265625
1772642986101905000,4.05490478515625,-0.991485595703125,-0.0194091796875,-0.016632080078125
1772642986111949000,4.064948974609375,-0.9912261962890625,-0.017913818359375,-0.0171661376953125
1772642986121993700,4.07499365234375,-0.9909515380859375,-0.01812744140625,-0.0167236328125
1772642986132039000,4.085038818359375,-0.991485595703125,-0.0178070068359375,-0.01666259765625
1772642986142082800,4.095082763671875,-0.99139404296875,-0.017608642578125,-0.01690673828125
1772642986152128000,4.1051279296875,-0.9905242919921875,-0.0183563232421875,-0.0161285400390625
1772642986162172700,4.115172607421875,-0.9913482666015625,-0.0178375244140625,-0.0161895751953125
1772642986172216800,4.125216796875,-0.9898529052734375,-0.01800537109375,-0.0171051025390625
1772642986182262000,4.135261962890625,-0.9907989501953125,-0.018096923828125,-0.017364501953125
1772642986192307000,4.145306884765625,-0.990570068359375,-0.01885986328125,-0.0162353515625
1772642986202350800,4.155350830078125,-0.990753173828125,-0.0189056396484375,-0.0164947509765625
1772642986212396000,4.16539599609375,-0.990081787109375,-0.0178375244140625,-0.016693115234375
1772642986222441000,4.17544091796875,-0.9906768798828125,-0.0173797607421875,-0.0167236328125
1772642986232484900,4.18548486328125,-0.9915313720703125,-0.01824951171875,-0.016265869140625
1772642986242529800,4.19552978515625,-0.99066162109375,-0.0178070068359375,-0.017059326171875
1772642986252575000,4.205574951171875,-0.990020751953125,-0.019012451171875,-0.0171966552734375
1772642986262619000,4.215618896484375,-0.989990234375,-0.0180816650390625,-0.016845703125
1772642986272663800,4.225663818359375,-0.9904937744140625,-0.01812744140625,-0.017608642578125
1772642986282709000,4.235708984375,-0.990753173828125,-0.0183868408203125,-0.01666259765625
1772642986292753000,4.2457529296875,-0.9908599853515625,-0.0178680419921875,-0.0164794921875
1772642986302797800,4.2557978515625,-0.991363525390625,-0.0175323486328125,-0.0171966552734375
1772642986312842800,4.2658427734375,-0.9904327392578125,-0.0179595947265625,-0.016021728515625
1772642986322887000,4.275886962890625,-0.989410400390625,-0.017547607421875,-0.0164031982421875
1772642986332932000,4.28593212890625,-0.99163818359375,-0.0172576904296875,-0.0162353515625
1772642986342976800,4.295976806640625,-0.9906768798828125,-0.017791748046875,-0.0178070068359375
1772642986353021000,4.30602099609375,-0.99053955078125,-0.0178070068359375,-0.017791748046875
1772642986363065900,4.31606591796875,-0.99090576171875,-0.017852783203125,-0.015716552734375
1772642986373111000,4.326111083984375,-0.990509033203125,-0.01788330078125,-0.017669677734375
1772642986383155000,4.336155029296875,-0.9912567138671875,-0.0183258056640625,-0.0172882080078125
1772642986393199900,4.346199951171875,-0.9913787841796875,-0.0182342529296875,-0.0161895751953125
1772642986403245000,4.3562451171875,-0.9901580810546875,-0.01806640625,-0.01715087890625
1772642986413288700,4.366288818359375,-0.99078369140625,-0.017791748046875,-0.0165863037109375
1772642986423334000,4.376333984375,-0.990478515625,-0.0179901123046875,-0.0171051025390625
1772642986433378800,4.38637890625,-0.990753173828125,-0.017181396484375,-0.0162506103515625
1772642986443422700,4.396422607421875,-0.99102783203125,-0.01727294921875,-0.01690673828125
1772642986453468000,4.406468017578125,-0.9921722412109375,-0.01824951171875,-0.017364501953125
1772642986463512600,4.4165126953125,-0.9909515380859375,-0.0183258056640625,-0.0161895751953125
1772642986473556700,4.426556640625,-0.990020751953125,-0.0183868408203125,-0.0159454345703125
1772642986483602000,4.436601806640625,-0.9907379150390625,-0.018707275390625,-0.0169219970703125
1772642986493646800,4.446646728515625,-0.9909210205078125,-0.0181732177734375,-0.0167694091796875
1772642986503690800,4.456690673828125,-0.98956298828125,-0.0178680419921875,-0.016815185546875
1772642986513735700,4.466735595703125,-0.9893798828125,-0.0192718505859375,-0.01678466796875
1772642986523780900,4.47678076171875,-0.991180419921875,-0.0181121826171875,-0.016143798828125
1772642986533824800,4.48682470703125,-0.9900970458984375,-0.0193328857421875,-0.01715087890625
1772642986543869700,4.49686962890625,-0.99090576171875,-0.0193328857421875,-0.016815185546875
1772642986553915000,4.506914794921875,-0.990478515625,-0.01824951171875,-0.0164642333984375
1772642986563958800,4.516958740234375,-0.9902191162109375,-0.0183258056640625,-0.01763916015625
1772642986574003700,4.527003662109375,-0.99114990234375,-0.0185394287109375,-0.017242431640625
1772642986584048600,4.537048583984375,-0.9912567138671875,-0.0194244384765625,-0.0177001953125
1772642986594092800,4.5470927734375,-0.9905242919921875,-0.0187530517578125,-0.0166168212890625
1772642986604137700,4.5571376953125,-0.9916229248046875,-0.0187530517578125,-0.0161590576171875
1772642986614182700,4.5671826171875,-0.9903411865234375,-0.01824951171875,-0.0154266357421875
1772642986624226800,4.577226806640625,-0.99017333984375,-0.0181121826171875,-0.0160369873046875
1772642986634271700,4.587271728515625,-0.98992919921875,-0.016998291015625,-0.0172882080078125
1772642986644316700,4.597316650390625,-0.9913177490234375,-0.0183258056640625,-0.0162811279296875
1772642986654360800,4.60736083984375,-0.9927978515625,-0.0179290771484375,-0.01678466796875
1772642986664405800,4.61740576171875,-0.99176025390625,-0.0171051025390625,-0.0170440673828125
1772642986674451000,4.627450927734375,-0.9909210205078125,-0.0177154541015625,-0.0178680419921875
1772642986684494800,4.637494873046875,-0.9909210205078125,-0.019073486328125,-0.016754150390625
1772642986694539800,4.647539794921875,-0.9913482666015625,-0.0191192626953125,-0.0167694091796875
1772642986704585000,4.6575849609375,-0.990386962890625,-0.0191650390625,-0.017364501953125
1772642986714628600,4.667628662109375,-0.99102783203125,-0.0174560546875,-0.01702880859375
1772642986724673800,4.677673828125,-0.990509033203125,-0.0170745849609375,-0.016845703125
1772642986734718700,4.68771875,-0.9904632568359375,-0.018829345703125,-0.016876220703125
1772642986744762600,4.6977626953125,-0.98974609375,-0.0182647705078125,-0.0171051025390625
1772642986754807800,4.707807861328125,-0.992218017578125,-0.0194549560546875,-0.017913818359375
1772642986764852700,4.717852783203125,-0.9907073974609375,-0.0184478759765625,-0.0171966552734375
1772642986774897000,4.72789697265625,-0.990386962890625,-0.017486572265625,-0.016937255859375
1772642986784941600,4.737941650390625,-0.9896240234375,-0.01806640625,-0.0164947509765625
1772642986794986800,4.74798681640625,-0.9914703369140625,-0.01812744140625,-0.017120361328125
1772642986805031000,4.758031005859375,-0.990570068359375,-0.0183563232421875,-0.016510009765625
1772642986815075800,4.768075927734375,-0.9903717041015625,-0.0186767578125,-0.0167999267578125
1772642986825120800,4.778120849609375,-0.9916839599609375,-0.018707275390625,-0.0166015625
1772642986835164700,4.78816455078125,-0.991485595703125,-0.0181732177734375,-0.0172271728515625
1772642986845209900,4.7982099609375,-0.9915618896484375,-0.0186767578125,-0.0161895751953125
1772642986855254800,4.8082548828125,-0.9900665283203125,-0.0189208984375,-0.0160064697265625
1772642986865298700,4.818298583984375,-0.9914398193359375,-0.0184478759765625,-0.0163726806640625
1772642986875344000,4.82834375,-0.9903717041015625,-0.017333984375,-0.0172271728515625
1772642986885388800,4.838388916015625,-0.9900970458984375,-0.01849365234375,-0.0161285400390625
1772642986895432700,4.8484326171875,-0.991546630859375,-0.01727294921875,-0.017242431640625
1772642986905478000,4.858477783203125,-0.990264892578125,-0.0187835693359375,-0.0169525146484375
1772642986915522800,4.868522705078125,-0.99102783203125,-0.0183868408203125,-0.0174407958984375
1772642986925566700,4.878566650390625,-0.990509033203125,-0.0187225341796875,-0.01690673828125
1772642986935611600,4.888611572265625,-0.9904022216796875,-0.0187530517578125,-0.0172882080078125
1772642986945656800,4.89865673828125,-0.9908599853515625,-0.0179595947265625,-0.016876220703125
1772642986955701000,4.908700927734375,-0.9910888671875,-0.0175018310546875,-0.017578125
1772642986965745700,4.91874560546875,-0.9908599853515625,-0.0176239013671875,-0.0183258056640625
1772642986975790800,4.928790771484375,-0.9912872314453125,-0.0181732177734375,-0.0180206298828125
1772642986985834800,4.938834716796875,-0.990478515625,-0.018035888671875,-0.017730712890625
1772642986995880000,4.9488798828125,-0.9913787841796875,-0.0185089111328125,-0.0161895751953125
1772642987005924600,4.958924560546875,-0.991180419921875,-0.0191802978515625,-0.01666259765625
1772642987015968800,4.96896875,-0.9896697998046875,-0.019012451171875,-0.016632080078125
1772642987026014000,4.979013916015625,-0.9902801513671875,-0.018096923828125,-0.0171356201171875
1772642987036058600,4.98905859375,-0.989593505859375,-0.0185699462890625,-0.0173492431640625
1772642987046102800,4.999102783203125,-0.990936279296875,-0.018463134765625,-0.017059326171875
1772642987056147700,5.009147705078125,-0.9909820556640625,-0.018890380859375,-0.01751708984375
1772642987066193000,5.01919287109375,-0.9911041259765625,-0.019317626953125,-0.015869140625
1772642987076236800,5.02923681640625,-0.991241455078125,-0.0186920166015625,-0.0155029296875
1772642987086281700,5.03928173828125,-0.9904937744140625,-0.018646240234375,-0.0172271728515625
1772642987096327000,5.049326904296875,-0.99078369140625,-0.01751708984375,-0.0163116455078125
1772642987106370600,5.05937060546875,-0.9910430908203125,-0.0183563232421875,-0.0158233642578125
1772642987116415700,5.069415771484375,-0.9904632568359375,-0.0181121826171875,-0.0166778564453125
1772642987126460700,5.079460693359375,-0.9913482666015625,-0.0174102783203125,-0.01708984375
1772642987136504800,5.0895048828125,-0.9911041259765625,-0.018951416015625,-0.01763916015625
1772642987146549800,5.0995498046875,-0.99163818359375,-0.0182952880859375,-0.0155487060546875
1772642987156594700,5.1095947265625,-0.991546630859375,-0.0178985595703125,-0.0163116455078125
1772642987166638800,5.119638916015625,-0.98980712890625,-0.01800537109375,-0.016082763671875
1772642987176683800,5.129683837890625,-0.991546630859375,-0.0182037353515625,-0.0159912109375
1772642987186728700,5.139728759765625,-0.9912872314453125,-0.018218994140625,-0.0162200927734375
1772642987196772900,5.14977294921875,-0.9922943115234375,-0.0175018310546875,-0.0158843994140625
1772642987206817800,5.15981787109375,-0.992095947265625,-0.018310546875,-0.0168914794921875
1772642987216862700,5.16986279296875,-0.9903564453125,-0.0184783935546875,-0.0169830322265625
1772642987226907000,5.179906982421875,-0.99041748046875,-0.0188446044921875,-0.01776123046875
1772642987236951800,5.189951904296875,-0.992340087890625,-0.01788330078125,-0.0169219970703125
1772642987246997000,5.1999970703125,-0.991668701171875,-0.017913818359375,-0.01580810546875
1772642987257040600,5.21004052734375,-0.990692138671875,-0.0175018310546875,-0.0167083740234375
1772642987267085800,5.2200859375,-0.9903106689453125,-0.01824951171875,-0.0166168212890625
1772642987277130800,5.230130859375,-0.990264892578125,-0.0194549560546875,-0.0188446044921875
1772642987287174700,5.240174560546875,-0.9901580810546875,-0.0176849365234375,-0.017669677734375
1772642987297219800,5.2502197265625,-0.9903717041015625,-0.0186920166015625,-0.016693115234375
1772642987307264800,5.2602646484375,-0.990875244140625,-0.0177764892578125,-0.01776123046875
1772642987317308700,5.27030859375,-0.99127197265625,-0.01806640625,-0.0167236328125
1772642987327353600,5.280353515625,-0.9890899658203125,-0.01837158203125,-0.0179290771484375
1772642987337398800,5.290398681640625,-0.9893798828125,-0.01763916015625,-0.0167236328125
1772642987347443000,5.30044287109375,-0.9887847900390625,-0.018157958984375,-0.017181396484375
1772642987357487600,5.310487548828125,-0.9903717041015625,-0.01898193359375,-0.01678466796875
1772642987367532800,5.32053271484375,-0.99237060546875,-0.0166778564453125,-0.015716552734375
1772642987377576700,5.33057666015625,-0.9907073974609375,-0.017181396484375,-0.0166473388671875
1772642987387622000,5.340621826171875,-0.9915313720703125,-0.017852783203125,-0.01629638671875
1772642987397666800,5.350666748046875,-0.990936279296875,-0.0175933837890625,-0.0164337158203125
1772642987407710700,5.360710693359375,-0.991180419921875,-0.0178680419921875,-0.0158538818359375
1772642987417755100,5.370755126953125,-0.9915618896484375,-0.01678466796875,-0.0172882080078125
1772642987427800000,5.380800048828125,-0.9903106689453125,-0.017486572265625,-0.0167388916015625
1772642987437844000,5.390843994140625,-0.99041748046875,-0.0192718505859375,-0.01715087890625
1772642987447889200,5.40088916015625,-0.991119384765625,-0.018463134765625,-0.0169677734375
1772642987457934000,5.41093408203125,-0.9906768798828125,-0.017913818359375,-0.0164031982421875
1772642987467978000,5.42097802734375,-0.990386962890625,-0.0180511474609375,-0.0164337158203125
1772642987478023200,5.431023193359375,-0.9906158447265625,-0.018524169921875,-0.0166168212890625
1772642987488068000,5.441068115234375,-0.990997314453125,-0.0178070068359375,-0.0175323486328125
1772642987498112000,5.451112060546875,-0.9913787841796875,-0.0188446044921875,-0.017242431640625
1772642987508157000,5.461156982421875,-0.9912567138671875,-0.0187835693359375,-0.0160064697265625
1772642987518202000,5.4712021484375,-0.990997314453125,-0.018524169921875,-0.0158538818359375
1772642987528246000,5.48124609375,-0.990020751953125,-0.0182037353515625,-0.01641845703125
1772642987538291000,5.491291015625,-0.99072265625,-0.019012451171875,-0.0173797607421875
1772642987548336000,5.501336181640625,-0.9897613525390625,-0.0194854736328125,-0.0174560546875
1772642987558380000,5.511380126953125,-0.9894561767578125,-0.018035888671875,-0.0182037353515625
1772642987568425000,5.521425048828125,-0.9911346435546875,-0.0193023681640625,-0.0183563232421875
1772642987578470000,5.531469970703125,-0.99066162109375,-0.0186767578125,-0.0173187255859375
1772642987588514000,5.54151416015625,-0.9915771484375,-0.018585205078125,-0.016998291015625
1772642987598559200,5.551559326171875,-0.9903411865234375,-0.018524169921875,-0.016998291015625
1772642987608604000,5.56160400390625,-0.990203857421875,-0.0180816650390625,-0.016632080078125
1772642987618648000,5.57164794921875,-0.9903564453125,-0.0185546875,-0.0159912109375
1772642987628693000,5.58169287109375,-0.9903717041015625,-0.0174713134765625,-0.0166473388671875
1772642987638738000,5.591738037109375,-0.9918365478515625,-0.017242431640625,-0.017852783203125
1772642987648782000,5.601781982421875,-0.991424560546875,-0.0185394287109375,-0.017669677734375
1772642987658827000,5.611826904296875,-0.9912567138671875,-0.0183563232421875,-0.0167999267578125
1772642987668872200,5.6218720703125,-0.990447998046875,-0.0178985595703125,-0.016387939453125
1772642987678916000,5.631916015625,-0.9911651611328125,-0.0175933837890625,-0.0160369873046875
1772642987688961000,5.6419609375,-0.989776611328125,-0.01788330078125,-0.0167236328125
1772642987699006200,5.652006103515625,-0.989501953125,-0.0181884765625,-0.0160369873046875
1772642987709049900,5.6620498046875,-0.990570068359375,-0.0181884765625,-0.0174713134765625
1772642987719095000,5.672094970703125,-0.9912109375,-0.0184478759765625,-0.0175018310546875
1772642987729140000,5.682139892578125,-0.99114990234375,-0.0178375244140625,-0.0182342529296875
1772642987739184000,5.69218408203125,-0.9903411865234375,-0.0172576904296875,-0.01678466796875
1772642987749229000,5.70222900390625,-0.9898223876953125,-0.018646240234375,-0.0164337158203125
1772642987759274000,5.71227392578125,-0.99188232421875,-0.0186004638671875,-0.0171356201171875
1772642987769318100,5.722318115234375,-0.9906158447265625,-0.0184478759765625,-0.017608642578125
1772642987779362800,5.73236279296875,-0.9900665283203125,-0.0182952880859375,-0.0155792236328125
1772642987789408000,5.742407958984375,-0.990203857421875,-0.0174102783203125,-0.0170745849609375
1772642987799452200,5.7524521484375,-0.9907379150390625,-0.018463134765625,-0.0174102783203125
1772642987809497000,5.7624970703125,-0.99114990234375,-0.0176239013671875,-0.0173187255859375
1772642987819542000,5.7725419921875,-0.9911041259765625,-0.01788330078125,-0.0164947509765625
1772642987829586000,5.7825859375,-0.99151611328125,-0.017303466796875,-0.0160675048828125
1772642987839631000,5.792631103515625,-0.9887847900390625,-0.0176544189453125,-0.016387939453125
1772642987849676000,5.802676025390625,-0.99072265625,-0.018951416015625,-0.017578125
1772642987859720000,5.812719970703125,-0.991363525390625,-0.0186614990234375,-0.017791748046875
1772642987869765000,5.82276513671875,-0.9918060302734375,-0.01800537109375,-0.0163116455078125
1772642987879810000,5.83281005859375,-0.9894561767578125,-0.0168304443359375,-0.0162200927734375
1772642987889854000,5.84285400390625,-0.99127197265625,-0.017913818359375,-0.01690673828125
1772642987899899000,5.85289892578125,-0.9905548095703125,-0.019134521484375,-0.0179595947265625
1772642987909944000,5.862944091796875,-0.9918365478515625,-0.018951416015625,-0.017486572265625
1772642987919988000,5.872988037109375,-0.991241455078125,-0.0180206298828125,-0.0159912109375
1772642987930033000,5.883032958984375,-0.99041748046875,-0.0184783935546875,-0.0169219970703125
1772642987940078000,5.893078125,-0.9910125732421875,-0.0172271728515625,-0.017669677734375
1772642987950122200,5.903122314453125,-0.9913482666015625,-0.017120361328125,-0.0177154541015625
1772642987960167000,5.9131669921875,-0.9898681640625,-0.018341064453125,-0.01708984375
1772642987970212000,5.923212158203125,-0.99066162109375,-0.018096923828125,-0.0167388916015625
1772642987980256000,5.933256103515625,-0.9917449951171875,-0.0189056396484375,-0.0172119140625
1772642987990301200,5.94330126953125,-0.991668701171875,-0.0182647705078125,-0.01678466796875
1772642988000345900,5.953345947265625,-0.9921722412109375,-0.01910400390625,-0.0160064697265625
1772642988010390000,5.96339013671875,-0.9915008544921875,-0.0177154541015625,-0.016510009765625
1772642988020435200,5.973435302734375,-0.98828125,-0.01763916015625,-0.0163421630859375
1772642988030480000,5.98347998046875,-0.9915008544921875,-0.01849365234375,-0.0164642333984375
1772642988040524000,5.99352392578125,-0.9904632568359375,-0.018524169921875,-0.0167694091796875
1772642988050569000,6.00356884765625,-0.9915008544921875,-0.0182647705078125,-0.0173797607421875
1772642988060614100,6.0136142578125,-0.9908905029296875,-0.019012451171875,-0.0171966552734375
1772642988070658000,6.023657958984375,-0.991485595703125,-0.0189666748046875,-0.01690673828125
1772642988080703000,6.033702880859375,-0.990264892578125,-0.0179443359375,-0.0158843994140625
1772642988090748200,6.043748046875,-0.99078369140625,-0.0176544189453125,-0.017120361328125
1772642988100791800,6.053791748046875,-0.98931884765625,-0.01873779296875,-0.016632080078125
1772642988110837000,6.0638369140625,-0.9915771484375,-0.018310546875,-0.0160675048828125
1772642988120882000,6.0738818359375,-0.991180419921875,-0.0178680419921875,-0.015533447265625
1772642988130926000,6.083926025390625,-0.9918670654296875,-0.0173187255859375,-0.016387939453125
1772642988140971000,6.093970947265625,-0.990478515625,-0.0180816650390625,-0.0164794921875
1772642988151016000,6.104015869140625,-0.9898529052734375,-0.018646240234375,-0.01849365234375
1772642988161060000,6.11406005859375,-0.991485595703125,-0.018707275390625,-0.01751708984375
1772642988171105000,6.12410498046875,-0.9916229248046875,-0.01861572265625,-0.0165863037109375
1772642988181150000,6.13414990234375,-0.990936279296875,-0.01873779296875,-0.0167694091796875
1772642988191194000,6.144194091796875,-0.9912872314453125,-0.0180206298828125,-0.0162811279296875
1772642988201239000,6.154239013671875,-0.9917755126953125,-0.0196380615234375,-0.0160064697265625
1772642988211284000,6.164283935546875,-0.990875244140625,-0.0177154541015625,-0.0168609619140625
1772642988221328100,6.174328125,-0.991241455078125,-0.0171356201171875,-0.017120361328125
1772642988231373000,6.184373046875,-0.9927215576171875,-0.019012451171875,-0.0164947509765625
1772642988241418200,6.194418212890625,-0.99249267578125,-0.0178985595703125,-0.018096923828125
1772642988251462000,6.2044619140625,-0.990814208984375,-0.01849365234375,-0.0171966552734375
1772642988261507000,6.214507080078125,-0.990997314453125,-0.0179290771484375,-0.0162811279296875
1772642988271552000,6.224552001953125,-0.9921722412109375,-0.017547607421875,-0.017364501953125
1772642988281596000,6.234595947265625,-0.99114990234375,-0.018646240234375,-0.017669677734375
1772642988291641000,6.24464111328125,-0.991363525390625,-0.018310546875,-0.0169525146484375
1772642988301686000,6.25468603515625,-0.9907073974609375,-0.0188446044921875,-0.01690673828125
1772642988311730000,6.26472998046875,-0.990478515625,-0.017364501953125,-0.0166778564453125
1772642988321774800,6.27477490234375,-0.9917144775390625,-0.017120361328125,-0.01654052734375
1772642988331820000,6.284820068359375,-0.9909820556640625,-0.0183868408203125,-0.016143798828125
1772642988341864200,6.2948642578125,-0.9912872314453125,-0.0189208984375,-0.016815185546875
1772642988351908900,6.304908935546875,-0.9903564453125,-0.018463134765625,-0.0164947509765625
1772642988361954000,6.3149541015625,-0.9905548095703125,-0.0175628662109375,-0.0168304443359375
1772642988371998000,6.324998046875,-0.9906005859375,-0.0177459716796875,-0.0159454345703125
1772642988382043100,6.335043212890625,-0.991790771484375,-0.0179901123046875,-0.0157470703125
1772642988392088000,6.345088134765625,-0.99176025390625,-0.018096923828125,-0.0159759521484375
1772642988402132000,6.355132080078125,-0.99127197265625,-0.019317626953125,-0.0167388916015625
1772642988412178000,6.365177978515625,-0.991241455078125,-0.0184478759765625,-0.015960693359375
1772642988422223000,6.37522314453125,-0.9911651611328125,-0.0196533203125,-0.0160369873046875
1772642988432267300,6.385267333984375,-0.9915771484375,-0.0186004638671875,-0.0166015625
1772642988442312200,6.395312255859375,-0.9916534423828125,-0.01849365234375,-0.0164031982421875
1772642988452357000,6.405357177734375,-0.9902191162109375,-0.01776123046875,-0.01641845703125
1772642988462401000,6.415401123046875,-0.990692138671875,-0.0177764892578125,-0.01605224609375
1772642988472446200,6.4254462890625,-0.9896697998046875,-0.017059326171875,-0.0157928466796875
1772642988482491100,6.4354912109375,-0.9906463623046875,-0.018035888671875,-0.0168609619140625
1772642988492535000,6.44553515625,-0.9907989501953125,-0.0185089111328125,-0.01702880859375
1772642988502580200,6.455580322265625,-0.991058349609375,-0.0177001953125,-0.015899658203125
1772642988512625200,6.465625244140625,-0.9901275634765625,-0.017913818359375,-0.01617431640625
1772642988522669000,6.4756689453125,-0.9911956787109375,-0.0193634033203125,-0.01654052734375
1772642988532714200,6.48571435546875,-0.991180419921875,-0.0187530517578125,-0.017120361328125
1772642988542759200,6.49575927734375,-0.9900665283203125,-0.0182037353515625,-0.014984130859375
1772642988552803000,6.505802978515625,-0.989471435546875,-0.0172576904296875,-0.016357421875
1772642988562848000,6.515847900390625,-0.99053955078125,-0.01953125,-0.0171356201171875
1772642988572893200,6.52589306640625,-0.9921112060546875,-0.0188446044921875,-0.01678466796875
1772642988582937300,6.535937255859375,-0.989654541015625,-0.0179595947265625,-0.0173797607421875
1772642988592982000,6.54598193359375,-0.991241455078125,-0.0180511474609375,-0.016448974609375
1772642988603027200,6.556027099609375,-0.99139404296875,-0.01904296875,-0.0162506103515625
1772642988613071000,6.566071044921875,-0.9920196533203125,-0.0184326171875,-0.0168914794921875
1772642988623116300,6.5761162109375,-0.989990234375,-0.017181396484375,-0.0167388916015625
1772642988633161000,6.586160888671875,-0.991058349609375,-0.0188446044921875,-0.0166015625
1772642988643205000,6.596205078125,-0.990631103515625,-0.0177764892578125,-0.017181396484375
1772642988653250300,6.606250244140625,-0.9917144775390625,-0.0177001953125,-0.01617431640625
1772642988663294000,6.6162939453125,-0.9909515380859375,-0.0173187255859375,-0.0159912109375
1772642988673339100,6.626339111328125,-0.9903564453125,-0.0182037353515625,-0.01690673828125
1772642988683384000,6.636384033203125,-0.9900054931640625,-0.01812744140625,-0.0178070068359375
1772642988693429200,6.64642919921875,-0.9911346435546875,-0.0181884765625,-0.01708984375
1772642988703473200,6.65647314453125,-0.9911956787109375,-0.0169677734375,-0.01702880859375
1772642988713518000,6.66651806640625,-0.9909515380859375,-0.0186767578125,-0.0176544189453125
1772642988723563300,6.676563232421875,-0.9904327392578125,-0.0183868408203125,-0.0165252685546875
1772642988733607200,6.686607177734375,-0.9907379150390625,-0.0183563232421875,-0.01727294921875
1772642988743652000,6.696652099609375,-0.990325927734375,-0.0181427001953125,-0.015533447265625
1772642988753696300,6.7066962890625,-0.9904022216796875,-0.018463134765625,-0.0167694091796875
1772642988763741200,6.7167412109375,-0.9915008544921875,-0.018341064453125,-0.0180816650390625
1772642988773786000,6.7267861328125,-0.9898681640625,-0.018768310546875,-0.017303466796875
1772642988783831000,6.7368310546875,-0.9915313720703125,-0.017578125,-0.0169219970703125
1772642988793875200,6.746875244140625,-0.991241455078125,-0.01776123046875,-0.0167236328125
1772642988803920100,6.756920166015625,-0.99139404296875,-0.0179290771484375,-0.0171356201171875
1772642988813964000,6.766964111328125,-0.991790771484375,-0.0174713134765625,-0.016876220703125
1772642988824009200,6.77700927734375,-0.990234375,-0.0181884765625,-0.0175628662109375
1772642988834054100,6.78705419921875,-0.9897613525390625,-0.0176544189453125,-0.0162353515625
1772642988844098000,6.79709814453125,-0.990692138671875,-0.0189208984375,-0.01678466796875
1772642988854143200,6.807143310546875,-0.9918975830078125,-0.0179290771484375,-0.0167083740234375
1772642988864188200,6.817188232421875,-0.991455078125,-0.01800537109375,-0.0162506103515625
1772642988874232000,6.827232177734375,-0.9907073974609375,-0.0182647705078125,-0.0166168212890625
1772642988884277000,6.837277099609375,-0.990631103515625,-0.0187530517578125,-0.0179901123046875
1772642988894322200,6.847322265625,-0.990875244140625,-0.0175018310546875,-0.016204833984375
1772642988904366300,6.857366455078125,-0.9913482666015625,-0.0186004638671875,-0.0180511474609375
1772642988914411000,6.867410888671875,-0.99090576171875,-0.0190887451171875,-0.0171966552734375
1772642988924456200,6.877456298828125,-0.9900665283203125,-0.0181121826171875,-0.01788330078125
1772642988934500000,6.8875,-0.99072265625,-0.0179595947265625,-0.0167999267578125
1772642988944545000,6.897544921875,-0.9919281005859375,-0.01824951171875,-0.0169525146484375
1772642988954590200,6.907590087890625,-0.990936279296875,-0.0182037353515625,-0.0167083740234375
1772642988964634000,6.917634033203125,-0.9912261962890625,-0.0180206298828125,-0.0159149169921875
1772642988974679300,6.92767919921875,-0.9921112060546875,-0.01751708984375,-0.0177764892578125
1772642988984724000,6.937723876953125,-0.990997314453125,-0.0181121826171875,-0.016937255859375
1772642988994769200,6.94776904296875,-0.991546630859375,-0.0185394287109375,-0.0165557861328125
1772642989004813300,6.957813232421875,-0.991180419921875,-0.018798828125,-0.0163116455078125
1772642989014858200,6.967858154296875,-0.99041748046875,-0.0183868408203125,-0.016448974609375
1772642989024902100,6.977902099609375,-0.9911956787109375,-0.0177764892578125,-0.01666259765625
1772642989034947000,6.987947021484375,-0.991973876953125,-0.0193023681640625,-0.018157958984375
1772642989044992300,6.9979921875,-0.98919677734375,-0.0178680419921875,-0.015716552734375
1772642989055036200,7.0080361328125,-0.99017333984375,-0.018890380859375,-0.0162811279296875
1772642989065081000,7.0180810546875,-0.9912872314453125,-0.018890380859375,-0.0174560546875
1772642989075126300,7.028126220703125,-0.9911956787109375,-0.017608642578125,-0.0168609619140625
1772642989085170000,7.038169921875,-0.99163818359375,-0.0187835693359375,-0.01593017578125
1772642989095215000,7.048215087890625,-0.991455078125,-0.0182647705078125,-0.0166778564453125
1772642989105260000,7.058260009765625,-0.9912567138671875,-0.019073486328125,-0.0167999267578125
1772642989115304200,7.06830419921875,-0.9912567138671875,-0.017547607421875,-0.0170745849609375
1772642989125349000,7.07834912109375,-0.9912261962890625,-0.018218994140625,-0.0163116455078125
1772642989135394000,7.08839404296875,-0.9923858642578125,-0.0183563232421875,-0.0171661376953125
1772642989145438200,7.098438232421875,-0.9909210205078125,-0.01904296875,-0.016204833984375
1772642989155483100,7.108483154296875,-0.99090576171875,-0.018157958984375,-0.0165557861328125
1772642989165528000,7.118528076171875,-0.990753173828125,-0.017791748046875,-0.015899658203125
1772642989175572200,7.128572265625,-0.99127197265625,-0.017913818359375,-0.016510009765625
1772642989185617200,7.1386171875,-0.9914703369140625,-0.0174713134765625,-0.01812744140625
1772642989195662300,7.148662353515625,-0.990692138671875,-0.01788330078125,-0.016204833984375
1772642989205706200,7.158706298828125,-0.991180419921875,-0.0189666748046875,-0.01605224609375
1772642989215751200,7.168751220703125,-0.9909820556640625,-0.0179443359375,-0.016265869140625
1772642989225796000,7.178796142578125,-0.9916229248046875,-0.0181427001953125,-0.016571044921875
1772642989235840000,7.188840087890625,-0.991668701171875,-0.0191192626953125,-0.016998291015625
1772642989245885200,7.19888525390625,-0.9910430908203125,-0.0186767578125,-0.0171661376953125
1772642989255930000,7.20893017578125,-0.991668701171875,-0.018829345703125,-0.0166015625
1772642989265974000,7.21897412109375,-0.9898223876953125,-0.0193634033203125,-0.0186767578125
1772642989276019200,7.229019287109375,-0.991424560546875,-0.017913818359375,-0.017425537109375
1772642989286064000,7.239064208984375,-0.990570068359375,-0.018280029296875,-0.01751708984375
1772642989296108300,7.2491083984375,-0.990264892578125,-0.0190277099609375,-0.0168304443359375
1772642989306153000,7.259153076171875,-0.9911651611328125,-0.0186614990234375,-0.0165557861328125
1772642989316198100,7.2691982421875,-0.990509033203125,-0.01837158203125,-0.0179443359375
1772642989326242300,7.2792421875,-0.9903717041015625,-0.0182952880859375,-0.0169830322265625
1772642989336287200,7.289287353515625,-0.9905548095703125,-0.0183563232421875,-0.017181396484375
1772642989346332200,7.299332275390625,-0.990997314453125,-0.019866943359375,-0.017120361328125
1772642989356376000,7.3093759765625,-0.9920806884765625,-0.019439697265625,-0.0172576904296875
1772642989366421200,7.319421142578125,-0.9905548095703125,-0.0182342529296875,-0.01727294921875
1772642989376466000,7.3294658203125,-0.9915313720703125,-0.0181427001953125,-0.0171966552734375
1772642989386510000,7.339510009765625,-0.9902801513671875,-0.018707275390625,-0.0175323486328125
1772642989396555300,7.34955517578125,-0.9910125732421875,-0.018402099609375,-0.0167388916015625
1772642989406600200,7.35960009765625,-0.9916534423828125,-0.01800537109375,-0.0167999267578125
1772642989416643300,7.369643310546875,-0.990020751953125,-0.0189971923828125,-0.0179901123046875
1772642989426688500,7.3796884765625,-0.9909820556640625,-0.0182037353515625,-0.0163421630859375
1772642989436733400,7.3897333984375,-0.990753173828125,-0.0193023681640625,-0.0156707763671875
1772642989446777300,7.39977734375,-0.990692138671875,-0.018218994140625,-0.0165557861328125
1772642989456822300,7.409822265625,-0.990814208984375,-0.0174407958984375,-0.016082763671875
1772642989466867500,7.419867431640625,-0.991302490234375,-0.0177459716796875,-0.017364501953125
1772642989476911400,7.429911376953125,-0.9908447265625,-0.0172271728515625,-0.0166778564453125
1772642989486956300,7.439956298828125,-0.9901275634765625,-0.019561767578125,-0.016632080078125
1772642989497001500,7.45000146484375,-0.9912261962890625,-0.0183868408203125,-0.0162811279296875
1772642989507045600,7.460045654296875,-0.9897308349609375,-0.0175018310546875,-0.0169830322265625
1772642989517090300,7.47009033203125,-0.9919281005859375,-0.0180816650390625,-0.015899658203125
1772642989527135500,7.480135498046875,-0.991790771484375,-0.0179595947265625,-0.01727294921875
1772642989537179400,7.490179443359375,-0.9917144775390625,-0.01910400390625,-0.017333984375
1772642989547224300,7.500224365234375,-0.9914398193359375,-0.0182647705078125,-0.016571044921875
1772642989557269200,7.510269287109375,-0.9904632568359375,-0.0173797607421875,-0.0165252685546875
1772642989567313400,7.5203134765625,-0.9909820556640625,-0.0183563232421875,-0.017242431640625
1772642989577358600,7.530358642578125,-0.990325927734375,-0.0190887451171875,-0.01654052734375
1772642989587403300,7.5404033203125,-0.99017333984375,-0.0184478759765625,-0.0166168212890625
1772642989597447400,7.550447509765625,-0.99072265625,-0.0187530517578125,-0.0160064697265625
1772642989607492400,7.560492431640625,-0.991668701171875,-0.018157958984375,-0.0160980224609375
1772642989617537500,7.57053759765625,-0.99176025390625,-0.0176544189453125,-0.0164947509765625
1772642989627581400,7.58058154296875,-0.9914703369140625,-0.01849365234375,-0.01666259765625
1772642989637626400,7.59062646484375,-0.99090576171875,-0.0180511474609375,-0.01641845703125
1772642989647671600,7.600671630859375,-0.9915771484375,-0.0196533203125,-0.016510009765625
1772642989657715200,7.610715087890625,-0.9910125732421875,-0.0179901123046875,-0.016448974609375
1772642989667760400,7.620760498046875,-0.991485595703125,-0.017669677734375,-0.016693115234375
1772642989677805300,7.630805419921875,-0.991302490234375,-0.018585205078125,-0.0177001953125
1772642989687849200,7.64084912109375,-0.9912872314453125,-0.01904296875,-0.0166473388671875
1772642989697894400,7.650894287109375,-0.990997314453125,-0.0178680419921875,-0.016693115234375
1772642989707939300,7.660939208984375,-0.992095947265625,-0.0184173583984375,-0.016845703125
1772642989717983500,7.6709833984375,-0.9923095703125,-0.018829345703125,-0.0175018310546875
1772642989728028400,7.6810283203125,-0.990875244140625,-0.0186614990234375,-0.0162200927734375
1772642989738073300,7.6910732421875,-0.99090576171875,-0.01806640625,-0.015960693359375
1772642989748117500,7.701117431640625,-0.98968505859375,-0.017425537109375,-0.0167999267578125
1772642989758162400,7.711162353515625,-0.9907989501953125,-0.0190887451171875,-0.0163726806640625
1772642989768207400,7.721207275390625,-0.990325927734375,-0.018707275390625,-0.0159149169921875
1772642989778251500,7.73125146484375,-0.9916534423828125,-0.017608642578125,-0.0171966552734375
1772642989788296400,7.74129638671875,-0.9915771484375,-0.0179443359375,-0.0155029296875
1772642989798341600,7.751341552734375,-0.9903564453125,-0.01873779296875,-0.0159759521484375
1772642989808385300,7.76138525390625,-0.9912261962890625,-0.018035888671875,-0.0169219970703125
1772642989818430500,7.771430419921875,-0.99066162109375,-0.0184783935546875,-0.0163421630859375
1772642989828475400,7.781475341796875,-0.99029541015625,-0.017852783203125,-0.0158843994140625
1772642989838519300,7.791519287109375,-0.9909210205078125,-0.0187225341796875,-0.0163116455078125
1772642989848564500,7.801564453125,-0.9904937744140625,-0.0188446044921875,-0.0167999267578125
1772642989858609400,7.811609375,-0.99041748046875,-0.0189208984375,-0.017120361328125
1772642989868653300,7.8216533203125,-0.9909820556640625,-0.01763916015625,-0.01641845703125
1772642989878698200,7.8316982421875,-0.990692138671875,-0.0177154541015625,-0.017120361328125
1772642989888743400,7.841743408203125,-0.9905548095703125,-0.018218994140625,-0.016021728515625
1772642989898787600,7.85178759765625,-0.9916534423828125,-0.018463134765625,-0.016204833984375
1772642989908832300,7.861832275390625,-0.99169921875,-0.018218994140625,-0.016998291015625
1772642989918877400,7.87187744140625,-0.991973876953125,-0.017791748046875,-0.0175323486328125
1772642989928921300,7.88192138671875,-0.9902191162109375,-0.0174713134765625,-0.0161285400390625
1772642989938966500,7.891966552734375,-0.9906768798828125,-0.018402099609375,-0.015380859375
