time,seconds_elapsed,z,y,x
1772642982139294700,0.092294677734375,0.001957689644768834,-0.002091380301862955,-0.0073407371528446674
1772642982149339600,0.102339599609375,0.0019744676537811756,-0.004362790379673243,-0.007440872024744749
1772642982159383600,0.112383544921875,0.0017957695527002215,-0.002916161436587572,-0.005889846943318844
1772642982169428500,0.122428466796875,0.0011065434664487839,-0.004040281753987074,-0.006036587059497833
1772642982179473700,0.1324736328125,0.0018668759148567915,-0.003442934714257717,-0.006748982705175877
1772642982189517800,0.142517822265625,0.0031161648221313953,-0.003999801818281412,-0.0067660268396139145
1772642982199562500,0.1525625,0.0013523531379178166,-0.002609098795801401,-0.005766542628407478
1772642982209607700,0.162607666015625,0.0023121563717722893,-0.0031156321056187153,-0.00612393906340003
1772642982219651600,0.172651611328125,0.0005773733137175441,-0.0028778119012713432,-0.006204366218298674
1772642982229696800,0.18269677734375,0.0018269284628331661,-0.004536694847047329,-0.006593720521777868
1772642982239741400,0.192741455078125,0.0024224112275987864,-0.0035079156514257193,-0.004086354281753302
1772642982249785600,0.20278564453125,0.003400856629014015,-0.0035297537688165903,-0.004829908721148968
1772642982259830800,0.212830810546875,0.0018136126454919577,-0.0031787490006536245,-0.004776645917445421
1772642982269875700,0.222875732421875,0.0014855111949145794,-0.002516953507438302,-0.007953796535730362
1772642982279919600,0.232919677734375,0.0023395870812237263,-0.004048537462949753,-0.005826197564601898
1772642982289964800,0.24296484375,0.00022610237647313625,-0.0031667647417634726,-0.005649896338582039
1772642982300009700,0.253009765625,0.0028535770252346992,-0.003710316028445959,-0.005732720717787743
1772642982310053600,0.2630537109375,0.00213532242923975,-0.0033939324785023928,-0.005797435529530048
1772642982320098600,0.2730986328125,0.00017550231132190675,-0.00281975488178432,-0.006172408349812031
1772642982330143700,0.283143798828125,0.0020785972010344267,-0.003611246356740594,-0.005406749434769154
1772642982340187600,0.293187744140625,0.0006237123161554337,-0.004770520608872175,-0.006585464812815189
1772642982350232600,0.303232666015625,0.0023124227300286293,-0.0035774242132902145,-0.0080310283228755
1772642982360277800,0.31327783203125,0.0021198762115091085,-0.0032477248460054398,-0.006548979319632053
1772642982370321700,0.32332177734375,0.0005233111442066729,-0.004716724622994661,-0.006903978530317545
1772642982380366600,0.33336669921875,0.0010066748363897204,-0.0032386700622737408,-0.008329303003847599
1772642982390411500,0.34341162109375,0.001933987601660192,-0.0038890140131115913,-0.0065404572524130344
1772642982400455700,0.35345556640625,0.0005672533297911286,-0.0035308189690113068,-0.0062576294876635075
1772642982410488600,0.363488525390625,0.001609614584594965,-0.003221625927835703,-0.004704740364104509
1772642982420533800,0.37353369140625,0.001341966912150383,-0.004307929426431656,-0.005569202359765768
1772642982430577700,0.38357763671875,0.001882854849100113,-0.0024522386956959963,-0.005891977343708277
1772642982440622800,0.393622802734375,0.001955559244379401,-0.003963582683354616,-0.006761233322322369
1772642982450667500,0.40366748046875,0.0017291904659941792,-0.003546797903254628,-0.005878129042685032
1772642982460711700,0.413711669921875,0.001847434788942337,-0.003799531841650605,-0.005677592940628529
1772642982470756900,0.4237568359375,0.0015986956423148513,-0.003225088119506836,-0.006042446009814739
1772642982480801500,0.433801513671875,0.003367567202076316,-0.004040548112243414,-0.0067660268396139145
1772642982490845700,0.443845703125,0.0008056062506511807,-0.0047260457649827,-0.003941478207707405
1772642982500890600,0.453890625,0.0012263857061043382,-0.002870887517929077,-0.006591323763132095
1772642982510934500,0.4639345703125,0.0011981561547145247,-0.004099403973668814,-0.006382798310369253
1772642982520979700,0.473979736328125,0.0016335829859599471,-0.003582217963412404,-0.005705822724848986
1772642982531024600,0.484024658203125,0.0013701963471248746,-0.003882888937368989,-0.0068182251416146755
1772642982541069800,0.49406982421875,0.0006743124104104936,-0.004042678512632847,-0.005277053453028202
1772642982551113700,0.50411376953125,0.001561677665449679,-0.0034346787724643946,-0.00624165078625083
1772642982561158700,0.51415869140625,0.00007297061529243365,-0.0032533176708966494,-0.006609699688851833
1772642982571202800,0.524202880859375,0.002588059986010194,-0.003349457634612918,-0.007933557033538818
1772642982581247700,0.534247802734375,0.0000601874417043291,-0.004239486064761877,-0.006085056811571121
1772642982591292700,0.544292724609375,0.0010844392236322165,-0.004216849338263273,-0.006678941659629345
1772642982601336800,0.5543369140625,0.0022090920247137547,-0.004998753312975168,-0.0057340520434081554
1772642982611381800,0.5643818359375,0.0013627394801005721,-0.0027545075863599777,-0.007539941463619471
1772642982621426700,0.5744267578125,0.0016706009628251195,-0.0041161817498505116,-0.008086955174803734
1772642982631470600,0.584470703125,0.0021342572290450335,-0.0043835630640387535,-0.005830458365380764
1772642982641515800,0.594515869140625,0.0018042916199192405,-0.003257312346249819,-0.006509032100439072
1772642982651560700,0.604560791015625,0.0013491574209183455,-0.003412574529647827,-0.00481233187019825
1772642982661604600,0.6146044921875,0.001014664419926703,-0.0036157737486064434,-0.0057127466425299644
1772642982671649800,0.62464990234375,0.0009384979493916035,-0.003067695302888751,-0.005621666554361582
1772642982681694700,0.63469482421875,0.00005246427463134751,-0.004201136529445648,-0.006284527480602264
1772642982691740000,0.644739990234375,0.0024232103023678064,-0.0035289546940475702,-0.0059870523400604725
1772642982701783600,0.654783447265625,0.002660231664776802,-0.0043742419220507145,-0.006535930093377829
1772642982711828700,0.664828857421875,0.0012594088912010193,-0.003605920122936368,-0.006644320674240589
1772642982721873000,0.674872802734375,0.0010064085945487022,-0.004822984803467989,-0.006963100749999285
1772642982731917600,0.68491748046875,0.0012961605098098516,-0.004126567859202623,-0.005923935677856207
1772642982741962800,0.694962646484375,0.0005278385360725224,-0.0031438616570085287,-0.005891977343708277
1772642982752007700,0.705007568359375,0.002029328839853406,-0.0029430591966956854,-0.005572664551436901
1772642982762051600,0.715051513671875,0.0011587414192035794,-0.006205698009580374,-0.005673065781593323
1772642982772096500,0.725096435546875,0.001303351018577814,-0.0043473439291119576,-0.006049636751413345
1772642982782140700,0.735140625,0.002919090911746025,-0.0037207023706287146,-0.0062461779452860355
1772642982792185900,0.745185791015625,0.0012274509062990546,-0.0033811493776738644,-0.00780492601916194
1772642982802230500,0.75523046875,0.001169127761386335,-0.004975317511707544,-0.005819539539515972
1772642982812275700,0.765275634765625,0.0011427623685449362,-0.0033246902748942375,-0.006312756799161434
1772642982822319900,0.77531982421875,0.0020623519085347652,-0.0029846045654267073,-0.005003546830266714
1772642982832364800,0.78536474609375,0.0026501116808503866,-0.004476241301745176,-0.006383064668625593
1772642982842408700,0.79540869140625,0.001782187377102673,-0.0035779569298028946,-0.007172158919274807
1772642982852453600,0.80545361328125,0.0020482372492551804,-0.003930026665329933,-0.006384928710758686
1772642982862498800,0.815498779296875,0.0008993495139293373,-0.0033686324022710323,-0.0056994310580194
1772642982872543500,0.82554345703125,0.0022857910953462124,-0.003620567498728633,-0.006067213602364063
1772642982882587600,0.835587646484375,0.0010807107901200652,-0.0052115400321781635,-0.0057412427850067616
1772642982892632800,0.8456328125,0.0024341291282325983,-0.0044109937734901905,-0.006666691042482853
1772642982902677800,0.855677734375,0.0007414240390062332,-0.004313255660235882,-0.006425941362977028
1772642982912721700,0.8657216796875,0.0011518171522766352,-0.00432976707816124,-0.00618093041703105
1772642982922766600,0.8757666015625,0.0015776565996930003,-0.002918291836977005,-0.005815278738737106
1772642982932811800,0.885811767578125,0.0010106696281582117,-0.00418276060372591,-0.005578789860010147
1772642982942855700,0.895855712890625,0.002231462625786662,-0.004900216590613127,-0.007217166479676962
1772642982952900600,0.905900634765625,0.0020266654901206493,-0.0030250847339630127,-0.0054610781371593475
1772642982962945800,0.91594580078125,0.0010839065071195364,-0.00293400464579463,-0.006087719928473234
1772642982972989700,0.92598974609375,0.0004370247188489884,-0.0027049726340919733,-0.006284793838858604
1772642982983034600,0.93603466796875,0.002097771968692541,-0.003774498123675585,-0.005961219780147076
1772642982993079600,0.94607958984375,0.0011574097443372011,-0.004703674931079149,-0.004339088220149279
1772642983003123700,0.956123779296875,0.0022599585354328156,-0.0026192190125584602,-0.006824882701039314
1772642983013168600,0.966168701171875,-0.0006266417913138866,-0.004346811678260565,-0.004414722323417664
1772642983023213600,0.976213623046875,0.000020506340661086142,-0.003186205867677927,-0.005894640926271677
1772642983033257700,0.9862578125,0.001190433045849204,-0.003811249742284417,-0.006547914352267981
1772642983043302700,0.996302734375,0.004065581597387791,-0.0030626351945102215,-0.0057351174764335155
1772642983053347600,1.00634765625,0.002258360618725419,-0.003612311789765954,-0.006265885196626186
1772642983063391700,1.016391845703125,0.0013028184184804559,-0.0033933997619897127,-0.0046693203039467335
1772642983073436700,1.026436767578125,0.0008215851848945022,-0.0041183121502399445,-0.0060357884503901005
1772642983083481900,1.03648193359375,0.0010253170039504766,-0.0023398532066494226,-0.005243764258921146
1772642983093525800,1.04652587890625,0.0002798982313834131,-0.003751328680664301,-0.007998005487024784
1772642983103570700,1.05657080078125,0.003343598684296012,-0.003468234557658434,-0.0049257827922701836
1772642983113616000,1.066615966796875,0.0009715211344882846,-0.004157727118581533,-0.006196376867592335
1772642983123659500,1.076659423828125,0.0019773971289396286,-0.0022796657867729664,-0.0052205948159098625
1772642983133704700,1.08670458984375,0.0015401060227304697,-0.0028788771014660597,-0.00657507823780179
1772642983143749600,1.09674951171875,0.0021465078461915255,-0.004403004422783852,-0.008587629534304142
1772642983153793500,1.10679345703125,0.0013470269041135907,-0.004026965703815222,-0.005575860384851694
1772642983163838700,1.116838623046875,0.0020218719728291035,-0.003991013392806053,-0.0043625240214169025
1772642983173883600,1.126883544921875,0.0006420881254598498,-0.003067961661145091,-0.006156429648399353
1772642983183927800,1.136927734375,0.0009725864510983229,-0.00446798512712121,-0.006971622817218304
1772642983193972500,1.146972412109375,0.0030059099663048983,-0.0041284323669970036,-0.005483714863657951
1772642983204017700,1.157017578125,0.0038155107758939266,-0.004487959202378988,-0.006460295990109444
1772642983214061800,1.167061767578125,0.0019526296528056264,-0.0028421254828572273,-0.0051652006804943085
1772642983224106800,1.177106689453125,0.0018437063554301858,-0.004108458757400513,-0.004759867675602436
1772642983234151700,1.187151611328125,0.0009534116834402084,-0.003597131697461009,-0.007244863547384739
1772642983244195600,1.197195556640625,0.0015302523970603943,-0.002269545802846551,-0.004506867378950119
1772642983254240800,1.20724072265625,0.0022234732750803232,-0.0026192190125584602,-0.007286142557859421
1772642983264285700,1.21728564453125,0.0021670141723006964,-0.0034852789249271154,-0.006591323763132095
1772642983274329600,1.22732958984375,0.0020682108588516712,-0.004206196404993534,-0.007387875113636255
1772642983284374800,1.237374755859375,0.0023390543647110462,-0.004351605195552111,-0.007111705373972654
1772642983294419700,1.247419677734375,0.002811765531077981,-0.003967843484133482,-0.00595456175506115
1772642983304463600,1.257463623046875,0.0014125406742095947,-0.003620567498728633,-0.006527407560497522
1772642983314508800,1.2675087890625,0.0006474144756793976,-0.004449076950550079,-0.007938883267343044
1772642983324553700,1.2775537109375,0.001746234716847539,-0.004077832214534283,-0.007754592224955559
1772642983334597600,1.28759765625,0.0011728560784831643,-0.004502073861658573,-0.005693305749446154
1772642983344642600,1.297642578125,0.0011651329696178436,-0.004693288821727037,-0.006627276539802551
1772642983354687700,1.307687744140625,0.0015992282424122095,-0.002912965603172779,-0.008114651776850224
1772642983364732000,1.31773193359375,0.0011203918838873506,-0.0035563854034990072,-0.0065588331781327724
1772642983374776600,1.327776611328125,0.0009962886106222868,-0.004455468617379665,-0.006652576383203268
1772642983384821800,1.33782177734375,0.000592020689509809,-0.003817907767370343,-0.006617422681301832
1772642983394865700,1.34786572265625,0.0016801883466541767,-0.005129780620336533,-0.006880276836454868
1772642983404910800,1.357910888671875,0.000002663161012605997,-0.003064233111217618,-0.00680144689977169
1772642983414955300,1.367955322265625,0.0029587720055133104,-0.0029345371294766665,-0.006837666034698486
1772642983424999400,1.37799951171875,0.00013369068619795144,-0.0029965888243168592,-0.006900250446051359
1772642983435044400,1.38804443359375,0.0016908409306779504,-0.004070375580340624,-0.004397677723318338
1772642983445089300,1.39808935546875,0.00036618465674109757,-0.0057249972596764565,-0.00759933004155755
1772642983455133400,1.408133544921875,0.000999750685878098,-0.003231213428080082,-0.005973204039037228
1772642983465178400,1.418178466796875,0.002228799508884549,-0.004147340543568134,-0.005664543714374304
1772642983475223300,1.428223388671875,-0.0005209143273532391,-0.004536162130534649,-0.0060051619075238705
1772642983485267500,1.438267333984375,0.0010748518398031592,-0.003459712490439415,-0.006189718842506409
1772642983495312400,1.4483125,0.0007965514669194818,-0.0022181468084454536,-0.006836866959929466
1772642983505357600,1.458357666015625,0.002020274056121707,-0.003689543344080448,-0.006133526097983122
1772642983515401500,1.4684013671875,0.002941993996500969,-0.003323625074699521,-0.007451524492353201
1772642983525446400,1.4784462890625,0.0007728493656031787,-0.003335076617076993,-0.0065407236106693745
1772642983535491600,1.48849169921875,0.0011225224006921053,-0.0024863271974027157,-0.0065353973768651485
1772642983545535200,1.49853515625,0.0010910971323028207,-0.0030474551022052765,-0.004412591457366943
1772642983555580400,1.508580322265625,0.002784867538139224,-0.0035151063930243254,-0.004927114117890596
1772642983565625300,1.518625244140625,0.0035095135681331158,-0.0026088326703757048,-0.005516205448657274
1772642983575669200,1.528669189453125,0.0018431737553328276,-0.0031473238486796618,-0.006601177155971527
1772642983585714400,1.53871435546875,0.0011411645682528615,-0.0037063213530927896,-0.00692155584692955
1772642983595759400,1.54875927734375,0.0019318570848554373,-0.004972920753061771,-0.006534065585583448
1772642983605803500,1.558803466796875,0.001683384063653648,-0.003513242118060589,-0.005998237524181604
1772642983615848200,1.56884814453125,0.002400839701294899,-0.00452710734680295,-0.007128216791898012
1772642983625893400,1.578893310546875,0.0016820525052025914,-0.004730306565761566,-0.007159908767789602
1772642983635937500,1.5889375,0.0012032161466777325,-0.0031164311803877354,-0.006072007119655609
1772642983645982500,1.598982421875,0.0006780407857149839,-0.0028181569650769234,-0.006844324059784412
1772642983656027400,1.60902734375,0.003094326937571168,-0.0020562265999615192,-0.006434197071939707
1772642983666071300,1.6190712890625,0.002162486780434847,-0.0026732811238616705,-0.00643632747232914
1772642983676116500,1.629116455078125,0.001067661214619875,-0.003013899317011237,-0.00315930787473917
1772642983686161200,1.6391611328125,0.002436526119709015,-0.003576359013095498,-0.0055002267472445965
1772642983696205300,1.649205322265625,0.0014346449170261621,-0.0037473340053111315,-0.007447263691574335
1772642983706250500,1.65925048828125,0.0005427522119134665,-0.00381471193395555,-0.006128199864178896
1772642983716295400,1.66929541015625,0.0007126618875190616,-0.003970772959291935,-0.006703176535665989
1772642983726339300,1.67933935546875,0.0031425300985574722,-0.002356364857405424,-0.007011836860328913
1772642983736384500,1.689384521484375,0.0010817759903147817,-0.003185939509421587,-0.006047772243618965
1772642983746429400,1.699429443359375,0.0023190807551145554,-0.00427304208278656,-0.006419016979634762
1772642983756473300,1.709473388671875,0.00014168016787152737,-0.004101800732314587,-0.006311425473541021
1772642983766518300,1.719518310546875,0.0020988371688872576,-0.00401684595271945,-0.006220878101885319
1772642983776563500,1.7295634765625,0.0005257080192677677,-0.003879959462210536,-0.007001716643571854
1772642983786607600,1.739607666015625,0.002796319080516696,-0.0037987329997122288,-0.005297826137393713
1772642983796652300,1.74965234375,0.0022362563759088516,-0.0037758296821266413,-0.006019010208547115
1772642983806697500,1.759697509765625,0.0005656554130837321,-0.00293347192928195,-0.006678408943116665
1772642983816741400,1.769741455078125,0.0031228226143866777,-0.003745469730347395,-0.00561128044500947
1772642983826786300,1.779786376953125,0.0010924286907538772,-0.005209143273532391,-0.006441654171794653
1772642983836831200,1.789831298828125,0.002909503411501646,-0.003608316881582141,-0.005409945268183947
1772642983846875400,1.79987548828125,0.0012748552253469825,-0.0048858351074159145,-0.006383330561220646
1772642983856920600,1.809920654296875,0.0030338731594383717,-0.003463441040366888,-0.006714628078043461
1772642983866965200,1.81996533203125,0.0009467537747696042,-0.0037004624027758837,-0.005963616538792849
1772642983877009400,1.830009521484375,0.0010005496442317963,-0.002799781272187829,-0.005594502668827772
1772642983887054300,1.840054443359375,0.0013339773286134005,-0.003650128608569503,-0.005246161017566919
1772642983897099500,1.850099609375,0.0011576761025935411,-0.005024852231144905,-0.006461095064878464
1772642983907143400,1.860143310546875,0.0025955168530344963,-0.0046365633606910706,-0.007465373259037733
1772642983917188400,1.870188232421875,0.001347559504210949,-0.003834685543552041,-0.0064387246966362
1772642983927233500,1.880233642578125,0.000391218374716118,-0.003603257006034255,-0.0067630973644554615
1772642983937277400,1.89027734375,0.002254632068797946,-0.003186205867677927,-0.00506799528375268
1772642983947322400,1.900322265625,0.002823483431711793,-0.00373108871281147,-0.006569752003997564
1772642983957367300,1.9103671875,0.0011696603614836931,-0.0033920682035386562,-0.004652276169508696
1772642983967411200,1.9204111328125,0.0007909588166512549,-0.0031100395135581493,-0.006533266510814428
1772642983977456400,1.930456298828125,0.0013305152533575892,-0.002414954360574484,-0.0060110208578407764
1772642983987501300,1.940501220703125,0.0010335728293284774,-0.0020578245166689157,-0.006475476082414389
1772642983997545500,1.95054541015625,0.002112152986228466,-0.005119128152728081,-0.0065223476849496365
1772642984007590400,1.96059033203125,0.0016508935950696468,-0.00336090917699039,-0.007546066772192717
1772642984017635300,1.97063525390625,0.0014122743159532547,-0.0031249532476067543,-0.007552192080765963
1772642984027679500,1.980679443359375,0.0020271982066333294,-0.005134574603289366,-0.004477838985621929
1772642984037724400,1.990724365234375,0.001231711939908564,-0.004192614462226629,-0.005423261318355799
1772642984047769300,2.000769287109375,0.0006854976527392864,-0.003599262097850442,-0.006295179948210716
1772642984057813500,2.0108134765625,0.001175519311800599,-0.0038597192615270615,-0.0054570832289755344
1772642984067858400,2.0208583984375,0.0023092268966138363,-0.0033358754590153694,-0.005524727515876293
1772642984077903600,2.030903564453125,0.0018399780383333564,-0.004994492046535015,-0.0046578687615692616
1772642984087947300,2.040947265625,0.0012306467397138476,-0.0031105722300708294,-0.007053382229059935
1772642984097992400,2.050992431640625,0.00162426196038723,-0.005501025356352329,-0.006019010208547115
1772642984108037400,2.061037353515625,0.0005478122038766742,-0.0020756677258759737,-0.005345496814697981
1772642984118081300,2.071081298828125,0.0020266654901206493,-0.004108725115656853,-0.005917277652770281
1772642984128126500,2.08112646484375,0.0014447649009525776,-0.0033715618774294853,-0.007162571884691715
1772642984138171400,2.09117138671875,0.002089249901473522,-0.0028394623659551144,-0.005640575196594
1772642984148215300,2.10121533203125,0.0012024171883240342,-0.0030362699180841446,-0.007006776984781027
1772642984158260200,2.11126025390625,0.0003888215287588537,-0.004448810592293739,-0.006848318502306938
1772642984168305400,2.121305419921875,0.002633600030094385,-0.0033305492252111435,-0.006392118986696005
1772642984178349600,2.131349609375,0.001023186487145722,-0.0036128442734479904,-0.006404902320355177
1772642984188394200,2.141394287109375,0.002764094853773713,-0.0037910097744315863,-0.006395847536623478
1772642984198439400,2.151439453125,0.002508964156731963,-0.003035471076145768,-0.006642456166446209
1772642984208483600,2.161483642578125,0.001996305538341403,-0.0043832967057824135,-0.00624058535322547
1772642984218528500,2.171528564453125,0.002180329989641905,-0.002579271560534835,-0.008166583254933357
1772642984228573400,2.181573486328125,0.002645317930728197,-0.002615756820887327,-0.00555295730009675
1772642984238617300,2.191617431640625,0.0019291938515380025,-0.003555852686986327,-0.004722317215055227
1772642984248662500,2.20166259765625,0.0021076255943626165,-0.0032019184436649084,-0.0054152715019881725
1772642984258707200,2.211707275390625,0.0015638081822544336,-0.0038032603915780783,-0.006222475785762072
1772642984268751400,2.22175146484375,0.0027414578944444656,-0.0030690268613398075,-0.006612362805753946
1772642984278796500,2.231796630859375,0.0018727348651736975,-0.0031292142812162638,-0.006328469607979059
1772642984288841500,2.241841552734375,0.0006253102328628302,-0.004177168011665344,-0.0046879625879228115
1772642984298885400,2.251885498046875,0.002354234457015991,-0.004101800732314587,-0.0057351174764335155
1772642984308930300,2.261930419921875,0.0013709953054785728,-0.0032570459879934788,-0.006487993057817221
1772642984318975500,2.2719755859375,0.002347310073673725,-0.0038514635525643826,-0.004032026045024395
1772642984329019400,2.282019287109375,0.0029648973140865564,-0.00404454255476594,-0.005270129535347223
1772642984339064300,2.292064208984375,0.0011949603212997317,-0.0037238982040435076,-0.006071740761399269
1772642984349109500,2.302109619140625,0.0005225121858529747,-0.004562261048704386,-0.0056925066746771336
1772642984359153400,2.3121533203125,0.000502804818097502,-0.004063717555254698,-0.004897287115454674
1772642984369198300,2.3221982421875,0.002909237053245306,-0.005293032620102167,-0.00624085171148181
1772642984379243300,2.3322431640625,0.000055660068028373644,-0.0043678502552211285,-0.006676012184470892
1772642984389287400,2.342287353515625,0.00005672533006872982,-0.004486893769353628,-0.003751062322407961
1772642984399332400,2.352332275390625,0.0016029566759243608,-0.0027510453946888447,-0.005888515617698431
1772642984409377300,2.362377197265625,0.0021827267482876778,-0.0021257351618260145,-0.006913299672305584
1772642984419421200,2.372421142578125,0.0018104169284924865,-0.004199006129056215,-0.007816111668944359
1772642984429466400,2.38246630859375,0.0017936390358954668,-0.0036770266015082598,-0.0051750545389950275
1772642984439511300,2.39251123046875,0.0010120011866092682,-0.003349723992869258,-0.00746244378387928
1772642984449555200,2.40255517578125,0.0009012137306854129,-0.005277053453028202,-0.005320729687809944
1772642984459600100,2.41260009765625,0.0013749900972470641,-0.0038695731200277805,-0.006325273774564266
1772642984469645300,2.422645263671875,0.0010165285784751177,-0.0036642432678490877,-0.005370264407247305
1772642984479689500,2.432689453125,0.001967543503269553,-0.003210174385458231,-0.004880242515355349
1772642984489734100,2.442734130859375,0.001332645770162344,-0.0035206989850848913,-0.006012618541717529
1772642984499779300,2.452779296875,0.0007310376968234777,-0.004761199466884136,-0.006652842741459608
1772642984509823200,2.4628232421875,0.003716174978762865,-0.0034618431236594915,-0.004408597014844418
1772642984519868400,2.472868408203125,0.001761148450896144,-0.0033396040089428425,-0.0068115671165287495
1772642984529913000,2.4829130859375,-0.00017550231132190675,-0.003287672298029065,-0.005058141890913248
1772642984539958300,2.492958251953125,0.0023086944129318,-0.003210174385458231,-0.00686030276119709
1772642984550002400,2.50300244140625,0.0020037624053657055,-0.003766775131225586,-0.005793973337858915
1772642984560047400,2.51304736328125,0.0013203952694311738,-0.004202201962471008,-0.005932724103331566
1772642984570091300,2.52309130859375,0.0013185309944674373,-0.004779841285198927,-0.0079159801825881
1772642984580136200,2.53313623046875,0.0030415961518883705,-0.004579039290547371,-0.006641923915594816
1772642984590181400,2.543181396484375,0.0019014970166608691,-0.003209375310689211,-0.005228850524872541
1772642984600225300,2.553225341796875,0.0031909996178001165,-0.004279966000467539,-0.005920473486185074
1772642984610270200,2.563270263671875,0.000708134553860873,-0.003629888640716672,-0.005943909287452698
1772642984620315400,2.5733154296875,0.0007765777409076691,-0.003352387109771371,-0.005820338614284992
1772642984630360300,2.5833603515625,0.0011254518758505583,-0.0037803570739924908,-0.00455773388966918
1772642984640404200,2.593404296875,-0.0000953411654336378,-0.005892510060220957,-0.006915164180099964
1772642984650449200,2.60344921875,0.0008029430755414069,-0.005402222275733948,-0.004761998075991869
1772642984660494300,2.613494384765625,0.0021044297609478235,-0.005124987103044987,-0.00689039658755064
1772642984670538200,2.623538330078125,0.0017302557826042175,-0.004026433452963829,-0.006158826407045126
1772642984680583200,2.633583251953125,0.001627457677386701,-0.004772118292748928,-0.005319930613040924
1772642984690628400,2.64362841796875,0.0014152037911117077,-0.004983839578926563,-0.00683207344263792
1772642984700672500,2.653672607421875,0.0010628675809130073,-0.0044293696992099285,-0.007472563534975052
1772642984710717200,2.66371728515625,-0.00001757686368364375,-0.003626692807301879,-0.006050968077033758
1772642984720762400,2.673762451171875,0.0002681803307496011,-0.0033100428991019726,-0.003885285696014762
1772642984730806300,2.68380615234375,0.0007331682136282325,-0.0030692932195961475,-0.006972421891987324
1772642984740851200,2.693851318359375,0.0002463423879817128,-0.0038839541375637054,-0.005821137689054012
1772642984750896000,2.703896240234375,0.0010253170039504766,-0.0030975225381553173,-0.005367601290345192
1772642984760940300,2.713940185546875,0.00048123320448212326,-0.0038224351592361927,-0.0054850466549396515
1772642984770985500,2.7239853515625,0.0028005801141262054,-0.001005343277938664,-0.006543386727571487
1772642984781030100,2.734030029296875,0.0033574472181499004,-0.0031382690649479628,-0.007056045345962048
1772642984791074300,2.74407421875,0.0021574266720563173,-0.003206978552043438,-0.005883188918232918
1772642984801119200,2.754119140625,0.0016098808264359832,-0.003494866192340851,-0.007879228331148624
1772642984811164400,2.764164306640625,0.0012322446564212441,-0.003680222202092409,-0.006911968346685171
1772642984821208300,2.774208251953125,0.002025333931669593,-0.0036695697344839573,-0.007400392089039087
1772642984831253200,2.784253173828125,0.0017571536591276526,-0.0026791400741785765,-0.007702927105128765
1772642984841298400,2.79429833984375,0.0016990967560559511,-0.002877545543015003,-0.007277354132384062
1772642984851342000,2.804342041015625,0.002119077369570732,-0.004749215207993984,-0.006342317909002304
1772642984861387300,2.81438720703125,0.0015483618481084704,-0.0038570561446249485,-0.005345230456441641
1772642984871432200,2.82443212890625,0.001888980157673359,-0.0038637141697108746,-0.0065015750005841255
1772642984881476000,2.83447607421875,0.00047643951256759465,-0.00415373221039772,-0.006024336442351341
1772642984891521300,2.844521240234375,0.0007403587806038558,-0.003156644757837057,-0.006451773922890425
1772642984901566200,2.854566162109375,0.002261822810396552,-0.004292216617614031,-0.007898403331637383
1772642984911610400,2.8646103515625,0.0016666061710566282,-0.0031699605751782656,-0.006354834884405136
1772642984921655300,2.8746552734375,0.001169394003227353,-0.004206729121506214,-0.006885336712002754
1772642984931700200,2.8847001953125,0.001615207176655531,-0.0024796691723167896,-0.005885852500796318
1772642984941744400,2.894744384765625,0.0012985573848709464,-0.003734018187969923,-0.0043798345141112804
1772642984951789300,2.904789306640625,0.0012402341235429049,-0.003465837799012661,-0.0057220677845180035
1772642984961834200,2.914834228515625,0.0014554174849763513,-0.0036133769899606705,-0.006955910474061966
1772642984971878400,2.92487841796875,0.0014096111990511417,-0.0031135017052292824,-0.005852296482771635
1772642984981923300,2.93492333984375,-0.00003062635369133204,-0.003450657706707716,-0.007339139468967915
1772642984991968300,2.94496826171875,0.0007605988066643476,-0.004722583573311567,-0.006457100156694651
1772642985002012200,2.95501220703125,0.0010668623726814985,-0.0038517299108207226,-0.006090649403631687
1772642985012057300,2.965057373046875,-0.000404534162953496,-0.0034855452831834555,-0.007925300858914852
1772642985022102300,2.975102294921875,0.002005626680329442,-0.003314836649224162,-0.006393184419721365
1772642985032146200,2.985146240234375,0.0013203952694311738,-0.0033963292371481657,-0.0044232443906366825
1772642985042191400,2.99519140625,0.002576608443632722,-0.003897536313161254,-0.007527158595621586
1772642985052236300,3.005236328125,0.0018232000293210149,-0.003025883575901389,-0.008360461331903934
1772642985062280200,3.0152802734375,0.0006886934279464185,-0.002724680118262768,-0.006331399083137512
1772642985072325000,3.0253251953125,0.0015094797126948833,-0.002811499172821641,-0.005784119479358196
1772642985082370300,3.035370361328125,0.002110288944095373,-0.004284227266907692,-0.006298109423369169
1772642985092414500,3.04541455078125,0.0026615632232278585,-0.003203782718628645,-0.0062855929136276245
1772642985102459100,3.055459228515625,0.00016005597717594355,-0.0035478631034493446,-0.006204898934811354
1772642985112504300,3.06550439453125,0.0007374293054454029,-0.004494616761803627,-0.006672549992799759
1772642985122548200,3.07554833984375,0.0007909588166512549,-0.0027955202385783195,-0.006701045669615269
1772642985132593200,3.08559326171875,0.0018037590198218822,-0.003650128608569503,-0.006537261418998241
1772642985142638000,3.09563818359375,0.0033278861083090305,-0.0041433461010456085,-0.006916761863976717
1772642985152682200,3.10568212890625,0.0010037453612312675,-0.003254116512835026,-0.005090099759399891
1772642985162727400,3.1157275390625,-0.00016937704640440643,-0.006192381959408522,-0.007219030521810055
1772642985172772000,3.125772216796875,0.0007560714147984982,-0.0033598439767956734,-0.005703425966203213
1772642985182816300,3.135816162109375,0.0016753945965319872,-0.0038277613930404186,-0.006453105714172125
1772642985192861400,3.145861328125,0.0010420948965474963,-0.0043534692376852036,-0.005161206237971783
1772642985202906400,3.15590625,0.0013398362789303064,-0.004222175572067499,-0.0070829433389008045
1772642985212950300,3.1659501953125,-0.0002031991898547858,-0.0024019049014896154,-0.005301288329064846
1772642985222995200,3.1759951171875,0.0024687503464519978,-0.004559065215289593,-0.007399593014270067
1772642985233040400,3.186040283203125,0.0031198931392282248,-0.0031350732315331697,-0.005770537536591291
1772642985243084300,3.196084228515625,0.002909503411501646,-0.004792091902345419,-0.0052118063904345036
1772642985253129200,3.206129150390625,0.0022130869328975677,-0.00376064982265234,-0.0073599121533334255
1772642985263174400,3.21617431640625,0.0018261295044794679,-0.005645368713885546,-0.0060267336666584015
1772642985273218000,3.226218017578125,0.0014090784825384617,-0.004911401774734259,-0.006390787661075592
1772642985283263200,3.23626318359375,0.0006764429272152483,-0.005527656991034746,-0.006690659560263157
1772642985293308200,3.24630810546875,0.0006913566030561924,-0.003507116809487343,-0.0054216631688177586
1772642985303352300,3.256352294921875,0.0022101574577391148,-0.0030146983917802572,-0.006323676090687513
1772642985313397200,3.266397216796875,0.0003880225704051554,-0.003882622579112649,-0.006669354159384966
1772642985323442200,3.276442138671875,0.002567020943388343,-0.00333134806714952,-0.006654174067080021
1772642985333486300,3.286486328125,0.0010604707058519125,-0.005262938793748617,-0.006644054315984249
1772642985343531300,3.29653125,0.0010705908061936498,-0.004067446105182171,-0.007947404868900776
1772642985353576200,3.306576171875,0.0015760586829856038,-0.0034163030795753,-0.00751996785402298
1772642985363620400,3.316620361328125,0.002002697205170989,-0.0036764938849955797,-0.007464041467756033
1772642985373665300,3.326665283203125,-0.00019361180602572858,-0.003385676769539714,-0.006544984877109528
1772642985383710500,3.33671044921875,0.0004948153509758413,-0.0030455910600721836,-0.007093862164765596
1772642985393754400,3.34675439453125,0.0007552724564447999,-0.0015776565996930003,-0.0070853400975465775
1772642985403799300,3.35679931640625,0.001169394003227353,-0.0048916940577328205,-0.004673847462981939
1772642985413844700,3.3668447265625,0.0003920173039659858,-0.004817125853151083,-0.006382265593856573
1772642985423889000,3.376888916015625,0.0013339773286134005,-0.0034671693574637175,-0.0062850601971149445
1772642985433934000,3.38693408203125,0.002659432590007782,-0.0033278861083090305,-0.007691475562751293
1772642985443978800,3.396978759765625,0.0008143946761265397,-0.0041334922425448895,-0.005730589851737022
1772642985454023000,3.40702294921875,0.001181644620373845,-0.004824049770832062,-0.004720719531178474
1772642985464067800,3.41706787109375,0.0000697748182574287,-0.00395799009129405,-0.007172425277531147
1772642985474113000,3.427113037109375,0.002514024032279849,-0.004578240215778351,-0.005388906225562096
1772642985484157000,3.437156982421875,0.0018599516479298472,-0.0036674391012638807,-0.006980943959206343
1772642985494201900,3.447201904296875,0.001407214323990047,-0.003117496380582452,-0.006432599388062954
1772642985504247000,3.4572470703125,0.0009012137306854129,-0.0035896748304367065,-0.005901564843952656
1772642985514290700,3.467290771484375,0.0011195929255336523,-0.003424026072025299,-0.0047031426802277565
1772642985524335900,3.4773359375,0.0020218719728291035,-0.0041153826750814915,-0.006307963281869888
1772642985534380800,3.487380859375,0.002612294629216194,-0.0032631712965667248,-0.0057407100684940815
1772642985544425000,3.497425048828125,0.0009488842915743589,-0.0023521038237959146,-0.006677077617496252
1772642985554470000,3.507469970703125,0.0014927018200978637,-0.0024053670931607485,-0.005213404074311256
1772642985564514800,3.517514892578125,0.0016231966437771916,-0.0031132353469729424,-0.006988933775573969
1772642985574559000,3.52755908203125,0.0011688614031299949,-0.0030927290208637714,-0.005044027231633663
1772642985584604000,3.53760400390625,0.001749164192005992,-0.0034591800067573786,-0.0067694890312850475
1772642985594648800,3.54764892578125,0.0014149374328553677,-0.003317766124382615,-0.006304501090198755
1772642985604693000,3.55769287109375,0.0008647284121252596,-0.0037550569977611303,-0.006055762059986591
1772642985614738000,3.567738037109375,0.0011446266435086727,-0.002222141483798623,-0.007109042257070541
1772642985624782800,3.577782958984375,0.0017800568602979183,-0.0038069887086749077,-0.0057412427850067616
1772642985634827000,3.587826904296875,0.00021411814668681473,-0.0037705034483224154,-0.007820372469723225
1772642985644872000,3.597871826171875,0.0015448997728526592,-0.0031547807157039642,-0.0052197957411408424
1772642985654917000,3.607917236328125,0.0011179950088262558,-0.0035577169619500637,-0.005889314226806164
1772642985664960800,3.617960693359375,0.0013651363551616669,-0.002877545543015003,-0.006681072060018778
1772642985675006000,3.628005859375,0.002008289797231555,-0.003293264890089631,-0.006619819439947605
1772642985685051000,3.63805078125,0.0012277172645553946,-0.003976099658757448,-0.006296511739492416
1772642985695094800,3.6480947265625,0.0013880395563319325,-0.004875715356320143,-0.004161987919360399
1772642985705140000,3.658139892578125,0.0012921657180413604,-0.0038045919500291348,-0.005372128449380398
1772642985715185000,3.668184814453125,0.00009667274571256712,-0.003620833856984973,-0.006727677304297686
1772642985725228800,3.678228759765625,0.0028732845094054937,-0.004002464935183525,-0.006670685950666666
1772642985735273700,3.688273681640625,0.001871136948466301,-0.002837864449247718,-0.005249090492725372
1772642985745319000,3.69831884765625,0.003062102710828185,-0.004157460760325193,-0.005259742960333824
1772642985755363000,3.708363037109375,0.001689775730483234,-0.004034689161926508,-0.00660677021369338
1772642985765407700,3.71840771484375,0.0026173547375947237,-0.0030186930671334267,-0.004489290527999401
1772642985775453000,3.728452880859375,0.0007941546500660479,-0.002633067313581705,-0.0052139367908239365
1772642985785496800,3.738496826171875,0.00010040117194876075,-0.003929493948817253,-0.004846686962991953
1772642985795542000,3.7485419921875,0.00043116576853208244,-0.004006193019449711,-0.008231830783188343
1772642985805586700,3.758586669921875,0.0003755057114176452,-0.005043760873377323,-0.006715160794556141
1772642985815630800,3.768630859375,0.0007984156836755574,-0.004254399798810482,-0.006304767448455095
1772642985825676000,3.778676025390625,0.0021813951898366213,-0.004356665071099997,-0.006322344299405813
1772642985835721000,3.788720947265625,0.0016109461430460215,-0.004072772338986397,-0.006705839652568102
1772642985845764900,3.798764892578125,0.0015704660909250379,-0.004269846249371767,-0.005327919963747263
1772642985855810000,3.80881005859375,0.0015081481542438269,-0.0038362834602594376,-0.0062464443035423756
1772642985865855000,3.81885498046875,0.00105354655534029,-0.003410177771002054,-0.007545001804828644
1772642985875900000,3.82889990234375,0.0022945795208215714,-0.002692722249776125,-0.0072869411669671535
1772642985885943800,3.83894384765625,0.003103115363046527,-0.003934287931770086,-0.005570267792791128
1772642985895989000,3.848989013671875,0.0003635214816313237,-0.0032599754631519318,-0.0065527078695595264
1772642985906034000,3.859033935546875,0.0016045545926317573,-0.003677825443446636,-0.005987851414829493
1772642985916077800,3.869077880859375,0.0010655306978151202,-0.003724164329469204,-0.00592606607824564
1772642985926123000,3.879123046875,0.0013219931861385703,-0.002311091171577573,-0.006343916058540344
1772642985936168000,3.88916796875,0.000015712650565546937,-0.002653839997947216,-0.006923686247318983
1772642985946211800,3.8992119140625,0.0022421153262257576,-0.002555303042754531,-0.005769205745309591
1772642985956256800,3.9092568359375,0.0006106628570705652,-0.003436010330915451,-0.0051963599398732185
1772642985966302000,3.919302001953125,0.002374474424868822,-0.002351038623601198,-0.006974818650633097
1772642985976346000,3.92934619140625,0.0018354506464675069,-0.0028698223177343607,-0.006454703398048878
1772642985986390800,3.939390869140625,0.0011044129496440291,-0.0036005936563014984,-0.006095975637435913
1772642985996436000,3.94943603515625,0.0008498146780766547,-0.0037910097744315863,-0.006725546903908253
1772642986006480000,3.95947998046875,0.0030780816450715065,-0.0023252058308571577,-0.006163886282593012
1772642986016524800,3.96952490234375,0.002939330879598856,-0.004060255363583565,-0.006074403878301382
1772642986026569700,3.97956982421875,0.000681236619129777,-0.002380067016929388,-0.0054733287543058395
1772642986036614000,3.98961376953125,0.0020876519847661257,-0.0037143107037991285,-0.006971889175474644
1772642986046659000,3.9996591796875,0.000749679864384234,-0.00293373828753829,-0.0057708038948476315
1772642986056703700,4.009703857421875,0.0014570154016837478,-0.0036184368655085564,-0.0068299430422484875
1772642986066748000,4.019747802734375,0.0007656587986275554,-0.003975300583988428,-0.005714611150324345
1772642986076792800,4.029792724609375,0.0005158542771823704,-0.004757737275213003,-0.006893326062709093
1772642986086838000,4.039838134765625,0.0013020194601267576,-0.0037768951151520014,-0.005911951418966055
1772642986096882000,4.0498818359375,0.002894856035709381,-0.004087686073035002,-0.005736715160310268
1772642986106926800,4.0599267578125,0.0013515542959794402,-0.005396096967160702,-0.008069911040365696
1772642986116972000,4.069971923828125,0.0011310444679111242,-0.004387557972222567,-0.006106628105044365
1772642986127016000,4.080015869140625,0.0006522081675939262,-0.003245594445616007,-0.0054701329208910465
1772642986137060900,4.090060791015625,0.0015030881622806191,-0.00316010694950819,-0.005766276270151138
1772642986147106000,4.10010595703125,0.001883121207356453,-0.0037497307639569044,-0.007168963085860014
1772642986157149700,4.110149658203125,0.0019558256026357412,-0.004781173076480627,-0.007707720622420311
1772642986167195000,4.12019482421875,0.0008362325606867671,-0.0038922098465263844,-0.006272543221712112
1772642986177239800,4.13023974609375,0.002394448034465313,-0.004959604702889919,-0.005279982928186655
1772642986187284000,4.140283935546875,0.0018287927377969027,-0.0024045680183917284,-0.006095176562666893
1772642986197329000,4.150328857421875,0.0010258496040478349,-0.0033217607997357845,-0.00520727876573801
1772642986207373800,4.160373779296875,0.003425357863306999,-0.003722300287336111,-0.006425408646464348
1772642986217418000,4.17041796875,0.002124137245118618,-0.0037265613209456205,-0.0057100835256278515
1772642986227463000,4.180462890625,0.001797101111151278,-0.0020815266761928797,-0.005349225364625454
1772642986237507800,4.1905078125,0.002810700098052621,-0.0032866070978343487,-0.007896538823843002
1772642986247552000,4.200552001953125,0.0008860336965881288,-0.0046874298714101315,-0.007250189781188965
1772642986257597000,4.210596923828125,0.0016863135388121009,-0.004095142707228661,-0.004734301473945379
1772642986267641900,4.220641845703125,0.002636263146996498,-0.002435993403196335,-0.004356931429356337
1772642986277685800,4.230685791015625,0.001609081868082285,-0.004796619527041912,-0.006363889668136835
1772642986287731000,4.24073095703125,0.0021632856223732233,-0.0035486621782183647,-0.0059748017229139805
1772642986297775900,4.25077587890625,0.002144909929484129,-0.003662112867459655,-0.006473612040281296
1772642986307819800,4.26081982421875,0.0021883193403482437,-0.001969407545402646,-0.006848584860563278
1772642986317865000,4.270864990234375,0.0010362359462305903,-0.0032314795535057783,-0.0064837317913770676
1772642986327910000,4.280909912109375,0.001532382913865149,-0.003775297198444605,-0.007230748422443867
1772642986337953800,4.290953857421875,0.0010602044640108943,-0.002951048780232668,-0.005920207127928734
1772642986347999000,4.3009990234375,0.002222674200311303,-0.0032892702147364616,-0.006097573786973953
1772642986358044000,4.3110439453125,0.0023148194886744022,-0.0035260252188891172,-0.005606486462056637
1772642986368088000,4.321088134765625,0.0029843382071703672,-0.0036732980515807867,-0.005799033213406801
1772642986378132700,4.3311328125,0.0016735304379835725,-0.0036602485924959183,-0.005583317019045353
1772642986388178000,4.341177978515625,0.002971555106341839,-0.004175303969532251,-0.006286391522735357
1772642986398222000,4.35122216796875,0.0028937908355146646,-0.002956907730549574,-0.006717024836689234
1772642986408266800,4.361266845703125,0.0019105518003925681,-0.003097256412729621,-0.005591573193669319
1772642986418312000,4.37131201171875,0.0010868359822779894,-0.0036011263728141785,-0.0049095372669398785
1772642986428355600,4.38135546875,0.001019990653730929,-0.003367300843819976,-0.006325007416307926
1772642986438400800,4.39140087890625,0.0016205335268750787,-0.003294330323114991,-0.006982542108744383
1772642986448445700,4.40144580078125,0.0019523634109646082,-0.002924417145550251,-0.006217682268470526
1772642986458489600,4.411489501953125,0.0010229201288893819,-0.0043686493299901485,-0.007405185606330633
1772642986468534800,4.42153466796875,0.00210629403591156,-0.0030160299502313137,-0.006079996936023235
1772642986478579700,4.431579833984375,0.0006719155353493989,-0.0032613070216029882,-0.006624080706387758
1772642986488623900,4.441623779296875,0.0004362257895991206,-0.005085572600364685,-0.006783337332308292
1772642986498668500,4.45166845703125,0.0010570086305961013,-0.00421471893787384,-0.006947122048586607
1772642986508713700,4.461713623046875,0.0016468988033011556,-0.0034530546981841326,-0.006821953225880861
1772642986518758000,4.4717578125,0.0006298375665210187,-0.004287689458578825,-0.0065231467597186565
1772642986528802800,4.481802734375,0.002124137245118618,-0.0036131106317043304,-0.005893042776733637
1772642986538847700,4.49184765625,0.0011459582019597292,-0.003477022983133793,-0.005434446502476931
1772642986548892000,4.501891845703125,-0.00027297402266412973,-0.0033009881153702736,-0.005693838465958834
1772642986558936800,4.511936767578125,0.0018341189716011286,-0.004349741153419018,-0.008244081400334835
1772642986568981800,4.521981689453125,0.0007073355955071747,-0.003082609036937356,-0.005263205152004957
1772642986579025700,4.532025634765625,0.002656769473105669,-0.0046506780199706554,-0.005536179058253765
1772642986589070800,4.54207080078125,0.0016130766598507762,-0.003856257302686572,-0.0062970444560050964
1772642986599115800,4.55211572265625,0.0020418455824255943,-0.003025883575901389,-0.004914331249892712
1772642986609159700,4.56215966796875,0.0011880361707881093,-0.004677576012909412,-0.005657885689288378
1772642986619204900,4.572204833984375,0.0028871328104287386,-0.002680205274373293,-0.006051767151802778
1772642986629249800,4.582249755859375,0.002439721953123808,-0.0035510589368641376,-0.0065263425931334496
1772642986639293700,4.592293701171875,0.00024314661277458072,-0.004831240512430668,-0.005311941262334585
1772642986649338600,4.602338623046875,0.001711081014946103,-0.004570517223328352,-0.006143912672996521
1772642986659383800,4.6123837890625,0.0006359628750942647,-0.0036485306918621063,-0.006197974551469088
1772642986669428000,4.622427978515625,0.0018024274613708258,-0.0037406759802252054,-0.007991880178451538
1772642986679472600,4.63247265625,0.0005669869715347886,-0.004994758404791355,-0.006746053230017424
1772642986689517800,4.642517822265625,0.0009712548344396055,-0.004602741450071335,-0.006161489523947239
1772642986699561700,4.652561767578125,0.0024980450980365276,-0.004520982038229704,-0.006013950332999229
1772642986709607000,4.66260693359375,0.0011891013709828258,-0.004019242711365223,-0.006022472400218248
1772642986719651600,4.672651611328125,0.0022383867762982845,-0.00324799120426178,-0.006184392608702183
1772642986729695700,4.68269580078125,-0.00033662354690022767,-0.0043952809646725655,-0.005405684467405081
1772642986739741000,4.692740966796875,0.0014479606179520488,-0.003165699541568756,-0.00794554129242897
1772642986749785600,4.70278564453125,0.002210956299677491,-0.003713778220117092,-0.00771730812266469
1772642986759829800,4.712829833984375,0.003037601476535201,-0.003287405939772725,-0.005908755585551262
1772642986769874700,4.722874755859375,-0.000180029688635841,-0.0033904702868312597,-0.006612629164010286
1772642986779920000,4.732919921875,0.0022474415600299835,-0.005376921966671944,-0.005909820552915335
1772642986789963800,4.7429638671875,0.0006085322820581496,-0.0036487970501184464,-0.005025384947657585
1772642986800008700,4.7530087890625,0.001317998394370079,-0.003960386849939823,-0.0057074204087257385
1772642986810054000,4.763053955078125,-0.0005637911963276565,-0.0036874127108603716,-0.005261341109871864
1772642986820097800,4.773097900390625,0.0007243797881528735,-0.003579554846510291,-0.004542287439107895
1772642986830142700,4.783142822265625,0.003020290983840823,-0.0038480013608932495,-0.005511944647878408
1772642986840188000,4.79318798828125,0.0015600797487422824,-0.003296993440017104,-0.0065069012343883514
1772642986850231800,4.803231689453125,0.0001597896625753492,-0.004286357667297125,-0.005693305749446154
1772642986860276700,4.81327685546875,0.0023004384711384773,-0.004032026045024395,-0.0057383133098483086
1772642986870321700,4.82332177734375,0.0020242687314748764,-0.002516420790925622,-0.005543103441596031
1772642986880365800,4.83336572265625,0.0009262474486604333,-0.00487251952290535,-0.005084507167339325
1772642986890410800,4.84341064453125,0.0004799016169272363,-0.004175037611275911,-0.0067844027653336525
1772642986900455700,4.85345556640625,0.0020730046089738607,-0.004079164005815983,-0.005328719038516283
1772642986910499800,4.863499755859375,0.0018423747969791293,-0.003677825443446636,-0.006524478085339069
1772642986920544800,4.873544677734375,0.0019491675775498152,-0.0027454528026282787,-0.007273359224200249
1772642986930589700,4.883589599609375,0.00133877107873559,-0.004138552118092775,-0.006665625609457493
1772642986940633900,4.8936337890625,0.001085770782083273,-0.0034621094819158316,-0.005855225957930088
1772642986950678800,4.9036787109375,0.0009528790251351893,-0.004060255363583565,-0.005709018558263779
1772642986960724000,4.913723876953125,0.0015853798249736428,-0.0026264095213264227,-0.005823001731187105
1772642986970767600,4.923767578125,0.0013430321123450994,-0.002778742229565978,-0.00407623453065753
1772642986980812800,4.933812744140625,0.001136637176387012,-0.003922303672879934,-0.006615025922656059
1772642986990857700,4.943857666015625,0.0014029532903805375,-0.0035121769178658724,-0.00503923324868083
1772642987000901600,4.953901611328125,0.002603506203740835,-0.004079164005815983,-0.00708693778142333
1772642987010946800,4.96394677734375,0.0014253237750381231,-0.0036642432678490877,-0.008162855170667171
1772642987020991700,4.97399169921875,0.002597380895167589,-0.0031555795576423407,-0.005845638457685709
1772642987031035600,4.98403564453125,0.0008945558220148087,-0.0018048242200165987,-0.0067697553895413876
1772642987041080800,4.994080810546875,0.0010831075487658381,-0.00387303507886827,-0.006085855886340141
1772642987051125800,5.004125732421875,0.0000018642127770363004,-0.0027952538803219795,-0.005023254547268152
1772642987061170000,5.014169921875,0.0018461032304912806,-0.003209641668945551,-0.006541789043694735
1772642987071214600,5.024214599609375,0.0025989788118749857,-0.004406466148793697,-0.004644020460546017
1772642987081259800,5.034259765625,-0.0004218447138555348,-0.0038839541375637054,-0.00603339122608304
1772642987091304000,5.044303955078125,0.001651426195167005,-0.002668487373739481,-0.005409678909927607
1772642987101348900,5.054348876953125,0.0013869742397218943,-0.004175037611275911,-0.006193447392433882
1772642987111393800,5.064393798828125,0.0015286544803529978,-0.00509968725964427,-0.007121026515960693
1772642987121437700,5.074437744140625,0.0012093414552509785,-0.004768389742821455,-0.004819788970053196
1772642987131483000,5.08448291015625,0.0005744438385590911,-0.003805657150223851,-0.005814213305711746
1772642987141527800,5.09452783203125,0.0008913599886000156,-0.003966778516769409,-0.0062640211544930935
1772642987151571700,5.10457177734375,0.0014016216155141592,-0.004316984210163355,-0.007150321267545223
1772642987161617000,5.114616943359375,0.00022743394947610795,-0.004262655507773161,-0.007179349660873413
1772642987171661800,5.124661865234375,0.0025917883031070232,-0.003323092358186841,-0.004789961501955986
1772642987181705700,5.134705810546875,0.0013499563792720437,-0.0023992417845875025,-0.005574794951826334
1772642987191750700,5.144750732421875,0.0018314558546990156,-0.004305532667785883,-0.006736732088029385
1772642987201795800,5.1547958984375,0.0018426411552354693,-0.0025798040442168713,-0.007568171247839928
1772642987211839700,5.16483984375,0.0002745719102676958,-0.004102067090570927,-0.007601993158459663
1772642987221884700,5.174884765625,0.0007970841252245009,-0.00520674604922533,-0.007252320181578398
1772642987231929900,5.184929931640625,0.0021853898651897907,-0.0036485306918621063,-0.00637773796916008
1772642987241973800,5.194973876953125,0.0012149340473115444,-0.004032292403280735,-0.007299458142369986
1772642987252018700,5.205018798828125,0.001469532260671258,-0.003323625074699521,-0.005784119479358196
1772642987262063600,5.215063720703125,0.0016559535870328546,-0.00427091121673584,-0.006767624989151955
1772642987272107800,5.225107666015625,0.001853293739259243,-0.00264851376414299,-0.006772951222956181
1772642987282153000,5.235153076171875,0.0030426615849137306,-0.003888747887685895,-0.004181429278105497
1772642987292197600,5.24519775390625,0.001514273346401751,-0.0041276332922279835,-0.0052136704325675964
1772642987302241800,5.25524169921875,0.000937166390940547,-0.0032714270055294037,-0.007053914945572615
1772642987312287000,5.265286865234375,0.0013989584986120462,-0.004200337454676628,-0.006441920530050993
1772642987322331600,5.27533154296875,0.003608583239838481,-0.0038005972746759653,-0.0057377805933356285
1772642987332375800,5.285375732421875,0.003338538808748126,-0.0036541232839226723,-0.005860552191734314
1772642987342420700,5.295420654296875,0.0005696501466445625,-0.004277036525309086,-0.006308229640126228
1772642987352466000,5.3054658203125,-0.00041731735109351575,-0.0023960459511727095,-0.006856841035187244
1772642987362509800,5.315509765625,0.00004740426811622456,-0.004601942375302315,-0.007152185309678316
1772642987372554800,5.3255546875,0.0015901734586805105,-0.005082909017801285,-0.004323908127844334
1772642987382600000,5.335599853515625,0.002956907730549574,-0.00330258603207767,-0.006474144756793976
1772642987392643600,5.3456435546875,0.003050118451938033,-0.004399542231112719,-0.007111971732228994
1772642987402688800,5.355688720703125,0.001862348522990942,-0.00387276872061193,-0.004718322306871414
1772642987412733200,5.365733154296875,-0.001264202524907887,-0.003290868131443858,-0.006299441214650869
1772642987422776800,5.37577685546875,0.0020719394087791443,-0.0033995250705629587,-0.0074619110673666
1772642987432822000,5.385822021484375,0.0017888452857732773,-0.0041641187854111195,-0.005091431550681591
1772642987442867000,5.395866943359375,0.0024948492646217346,-0.005006209947168827,-0.005604622419923544
1772642987452911000,5.4059111328125,0.0017712684348225594,-0.004151335451751947,-0.007537811063230038
1772642987462956000,5.4159560546875,0.0016998957144096494,-0.0018785938154906034,-0.005645901430398226
1772642987473001000,5.4260009765625,0.002097239252179861,-0.0046480149030685425,-0.00603365758433938
1772642987483045000,5.436045166015625,0.0028490496333688498,-0.0040916805155575275,-0.0062488410621881485
1772642987493089800,5.44608984375,0.001674595638178289,-0.005658951122313738,-0.006419816054403782
1772642987503135000,5.456135009765625,0.002484462922438979,-0.002816559048369527,-0.007963384501636028
1772642987513179100,5.46617919921875,0.0018570221727713943,-0.004036020487546921,-0.0059660132974386215
1772642987523224000,5.47622412109375,0.0014809839194640517,-0.005260009318590164,-0.006955111399292946
1772642987533269000,5.48626904296875,0.0029140308033674955,-0.003963849041610956,-0.0073567163199186325
1772642987543313200,5.496313232421875,0.0006434197421185672,-0.0023433153983205557,-0.00651568965986371
1772642987553358000,5.506358154296875,0.0012399677652865648,-0.0049526807852089405,-0.007308512926101685
1772642987563403000,5.516403076171875,0.001945705502294004,-0.003433347214013338,-0.006184658966958523
1772642987573447000,5.526447021484375,0.0005446164286695421,-0.002671683207154274,-0.005130046978592873
1772642987583492000,5.5364921875,0.0007265103631652892,-0.0037587855476886034,-0.006557235028594732
1772642987593537000,5.546537109375,0.0007811051327735186,-0.004141481593251228,-0.005216333549469709
1772642987603581000,5.556580810546875,0.0018160095205530524,-0.004372644238173962,-0.0060445768758654594
1772642987613626000,5.566626220703125,0.0024687503464519978,-0.003997138235718012,-0.006420082412660122
1772642987623671000,5.576671142578125,0.0022423816844820976,-0.0046637277118861675,-0.007048055995255709
1772642987633715000,5.58671484375,0.001973136095330119,-0.0038163098506629467,-0.006352704484015703
1772642987643759900,5.596759765625,-0.00004926848123432137,-0.004372377879917622,-0.006170277949422598
1772642987653805000,5.60680517578125,0.0008815063047222793,-0.0031380027066916227,-0.004210191313177347
1772642987663849200,5.61684912109375,0.0006958839949220419,-0.004689826630055904,-0.005571332760155201
1772642987673894000,5.626893798828125,0.0006191849242895842,-0.0038029940333217382,-0.005934055428951979
1772642987683939000,5.63693896484375,0.0009209210984408855,-0.0035960664972662926,-0.00609224708750844
1772642987693983000,5.64698291015625,0.0013036173768341541,-0.003213636577129364,-0.0057289921678602695
1772642987704028200,5.657028076171875,0.0026666230987757444,-0.004597947467118502,-0.0054701329208910465
1772642987714072800,5.66707275390625,0.0016021577175706625,-0.0023960459511727095,-0.004574245307594538
1772642987724117000,5.677116943359375,0.002008289797231555,-0.004974518436938524,-0.005653358530253172
1772642987734162200,5.687162109375,0.001936650718562305,-0.004366252571344376,-0.005162005312740803
1772642987744206800,5.697206787109375,0.0009411611245013773,-0.004150802735239267,-0.0070704263634979725
1772642987754251000,5.7072509765625,0.0008434231276623905,-0.0037611823063343763,-0.006165483966469765
1772642987764296000,5.7172958984375,-0.0007294398383237422,-0.00324852392077446,-0.006691458635032177
1772642987774341000,5.727341064453125,0.0009081379394046962,-0.004248807206749916,-0.006274939980357885
1772642987784385000,5.737385009765625,0.002734267385676503,-0.0022684806026518345,-0.006819556467235088
1772642987794430000,5.747429931640625,0.0019510318525135517,-0.004521514754742384,-0.007122624199837446
1772642987804475100,5.75747509765625,0.001969407545402646,-0.004656004719436169,-0.007017429452389479
1772642987814519000,5.76751904296875,0.002764361212030053,-0.0046208505518734455,-0.006058425176888704
1772642987824564000,5.77756396484375,0.0016876452136784792,-0.0042733084410429,-0.005691708065569401
1772642987834609200,5.787609130859375,0.0014895059866830707,-0.003084739437326789,-0.006957508157938719
1772642987844653000,5.797653076171875,0.0006649913266301155,-0.003287672298029065,-0.005822735372930765
1772642987854698000,5.807697998046875,0.0018988338997587562,-0.004306064918637276,-0.005900765769183636
1772642987864743000,5.817742919921875,0.0011914982460439205,-0.004070641472935677,-0.006126335822045803
1772642987874787000,5.827787109375,0.00014274542627390474,-0.0039036613889038563,-0.00686110183596611
1772642987884832000,5.83783203125,0.001898034941405058,-0.0024381240364164114,-0.005342567339539528
1772642987894877000,5.847876953125,0.0013672668719664216,-0.003359045134857297,-0.005191565956920385
1772642987904921000,5.857921142578125,0.0024445154704153538,-0.0027140274178236723,-0.006621683482080698
1772642987914966000,5.867966064453125,0.00133850472047925,-0.0038195056840777397,-0.005818740464746952
1772642987925011000,5.878010986328125,0.0016500946367159486,-0.002231728984043002,-0.0068182251416146755
1772642987935055000,5.88805517578125,0.0018154769204556942,-0.004059456288814545,-0.006795055698603392
1772642987945100000,5.89810009765625,0.0017142767319455743,-0.003820837242528796,-0.004971588961780071
1772642987955145200,5.908145263671875,0.0006165218073874712,-0.003772367723286152,-0.0068302094005048275
1772642987965188900,5.91818896484375,-0.0003225088003091514,-0.003611779073253274,-0.005764145869761705
1772642987975234000,5.928234130859375,0.000627973407972604,-0.0034474621061235666,-0.005279450677335262
1772642987985279000,5.938279052734375,-0.00006125270738266408,-0.003979029133915901,-0.0070943948812782764
1772642987995323000,5.948322998046875,0.0015092133544385433,-0.0035420041531324387,-0.007212905213236809
1772642988005368000,5.9583681640625,0.0016306535108014941,-0.0030511836521327496,-0.005771868862211704
1772642988015413000,5.9684130859375,0.001710814656689763,-0.002939064521342516,-0.006258961278945208
1772642988025457000,5.978456787109375,0.0013763216556981206,-0.004156661685556173,-0.005373460240662098
1772642988035502000,5.988502197265625,0.000907338981050998,-0.003459446132183075,-0.006013151258230209
1772642988045547000,5.998547119140625,0.0017409083666279912,-0.0024628913961350918,-0.0070677632465958595
1772642988055591200,6.008591064453125,0.0014381069922819734,-0.0028543761000037193,-0.006641391199082136
1772642988065635800,6.0186357421875,0.0025033713318407536,-0.0049092709086835384,-0.007407848723232746
1772642988075681000,6.028680908203125,0.0035033884923905134,-0.0035481294617056847,-0.00629091914743185
1772642988085725200,6.03872509765625,0.004308462142944336,-0.003978762775659561,-0.006332464516162872
1772642988095770000,6.04877001953125,0.0018072210950776935,-0.0025004418566823006,-0.006067746318876743
1772642988105815000,6.05881494140625,0.001148355077020824,-0.001936650718562305,-0.004734567832201719
1772642988115859000,6.06885888671875,0.002641855739057064,-0.003251453395932913,-0.005791842471808195
1772642988125904100,6.078904052734375,0.0009590042755007744,-0.002889263443648815,-0.005648830905556679
1772642988135949000,6.088948974609375,0.0009297095239162445,-0.003993676509708166,-0.007133543025702238
1772642988145993000,6.098992919921875,0.002204830991104245,-0.004476241301745176,-0.0071164988912642
1772642988156038100,6.1090380859375,0.002843723399564624,-0.003029079409316182,-0.007259510923177004
1772642988166083000,6.1190830078125,0.0011518171522766352,-0.0033358754590153694,-0.0057138120755553246
1772642988176127000,6.129126953125,-0.000075101139373146,-0.0032056469935923815,-0.007385478354990482
1772642988186172000,6.139171875,0.0023153522051870823,-0.003602990647777915,-0.006090116687119007
1772642988196217000,6.149217041015625,0.00040986048406921327,-0.004728442523628473,-0.006039516534656286
1772642988206261000,6.159260986328125,0.00037630466977134347,-0.004496747627854347,-0.0052046156488358974
1772642988216306000,6.169305908203125,0.00041518680518493056,-0.003918042406439781,-0.006650179624557495
1772642988226351000,6.17935107421875,0.0008602010202594101,-0.004777977243065834,-0.006641923915594816
1772642988236395000,6.18939501953125,0.001344630029052496,-0.003070092061534524,-0.005824599415063858
1772642988246440000,6.19943994140625,0.0008024104172363877,-0.0027830032631754875,-0.005594236310571432
1772642988256484900,6.20948486328125,0.000050866376113845035,-0.003963049966841936,-0.005659749731421471
1772642988266529000,6.219529052734375,0.0018410432385280728,-0.003894340479746461,-0.007933557033538818
1772642988276574200,6.22957421875,0.0010005496442317963,-0.0020626182667911053,-0.0073540532030165195
1772642988286619000,6.239618896484375,0.0004857605672441423,-0.004535629414021969,-0.00686056911945343
1772642988296663000,6.2496630859375,0.0017068199813365936,-0.0036101811565458775,-0.005962018854916096
1772642988306708200,6.259708251953125,0.002026133006438613,-0.0041526672430336475,-0.005275988485664129
1772642988316753000,6.2697529296875,0.002104163635522127,-0.002853044541552663,-0.006655505858361721
1772642988326797000,6.279797119140625,0.0031353395897895098,-0.003282346064224839,-0.005104480776935816
1772642988336842000,6.289842041015625,0.0023015039041638374,-0.0035923379473388195,-0.005953230429440737
1772642988346887200,6.29988720703125,0.0026647590566426516,-0.004030427895486355,-0.006660033017396927
1772642988356931000,6.30993115234375,0.0019254654180258512,-0.0035601137205958366,-0.005389172583818436
1772642988366976000,6.31997607421875,0.0004367584188003093,-0.003129480639472604,-0.005141498986631632
1772642988377021200,6.330021240234375,0.0018037590198218822,-0.0026088326703757048,-0.00694845337420702
1772642988387064800,6.34006494140625,0.000955009541939944,-0.0020245350897312164,-0.005336974747478962
1772642988397110000,6.350110107421875,0.0019859191961586475,-0.003911118488758802,-0.0073473951779305935
1772642988407155000,6.360155029296875,0.00216514989733696,-0.003870371961966157,-0.005278385244309902
1772642988417200000,6.3702001953125,0.00027750138542614877,-0.0034698324743658304,-0.005337773822247982
1772642988427245000,6.3802451171875,0.000639424950350076,-0.0036698358599096537,-0.005909288302063942
1772642988437290200,6.390290283203125,0.0002772350562736392,-0.004279433749616146,-0.005094361025840044
1772642988447334100,6.400334228515625,0.000054861116950633004,-0.0029558425303548574,-0.0062850601971149445
1772642988457379000,6.410379150390625,0.001145425601862371,-0.003181145992130041,-0.006870422977954149
1772642988467424300,6.42042431640625,0.00032623723382130265,-0.0037172401789575815,-0.005620601586997509
1772642988477468200,6.43046826171875,0.0008325041271746159,-0.002966495230793953,-0.006462692748755217
1772642988487513000,6.44051318359375,0.0014056164072826505,-0.004854143597185612,-0.008646219037473202
1772642988497558000,6.45055810546875,0.002376871183514595,-0.004482898861169815,-0.006024602800607681
1772642988507602200,6.460602294921875,0.0008609999786131084,-0.004235491156578064,-0.006315952632576227
1772642988517647400,6.4706474609375,0.0014064153656363487,-0.003421629313379526,-0.007094128523021936
1772642988527692000,6.480692138671875,0.0014719291357323527,-0.003899933071807027,-0.005244562868028879
1772642988537736200,6.490736083984375,0.0013968279818072915,-0.004295678809285164,-0.007382548879832029
1772642988547781000,6.500781005859375,0.0009467537747696042,-0.005363606382161379,-0.00487225316464901
1772642988557826000,6.510825927734375,0.0017931063193827868,-0.004169445019215345,-0.006555104628205299
1772642988567870200,6.5208701171875,0.002868224401026964,-0.004052798729389906,-0.006489857099950314
1772642988577915100,6.5309150390625,0.0014168017078191042,-0.004550543148070574,-0.00714765815064311
1772642988587960300,6.540960205078125,0.000993625377304852,-0.00361763802357018,-0.007074421271681786
1772642988598004200,6.551004150390625,0.001990180229768157,-0.0034639735240489244,-0.0065436530858278275
1772642988608049200,6.561049072265625,0.00018482338055036962,-0.003849332919344306,-0.0063092950731515884
1772642988618094000,6.571093994140625,0.0020509003661572933,-0.0034996599424630404,-0.008476043120026588
1772642988628138000,6.581137939453125,0.0009025452891364694,-0.003457315731793642,-0.005634982604533434
1772642988638183200,6.59118310546875,0.001019990653730929,-0.0036250948905944824,-0.005016063805669546
1772642988648227300,6.601227294921875,0.0022386531345546246,-0.0027169568929821253,-0.005568137392401695
1772642988658272300,6.611272216796875,0.0016684704460203648,-0.0033065807074308395,-0.006554838269948959
1772642988668317200,6.621317138671875,0.0018868496408686042,-0.003406981937587261,-0.005303418729454279
1772642988678362000,6.631362060546875,0.0016655409708619118,-0.003522296901792288,-0.008244614116847515
1772642988688406300,6.64140625,0.0012876383261755109,-0.003829359309747815,-0.005289304070174694
1772642988698451000,6.651450927734375,0.0031430625822395086,-0.0023699470330029726,-0.00544376764446497
1772642988708496100,6.66149609375,0.0013526194961741567,-0.002389388158917427,-0.005596366710960865
1772642988718540300,6.671540283203125,0.001558748190291226,-0.0031486554071307182,-0.006286657880991697
1772642988728585200,6.681585205078125,0.0024975123815238476,-0.0038256309926509857,-0.007556719705462456
1772642988738630100,6.691630126953125,0.0013113404856994748,-0.0033510555513203144,-0.005020857788622379
1772642988748674000,6.701674072265625,0.003662645351141691,-0.0031438616570085287,-0.007530354429036379
1772642988758719200,6.71171923828125,-0.00001304948909819359,-0.003519367426633835,-0.005163869354873896
1772642988768763100,6.72176318359375,0.0008170577930286527,-0.005046423990279436,-0.007382282521575689
1772642988778808000,6.73180810546875,0.0014679343439638615,-0.0027840686962008476,-0.005637379363179207
1772642988788853200,6.741853271484375,0.0027835359796881676,-0.003424292430281639,-0.006217415910214186
1772642988798897200,6.751897216796875,0.0007291734800674021,-0.0046719834208488464,-0.007309578359127045
1772642988808942000,6.761942138671875,0.0007904262165538967,-0.003594468580558896,-0.005003546830266714
1772642988818987000,6.771987060546875,0.002162753138691187,-0.003681021276861429,-0.007933024317026138
1772642988829031200,6.78203125,0.002004827605560422,-0.0035718316212296486,-0.006074137985706329
1772642988839076000,6.792076171875,0.002448510378599167,-0.003742540255188942,-0.007157511543482542
1772642988849121000,6.80212109375,0.0004966795677319169,-0.002778742229565978,-0.00691915862262249
1772642988859166200,6.812166259765625,0.003034672001376748,-0.004761465825140476,-0.006733004003763199
1772642988869210400,6.82221044921875,0.0020367854740470648,-0.003967577591538429,-0.008156463503837585
1772642988879255000,6.832255126953125,0.0012538161827251315,-0.003293264890089631,-0.005576925817877054
1772642988889299200,6.84229931640625,0.001490304945036769,-0.0037888791412115097,-0.006223541218787432
1772642988899344100,6.85234423828125,0.0024258734192699194,-0.00512871565297246,-0.0063005066476762295
1772642988909389300,6.862389404296875,0.0020216056145727634,-0.0030133668333292007,-0.005631254054605961
1772642988919433200,6.87243310546875,0.0002569950302131474,-0.00418249424546957,-0.0065497783944010735
1772642988929478100,6.88247802734375,0.0021792647894471884,-0.003516437951475382,-0.006298642139881849
1772642988939523300,6.8925234375,0.001076982356607914,-0.003466104157269001,-0.007003581151366234
1772642988949567000,6.90256689453125,0.0005747101386077702,-0.004561994690448046,-0.004991296678781509
1772642988959612200,6.912612060546875,0.0021233384031802416,-0.0026730147656053305,-0.0054389736615121365
1772642988969657000,6.922656982421875,0.0012452941155061126,-0.006481867749243975,-0.0065050371922552586
1772642988979701000,6.932700927734375,0.001240766723640263,-0.00301709515042603,-0.006047772243618965
1772642988989746200,6.94274609375,0.00039175100391730666,-0.0037617150228470564,-0.006114617921411991
1772642988999791000,6.952791015625,0.0009329052991233766,-0.0038954056799411774,-0.006257096771150827
1772642989009835300,6.962835205078125,0.002118011936545372,-0.0044232443906366825,-0.007215302437543869
1772642989019880000,6.9728798828125,0.0006351639167405665,-0.0034461303148418665,-0.007641940843313932
1772642989029925000,6.982925048828125,0.0027265443932265043,-0.004070109222084284,-0.005560147576034069
1772642989039969300,6.99296923828125,0.0009384979493916035,-0.004264520015567541,-0.006207295693457127
1772642989050014200,7.00301416015625,0.000669252360239625,-0.003317499766126275,-0.005811283830553293
1772642989060059100,7.01305908203125,0.0016671388875693083,-0.00387410051189363,-0.007591873407363892
1772642989070103300,7.023103271484375,0.0021840583067387342,-0.002837331732735038,-0.0049524144269526005
1772642989080148200,7.033148193359375,0.001285241567529738,-0.004406998865306377,-0.005584915168583393
1772642989090193200,7.043193115234375,0.001614940818399191,-0.0028099012561142445,-0.00618146313354373
1772642989100237000,7.053237060546875,0.0035958001390099525,-0.003166498616337776,-0.005931658670306206
1772642989110282200,7.0632822265625,0.000841825210954994,-0.004397677723318338,-0.004927114117890596
1772642989120327200,7.0733271484375,0.002133458387106657,-0.0038599856197834015,-0.0054972972720861435
1772642989130371000,7.08337109375,0.0021947110071778297,-0.003605387406423688,-0.005760950036346912
1772642989140416300,7.093416259765625,0.0009797769598662853,-0.0038991342298686504,-0.006856574676930904
1772642989150461200,7.103461181640625,0.0016421051695942879,-0.004869590047746897,-0.005724730901420116
1772642989160505000,7.113505126953125,0.0014357101172208786,-0.0029318740125745535,-0.0064744106493890285
1772642989170550000,7.123550048828125,0.0012423646403476596,-0.0042733084410429,-0.005758020561188459
1772642989180595200,7.13359521484375,0.0006788397440686822,-0.004071440547704697,-0.00657481187954545
1772642989190639400,7.143639404296875,0.000222373942960985,-0.002427737694233656,-0.005498095881193876
1772642989200684000,7.15368408203125,0.0008586031035520136,-0.0030716899782419205,-0.007339938078075647
1772642989210729200,7.163729248046875,0.0015805860748514533,-0.0029174929950386286,-0.006728742737323046
1772642989220773000,7.173773193359375,0.0017781927017495036,-0.0028969866689294577,-0.00729386555030942
1772642989230818000,7.183818115234375,0.0016189356101676822,-0.00444028852507472,-0.007238471880555153
1772642989240863000,7.193863037109375,0.001811748486943543,-0.0036794233601540327,-0.006140983197838068
1772642989250907100,7.2039072265625,0.0025917883031070232,-0.0034820830915123224,-0.007517304737120867
1772642989260952300,7.213952392578125,0.0016309198690578341,-0.0038280277512967587,-0.007514108903706074
1772642989270997000,7.2239970703125,0.0016133430181071162,-0.005347627215087414,-0.006200105417519808
1772642989281041200,7.234041259765625,0.0007640608819201589,-0.003993143793195486,-0.004217648413032293
1772642989291086000,7.244086181640625,0.0005387574783526361,-0.004603007808327675,-0.0067513794638216496
1772642989301131300,7.25413134765625,0.0009800433181226254,-0.0034732946660369635,-0.006156163290143013
1772642989311175200,7.264175048828125,0.0005747101386077702,-0.002508431440219283,-0.005847768858075142
1772642989321220000,7.27422021484375,0.0007962851668708026,-0.001755289500579238,-0.007480286993086338
1772642989331265300,7.284265380859375,0.0007861651247367263,-0.002287921728566289,-0.00672235107049346
1772642989341309200,7.29430908203125,0.0018485001055523753,-0.003153715282678604,-0.005036570131778717
1772642989351354000,7.30435400390625,0.0009651295840740204,-0.002043709857389331,-0.00680171325802803
1772642989361399300,7.3143994140625,0.001998968655243516,-0.0032834112644195557,-0.008528507314622402
1772642989371443000,7.32444287109375,0.0016245282022282481,-0.003150519449263811,-0.005327387247234583
1772642989381488000,7.334488037109375,0.0018937737913802266,-0.003683151677250862,-0.005785983521491289
1772642989391533000,7.344532958984375,0.0013148026773706079,-0.00373108871281147,-0.007766576483845711
1772642989401577200,7.3545771484375,0.0017728663515299559,-0.004232029430568218,-0.006432333029806614
1772642989411622100,7.3646220703125,0.0006460828590206802,-0.003242931328713894,-0.007223291788250208
1772642989421666300,7.374666259765625,0.002001631772145629,-0.0046240463852882385,-0.00629038643091917
1772642989431710500,7.38471044921875,0.0006599313346669078,-0.00370126124471426,-0.006872020661830902
1772642989441755400,7.39475537109375,0.0018583538476377726,-0.004233627114444971,-0.006185191683471203
1772642989451800300,7.40480029296875,0.0016844493802636862,-0.003034672001376748,-0.004867193289101124
1772642989461844500,7.414844482421875,0.0005006743012927473,-0.0024607607629150152,-0.005792641546577215
1772642989471889400,7.424889404296875,0.0027198863681405783,-0.004310858901590109,-0.006422745529562235
1772642989481934300,7.434934326171875,0.00002210423735959921,-0.0028573055751621723,-0.006127933505922556
1772642989491978500,7.444978515625,0.0003866909828502685,-0.0029707562644034624,-0.005318865180015564
1772642989502023400,7.4550234375,0.0016282566357403994,-0.003129480639472604,-0.006205964367836714
1772642989512068600,7.465068603515625,0.0011438276851549745,-0.0026546388398855925,-0.006662163883447647
1772642989522112300,7.4751123046875,0.00010918960470007733,-0.004040281753987074,-0.0057130130007863045
1772642989532157400,7.485157470703125,0.0025686188600957394,-0.003905525663867593,-0.007395864464342594
1772642989542202400,7.495202392578125,0.0012828446924686432,-0.004464523401111364,-0.006101834587752819
1772642989552246300,7.505246337890625,0.0003914846747647971,-0.0043958136811852455,-0.006259493995457888
1772642989562291500,7.51529150390625,0.0009653958841226995,-0.004429635591804981,-0.004487692844122648
1772642989572336400,7.52533642578125,0.0008356999605894089,-0.002846919232979417,-0.006610764656215906
1772642989582380300,7.53538037109375,0.0019864519126713276,-0.0030684941448271275,-0.007106379140168428
1772642989592425500,7.545425537109375,-0.0004439489566721022,-0.0033004553988575935,-0.005396629683673382
1772642989602470400,7.555470458984375,0.002371544949710369,-0.004480235744267702,-0.006967095658183098
1772642989612514600,7.5655146484375,0.0011414308100938797,-0.002980609890073538,-0.006420881487429142
1772642989622559200,7.575559326171875,0.00038535939529538155,-0.00339153571985662,-0.006573746912181377
1772642989632604400,7.5856044921875,0.0024458470288664103,-0.0025989788118749857,-0.005274390336126089
1772642989642648600,7.595648681640625,0.0007291734800674021,-0.0034149715211242437,-0.004972654394805431
1772642989652693500,7.605693603515625,0.0011741877533495426,-0.004385427106171846,-0.005388373974710703
1772642989662738400,7.615738525390625,0.002082858234643936,-0.0027441212441772223,-0.006712231319397688
1772642989672782300,7.6257822265625,0.0013677994720637798,-0.0041002025827765465,-0.005912483669817448
1772642989682827500,7.63582763671875,0.0022455775178968906,-0.002055427758023143,-0.006932208314538002
1772642989692872200,7.6458720703125,0.0015749934827908874,-0.002877012826502323,-0.005945240613073111
1772642989702916400,7.655916259765625,0.003031476167961955,-0.0054855793714523315,-0.0068150293081998825
1772642989712961500,7.66596142578125,0.0005198490689508617,-0.002942526713013649,-0.005934854503720999
1772642989723006500,7.67600634765625,0.0004596615908667445,-0.0027891285717487335,-0.004817392211407423
1772642989733050400,7.68605029296875,0.0011984225129708648,-0.0034288198221474886,-0.006680273450911045
1772642989743095300,7.69609521484375,0.0010820423485711217,-0.0027244137600064278,-0.004477838985621929
1772642989753140500,7.706140380859375,0.0014303837670013309,-0.0028338697738945484,-0.006419549696147442
1772642989763184400,7.716184326171875,0.0015488944482058287,-0.0022596921771764755,-0.0067226174287498
1772642989773229300,7.726229248046875,0.0014679343439638615,-0.0038519962690770626,-0.004520982038229704
1772642989783274500,7.7362744140625,0.0006878945278003812,-0.003906590864062309,-0.0065596322529017925
1772642989793318400,7.746318359375,0.001333178486675024,-0.0029443909879773855,-0.006943926215171814
1772642989803363300,7.75636328125,0.0009020126308314502,-0.0049462891183793545,-0.00806458480656147
1772642989813408300,7.766408203125,0.002121474128216505,-0.0037063213530927896,-0.006502107717096806
1772642989823452400,7.776452392578125,0.0007113303290680051,-0.0041302964091300964,-0.007290936075150967
1772642989833497300,7.786497314453125,0.0008705873624421656,-0.0037111148703843355,-0.0043532028794288635
1772642989843542300,7.796542236328125,0.0019046928500756621,-0.0038927425630390644,-0.006756439805030823
1772642989853586400,7.80658642578125,0.0022128205746412277,-0.004259992390871048,-0.00640783179551363
1772642989863631400,7.81663134765625,0.001883121207356453,-0.0030977888964116573,-0.005595301277935505
1772642989873676300,7.82667626953125,0.000630902883131057,-0.002840793924406171,-0.006196376867592335
1772642989883720400,7.836720458984375,0.0012514194240793586,-0.005417136009782553,-0.006287723314017057
1772642989893765400,7.846765380859375,-0.0005488775204867125,-0.002222674200311303,-0.00509968725964427
1772642989903810600,7.856810546875,0.0015193333383649588,-0.003014432033523917,-0.005945773329585791
1772642989913854500,7.8668544921875,0.0012964267516508698,-0.003376888344064355,-0.006822485942393541
1772642989923899400,7.8768994140625,0.0022128205746412277,-0.00504109775647521,-0.00600383011624217
1772642989933944600,7.886944580078125,0.0011203918838873506,-0.0030277478508651257,-0.007390005514025688
1772642989943988200,7.89698828125,0.0007475492893718183,-0.004718855023384094,-0.00478383619338274
