time,seconds_elapsed,z,y,x
1772642982139294700,0.092294677734375,0.0005598319694399834,0.0017263416666537523,-0.001190975308418274
1772642982149339600,0.102339599609375,0.0005766099784523249,-0.0005450684111565351,-0.0012911101803183556
1772642982159383600,0.112383544921875,0.0003979118773713708,0.0009015605319291353,0.00025991490110754967
1772642982169428500,0.122428466796875,-0.00029131420888006687,-0.00022255978547036648,0.00011317478492856026
1772642982179473700,0.1324736328125,0.0004700662102550268,0.0003702316898852587,-0.0006084670312702656
1772642982189517800,0.142517822265625,0.0017187364865094423,-0.00018394156359136105,-0.0006200526840984821
1772642982199562500,0.1525625,-0.00004507519770413637,0.00120676145888865,0.000379431527107954
1772642982209607700,0.162607666015625,0.0009155364241451025,0.0006967044901102781,0.000014899764209985733
1772642982219651600,0.172651611328125,-0.0008192466339096427,0.0009345246944576502,-0.00006552739068865776
1772642982229696800,0.18269677734375,0.0004293094389140606,-0.000720007112249732,-0.00044606346637010574
1772642982239741400,0.192741455078125,0.0010247922036796808,0.00030877208337187767,0.002061302773654461
1772642982249785600,0.20278564453125,0.0020041419193148613,0.0002829977311193943,0.001309768296778202
1772642982259830800,0.212830810546875,0.00041689793579280376,0.0006340024992823601,0.0013630311004817486
1772642982269875700,0.222875732421875,0.00008813058957457542,0.001298699527978897,-0.0018082424066960812
1772642982279919600,0.232919677734375,0.0009422064758837223,-0.00023288442753255367,0.0003193565644323826
1772642982289964800,0.24296484375,-0.001171278185211122,0.0006488882936537266,0.0004956577904522419
1772642982300009700,0.253009765625,0.0014561964198946953,0.00010533700697124004,0.00041283341124653816
1772642982310053600,0.2630537109375,0.0007383702322840691,0.0004198560491204262,0.0003443388268351555
1772642982320098600,0.2730986328125,-0.0012214499292895198,0.000994033645838499,-0.000030633993446826935
1772642982330143700,0.283143798828125,0.0006815497763454914,0.00020295684225857258,0.0007358645088970661
1772642982340187600,0.293187744140625,-0.0007733351085335016,-0.0009563174098730087,-0.00044285086914896965
1772642982350232600,0.303232666015625,0.0009148037061095238,0.0002392635215073824,-0.0018833712674677372
1772642982360277800,0.31327783203125,0.000722257187590003,0.0005689628887921572,-0.00040132226422429085
1772642982370321700,0.32332177734375,-0.0008748329128138721,-0.0008977625984698534,-0.0007516876794397831
1772642982380366600,0.33336669921875,-0.00039146922063082457,0.0005802919622510672,-0.002177012152969837
1772642982390411500,0.34341162109375,0.0005369401769712567,-0.00007481081411242485,-0.00039784330874681473
1772642982400455700,0.35345556640625,-0.0008297940948978066,0.0002833842299878597,-0.00011501554399728775
1772642982410488600,0.363488525390625,0.00021209102123975754,0.0005946480669081211,0.0014420757070183754
1772642982420533800,0.37353369140625,-0.00005555665120482445,-0.0004916554316878319,0.0005776137113571167
1772642982430577700,0.38357763671875,0.00048509263433516026,0.0013650697655975819,0.00025694258511066437
1772642982440622800,0.393622802734375,0.0005577970296144485,-0.00014627422206103802,-0.0006123133935034275
1772642982450667500,0.40366748046875,0.0003318098606541753,0.00026885513216257095,0.0002674250863492489
1772642982460711700,0.413711669921875,0.00045005418360233307,0.000016121193766593933,0.0004679611884057522
1772642982470756900,0.4237568359375,0.000201648217625916,0.0005891150794923306,0.00010016793385148048
1772642982480801500,0.433801513671875,0.0019705197773873806,-0.00022634491324424744,-0.0006234128959476948
1772642982490845700,0.443845703125,-0.0005915838992223144,-0.0009112211409956217,0.0022023948840796947
1772642982500890600,0.453890625,-0.00017080444376915693,0.0009439371060580015,-0.0004474506713449955
1772642982510934500,0.4639345703125,-0.00019955832976847887,-0.0002823022659868002,-0.00023429933935403824
1772642982520979700,0.473979736328125,0.0002358685014769435,0.00023488374426960945,0.00044267624616622925
1772642982531024600,0.484024658203125,-0.000026708352379500866,-0.00006930786184966564,-0.0006768708117306232
1772642982541069800,0.49406982421875,-0.0007225922890938818,-0.00022909743711352348,0.0008643008768558502
1772642982551113700,0.50411376953125,0.00016358133871108294,0.0003840767312794924,-0.00008978182449936867
1772642982561158700,0.51415869140625,-0.0013251256896182895,0.0005654378328472376,-0.0004578307271003723
1772642982571202800,0.524202880859375,0.0011906316503882408,0.0004664026200771332,-0.001787582878023386
1772642982581247700,0.534247802734375,-0.0013372409157454967,-0.000423625810071826,0.00006091734394431114
1772642982591292700,0.544292724609375,-0.0003128461539745331,-0.0004016102757304907,-0.0005342280492186546
1772642982601336800,0.5543369140625,0.0008118066471070051,-0.0011835142504423857,0.00041066156700253487
1772642982611381800,0.5643818359375,-0.00003449816722422838,0.0010605242568999529,-0.0013956478796899319
1772642982621426700,0.5744267578125,0.000273363315500319,-0.00030114990659058094,-0.001942661590874195
1772642982631470600,0.584470703125,0.0007368766237050295,-0.0005679100286215544,0.00031509576365351677
1772642982641515800,0.594515869140625,0.0004069110145792365,0.0005583406891673803,-0.0003634779714047909
1772642982651560700,0.604560791015625,-0.00004827091470360756,0.00040328572504222393,0.0013336422853171825
1772642982661604600,0.6146044921875,-0.00038276391569525003,0.00020008650608360767,0.0004332275129854679
1772642982671649800,0.62464990234375,-0.0004591688048094511,0.0007491994183510542,0.0005264109931886196
1772642982681694700,0.63469482421875,-0.001345202443189919,-0.00038424180820584297,-0.000136449933052063
1772642982691740000,0.644739990234375,0.0010250662453472614,0.0002900073304772377,0.00016523851081728935
1772642982701783600,0.654783447265625,0.001262087607756257,-0.0005552798975259066,-0.00038363924250006676
1772642982711828700,0.664828857421875,-0.00013801944442093372,0.0002099401317536831,-0.0004983465187251568
1772642982721873000,0.674872802734375,-0.00039101974107325077,-0.0010071245487779379,-0.0008171265944838524
1772642982731917600,0.68491748046875,-0.0001016971655189991,-0.00030884589068591595,0.00022582616657018661
1772642982741962800,0.694962646484375,-0.0008700191392563283,0.0006738603115081787,0.00025778450071811676
1772642982752007700,0.705007568359375,0.0006310890894383192,0.0008763156365603209,0.0005804691463708878
1772642982762051600,0.715051513671875,-0.00023949833121150732,-0.0023863231763243675,0.0004800679162144661
1772642982772096500,0.725096435546875,-0.00010504829697310925,-0.0005665745120495558,0.00011987099424004555
1772642982782140700,0.735140625,0.0015106915961951017,0.00006006704643368721,-0.00007667019963264465
1772642982792185900,0.745185791015625,-0.00018309662118554115,0.00040525547228753567,-0.0016258270479738712
1772642982802230500,0.75523046875,-0.00024141976609826088,-0.0011889126617461443,0.00035955943167209625
1772642982812275700,0.765275634765625,-0.0002674579154700041,0.0004609706811606884,-0.00014483043923974037
1772642982822319900,0.77531982421875,0.000652131624519825,0.0008010563906282187,0.0011643795296549797
1772642982832364800,0.78536474609375,0.0012362418929114938,-0.0006791853811591864,-0.00020548654720187187
1772642982842408700,0.79540869140625,0.0003683175891637802,0.00021909899078309536,-0.0009945807978510857
1772642982852453600,0.80545361328125,0.0006320870015770197,-0.00012649968266487122,-0.00020370865240693092
1772642982862498800,0.815498779296875,-0.0005168007337488234,0.0004348945803940296,0.0004817890003323555
1772642982872543500,0.82554345703125,0.0008693269919604063,0.00018575461581349373,0.00011244695633649826
1772642982882587600,0.835587646484375,-0.00033575331326574087,-0.0014052179176360369,0.00043841777369379997
1772642982892632800,0.8456328125,0.0010181886609643698,-0.0005951635539531708,-0.0004776320420205593
1772642982902677800,0.855677734375,-0.0006745164282619953,-0.0004974254406988621,-0.00023688236251473427
1772642982912721700,0.8657216796875,-0.0002588527277112007,-0.000507863238453865,0.0000094585120677948
1772642982922766600,0.8757666015625,0.00016698671970516443,0.0009036120027303696,0.0003751101903617382
1772642982932811800,0.885811767578125,-0.0003965033683925867,-0.00035266904160380363,0.0006166058592498302
1772642982942855700,0.895855712890625,0.0008242896292358637,-0.0010701250284910202,-0.0010217707604169846
1772642982952900600,0.905900634765625,0.0006201399955898523,0.000812840647995472,0.0007395031861960888
1772642982962945800,0.91594580078125,-0.0003226189874112606,0.0009039207361638546,0.00011286139488220215
1772642982972989700,0.92598974609375,-0.0009682989912107587,0.0011407071724534035,-0.00007820641621947289
1772642982983034600,0.93603466796875,0.0006924482295289636,0.00007118168286979198,0.0002453676424920559
1772642982993079600,0.94607958984375,-0.0002482323907315731,-0.0008498397655785084,0.001869882456958294
1772642983003123700,0.956123779296875,0.0008543164003640413,0.0012346161529421806,-0.0006159120239317417
1772642983013168600,0.966168701171875,-0.002035052515566349,-0.0004884270019829273,0.0017923363484442234
1772642983023213600,0.976213623046875,-0.0013879043981432915,0.0006721788085997105,0.00031241774559020996
1772642983033257700,0.9862578125,-0.00021917757112532854,0.000048234593123197556,-0.0003445819020271301
1772642983043302700,0.996302734375,0.0026559708639979362,0.0007968491408973932,0.0004682149738073349
1772642983053347600,1.00634765625,0.0008438747609034181,0.0002503700088709593,-0.00005917903035879135
1772642983063391700,1.016391845703125,-0.0001116674393415451,0.0004692820366472006,0.0015373858623206615
1772642983073436700,1.026436767578125,-0.0005975264357402921,-0.00025301147252321243,0.0001737666316330433
1772642983083481900,1.03648193359375,-0.0003937946166843176,0.0015254474710673094,0.0009657908231019974
1772642983093525800,1.04652587890625,-0.0011384435929358006,0.00010619638487696648,-0.00180357089266181
1772642983103570700,1.05657080078125,0.0019252568017691374,0.0003892905078828335,0.0012686518020927906
1772642983113616000,1.066615966796875,-0.00044942356180399656,-0.000299657229334116,-0.0000036372803151607513
1772642983123659500,1.076659423828125,0.0005564524326473475,0.001578404102474451,0.0009721447713673115
1772642983133704700,1.08670458984375,0.00011542718857526779,0.0009756498038768768,-0.0003899182192981243
1772642983143749600,1.09674951171875,0.0007218290120363235,-0.0005484775174409151,-0.002402469515800476
1772642983153793500,1.10679345703125,-0.00008303800132125616,-0.00017849006690084934,0.0006011193618178368
1772642983163838700,1.116838623046875,0.0005918070673942566,-0.00014253775589168072,0.0018144557252526283
1772642983173883600,1.126883544921875,-0.000797581160441041,0.0007800082676112652,0.000019093509763479233
1772642983183927800,1.136927734375,-0.00046708283480256796,-0.0006200151983648539,-0.0007960996590554714
1772642983193972500,1.146972412109375,0.0015549329109489918,-0.0002806740812957287,0.0006903870962560177
1772642983204017700,1.157017578125,0.00236453372053802,-0.0006402009166777134,-0.0002861940301954746
1772642983214061800,1.167061767578125,0.000488336430862546,0.0010033112484961748,0.001005695667117834
1772642983224106800,1.177106689453125,0.00037941313348710537,-0.00026302202604711056,0.0014110286720097065
1772642983234151700,1.187151611328125,-0.0005236978176981211,0.00024246517568826675,-0.0010886560194194317
1772642983244195600,1.197195556640625,0.00005314289592206478,0.0015700510703027248,0.0016493401490151882
1772642983254240800,1.20724072265625,0.000733356224372983,0.0012180369812995195,-0.0011385194957256317
1772642983264285700,1.21728564453125,0.0006768971215933561,0.00035197706893086433,-0.0004437007009983063
1772642983274329600,1.22732958984375,0.0005640300223603845,-0.0003709907177835703,-0.0012466385960578918
1772642983284374800,1.237374755859375,0.0008348735282197595,-0.0005163995083421469,-0.0009704688563942909
1772642983294419700,1.247419677734375,0.0012910544173792005,-0.0001368329394608736,0.00017719808965921402
1772642983304463600,1.257463623046875,-0.00010817043948918581,0.00021044304594397545,-0.00039564771577715874
1772642983314508800,1.2675087890625,-0.000887872651219368,-0.0006238899659365416,-0.0018172417767345905
1772642983324553700,1.2775537109375,0.00021094758994877338,-0.0002526452299207449,-0.001632950734347105
1772642983334597600,1.28759765625,-0.0003770278999581933,-0.0006835784297436476,0.00042052101343870163
1772642983344642600,1.297642578125,-0.000384751008823514,-0.0008747933898121119,-0.000513449776917696
1772642983354687700,1.307687744140625,0.000033741467632353306,0.0009042508900165558,-0.0019995844922959805
1772642983364732000,1.31773193359375,-0.00044509489089250565,0.00026083108969032764,-0.00044376589357852936
1772642983374776600,1.327776611328125,-0.0005823675310239196,-0.0006504063494503498,-0.0005503431893885136
1772642983384821800,1.33782177734375,-0.0009866354521363974,-0.000012845499441027641,-0.0005151894874870777
1772642983394865700,1.34786572265625,0.00009104225318878889,-0.001330345869064331,-0.0007757833227515221
1772642983404910800,1.357910888671875,-0.0015864829765632749,0.0007352016400545835,-0.0006969533860683441
1772642983414955300,1.367955322265625,0.0013622239930555224,0.0008577045518904924,-0.0007273796945810318
1772642983424999400,1.37799951171875,-0.001462857355363667,0.0007956528570502996,-0.0007899641059339046
1772642983435044400,1.38804443359375,0.00009242305532097816,-0.00028923084028065205,0.0017132014036178589
1772642983445089300,1.39808935546875,-0.001232233247719705,-0.0019438525196164846,-0.0014884509146213531
1772642983455133400,1.408133544921875,-0.0005983799928799272,0.0005434409249573946,0.00014046858996152878
1772642983465178400,1.418178466796875,0.000630668830126524,-0.00037268619053065777,0.0004491289146244526
1772642983475223300,1.428223388671875,-0.002119110431522131,-0.0007665615994483232,0.00010941829532384872
1772642983485267500,1.438267333984375,-0.0005233442643657327,0.00030988804064691067,-0.0000751386396586895
1772642983495312400,1.4483125,-0.0008022504625841975,0.001546237152069807,-0.0007176343351602554
1772642983505357600,1.458357666015625,0.0004214721266180277,0.00007484061643481255,-0.000014293473213911057
1772642983515401500,1.4684013671875,0.0013412454864010215,0.0004345525521785021,-0.0013275067321956158
1772642983525446400,1.4784462890625,-0.0008278991444967687,0.00042310100980103016,-0.0004167058505117893
1772642983535491600,1.48849169921875,-0.0004793064435943961,0.0012648622505366802,-0.00040902523323893547
1772642983545535200,1.49853515625,-0.0005107317119836807,0.0007037343457341194,0.0017137806862592697
1772642983555580400,1.508580322265625,0.001182153238914907,0.00023089838214218616,0.0012077679857611656
1772642983565625300,1.518625244140625,0.0019067992689087987,0.0011371721047908068,0.0006186766549944878
1772642983575669200,1.528669189453125,0.00023989204782992601,0.0005855921190232038,-0.00047368789091706276
1772642983585714400,1.53871435546875,-0.00046211713925004005,0.00002659461461007595,-0.0007940665818750858
1772642983595759400,1.54875927734375,0.0003266795538365841,-0.0012461526785045862,-0.0003994596190750599
1772642983605803500,1.558803466796875,0.00007820653263479471,0.00021352595649659634,0.00013636844232678413
1772642983615848200,1.56884814453125,0.0007959683425724506,-0.0008120734710246325,-0.0010022670030593872
1772642983625893400,1.578893310546875,0.00007718114648014307,-0.0010152726899832487,-0.0010339589789509773
1772642983635937500,1.5889375,-0.0004032859578728676,0.0005923670250922441,0.000050640664994716644
1772642983645982500,1.598982421875,-0.0009284613188356161,0.0008906412404030561,-0.0007216762751340866
1772642983656027400,1.60902734375,0.001488064299337566,0.001651583006605506,-0.0003045927733182907
1772642983666071300,1.6190712890625,0.0005562241422012448,0.0010345284827053547,-0.0003067231737077236
1772642983676116500,1.629116455078125,-0.0005374447209760547,0.000687949825078249,0.0029702894389629364
1772642983686161200,1.6391611328125,0.0008314201841130853,0.00012549012899398804,0.00062937056645751
1772642983696205300,1.649205322265625,-0.00017251644749194384,-0.00004369253292679787,-0.0013041235506534576
1772642983706250500,1.65925048828125,-0.0010644091526046395,-0.00011107046157121658,0.000014940276741981506
1772642983716295400,1.66929541015625,-0.0008916517253965139,-0.0002706896048039198,-0.0005562817677855492
1772642983726339300,1.67933935546875,0.0015382164856418967,0.001343718497082591,-0.000864942092448473
1772642983736384500,1.689384521484375,-0.0005208307411521673,0.0005119713023304939,0.00010958220809698105
1772642983746429400,1.699429443359375,0.0007164740236476064,-0.0005751312710344791,-0.0002616625279188156
1772642983756473300,1.709473388671875,-0.0014602052979171276,-0.00040445663034915924,-0.00014339294284582138
1772642983766518300,1.719518310546875,0.0004969517467543483,-0.0003195018507540226,-0.00005284557119011879
1772642983776563500,1.7295634765625,-0.001076271990314126,-0.000180806964635849,-0.0008168220520019531
1772642983786607600,1.739607666015625,0.0011943390127271414,-0.00009958050213754177,0.0008870684541761875
1772642983796652300,1.74965234375,0.0006329882889986038,-0.00007907231338322163,0.00017348630353808403
1772642983806697500,1.759697509765625,-0.0010376126738265157,0.0007632854394614697,-0.00048591243103146553
1772642983816741400,1.769741455078125,0.001522171776741743,-0.00005587795749306679,0.0005833893083035946
1772642983826786300,1.779786376953125,-0.0005082221468910575,-0.0015195515006780624,-0.00024698441848158836
1772642983836831200,1.789831298828125,0.0013126834528520703,0.0000793267972767353,0.0007970966398715973
1772642983846875400,1.79987548828125,-0.00032196473330259323,-0.0011981914285570383,-0.000176288653165102
1772642983856920600,1.809920654296875,0.0014416752383112907,0.0002265197690576315,-0.0004924964159727097
1772642983866965200,1.81996533203125,-0.0006454441463574767,-0.000010501593351364136,0.0002585151232779026
1772642983877009400,1.830009521484375,-0.0005840429803356528,0.0008888181764632463,0.0006315796636044979
1772642983887054300,1.840054443359375,-0.00025061529595404863,0.00003847084008157253,0.0009799213148653507
1772642983897099500,1.850099609375,-0.0004195666406303644,-0.0013299956917762756,-0.00021748989820480347
1772642983907143400,1.860143310546875,0.0010182741098105907,-0.0009417068213224411,-0.0012217680923640728
1772642983917188400,1.870188232421875,-0.00022202660329639912,-0.00014096475206315517,-0.00019505620002746582
1772642983927233500,1.880233642578125,-0.0011783677618950605,0.00009046378545463085,-0.0005194288678467274
1772642983937277400,1.89027734375,0.0006933684926480055,0.0005084497388452291,0.0011791782453656197
1772642983947322400,1.900322265625,0.0012622198555618525,-0.000036433106288313866,-0.00032257847487926483
1772642983957367300,1.9103671875,-0.00038683589082211256,0.0003060211893171072,0.0016059903427958488
1772642983967411200,1.9204111328125,-0.0007655374356545508,0.0005880498792976141,-0.0002749999985098839
1772642983977456400,1.930456298828125,-0.00022047304082661867,0.001280592055991292,0.00024802936241030693
1772642983987501300,1.940501220703125,-0.0005174154648557305,0.0016377218998968601,-0.00021642586216330528
1772642983997545500,1.95054541015625,0.000564826768822968,-0.0014250115491449833,-0.0002549514174461365
1772642984007590400,1.96059033203125,0.00010356737766414881,0.00033320742659270763,-0.0012786705046892166
1772642984017635300,1.97063525390625,-0.00013444293290376663,0.0005681982729583979,-0.0012743552215397358
1772642984027679500,1.980679443359375,0.00048048095777630806,-0.0014414230827242136,0.0017999978736042976
1772642984037724400,1.990724365234375,-0.0003174254670739174,-0.0004998263902962208,0.0008559329435229301
1772642984047769300,2.000769287109375,-0.0008636397542431951,0.00009352597407996655,-0.00001598568633198738
1772642984057813500,2.0108134765625,-0.00037769845221191645,-0.00016819755546748638,0.0008232616819441319
1772642984067858400,2.0208583984375,0.0007560091326013207,0.00035564624704420567,0.0007556173950433731
1772642984077903600,2.030903564453125,0.00028260983526706696,-0.001306986203417182,0.0016205464489758015
1772642984087947300,2.040947265625,-0.0003267214633524418,0.0005769336130470037,-0.0007749670185148716
1772642984097992400,2.050992431640625,0.00006238976493477821,-0.0018173684366047382,0.0002605603076517582
1772642984108037400,2.061037353515625,-0.0010140599915757775,0.0016079891938716173,0.0009340737015008926
1772642984118081300,2.071081298828125,0.0004634546348825097,-0.00043486338108778,0.0003553740680217743
1772642984128126500,2.08112646484375,-0.00011844595428556204,0.0003022998571395874,-0.0008899201638996601
1772642984138171400,2.09117138671875,0.0005242006154730916,0.0008252698462456465,0.0006278455257415771
1772642984148215300,2.10121533203125,-0.00036263209767639637,0.0006284622941166162,-0.0007383562624454498
1772642984158260200,2.11126025390625,-0.0011784560047090054,-0.0007918907795101404,-0.0005778418853878975
1772642984168305400,2.121305419921875,0.0010663224384188652,0.0003263705875724554,-0.00012164236977696419
1772642984178349600,2.131349609375,-0.0005441131070256233,0.00003406382165849209,-0.00013750186190009117
1772642984188394200,2.141394287109375,0.0011967952596023679,-0.00014410167932510376,-0.00012844707816839218
1772642984198439400,2.151439453125,0.0009374882793053985,0.000611606752499938,-0.00035954080522060394
1772642984208483600,2.161483642578125,0.0004248296609148383,-0.0007362188771367073,0.00004233000800013542
1772642984218528500,2.171528564453125,0.0006049518706277013,0.0010647100862115622,-0.001878218725323677
1772642984228573400,2.181573486328125,0.0010699398117139935,0.0010282248258590698,0.0007354072295129299
1772642984238617300,2.191617431640625,0.00034788588527590036,0.0000848141498863697,0.0015736017376184464
1772642984248662500,2.20166259765625,0.0005263176281005144,0.00043874839320778847,0.0008806474506855011
1772642984258707200,2.211707275390625,-0.000024472945369780064,-0.00017115077935159206,0.00006717629730701447
1772642984268751400,2.22175146484375,0.001153176766820252,0.0005630827508866787,-0.00032271072268486023
1772642984278796500,2.231796630859375,0.00027607986703515053,0.0004963667597621679,-0.000043122563511133194
1772642984288841500,2.241841552734375,-0.0009713447652757168,-0.0005515869706869125,0.0015973844565451145
1772642984298885400,2.251885498046875,0.0007503508822992444,-0.00047431117855012417,0.0005588140338659286
1772642984308930300,2.261930419921875,-0.00023288826923817396,0.0003704435657709837,-0.0001940615475177765
1772642984318975500,2.2719755859375,0.0007380698807537556,-0.00023144087754189968,0.0022524590604007244
1772642984329019400,2.282019287109375,0.0013556571211665869,-0.00042451987974345684,0.0010143555700778961
1772642984339064300,2.292064208984375,-0.00042045966256409883,-0.00010308925993740559,0.00021272944286465645
1772642984349109500,2.302109619140625,-0.001092907739803195,-0.0009414521045982838,0.000591963529586792
1772642984359153400,2.3121533203125,-0.0011155775282531977,-0.0004416494630277157,0.0013837269507348537
1772642984369198300,2.3221982421875,0.0012908546486869454,-0.001670964527875185,0.000040162354707717896
1772642984379243300,2.3322431640625,-0.0015657972544431686,-0.0007429702673107386,-0.0003999113105237484
1772642984389287400,2.342287353515625,-0.0015647319378331304,-0.0008620137814432383,0.0025250385515391827
1772642984399332400,2.352332275390625,-0.000016538891941308975,0.0008742536883801222,0.0003726370632648468
1772642984409377300,2.362377197265625,0.000563231180422008,0.0014995639212429523,-0.0006521469913423061
1772642984419421200,2.372421142578125,0.00019063730724155903,-0.0005703582428395748,-0.0015618177130818367
1772642984429466400,2.38246630859375,0.00017385941464453936,-0.0000483787152916193,0.0010792394168674946
1772642984439511300,2.39251123046875,-0.0006095858989283442,0.0002801590599119663,-0.001215376891195774
1772642984449555200,2.40255517578125,-0.0007203733548521996,-0.0016471704002469778,0.0009263372048735619
1772642984459600100,2.41260009765625,-0.0002476467052474618,-0.00024079415015876293,-0.00009147496894001961
1772642984469645300,2.422645263671875,-0.0006061082240194082,-0.000035464297980070114,0.0008635343983769417
1772642984479689500,2.432689453125,0.000342831714078784,0.0004219317343086004,0.0013487134128808975
1772642984489734100,2.442734130859375,-0.0002920660190284252,0.00011140713468194008,0.0002163373865187168
1772642984499779300,2.452779296875,-0.0008944687433540821,-0.001131224911659956,-0.00043800147250294685
1772642984509823200,2.4628232421875,0.002090668538585305,0.00016813143156468868,0.0018062442541122437
1772642984519868400,2.472868408203125,0.0001335394335910678,0.0002852038014680147,-0.0006170556880533695
1772642984529913000,2.4829130859375,-0.0018031112849712372,0.00033713551238179207,0.0011363695375621319
1772642984539958300,2.492958251953125,0.0006784934084862471,0.000413066940382123,-0.0006799418479204178
1772642984550002400,2.50300244140625,0.00037356140092015266,-0.00014353380538523197,0.00038638757541775703
1772642984560047400,2.51304736328125,-0.00031051028054207563,-0.0005824042018502951,0.00022858288139104843
1772642984570091300,2.52309130859375,-0.00031237455550581217,-0.0011600435245782137,-0.0017546731978654861
1772642984580136200,2.53313623046875,0.001409266609698534,-0.0009585032239556313,-0.0004939055070281029
1772642984590181400,2.543181396484375,0.0002691674744710326,0.00041116075590252876,0.0009191678836941719
1772642984600225300,2.553225341796875,0.001556421397253871,-0.0006584655493497849,0.00020929379388689995
1772642984610270200,2.563270263671875,-0.0009264436666853726,-0.000008388189598917961,0.00018585799261927605
1772642984620315400,2.5733154296875,-0.0008589315693825483,0.0002703296486288309,0.00028794631361961365
1772642984630360300,2.5833603515625,-0.0005100574344396591,-0.00015764031559228897,0.001550551038235426
1772642984640404200,2.593404296875,-0.0017309017712250352,-0.0022668633610010147,-0.0008205990307033062
1772642984650449200,2.60344921875,-0.0008326175739057362,-0.0017765755765140057,0.001332567073404789
1772642984660494300,2.613494384765625,0.0004695596871897578,-0.0014963401481509209,-0.0008151144720613956
1772642984670538200,2.623538330078125,0.00009538570884615183,-0.0003977864980697632,-0.0000835442915558815
1772642984680583200,2.633583251953125,-0.000006134388968348503,-0.0011376473121345043,0.0007402724586427212
1772642984690628400,2.64362841796875,-0.00021838827524334192,-0.0013493685983121395,-0.0007718703709542751
1772642984700672500,2.653672607421875,-0.0005685457726940513,-0.0007904458325356245,-0.0014354437589645386
1772642984710717200,2.66371728515625,-0.0016489902045577765,0.00001223105937242508,-0.000013848301023244858
1772642984720762400,2.673762451171875,-0.0013614245690405369,0.0003409499768167734,0.0021406367886811495
1772642984730806300,2.68380615234375,-0.0008964366279542446,0.0005816996563225985,-0.0009464994072914124
1772642984740851200,2.693851318359375,-0.0013796876883134246,-0.00022368994541466236,0.00018915627151727676
1772642984750896000,2.703896240234375,-0.0006007130723446608,0.0005627416539937258,0.0006426926702260971
1772642984760940300,2.713940185546875,-0.0011415706248953938,-0.0001499548088759184,0.0005148663185536861
1772642984770985500,2.7239853515625,0.0011777762556448579,0.0026671369560062885,-0.0005434737540781498
1772642984781030100,2.734030029296875,0.0017384967068210244,0.0005377971101552248,-0.0010742335580289364
1772642984791074300,2.74407421875,0.0005384761607274413,0.0004690876230597496,0.0000986228697001934
1772642984801119200,2.754119140625,-0.000004798290319740772,0.00018309778533875942,-0.0019133077003061771
1772642984811164400,2.764164306640625,-0.0003824344603344798,-0.0000022582244127988815,-0.0009460477158427238
1772642984821208300,2.774208251953125,0.00041519745718687773,0.000012938398867845535,-0.0014411276206374168
1772642984831253200,2.784253173828125,0.00014701718464493752,0.0010033680591732264,-0.0017436626367270947
1772642984841298400,2.79429833984375,0.00009614590089768171,0.0008036610670387745,-0.0013315859250724316
1772642984851342000,2.804342041015625,0.0005161265144124627,-0.0010680085979402065,-0.00039654970169067383
1772642984861387300,2.81438720703125,-0.00004769081715494394,-0.00017423159442842007,0.0005934033542871475
1772642984871432200,2.82443212890625,0.00029292749240994453,-0.00018088961951434612,-0.0005629411898553371
1772642984881476000,2.83447607421875,-0.0011111635249108076,-0.00047034514136612415,-0.00009671831503510475
1772642984891521300,2.844521240234375,-0.000847244227770716,0.0005267423111945391,-0.0005241557955741882
1772642984901566200,2.854566162109375,0.000680989702232182,-0.0006029999349266291,-0.0019666277803480625
1772642984911610400,2.8646103515625,0.00008577306289225817,0.0005192561075091362,-0.0004230593331158161
1772642984921655300,2.8746552734375,-0.00040533312130719423,-0.0005129356868565083,-0.0009501976892352104
1772642984931700200,2.8847001953125,0.0000404800521209836,0.0012141242623329163,0.00004928652197122574
1772642984941744400,2.894744384765625,-0.00026796467136591673,-0.00004019914194941521,0.0015542153269052505
1772642984951789300,2.904789306640625,-0.0003262879326939583,0.00022798124700784683,0.00021198205649852753
1772642984961834200,2.914834228515625,-0.0001044274540618062,0.00008135288953781128,-0.0010181977413594723
1772642984971878400,2.92487841796875,-0.00015023373998701572,0.0005812281742691994,0.00008541624993085861
1772642984981923300,2.93492333984375,-0.0015813260106369853,0.00023744767531752586,-0.0014055627398192883
1772642984991968300,2.94496826171875,-0.0007901008939370513,-0.0010344781912863255,-0.0005235234275460243
1772642985002012200,2.95501220703125,-0.0004758487921208143,-0.00017065415158867836,-0.00015590712428092957
1772642985012057300,2.965057373046875,-0.0019472453277558088,0.00019553047604858875,-0.0019905585795640945
1772642985022102300,2.975102294921875,0.0004737188573926687,0.0003631957806646824,-0.00045122113078832626
1772642985032146200,2.985146240234375,-0.0002115125535055995,0.0002817031927406788,0.0015187188982963562
1772642985042191400,2.99519140625,0.0010564178228378296,-0.00022148387506604195,-0.0015775938518345356
1772642985052236300,3.005236328125,0.00030300940852612257,0.0006501688621938229,-0.0024108965881168842
1772642985062280200,3.0152802734375,-0.0008201239979825914,0.0009407675825059414,-0.0003847614862024784
1772642985072325000,3.0253251953125,6.622867658734322e-7,0.0008539485279470682,0.00016251811757683754
1772642985082370300,3.035370361328125,0.0006097685545682907,-0.0006249244324862957,-0.0003397231921553612
1772642985092414500,3.04541455078125,0.001161042833700776,0.0004555201157927513,-0.00032720668241381645
1772642985102459100,3.055459228515625,-0.0013348538195714355,0.00010418216697871685,-0.00023527583107352257
1772642985112504300,3.06550439453125,-0.0007574804476462305,-0.0008425714913755655,-0.0007029268890619278
1772642985122548200,3.07554833984375,-0.0006947755464352667,0.0008503568824380636,-0.0007150433957576752
1772642985132593200,3.08559326171875,0.0003180246567353606,-0.0000042514875531196594,-0.0005512591451406479
1772642985142638000,3.09563818359375,0.0018490293296054006,-0.0005029458552598953,-0.0009133494459092617
1772642985152682200,3.10568212890625,-0.0004751114174723625,0.0003862837329506874,0.0009133126586675644
1772642985162727400,3.1157275390625,-0.0016398032894358039,-0.0025620823726058006,-0.0012084920890629292
1772642985172772000,3.125772216796875,-0.0007143547991290689,0.00027045561000704765,0.0003071124665439129
1772642985182816300,3.135816162109375,0.00021246098913252354,-0.0002025938592851162,-0.0004257946275174618
1772642985192861400,3.145861328125,-0.00042083871085196733,-0.0007283017039299011,0.0008661048486828804
1772642985202906400,3.15590625,-0.00011452415492385626,-0.0006005759350955486,-0.0010405522771179676
1772642985212950300,3.1659501953125,-0.001657559652812779,0.001219694735482335,0.0007411027327179909
1772642985222995200,3.1759951171875,0.0010263873264193535,-0.0009516382124274969,-0.0013632732443511486
1772642985233040400,3.186040283203125,0.0016775301191955805,0.0004723537713289261,0.0002657822333276272
1772642985243084300,3.196084228515625,0.001473662443459034,-0.0011894532945007086,0.0008403793908655643
1772642985253129200,3.206129150390625,0.0007772459648549557,-0.00015801121480762959,-0.0013077263720333576
1772642985263174400,3.21617431640625,0.00039485690649598837,-0.002055494813248515,0.00003356672823429108
1772642985273218000,3.226218017578125,-0.000022194115445017815,-0.001321527874097228,-0.0003304872661828995
1772642985283263200,3.23626318359375,-0.0007523911190219223,-0.0019426536746323109,-0.0006077680736780167
1772642985293308200,3.24630810546875,-0.0007374774431809783,0.00007788650691509247,0.0006612283177673817
1772642985303352300,3.256352294921875,0.0007860246114432812,0.0005574843380600214,-0.00023388629779219627
1772642985313397200,3.266397216796875,-0.001036110334098339,-0.00031043984927237034,-0.0005795643664896488
1772642985323442200,3.276442138671875,0.0011463921982795,0.00023112655617296696,-0.0005523329600691795
1772642985333486300,3.286486328125,-0.00036015803925693035,-0.0017004641704261303,-0.0005422132089734077
1772642985343531300,3.29653125,-0.0003464814508333802,-0.0005145554896444082,-0.0018421248532831669
1772642985353576200,3.306576171875,0.00015898642595857382,0.00013658753596246243,-0.0014146878384053707
1772642985363620400,3.316620361328125,0.0005861395038664341,-0.0001232498325407505,-0.0013362513855099678
1772642985373665300,3.326665283203125,-0.001610169536434114,0.00016756728291511536,-0.00041719479486346245
1772642985383710500,3.33671044921875,-0.0009149860707111657,0.0005028145387768745,-0.0009626490063965321
1772642985393754400,3.34675439453125,-0.000654528965242207,0.001970748882740736,-0.0009541269391775131
1772642985403799300,3.35679931640625,-0.00023213843815028667,-0.001343305455520749,0.0014744680374860764
1772642985413844700,3.3668447265625,-0.001009515137411654,-0.0012687372509390116,-0.00023395009338855743
1772642985423889000,3.376888916015625,-0.000057256780564785004,0.00008097151294350624,-0.00012407079339027405
1772642985433934000,3.38693408203125,0.0012681984808295965,0.00022025476209819317,-0.0015304861590266228
1772642985443978800,3.396978759765625,-0.0005675855791196227,-0.0005855979397892952,0.0004394412972033024
1772642985454023000,3.40702294921875,-0.00020033563487231731,-0.0012761554680764675,0.0014493116177618504
1772642985464067800,3.41706787109375,-0.0013029678957536817,-0.0004071183502674103,-0.000990819651633501
1772642985474113000,3.427113037109375,0.001141281332820654,-0.001027368474751711,0.0007926994003355503
1772642985484157000,3.437156982421875,0.0004955939948558807,-0.00011392799206078053,-0.0007936027832329273
1772642985494201900,3.447201904296875,0.000042856670916080475,0.0004360147286206484,-0.0002452582120895386
1772642985504247000,3.4572470703125,-0.00045563734602183104,-0.00003689248114824295,0.0002833451144397259
1772642985514290700,3.467290771484375,-0.00023725815117359161,0.00012875627726316452,0.0014817672781646252
1772642985524335900,3.4773359375,0.0006715550553053617,-0.0005585576873272657,-0.00011930614709854126
1772642985534380800,3.487380859375,0.0012619777116924524,0.00029365369118750095,0.00044794706627726555
1772642985544425000,3.497425048828125,-0.00039593642577528954,0.0012067020870745182,-0.0004921904765069485
1772642985554470000,3.507469970703125,0.0001478811027482152,0.0011534388177096844,0.0009714830666780472
1772642985564514800,3.517514892578125,0.0002811136655509472,0.00045340019278228283,-0.0007938826456665993
1772642985574559000,3.52755908203125,-0.00017322157509624958,0.00047390651889145374,0.0011510238982737064
1772642985584604000,3.53760400390625,0.00041162269189953804,0.00010647112503647804,-0.0005820384249091148
1772642985594648800,3.54764892578125,0.00007739593274891376,0.00024788500741124153,-0.00011705048382282257
1772642985604693000,3.55769287109375,-0.0004704729071818292,-0.00018826080486178398,0.0001328699290752411
1772642985614738000,3.567738037109375,-0.00019057467579841614,0.0013446547091007233,-0.000920410268008709
1772642985624782800,3.577782958984375,0.0004448374966159463,-0.0002431771717965603,0.00044321222230792046
1772642985634827000,3.587826904296875,-0.001121101202443242,-0.00020669191144406796,-0.0016359174624085426
1772642985644872000,3.597871826171875,0.00021066120825707912,0.0004056827165186405,0.0009640525095164776
1772642985654917000,3.607917236328125,-0.0002162435557693243,0.000002746470272541046,0.00029453402385115623
1772642985664960800,3.617960693359375,0.00003334903158247471,0.0006795527879148722,-0.0005017989315092564
1772642985675006000,3.628005859375,0.0006765024736523628,0.0002638334408402443,-0.00044054631143808365
1772642985685051000,3.63805078125,-0.00010258564725518227,-0.0004192865453660488,-0.00011701229959726334
1772642985695094800,3.6480947265625,0.00005773664452135563,-0.0013189022429287434,0.002017511520534754
1772642985705140000,3.658139892578125,-0.00003384298179298639,-0.00025015324354171753,0.0007957685738801956
1772642985715185000,3.668184814453125,-0.0012293359031900764,-0.00006639515049755573,-0.0005597802810370922
1772642985725228800,3.678228759765625,0.001550313550978899,-0.0004400771576911211,-0.0004924261011183262
1772642985735273700,3.688273681640625,0.0005481659900397062,0.0007245233282446861,0.0009291693568229675
1772642985745319000,3.69831884765625,0.0017440399387851357,-0.0005965470336377621,0.0009114127606153488
1772642985755363000,3.708363037109375,0.0003717129584401846,-0.0004737754352390766,-0.0004356144927442074
1772642985765407700,3.71840771484375,0.0013028306420892477,0.0005421924870461226,0.0016771461814641953
1772642985775453000,3.728452880859375,-0.0005203694454394281,0.0009278182405978441,0.0009524999186396599
1772642985785496800,3.738496826171875,-0.001211619470268488,-0.0003673597238957882,0.0013195816427469254
1772642985795542000,3.7485419921875,-0.0008808549027889967,-0.0004440587945282459,-0.002065562177449465
1772642985805586700,3.758586669921875,-0.0009329051827080548,-0.0014831586740911007,-0.000549989752471447
1772642985815630800,3.768630859375,-0.0005099952104501426,-0.0006937975995242596,-0.00013959640637040138
1772642985825676000,3.778676025390625,0.0008743525249883533,-0.000791668426245451,-0.00014959042891860008
1772642985835721000,3.788720947265625,0.00030390347819775343,-0.0005077756941318512,-0.0005330857820808887
1772642985845764900,3.798764892578125,0.00026779796462506056,-0.0007038419134914875,0.0008426695130765438
1772642985855810000,3.80881005859375,0.00020548002794384956,-0.000270279124379158,-0.0000758548267185688
1772642985865855000,3.81885498046875,-0.00024388078600168228,0.0001594284549355507,-0.0013728607445955276
1772642985875900000,3.82889990234375,0.000997152179479599,0.00087688397616148,-0.0011148001067340374
1772642985885943800,3.83894384765625,0.0018097844440490007,-0.0003645913675427437,0.0006032646633684635
1772642985895989000,3.848989013671875,-0.000929809408262372,0.00030972110107541084,-0.00037917541339993477
1772642985906034000,3.859033935546875,0.0003155717859044671,-0.00011046393774449825,0.0001859338954091072
1772642985916077800,3.869077880859375,-0.00022345210891216993,-0.000156802823767066,0.00024771923199296
1772642985926123000,3.879123046875,0.00003445160109549761,0.0012608631514012814,-0.00015489570796489716
1772642985936168000,3.88916796875,-0.0012718288926407695,0.0009181143250316381,-0.000734665896743536
1772642985946211800,3.8992119140625,0.0009592205751687288,0.001008178573101759,0.00041635241359472275
1772642985956256800,3.9092568359375,-0.0006722318939864635,0.00012747128494083881,0.0009891982190310955
1772642985966302000,3.919302001953125,0.0010963971726596355,0.001209187088534236,-0.0007823612540960312
1772642985976346000,3.92934619140625,0.0005573733942583203,0.0006904033944010735,-0.0002622460015118122
1772642985986390800,3.939390869140625,-0.00017044006381183863,-0.00004974799230694771,0.00009149033576250076
1772642985996436000,3.94943603515625,-0.0004250383353792131,-0.00024016411043703556,-0.0005380809307098389
1772642986006480000,3.95947998046875,0.001804277068004012,0.0012246728874742985,0.000028178561478853226
1772642986016524800,3.96952490234375,0.0016655263025313616,-0.0005103766452521086,0.00011766096577048302
1772642986026569700,3.97956982421875,-0.0005959323607385159,0.001169983996078372,0.0007256176322698593
1772642986036614000,3.98961376953125,0.0008104830048978329,-0.00016425969079136848,-0.0007729427888989449
1772642986046659000,3.9996591796875,-0.0005291554844006896,0.0006092255935072899,0.00041717803105711937
1772642986056703700,4.009703857421875,0.00017818005289882421,-0.00007547298446297646,-0.0006419611163437366
1772642986066748000,4.019747802734375,-0.0005166243063285947,-0.0004346256610006094,0.00047793053090572357
1772642986076792800,4.029792724609375,-0.0007664288277737796,-0.0012170623522251844,-0.0007007843814790249
1772642986086838000,4.039838134765625,0.000020628911443054676,-0.0002441967371851206,0.00027645332738757133
1772642986096882000,4.0498818359375,0.0016134654870256782,-0.000554987695068121,0.00045168958604335785
1772642986106926800,4.0599267578125,0.00006843730807304382,-0.001864447956904769,-0.0018752999603748322
1772642986116972000,4.069971923828125,-0.00015207251999527216,-0.0008559089619666338,0.00008798297494649887
1772642986127016000,4.080015869140625,-0.0006328565650619566,0.0002865099813789129,0.0007315496914088726
1772642986137060900,4.090060791015625,0.0002180234296247363,0.0003719974774867296,0.0004354063421487808
1772642986147106000,4.10010595703125,0.0005974904634058475,-0.00021566590294241905,-0.000957658514380455
1772642986157149700,4.110149658203125,0.0006701948586851358,-0.0012471082154661417,-0.001496416050940752
1772642986167195000,4.12019482421875,-0.00044883741065859795,-0.00035848841071128845,-0.00006016809493303299
1772642986177239800,4.13023974609375,0.001109378063119948,-0.0014258832670748234,0.0009323921985924244
1772642986187284000,4.140283935546875,0.000540611450560391,0.0011402152013033628,0.00013504782691597939
1772642986197329000,4.150328857421875,-0.00026233168318867683,0.00022302241995930672,0.001022945623844862
1772642986207373800,4.160373779296875,0.0021353240590542555,-0.00017050839960575104,-0.00018873531371355057
1772642986217418000,4.17041796875,0.0008341034408658743,-0.0001747694332152605,0.0005265898071229458
1772642986227463000,4.180462890625,0.0005039741517975926,0.0014789984561502934,0.000890280120074749
1772642986237507800,4.1905078125,0.0015175731386989355,0.00027391803450882435,-0.0016570333391427994
1772642986247552000,4.200552001953125,-0.00041525176493451,-0.0011144410818815231,-0.000999925658106804
1772642986257597000,4.210596923828125,0.0003850280772894621,-0.0005221539177000523,0.0015159626491367817
1772642986267641900,4.220641845703125,0.0013267816975712776,0.0011428927537053823,0.0018881089054048061
1772642986277685800,4.230685791015625,0.00029960041865706444,-0.001217733370140195,-0.00011884933337569237
1772642986287731000,4.24073095703125,0.0008448682492598891,0.00004364503547549248,0.0002754754386842251
1772642986297775900,4.25077587890625,0.0008264925563707948,-0.00006980565376579762,-0.0002233348786830902
1772642986307819800,4.26081982421875,0.0008614726830273867,0.0016297290567308664,-0.0005996935069561005
1772642986317865000,4.270864990234375,-0.0002906107110902667,0.0003676570486277342,-0.00023484043776988983
1772642986327910000,4.280909912109375,0.00019560125656425953,-0.00016929558478295803,-0.0009798440150916576
1772642986337953800,4.290953857421875,-0.0002765771932899952,0.0006549528334289789,0.00033069727942347527
1772642986347999000,4.3009990234375,0.000876488396897912,0.0003265764098614454,0.00016345875337719917
1772642986358044000,4.3110439453125,0.0009686336852610111,0.00008982140570878983,0.0006545460782945156
1772642986368088000,4.321088134765625,0.0016285204328596592,-0.000048618996515870094,0.0004711383953690529
1772642986378132700,4.3311328125,0.00031771266367286444,-0.00003556953743100166,0.0006868545897305012
1772642986388178000,4.341177978515625,0.001606534468010068,-0.0005468593444675207,-0.000019272323697805405
1772642986398222000,4.35122216796875,0.0015287701971828938,0.0006715368945151567,-0.0004499056376516819
1772642986408266800,4.361266845703125,0.0005316463066264987,0.0005385756958276033,0.0006807497702538967
1772642986418312000,4.37131201171875,-0.00029206951148808,0.00003470573574304581,0.0013627856969833374
1772642986428355600,4.38135546875,-0.00037277385126799345,0.0002708474639803171,-0.000057208817452192307
1772642986438400800,4.39140087890625,0.00022776902187615633,0.0003438179846853018,-0.000714743509888649
1772642986448445700,4.40144580078125,0.000545149203389883,0.00071863760240376,0.00005418853834271431
1772642986458489600,4.411489501953125,-0.00038429407868534327,-0.0007255945820361376,-0.0011333147995173931
1772642986468534800,4.42153466796875,0.0006871923105791211,0.0006273223552852869,0.00018784170970320702
1772642986478579700,4.431579833984375,-0.0007471861899830401,0.00038204528391361237,-0.0003562420606613159
1772642986488623900,4.441623779296875,-0.0009923799661919475,-0.0014369238633662462,-0.0005115130916237831
1772642986498668500,4.45166845703125,-0.0003715971251949668,-0.0005660702008754015,-0.0006752978079020977
1772642986508713700,4.461713623046875,0.00020958331879228354,0.00020011723972856998,-0.0005502970889210701
1772642986518758000,4.4717578125,-0.0008074779179878533,-0.0006345175206661224,-0.00025149062275886536
1772642986528802800,4.481802734375,0.0006797123933210969,0.00004349113442003727,0.0003751269541680813
1772642986538847700,4.49184765625,-0.0002984666498377919,0.00017957878299057484,0.0008337232284247875
1772642986548892000,4.501891845703125,-0.0017264768248423934,0.0003643091768026352,0.000577031634747982
1772642986558936800,4.511936767578125,0.0003806161694228649,-0.000684443861246109,-0.0019732112996280193
1772642986568981800,4.521981689453125,-0.0007562157115899026,0.0005895548965781927,0.001007862389087677
1772642986579025700,4.532025634765625,0.0011932181660085917,-0.0009785140864551067,0.0007348884828388691
1772642986589070800,4.54207080078125,0.00013761187437921762,-0.00017177313566207886,-0.00002049235627055168
1772642986599115800,4.55211572265625,0.0005663807969540358,0.0006586005911231041,0.0013622208498418331
1772642986609159700,4.56215966796875,-0.0002998310374096036,-0.0009864275343716145,0.0006115860305726528
1772642986619204900,4.572204833984375,0.0013992656022310257,0.001010943204164505,0.00021770456805825233
1772642986629249800,4.582249755859375,0.0009383929427713156,0.00014965422451496124,-0.00025329506024718285
1772642986639293700,4.592293701171875,-0.0012581823393702507,-0.001130527351051569,0.0009611062705516815
1772642986649338600,4.602338623046875,0.00020024238619953394,-0.0008621127344667912,0.00012505566701292992
1772642986659383800,4.6123837890625,-0.0008748757536523044,0.0000598737969994545,0.00007099378854036331
1772642986669428000,4.622427978515625,0.0002844973932951689,-0.000024132197722792625,-0.0017272676341235638
1772642986679472600,4.63247265625,-0.0009509430965408683,-0.0012782146222889423,-0.0004814406856894493
1772642986689517800,4.642517822265625,-0.0005523468717001379,-0.0008802500087767839,0.00009399373084306717
1772642986699561700,4.652561767578125,0.0009744433918967843,-0.000798490596935153,0.00024153292179107666
1772642986709607000,4.66260693359375,-0.00034029572270810604,-0.0002851644530892372,0.00023530982434749603
1772642986719651600,4.672651611328125,0.0007089896826073527,0.00048608705401420593,0.00007338961586356163
1772642986729695700,4.68269580078125,-0.0018708797870203853,-0.000660543330013752,0.0008366829715669155
1772642986739741000,4.692740966796875,-0.00008629565127193928,0.0005690380930900574,-0.001703173853456974
1772642986749785600,4.70278564453125,0.0006697154603898525,0.000030287308618426323,-0.001467579510062933
1772642986759829800,4.712829833984375,0.0014963606372475624,0.00045665958896279335,0.00034097302705049515
1772642986769874700,4.722874755859375,-0.0017283150227740407,0.00035476009361445904,-0.0003683720715343952
1772642986779920000,4.732919921875,0.0006991561967879534,-0.001631691586226225,0.0003344365395605564
1772642986789963800,4.7429638671875,-0.0009468949283473194,0.00009863916784524918,0.0012165512889623642
1772642986800008700,4.7530087890625,-0.0002374288160353899,-0.00021295063197612762,0.0005345158278942108
1772642986810054000,4.763053955078125,-0.002125934697687626,0.00006088963709771633,0.0009749582968652248
1772642986820097800,4.773097900390625,-0.000837763654999435,0.00016874750144779682,0.0016940119676291943
1772642986830142700,4.783142822265625,0.0014524463331326842,-0.00009301118552684784,0.0007293969392776489
1772642986840188000,4.79318798828125,-0.000007764901965856552,0.0004579967353492975,-0.0002655596472322941
1772642986850231800,4.803231689453125,-0.0014096916420385242,-0.000530698336660862,0.0005388464778661728
1772642986860276700,4.81327685546875,0.0007309571374207735,-0.0002763667143881321,0.0004938389174640179
1772642986870321700,4.82332177734375,0.0004520484944805503,0.0012440504506230354,0.0006898827850818634
1772642986880365800,4.83336572265625,-0.0006459727883338928,-0.0011120482813566923,0.0011484790593385696
1772642986890410800,4.84341064453125,-0.001093532657250762,-0.00041171396151185036,-0.0005558589473366737
1772642986900455700,4.85345556640625,0.0004995702765882015,-0.00031584035605192184,0.0008998247794806957
1772642986910499800,4.863499755859375,0.0002690749242901802,0.00008493545465171337,-0.0003101639449596405
1772642986920544800,4.873544677734375,0.00037586770486086607,0.0010173080954700708,-0.0010590450838208199
1772642986930589700,4.883589599609375,-0.000237169093452394,-0.000370255671441555,-0.00045070797204971313
1772642986940633900,4.8936337890625,-0.0004901693901047111,0.00030618696473538876,0.00035969167947769165
1772642986950678800,4.9036787109375,-0.0006257101777009666,-0.00028713815845549107,0.0005045677535235882
1772642986960724000,4.913723876953125,0.000006790622137486935,0.001146707683801651,0.0003905845806002617
1772642986970767600,4.923767578125,-0.00023599527776241302,0.0009930788073688745,0.002126963809132576
1772642986980812800,4.933812744140625,-0.00044239021372050047,-0.0001504826359450817,-0.00041182758286595345
1772642986990857700,4.943857666015625,-0.00017625908367335796,0.0002621687017381191,0.0011633583344519138
1772642987000901600,4.953901611328125,0.0010242938296869397,-0.0003048183862119913,-0.0008843461982905865
1772642987010946800,4.96394677734375,-0.00015265122056007385,0.00011124438606202602,-0.0019657337106764317
1772642987020991700,4.97399169921875,0.0010194058995693922,0.0006199080962687731,0.0003514830023050308
1772642987031035600,4.98403564453125,-0.000684873666614294,0.0019740755669772625,-0.0005709505639970303
1772642987041080800,4.994080810546875,-0.0004963219398632646,-0.00009413529187440872,0.000112948939204216
1772642987051125800,5.004125732421875,-0.0015793851343914866,0.0009905581828206778,0.0011822083033621311
1772642987061170000,5.014169921875,0.0002648539375513792,0.0005761703941971064,-0.0003363261930644512
1772642987071214600,5.024214599609375,0.0010170999448746443,-0.0006253551691770554,0.0015464122407138348
1772642987081259800,5.034259765625,-0.0020037235226482153,-0.00010284315794706345,0.00015704147517681122
1772642987091304000,5.044303955078125,0.00006850610952824354,0.0011162778828293085,0.000780734233558178
1772642987101348900,5.054348876953125,-0.00019594584591686726,-0.00039027235470712185,-0.000003034248948097229
1772642987111393800,5.064393798828125,-0.00005491543561220169,-0.001313354354351759,-0.0009360671974718571
1772642987121437700,5.074437744140625,-0.000374228460714221,-0.000982056837528944,0.0013651703484356403
1772642987131483000,5.08448291015625,-0.0010114361066371202,-0.000013624550774693489,0.00036977464333176613
1772642987141527800,5.09452783203125,-0.0006945199565961957,-0.00017474591732025146,-0.00008003320544958115
1772642987151571700,5.10457177734375,-0.0001848260872066021,-0.0005250682588666677,-0.0009798821993172169
1772642987161617000,5.114616943359375,-0.0013590137241408229,-0.0004707395564764738,-0.0010089105926454067
1772642987171661800,5.124661865234375,0.001005486585199833,0.00047641550190746784,0.001381696667522192
1772642987181705700,5.134705810546875,-0.00023634533863514662,0.0014002660755068064,0.000596863217651844
1772642987191750700,5.144750732421875,0.0002498967805877328,-0.0005107433535158634,-0.0005816654302179813
1772642987201795800,5.1547958984375,0.0002610820811241865,0.0012149852700531483,-0.0014131045900285244
1772642987211839700,5.16483984375,-0.0013021616032347083,-0.00031040702015161514,-0.0014527114108204842
1772642987221884700,5.174884765625,-0.0007796494173817337,-0.0014150859788060188,-0.0011030384339392185
1772642987231929900,5.184929931640625,0.0006157404277473688,0.00014717970043420792,-0.00022351276129484177
1772642987241973800,5.194973876953125,-0.0003547153901308775,-0.00023658201098442078,-0.0011452329345047474
1772642987252018700,5.205018798828125,-0.0000928281806409359,0.0004707840271294117,0.00036867428570985794
1772642987262063600,5.215063720703125,0.00009359314572066069,-0.0004765021149069071,-0.0006148312240839005
1772642987272107800,5.225107666015625,0.0002943294821307063,0.001153293764218688,-0.000603801105171442
1772642987282153000,5.235153076171875,0.001483697327785194,-0.00008694035932421684,0.001987720839679241
1772642987292197600,5.24519775390625,-0.00004418427124619484,-0.0003266895655542612,0.0009545357897877693
1772642987302241800,5.25524169921875,-0.0006212912267073989,0.0005295167211443186,-0.0008857087232172489
1772642987312287000,5.265286865234375,-0.00015767058357596397,-0.0004034328740090132,-0.00027595600113272667
1772642987322331600,5.27533154296875,0.0020519541576504707,-0.0000036926940083503723,0.0004281839355826378
1772642987332375800,5.285375732421875,0.0017808827105909586,0.00014362973161041737,0.0003118962049484253
1772642987342420700,5.295420654296875,-0.000988005893304944,-0.0004792835097759962,-0.00013578124344348907
1772642987352466000,5.3054658203125,-0.001974361250177026,0.0014009082224220037,-0.0006875954568386078
1772642987362509800,5.315509765625,-0.0015096395509317517,-0.0008049882017076015,-0.0009829397313296795
1772642987372554800,5.3255546875,0.000038917176425457,-0.0012865939643234015,0.0018387208692729473
1772642987382600000,5.335599853515625,0.0014056514482945204,0.0004937290214002132,-0.00031151575967669487
1772642987392643600,5.3456435546875,0.00150341319385916,-0.0006011612713336945,-0.000944147352129221
1772642987402688800,5.355688720703125,0.00031564326491206884,-0.00007438776083290577,0.0014495020732283592
1772642987412733200,5.365733154296875,-0.002807637909427285,0.0005097973626106977,-0.00012550828978419304
1772642987422776800,5.37577685546875,0.0005285040242597461,0.0004011404234915972,-0.0012879781424999237
1772642987432822000,5.385822021484375,0.00024778442457318306,-0.0003684069961309433,0.0010788277722895145
1772642987442867000,5.395866943359375,0.0009537884034216404,-0.001210498157888651,0.0005656369030475616
1772642987452911000,5.4059111328125,0.00022956100292503834,-0.0003541847690939903,-0.0013636928051710129
1772642987462956000,5.4159560546875,0.00015818828251212835,0.0019185568671673536,0.000528216827660799
1772642987473001000,5.4260009765625,0.0005547025939449668,-0.0008497005328536034,0.0001486167311668396
1772642987483045000,5.436045166015625,0.0013065129751339555,-0.0002933661453425884,-0.00006656674668192863
1772642987493089800,5.44608984375,0.00012927281204611063,-0.0018647254910320044,-0.00023492192849516869
1772642987503135000,5.456135009765625,0.0009391400963068008,0.0009776665829122066,-0.001778490375727415
1772642987513179100,5.46617919921875,0.00030768243595957756,-0.00024804449640214443,0.000225734431296587
1772642987523224000,5.47622412109375,-0.00006835581734776497,-0.0014720333274453878,-0.0007633636705577374
1772642987533269000,5.48626904296875,0.0013602798571810126,-0.00017461273819208145,-0.0011494741775095463
1772642987543313200,5.496313232421875,-0.0009103312040679157,0.001445920905098319,-0.0003084475174546242
1772642987553358000,5.506358154296875,-0.00031530053820461035,-0.0011712030973285437,-0.0011020968668162823
1772642987563403000,5.516403076171875,0.0003904371988028288,0.00034813047386705875,0.0000217570923268795
1772642987573447000,5.526447021484375,-0.0010139597579836845,0.0011102892458438873,0.0010902662761509418
1772642987583492000,5.5364921875,-0.0008320658816955984,0.000023186905309557915,-0.0003369217738509178
1772642987593537000,5.546537109375,-0.000779711059294641,-0.00036036991514265537,0.0010144226253032684
1772642987603581000,5.556580810546875,0.00025519332848489285,-0.0005915325600653887,0.0001861792989075184
1772642987613626000,5.566626220703125,0.0009069865336641669,-0.00021580536849796772,-0.00017985468730330467
1772642987623671000,5.576671142578125,0.0006806178716942668,-0.0008823948446661234,-0.0008078282698988914
1772642987633715000,5.58671484375,0.00041152327321469784,-0.000032982323318719864,-0.00010342244058847427
1772642987643759900,5.596759765625,-0.0016108812997117639,-0.0005890503525733948,0.00007900409400463104
1772642987653805000,5.60680517578125,-0.0006777140661142766,0.0006472580134868622,0.0020453333854675293
1772642987663849200,5.61684912109375,-0.0008633363759145141,-0.0009045659098774195,0.0006841919384896755
1772642987673894000,5.626893798828125,-0.0009366006124764681,-0.000012343516573309898,0.0003279978409409523
1772642987683939000,5.63693896484375,-0.0006348644383251667,0.00019458401948213577,0.00016980618238449097
1772642987693983000,5.64698291015625,-0.00025006523355841637,0.0005851008463650942,0.0005444237031042576
1772642987704028200,5.657028076171875,0.001112940488383174,-0.0007992100436240435,0.0008032829500734806
1772642987714072800,5.66707275390625,0.000049990834668278694,0.001403037691488862,0.0016924990341067314
1772642987724117000,5.677116943359375,0.0004561229143291712,-0.0011754347942769527,0.0006133858114480972
1772642987734162200,5.687162109375,0.00038254400715231895,-0.0005597306881099939,0.0011127879843115807
1772642987744206800,5.697206787109375,-0.0006129455869086087,-0.0003442808520048857,-0.0007956330664455891
1772642987754251000,5.7072509765625,-0.0007128818542696536,0.00005176151171326637,0.00011634780094027519
1772642987764296000,5.7172958984375,-0.0022857447620481253,0.0005644198972731829,-0.00040962686762213707
1772642987774341000,5.727341064453125,-0.0006487290957011282,-0.00043142400681972504,0.000012789852917194366
1772642987784385000,5.737385009765625,0.0011774003505706787,0.0015489025972783566,-0.0005318266339600086
1772642987794430000,5.747429931640625,0.0003921203315258026,-0.0006995913572609425,-0.0008256323635578156
1772642987804475100,5.75747509765625,0.00041049602441489697,-0.0008340813219547272,-0.000720437616109848
1772642987814519000,5.76751904296875,0.0012032955419272184,-0.0007927247788757086,0.0002449657768011093
1772642987824564000,5.77756396484375,0.0001265795435756445,-0.00044518266804516315,0.0006116828881204128
1772642987834609200,5.787609130859375,-0.00007453886792063713,0.0007467085961252451,-0.0006544687785208225
1772642987844653000,5.797653076171875,-0.0008990535279735923,0.0005437757354229689,0.0004803040064871311
1772642987854698000,5.807697998046875,0.000331784482114017,-0.00047004944644868374,0.0004045749083161354
1772642987864743000,5.817742919921875,-0.00037555117160081863,-0.00023462600074708462,0.00017900485545396805
1772642987874787000,5.827787109375,-0.0014265956124290824,-0.00006344309076666832,-0.000554197933524847
1772642987884832000,5.83783203125,0.00032869388815015554,0.0014020942617207766,0.0009643365629017353
1772642987894877000,5.847876953125,-0.00020238070283085108,0.00048024626448750496,0.0011128918267786503
1772642987904921000,5.857921142578125,0.0008748678956180811,0.0011252639815211296,-0.00031722569838166237
1772642987914966000,5.867966064453125,-0.0002329307608306408,0.000017609447240829468,0.00048352545127272606
1772642987925011000,5.878010986328125,0.00007865915540605783,0.001605386147275567,-0.0005159592255949974
1772642987935055000,5.88805517578125,0.00024398614186793566,-0.00022559030912816525,-0.0004901685751974583
1772642987945100000,5.89810009765625,0.00014278595335781574,0.000013028737157583237,0.0013332981616258621
1772642987955145200,5.908145263671875,-0.0009552058763802052,0.000053681666031479836,-0.0005311137065291405
1772642987965188900,5.91818896484375,-0.0018942365422844887,0.00021427031606435776,0.0005349498242139816
1772642987975234000,5.928234130859375,-0.0009444731404073536,0.00037266802974045277,0.001018403097987175
1772642987985279000,5.938279052734375,-0.0016336992848664522,-0.0001588989980518818,-0.0007965411059558392
1772642987995323000,5.948322998046875,-0.00006055017001926899,0.00027459231205284595,-0.000912858173251152
1772642988005368000,5.9583681640625,0.00006088998634368181,0.0007654128130525351,0.0005281781777739525
1772642988015413000,5.9684130859375,0.00014488783199340105,0.0008739007171243429,0.00004636077210307121
1772642988025457000,5.978456787109375,-0.00018960516899824142,-0.00034369644708931446,0.0009318618103861809
1772642988035502000,5.988502197265625,-0.0006538513698615134,0.0003435651306062937,0.0002794656902551651
1772642988045547000,5.998547119140625,0.00017971801571547985,0.0013401198666542768,-0.0007751462981104851
1772642988055591200,6.008591064453125,-0.00011959124822169542,0.0009431217331439257,-0.000344262458384037
1772642988065635800,6.0186357421875,0.0009456730913370848,-0.0011117730755358934,-0.001110719982534647
1772642988075681000,6.028680908203125,0.0019500794587656856,0.00024167797528207302,0.0000012274831533432007
1772642988085725200,6.03872509765625,0.0027551529929041862,-0.00018895533867180347,-0.00004031788557767868
1772642988095770000,6.04877001953125,0.000256333383731544,0.001283564604818821,0.00022191787138581276
1772642988105815000,6.05881494140625,-0.0004025326343253255,0.0018473557429388165,0.0015550963580608368
1772642988115859000,6.06885888671875,0.0010924467351287603,0.0005324520170688629,0.0005039791576564312
1772642988125904100,6.078904052734375,-0.0005904047284275293,0.0008946419693529606,0.0006469907239079475
1772642988135949000,6.088948974609375,-0.0006166241364553571,-0.00022068293765187263,-0.0008493736386299133
1772642988145993000,6.098992919921875,0.0006584973307326436,-0.0007032477296888828,-0.0008323295041918755
1772642988156038100,6.1090380859375,0.0012994298012927175,0.0007369185332208872,-0.0009839260019361973
1772642988166083000,6.1190830078125,-0.0003924764459952712,0.0004301224835216999,0.000561772845685482
1772642988176127000,6.129126953125,-0.001617508358322084,0.000557545805349946,-0.001111963763833046
1772642988186172000,6.139171875,0.0007729450007900596,0.0001602021511644125,0.00018339790403842926
1772642988196217000,6.149217041015625,-0.0011318533215671778,-0.0009672080632299185,0.00023274123668670654
1772642988206261000,6.159260986328125,-0.0011654091067612171,-0.0007355131674557924,0.0010676421225070953
1772642988216306000,6.169305908203125,-0.0011241794563829899,-0.00016275886446237564,-0.00038927607238292694
1772642988226351000,6.17935107421875,-0.0006791651831008494,-0.0010226937010884285,-0.00038102036342024803
1772642988236395000,6.18939501953125,-0.00019196548964828253,0.0006825439631938934,0.00043014204129576683
1772642988246440000,6.19943994140625,-0.0007341851014643908,0.0009696327615529299,0.0006605051457881927
1772642988256484900,6.20948486328125,-0.001484186970628798,-0.00021636183373630047,0.0005856980569660664
1772642988266529000,6.219529052734375,0.00030598987359553576,-0.00014765234664082527,-0.0016881092451512814
1772642988276574200,6.22957421875,-0.0005342256044968963,0.0016803366597741842,-0.0011066407896578312
1772642988286619000,6.239618896484375,-0.0010490147396922112,-0.0007926744874566793,-0.0006131567060947418
1772642988296663000,6.2496630859375,0.00017405895050615072,0.00012257834896445274,0.00027390383183956146
1772642988306708200,6.259708251953125,0.00049337197560817,-0.00041990773752331734,0.0009599342010915279
1772642988316753000,6.2697529296875,0.0005726708332076669,0.0008755652233958244,-0.0004182280972599983
1772642988326797000,6.279797119140625,0.0016038467874750495,0.00044626370072364807,0.001132796984165907
1772642988336842000,6.289842041015625,0.0007717411499470472,0.00012547429651021957,0.0002759266644716263
1772642988346887200,6.29988720703125,0.0011349963024258614,-0.00031261565163731575,-0.00043087592348456383
1772642988356931000,6.30993115234375,0.00039525062311440706,0.00015149987302720547,0.0008413917385041714
1772642988366976000,6.31997607421875,-0.0010934564052149653,0.0005821329541504383,0.0010890653356909752
1772642988377021200,6.330021240234375,0.0002729562111198902,0.001093805069103837,-0.0007246183231472969
1772642988387064800,6.34006494140625,-0.000575793266762048,0.0016781026497483253,0.000886860303580761
1772642988397110000,6.350110107421875,0.0004547256976366043,-0.00021583191119134426,-0.001129649579524994
1772642988407155000,6.360155029296875,0.0006339563988149166,-0.0001750853843986988,0.0009393603540956974
1772642988417200000,6.3702001953125,-0.0012532334076240659,0.0002141464501619339,0.0008645383641123772
1772642988427245000,6.3802451171875,-0.0008913098718039691,0.000014143064618110657,0.00029302388429641724
1772642988437290200,6.390290283203125,-0.00125411048065871,-0.0006007265765219927,0.0011062202975153923
1772642988447334100,6.400334228515625,-0.0014764844672754407,0.000722864642739296,-0.00008447887375950813
1772642988457379000,6.410379150390625,-0.000383707694709301,0.0004836106672883034,-0.0006875218823552132
1772642988467424300,6.42042431640625,-0.0012028960045427084,-0.00005248351953923702,0.0005622995086014271
1772642988477468200,6.43046826171875,-0.000694510992616415,0.000686348183080554,-0.00029302388429641724
1772642988487513000,6.44051318359375,-0.00012139871250838041,-0.0012013001833111048,-0.0024765501730144024
1772642988497558000,6.45055810546875,0.0008513956563547254,-0.0008337711915373802,0.000145656056702137
1772642988507602200,6.460602294921875,-0.0006644755485467613,-0.0005863634869456291,-0.00014569377526640892
1772642988517647400,6.4706474609375,-0.00011582730803638697,0.0002251039259135723,-0.0009267395362257957
1772642988527692000,6.480692138671875,-0.00005031353794038296,-0.0002531998325139284,0.0009228261187672615
1772642988537736200,6.490736083984375,-0.00012137449812144041,-0.0006493404507637024,-0.001223080325871706
1772642988547781000,6.500781005859375,-0.0005714487051591277,-0.0017172680236399174,0.0012872153893113136
1772642988557826000,6.510825927734375,0.0002787227276712656,-0.0005171000957489014,-0.00039750710129737854
1772642988567870200,6.5208701171875,0.001353840809315443,-0.0004004538059234619,-0.00033225957304239273
1772642988577915100,6.5309150390625,-0.00009499071165919304,-0.0008933055214583874,-0.000995673704892397
1772642988587960300,6.540960205078125,-0.0005181670421734452,0.00003959960304200649,-0.0009224368259310722
1772642988598004200,6.551004150390625,0.0004799810703843832,0.00019874097779393196,-0.0003947429358959198
1772642988608049200,6.561049072265625,-0.0013253757497295737,-0.00018661841750144958,-0.00016038492321968079
1772642988618094000,6.571093994140625,0.0005431703757494688,0.00016740919090807438,-0.0023330911062657833
1772642988628138000,6.581137939453125,-0.0006051847012713552,0.0002097534015774727,0.0005079694092273712
1772642988638183200,6.59118310546875,-0.00048564199823886156,0.00004826509393751621,0.0011278428137302399
1772642988648227300,6.601227294921875,0.0007330204825848341,0.0009564030915498734,0.0005757692269980907
1772642988658272300,6.611272216796875,0.00016423454508185387,0.0003744016867130995,-0.00040892278775572777
1772642988668317200,6.621317138671875,0.0003826137399300933,0.0002740004565566778,0.0008424967527389526
1772642988678362000,6.631362060546875,0.0001640254631638527,0.00016054511070251465,-0.0021068407222628593
1772642988688406300,6.64140625,-0.0002138771815225482,-0.00014651729725301266,0.0008484693244099617
1772642988698451000,6.651450927734375,0.001651049591600895,0.00131379091180861,0.0006837570108473301
1772642988708496100,6.66149609375,-0.00013939349446445704,0.0012943497858941555,0.0005311579443514347
1772642988718540300,6.671540283203125,0.00007762957829982042,0.0005322757642716169,-0.00017648283392190933
1772642988728585200,6.681585205078125,0.001016393769532442,-0.00014469982124865055,-0.0014465446583926678
1772642988738630100,6.691630126953125,-0.0001632925122976303,0.0003363313153386116,0.0010914034210145473
1772642988748674000,6.701674072265625,0.002188012469559908,0.0005435252096503973,-0.0014180932193994522
1772642988758719200,6.71171923828125,-0.0014838393544778228,0.00016825390048325062,0.0009431531652808189
1772642988768763100,6.72176318359375,-0.0006537321023643017,-0.0013588026631623507,-0.0012752600014209747
1772642988778808000,6.73180810546875,0.0000016803387552499771,0.0009008115157485008,0.0004571308381855488
1772642988788853200,6.741853271484375,0.001317281974479556,0.00026058778166770935,-0.00012290570884943008
1772642988798897200,6.751897216796875,-0.0007368618971668184,-0.0009763056878000498,-0.0011994843371212482
1772642988808942000,6.761942138671875,-0.0006756091606803238,0.00010120915248990059,0.0011065471917390823
1772642988818987000,6.771987060546875,0.0006983669009059668,0.00001517520286142826,-0.0018252981826663017
1772642988829031200,6.78203125,0.0005404413677752018,0.00012436485849320889,0.00003358814865350723
1772642988839076000,6.792076171875,0.0009835240198299289,-0.0000454846303910017,-0.0010473052971065044
1772642988849121000,6.80212109375,-0.0009683067910373211,0.0009183133952319622,-0.0008089523762464523
1772642988859166200,6.812166259765625,0.0015692028682678938,-0.0010650029871612787,-0.0006210342980921268
1772642988869210400,6.82221044921875,0.0005713163409382105,-0.00027111475355923176,-0.0020444937981665134
1772642988879255000,6.832255126953125,-0.00021238147746771574,0.00040257256478071213,0.0005369712598621845
1772642988889299200,6.84229931640625,0.00002410728484392166,-0.0000930416863411665,-0.00010964414104819298
1772642988899344100,6.85234423828125,0.0009577131131663918,-0.0014363399241119623,-0.00018867896869778633
1772642988909389300,6.862389404296875,0.0005534453084692359,0.0006790088955312967,0.0004805736243724823
1772642988919433200,6.87243310546875,-0.0012134502176195383,-0.0004951886367052794,-0.0004393593408167362
1772642988929478100,6.88247802734375,0.0007088194834068418,0.00017086765728890896,-0.00018822308629751205
1772642988939523300,6.8925234375,-0.00039458286482840776,0.000217188848182559,-0.0008911900222301483
1772642988949567000,6.90256689453125,-0.0008968550828285515,-0.0008787016849964857,0.0011210944503545761
1772642988959612200,6.912612060546875,0.0006542003247886896,0.0010072414297610521,0.0006739995442330837
1772642988969657000,6.922656982421875,-0.0002238439628854394,-0.002801611553877592,-0.0003920639865100384
1772642988979701000,6.932700927734375,-0.00022647972218692303,0.000666281208395958,0.00006832927465438843
1772642988989746200,6.94274609375,-0.0010754955001175404,-0.00007833866402506828,0.0000014835968613624573
1772642988999791000,6.952791015625,-0.0005318343755789101,-0.0002048409078270197,-0.00013624411076307297
1772642989009835300,6.962835205078125,0.0006532722618430853,-0.0007326796185225248,-0.0010944497771561146
1772642989019880000,6.9728798828125,-0.0008257291628979146,0.00024791317991912365,-0.0015246248804032803
1772642989029925000,6.982925048828125,0.0012656513135880232,-0.0003760657273232937,0.0005571683868765831
1772642989039969300,6.99296923828125,-0.0005239908350631595,-0.0005565253086388111,-0.00007314980030059814
1772642989050014200,7.00301416015625,-0.000793236424215138,0.00039049494080245495,0.00032286206260323524
1772642989060059100,7.01305908203125,0.00020235578995198011,-0.0001564333215355873,-0.0014511323533952236
1772642989070103300,7.023103271484375,0.0007192752091214061,0.0008803354576230049,0.0011883266270160675
1772642989080148200,7.033148193359375,-0.00018541142344474792,-0.0006793858483433723,0.0005646320059895515
1772642989090193200,7.043193115234375,0.00014428782742470503,0.0009177117608487606,-0.00003191595897078514
1772642989100237000,7.053237060546875,0.002119828946888447,0.0005608964711427689,0.00021141907200217247
1772642989110282200,7.0632822265625,-0.0006341460975818336,-0.0006702826358377934,0.0012159636244177818
1772642989120327200,7.0733271484375,0.0006515892455354333,-0.0001309933140873909,0.0006416449323296547
1772642989130371000,7.08337109375,0.000712841865606606,0.00012360489927232265,0.0003779921680688858
1772642989140416300,7.093416259765625,-0.0005087902536615729,-0.00016928836703300476,-0.0007216590456664562
1772642989150461200,7.103461181640625,0.00015353795606642962,-0.001139744184911251,0.00041018472984433174
1772642989160505000,7.113505126953125,-0.00006175623275339603,0.0008032859768718481,-0.000331005547195673
1772642989170550000,7.123550048828125,-0.00025510170962661505,-0.0005381484515964985,0.00038538454100489616
1772642989180595200,7.13359521484375,-0.0008227102225646377,-0.0003409343771636486,-0.00044390326365828514
1772642989190639400,7.143639404296875,-0.0012791759800165892,0.0013027684763073921,0.0006328127346932888
1772642989200684000,7.15368408203125,-0.0006467459606938064,0.0006600786000490189,-0.0012083225883543491
1772642989210729200,7.163729248046875,0.00007523701060563326,0.0008142755832523108,-0.0005971272476017475
1772642989220773000,7.173773193359375,0.0002682821359485388,0.0008315541781485081,-0.0011668144725263119
1772642989230818000,7.183818115234375,0.00010902504436671734,-0.0007117476779967546,-0.0011114208027720451
1772642989240863000,7.193863037109375,0.00029626674950122833,0.000046040164306759834,-0.000017826445400714874
1772642989250907100,7.2039072265625,0.0010763065656647086,0.00024338043294847012,-0.0013941479846835136
1772642989260952300,7.213952392578125,0.00010863086208701134,-0.00010132812894880772,-0.0013861297629773617
1772642989270997000,7.2239970703125,0.00009105401113629341,-0.0016209275927394629,-0.00007212627679109573
1772642989281041200,7.234041259765625,-0.0007644788129255176,-0.000262001296505332,0.0019172453321516514
1772642989291086000,7.244086181640625,-0.0009897821582853794,-0.0008718653116375208,-0.0006164857186377048
1772642989301131300,7.25413134765625,-0.0005528926849365234,0.00026274658739566803,-0.000014123041182756424
1772642989311175200,7.264175048828125,-0.0009582258644513786,0.0012276098132133484,0.00029427139088511467
1772642989321220000,7.27422021484375,-0.0007389735546894372,0.0019847622606903315,-0.0013331160880625248
1772642989331265300,7.284265380859375,-0.0007490935968235135,0.0014521300327032804,-0.0005751801654696465
1772642989341309200,7.29430908203125,0.00031425547786056995,0.000586699927225709,0.0011125491000711918
1772642989351354000,7.30435400390625,-0.000569115043617785,0.0016967053525149822,-0.0006525940261781216
1772642989361399300,7.3143994140625,0.00046874978579580784,0.0004630284383893013,-0.0023631458170711994
1772642989371443000,7.32444287109375,0.00009430933278053999,0.0005959202535450459,0.0008379742503166199
1772642989381488000,7.334488037109375,0.00036939827259629965,0.00005895434878766537,0.00037460681051015854
1772642989391533000,7.344532958984375,-0.0002095728414133191,0.000011017313227057457,-0.001605986151844263
1772642989401577200,7.3545771484375,0.0002556256949901581,-0.0004917739424854517,-0.0002697673626244068
1772642989411622100,7.3646220703125,-0.0008711577975191176,0.0004973241593688726,-0.0010607261210680008
1772642989421666300,7.374666259765625,0.0004920250503346324,-0.0008862765971571207,-0.00012307940050959587
1772642989431710500,7.38471044921875,-0.0008496753871440887,0.00003650854341685772,-0.0007047136314213276
1772642989441755400,7.39475537109375,0.0003579250769689679,-0.0004972636234015226,-0.000009230338037014008
1772642989451800300,7.40480029296875,0.00018402060959488153,0.0007016914896667004,0.001308768056333065
1772642989461844500,7.414844482421875,-0.000991826644167304,0.0012723561376333237,0.0003850874491035938
1772642989471889400,7.424889404296875,0.0012273854808881879,-0.00057774200104177,-0.00024501653388142586
1772642989481934300,7.434934326171875,-0.001465551438741386,0.0008786197286099195,0.00005921674892306328
1772642989491978500,7.444978515625,-0.0011009647278115153,0.0007651690393686295,0.0008682850748300552
1772642989502023400,7.4550234375,0.00014733895659446716,0.0006044898182153702,-0.000020539388060569763
1772642989512068600,7.465068603515625,-0.00033708999399095774,0.0010793316178023815,-0.00047673890367150307
1772642989522112300,7.4751123046875,-0.0013636568328365684,-0.0003088370431214571,0.00047088367864489555
1772642989532157400,7.485157470703125,0.0010957723716273904,-0.000174080953001976,-0.0012119677849113941
1772642989542202400,7.495202392578125,-0.00018258136697113514,-0.0007351965177804232,0.00008290866389870644
1772642989552246300,7.505246337890625,-0.0010739413555711508,-0.0006664867978543043,-0.00007475074380636215
1772642989562291500,7.51529150390625,-0.0004929198767058551,-0.0007020535413175821,0.0017010564915835857
1772642989572336400,7.52533642578125,-0.0006226158002391458,0.0008806628175079823,-0.00042201532050967216
1772642989582380300,7.53538037109375,0.0005353016313165426,0.0006506789941340685,-0.0009114439599215984
1772642989592425500,7.545425537109375,-0.0018950991798192263,0.0004187177401036024,0.0007983054965734482
1772642989602470400,7.555470458984375,0.0009294871706515551,-0.0007752676028758287,-0.0007754615508019924
1772642989612514600,7.5655146484375,-0.00030062696896493435,0.0007243582513183355,-0.00022924738004803658
1772642989622559200,7.575559326171875,-0.0010478741023689508,0.0003041208256036043,-0.00037283170968294144
1772642989632604400,7.5856044921875,0.0010126135312020779,0.0010966777335852385,0.0009265248663723469
1772642989642648600,7.595648681640625,-0.0006933621480129659,0.000262564979493618,0.001223124098032713
1772642989652693500,7.605693603515625,-0.0002483478747308254,-0.0007078906055539846,0.0008074045181274414
1772642989662738400,7.615738525390625,0.0006687571294605732,0.0009220123756676912,-0.0005122814327478409
1772642989672782300,7.6257822265625,-0.00004630163311958313,-0.000434068962931633,0.00028746621683239937
1772642989682827500,7.63582763671875,0.0008401900995522738,0.0016032620333135128,-0.0007247892208397388
1772642989692872200,7.6458720703125,0.00016960606444627047,0.0007816769648343325,0.0002621784806251526
1772642989702916400,7.655916259765625,0.0016367726493626833,-0.001842479221522808,-0.0006195618771016598
1772642989712961500,7.66596142578125,-0.0008748544496484101,0.0007005734369158745,0.00026061292737722397
1772642989723006500,7.67600634765625,-0.0009260505903512239,0.0008443787228316069,0.001382559072226286
1772642989733050400,7.68605029296875,-0.0001872896682471037,0.0002046874724328518,-0.0004803221672773361
1772642989743095300,7.69609521484375,-0.0002934584626927972,0.0008986920583993196,0.0017269300296902657
1772642989753140500,7.706140380859375,0.000054882955737411976,0.000789236044511199,-0.00021478068083524704
1772642989763184400,7.716184326171875,0.00018411001656204462,0.0013488447293639183,-0.0005149315111339092
1772642989773229300,7.726229248046875,0.00010314991232007742,-0.00024345936253666878,0.0016867038793861866
1772642989783274500,7.7362744140625,-0.0006682020612061024,-0.0003078342415392399,-0.00033958302810788155
1772642989793318400,7.746318359375,-0.000022918102331459522,0.0006543656345456839,-0.000723876990377903
1772642989803363300,7.75636328125,-0.0004459254560060799,-0.0013637593947350979,-0.0018461649306118488
1772642989813408300,7.766408203125,0.0007735360413789749,-0.00012379162944853306,-0.00028368784114718437
1772642989823452400,7.776452392578125,-0.0006314951460808516,-0.000556277809664607,-0.0010628500021994114
1772642989833497300,7.786497314453125,-0.000472238112706691,-0.00013709627091884613,0.0018748831935226917
1772642989843542300,7.796542236328125,0.0005680738249793649,-0.00033033802174031734,-0.0005294396542012691
1772642989853586400,7.80658642578125,0.0008762015495449305,-0.0006975878495723009,-0.0001808316446840763
1772642989863631400,7.81663134765625,0.00055305240675807,0.00045487075112760067,0.0006282101385295391
1772642989873676300,7.82667626953125,-0.0006991659174673259,0.0007118657231330872,0.000027134548872709274
1772642989883720400,7.836720458984375,-0.00007006956730037928,-0.001880374038591981,-0.00007498450577259064
1772642989893765400,7.846765380859375,-0.0018703665118664503,0.0013140877708792686,0.0011130515486001968
1772642989903810600,7.856810546875,0.0002059387043118477,0.0005118444096297026,0.0002722516655921936
1772642989913854500,7.8668544921875,-0.00001696788240224123,0.00014938809908926487,-0.0006044609472155571
1772642989923899400,7.8768994140625,0.000908280722796917,-0.0015322393737733364,0.00020449142903089523
1772642989933944600,7.886944580078125,-0.0001841479679569602,0.0004811105318367481,-0.0011816839687526226
1772642989943988200,7.89698828125,-0.0005500343977473676,-0.0012221194338053465,0.001422871369868517
