time,seconds_elapsed,z,y,x
1772642824430326000,0.060325927734375,1.5149854609996078,-0.3486984329886734,-0.4959360629346221
1772642824440370700,0.07037060546875,1.6918781514316796,-0.3984598043709993,-0.45705034236442293
1772642824450415900,0.080415771484375,1.7344278378695248,-0.4432647223897278,-0.5444403469279409
1772642824460460800,0.090460693359375,1.5728057818055152,-0.44293841304481024,-0.5996595087921247
1772642824470504700,0.100504638671875,1.5070184276431797,-0.4183883475475013,-0.6780161659419536
1772642824480550000,0.1105498046875,1.6325450879752634,-0.4608109004743397,-0.7618330977916717
1772642824490594800,0.1205947265625,1.70122114931643,-0.5199098629139364,-0.7794260376274585
1772642824500640000,0.130639892578125,1.7710814520061016,-0.5455750500462949,-0.7550127502523363
1772642824510685000,0.140684814453125,1.7986761458963154,-0.6054807988241314,-0.6426486460931599
1772642824520728800,0.150728759765625,1.8101555712878703,-0.7155690670058131,-0.4647749452671036
1772642824530773800,0.160773681640625,1.8728151488184928,-0.7526974590472877,-0.3309144275601953
1772642824540819000,0.17081884765625,2.0673545551002026,-0.46791401047781106,-0.46095359688065946
1772642824550864000,0.18086376953125,2.092549786633253,-0.11191957526206969,-0.5685774842428043
1772642824560908800,0.19090869140625,2.132408334290981,0.2743364349655807,-0.5971530058639124
1772642824570953000,0.200952880859375,2.425471827688813,0.6615905163198709,-0.6204260736953466
1772642824580998000,0.210997802734375,2.822330042082071,0.9050590809434652,-0.5389596504945308
1772642824591042800,0.221042724609375,3.3493981061875817,0.992035938128829,-0.41703569082953035
1772642824601087700,0.231087646484375,3.90737451877594,0.9819131880432367,-0.4170738308828324
1772642824611133000,0.2411328125,4.1685552657008165,0.8393513678885995,-0.5510153414040804
1772642824621176800,0.2511767578125,4.194364829739928,0.6697489805951714,-0.6582762041401118
1772642824631221800,0.2612216796875,4.140585893279313,0.5975466448239982,-0.6813045399628579
1772642824641267000,0.271266845703125,3.841604700270295,0.4898274438612163,-0.6322869726851582
1772642824651311900,0.281311767578125,3.1874937260508536,0.45767888605892654,-0.6286899711064994
1772642824661356000,0.29135595703125,2.216431602367759,0.545255901094526,-0.8644380244806409
1772642824671400700,0.301400634765625,1.3267963005274535,0.6857843157254159,-1.1638878579147158
1772642824681446000,0.31144580078125,0.4083768027514219,0.5749677332691848,-1.245543227816373
1772642824691490800,0.32149072265625,-0.664106298533082,0.2128798034839332,-1.1475566085778177
1772642824701536000,0.331535888671875,-1.8639900373280047,-0.012030775664001703,-0.8507229489915072
1772642824711580000,0.341579833984375,-2.6655156785607335,0.20344708148911594,-0.6350984499093145
1772642824721624800,0.351624755859375,-3.2601620718985793,0.6683756464153527,-0.7100205660331994
1772642824731670000,0.361669921875,-4.071788251385093,1.2493106175258755,-0.8106693902183324
1772642824741715000,0.37171484375,-6.137545892682671,1.2680134182997047,-2.116535934637487
1772642824751760000,0.381759765625,-8.053148043826221,1.5538123275220392,-3.120690472844243
1772642824761803800,0.3918037109375,-9.405414885696768,1.922913497070223,-3.1224776485219596
1772642824771849000,0.401848876953125,-10.620905358946322,1.7880482227675616,-2.6766946597009897
1772642824781894000,0.411893798828125,-10.679445226198434,1.4264238188408314,-2.069980958081037
1772642824791938800,0.421938720703125,-9.512245028865337,0.8084985489852726,-1.5135615656763315
1772642824801983700,0.431983642578125,-7.685321278128027,0.2343150979615748,-0.9614099137187003
1772642824812028000,0.44202783203125,-6.3889119325578205,-0.6456123182043433,-0.566016547713615
1772642824822073000,0.452072998046875,-5.183928824797272,-1.189532440650463,-0.3969980247227475
1772642824832117800,0.46211767578125,-4.269113488993049,-1.5118004012227058,-0.11437646689489483
1772642824842163000,0.472162841796875,-3.998166550335288,-1.6962629423871636,0.411101916866377
1772642824852207900,0.482207763671875,-3.81951327997148,-1.6027625286519527,0.7887130675412714
1772642824862251800,0.492251708984375,-3.5069577351182697,-1.48680156904459,0.8996231004346161
1772642824872296700,0.502296630859375,-2.8102567424505946,-1.3542507091641425,1.206393851341307
1772642824882342000,0.512341796875,-1.8409446773052214,-1.3565683384567497,1.8937635365620253
1772642824892386800,0.52238671875,-1.3188140696018933,-1.6385560188278554,2.269573263838142
1772642824902430700,0.5324306640625,-1.2105395728439092,-1.6332029673621058,1.8818007115676998
1772642824912476000,0.542475830078125,-1.1059288592904806,-1.5054732440277934,0.9539619358003139
1772642824922520800,0.552520751953125,-1.1889502568483352,-1.5126520496159792,0.460927804852277
1772642824932566000,0.56256591796875,-1.4007657921016214,-1.0664002742394805,0.7820465953893959
1772642824942611000,0.57261083984375,-1.6948288179308175,-0.7081076450839638,1.5295008930861949
1772642824952654800,0.58265478515625,-1.9282395143985747,-0.40565789918154477,1.9421121185369787
1772642824962699800,0.59269970703125,-2.044516700348258,0.06125570208206772,1.9520646266222
1772642824972745000,0.602744873046875,-2.0806103425145146,0.5457318480432033,1.9267340782716869
1772642824982789600,0.61278955078125,-1.9174334582239387,0.8574668702937662,1.8590572571009396
1772642824992834800,0.622834716796875,-1.3475830679684877,1.1457482439815998,1.8248139189764856
1772642825002879000,0.63287890625,-0.27162498404979707,1.2907412368059157,1.7932715103738008
1772642825012924000,0.642923828125,1.0023463197410105,1.1503791186526418,1.663379056047648
1772642825022968800,0.65296875,2.3660440716862676,0.9776544346202164,1.5352058267295359
1772642825033013800,0.663013671875,3.608926994252205,0.8533881496127694,1.456348416983336
1772642825043059000,0.673058837890625,4.647477430796623,0.752383205466345,1.3436449978671967
1772642825053102800,0.683102783203125,5.54455194272697,0.5757699895627796,1.1667238119930028
1772642825063147800,0.693147705078125,6.345497153723239,0.4062029658436775,1.1050601136319338
1772642825073193000,0.70319287109375,7.120532262915372,0.2447271133173257,1.3182362697139383
1772642825083238000,0.71323779296875,8.158705098319054,0.25224165366590023,1.7338218348003922
1772642825093282800,0.72328271484375,9.191091167014836,0.29430004945546384,2.0085934463128448
1772642825103326700,0.73332666015625,10.15018052883148,0.37106552842371165,2.103513371457159
1772642825113372000,0.743371826171875,10.905178227645159,0.4911076929301023,2.0071492388539016
1772642825123416800,0.753416748046875,11.266544857418536,0.6397585506748408,1.755575693707913
1772642825133462000,0.7634619140625,11.112535029923915,0.7746803774703294,1.4413479778587817
1772642825143506700,0.773506591796875,10.482337430733441,0.872873625196889,1.2570590396955608
1772642825153550800,0.78355078125,9.589678397157789,0.9109344757828861,1.288528821453452
1772642825163596000,0.793595947265625,8.655503696367145,0.8510360335286706,1.3578577937453984
1772642825173641000,0.803640869140625,7.891357645457982,0.7332414287533611,1.3571337172545492
1772642825183686000,0.813685791015625,7.343164375737309,0.6813013250924647,1.171721108823642
1772642825193729800,0.823729736328125,6.943744786423444,0.6765422939971089,0.8487775140121578
1772642825203775000,0.83377490234375,6.370342256644368,0.6668696257665753,0.44072870110608636
1772642825213820000,0.84381982421875,5.4526452279239885,0.7751425150893628,0.1568670070240274
1772642825223864800,0.85386474609375,4.232887160357833,0.6684746498104185,0.2375407454771921
1772642825233909800,0.86390966796875,3.1097938157767056,0.2560414843402803,0.504279345724918
1772642825243954000,0.873953857421875,2.589665195545554,-0.1727815653188154,0.7207942543081939
1772642825253999000,0.8839990234375,2.760224006780982,-0.4865107570612803,0.6852483091525733
1772642825264044000,0.8940439453125,2.889910709401965,-0.8921779720604419,0.5225234794784337
1772642825274089200,0.904089111328125,2.599997204467654,-0.9697457803875207,0.3670780662227422
1772642825284134100,0.914134033203125,1.8574907384365795,-0.6039977206595242,0.4379301564287394
1772642825294178000,0.924177978515625,0.48758302593529224,-0.3194621824365109,0.8677459069196134
1772642825304223000,0.934222900390625,-1.5488216796278953,-0.19893216134794056,1.736497629880905
1772642825314268200,0.94426806640625,-3.328959129270911,-0.12334091379083692,2.7113538851499555
1772642825324313000,0.95431298828125,-4.306209586200118,0.012236088977754115,3.1963597540736197
1772642825334358000,0.96435791015625,-4.7712850122511385,0.10637143961563705,2.680528538775444
1772642825344402200,0.974402099609375,-5.256363946411013,0.21635493224859237,1.4125962228879332
1772642825354447000,0.984447021484375,-6.173294666934013,0.3681770404405892,0.1572248440183699
1772642825364492300,0.9944921875,-7.660634580639004,0.2593157202379778,-0.462461736421287
1772642825374537000,1.004536865234375,-8.89208717765212,0.2164294953221455,-0.7034813735228032
1772642825384582100,1.01458203125,-9.392214043340086,-0.08083926774580032,-0.7733087237909436
1772642825394626000,1.0246259765625,-9.02888400453925,-0.4859073478080332,-0.6429043013546616
1772642825404671200,1.034671142578125,-8.323455515536665,-0.6847353181291371,-0.40496114908903835
1772642825414716000,1.0447158203125,-7.8492364135652775,-0.9606716625720262,-0.3137360598746687
1772642825424761000,1.054760986328125,-7.883018856179714,-1.2192920574896038,-0.16284487585723398
1772642825434806000,1.064805908203125,-8.248360234802961,-1.437053349404782,-0.023706308149546385
1772642825444850000,1.074849853515625,-8.531511405995488,-1.5823650527894495,-0.04927548756152391
1772642825454895000,1.08489501953125,-8.489084469154477,-1.650041873960197,-0.27508579202815886
1772642825464940000,1.09493994140625,-8.46097130434811,-1.5631132398307324,-0.781211752000451
1772642825474985200,1.104985107421875,-8.790309641698002,-1.468405934523791,-1.2217710148237646
1772642825485028900,1.11502880859375,-9.208142255058885,-1.1325973782464862,-1.4464051151178776
1772642825495074000,1.125073974609375,-9.581261866468191,-0.6885593333967029,-1.4374629531189798
1772642825505119000,1.135118896484375,-9.74894483000636,-0.36661183695048094,-1.2744459355652331
1772642825515164200,1.1451640625,-9.781715465229748,-0.14849358482379466,-1.0943731537923216
1772642825525209000,1.155208984375,-9.447313999271392,-0.15843695975448935,-0.9459165765106677
1772642825535253000,1.1652529296875,-8.48333277375996,-0.26159035063907504,-0.8846874701745807
1772642825545298200,1.175298095703125,-7.147277646499872,-0.4003011944539845,-0.8720409006997942
1772642825555343000,1.185343017578125,-5.66816370934844,-0.5441220747590064,-0.710459176646173
1772642825565388000,1.195387939453125,-4.071276210209727,-0.6475064613878727,-0.37188714700490233
1772642825575433000,1.205432861328125,-2.2821306937247514,-0.6670949589550494,0.15628785542920232
1772642825585477000,1.21547705078125,-0.5441501318097114,-0.88925360904634,0.8226901559449732
1772642825595522000,1.22552197265625,1.1639350580573082,-1.1616215934831648,1.2776577372185884
1772642825605567000,1.23556689453125,2.8446389045238494,-1.1616766116060315,1.3735137741692363
1772642825615612000,1.24561181640625,4.328457658365369,-0.9153479813762009,1.2937515245378017
1772642825625657000,1.255656982421875,5.532851568061113,-0.6352120663516223,1.2070451548568903
1772642825635701200,1.265701171875,6.345380833867192,-0.3930197687415406,0.9752186588406562
1772642825645746000,1.275745849609375,6.592603198066353,-0.14253095009233802,0.6554024753347039
1772642825655791000,1.285791015625,6.150774792090058,0.15703794314414263,0.49144466979950663
1772642825665836000,1.2958359375,5.392455255377293,0.30642120681665835,0.4735375494480133
1772642825675880200,1.305880126953125,4.628450658765435,0.25737532675992697,0.5431459232032299
1772642825685925000,1.315925048828125,3.5793390807181593,0.11334347058534622,0.5026549228608608
1772642825695970000,1.325969970703125,2.610530873441696,0.08359079494364559,0.2934758735910058
1772642825706015200,1.33601513671875,2.1775439455687997,0.02098930427581072,0.036684009274840355
1772642825716060200,1.34606005859375,2.3026994345009326,-0.08899959518462419,-0.2685600435212254
1772642825726104000,1.35610400390625,2.846304791909456,-0.29710721583068367,-0.3431123034194112
1772642825736149000,1.36614892578125,3.6093519416660067,-0.5446294397592544,-0.14224778576940297
1772642825746194200,1.376194091796875,4.248631257456541,-0.762282010602951,0.21183584738895295
1772642825756239000,1.386239013671875,4.747117370200157,-0.8619476689696312,0.5162399422295392
1772642825766284000,1.396283935546875,5.195530999785661,-0.9101074503742158,0.6917559374809265
1772642825776328200,1.406328125,5.693586319896578,-0.8697009134449064,0.9243236072532832
1772642825786373000,1.416373046875,6.248032804793119,-0.8576875273071229,1.164024782167375
1772642825796418300,1.426418212890625,6.755733905127644,-0.8440284197889268,1.343357120836526
1772642825806463000,1.436462890625,7.1570584512799975,-0.8529526808049529,1.3496626507215201
1772642825816508200,1.446508056640625,7.32238696064651,-0.8443197308856993,1.329939274728298
1772642825826552000,1.456552001953125,7.2917843171119685,-0.7866879914544522,1.3418635212779044
1772642825836597000,1.466596923828125,7.032545351904631,-0.7259563863117248,1.3907486943475902
1772642825846642000,1.476641845703125,6.6116136034846305,-0.5326690259177237,1.4899216007612646
1772642825856687000,1.48668701171875,6.254747792261838,-0.27632161743342876,1.671192506277561
1772642825866732000,1.49673193359375,6.06186667458117,-0.07475260477587581,1.8263238851480186
1772642825876776000,1.50677587890625,5.960041207832098,0.11499825205504893,1.858782239551842
1772642825886821000,1.516821044921875,5.882299211981892,0.40506102926693854,1.775627278742194
1772642825896866000,1.526865966796875,5.590284350854158,0.7298278209175915,1.7276140662014483
1772642825906911200,1.5369111328125,4.7201188886374235,1.0645870873376726,1.7297030013047157
1772642825916955000,1.546954833984375,3.408646998491883,1.103873168869689,1.8664489747874438
1772642825927000000,1.557,2.5080437279134986,1.08348891781494,1.632595502988249
1772642825937045000,1.567044921875,2.4532465543210504,1.4526356800705194,1.0792308219790459
1772642825947090200,1.577090087890625,2.9571336493253706,1.5040876348882912,0.6477683271944522
1772642825957135000,1.587135009765625,3.337693055346608,1.1498946230713278,0.411808238504827
1772642825967179000,1.597178955078125,3.2307904314637184,0.9757355953868478,0.1974357122451067
1772642825977224200,1.60722412109375,2.178291549065709,1.1275026123907417,-0.11434534110426903
1772642825987269000,1.61726904296875,-0.06240180337727069,1.260087447606027,-0.18149609257429838
1772642825997314000,1.62731396484375,-2.254825922691822,1.4862885049559176,0.040688422610610724
1772642826007359000,1.63735888671875,-3.309147344341874,1.7847326684787868,0.14870280712768436
1772642826017403100,1.647403076171875,-3.1476872008413075,1.6849752401754259,0.5097990955270827
1772642826027448000,1.657447998046875,-2.4165415022581813,1.065369104560837,0.7957341983497143
1772642826037493000,1.667492919921875,-2.128106253182888,0.44170883471723643,0.5882220593787729
1772642826047538000,1.677537841796875,-2.7557559214562177,0.17641424099905414,0.1780849689565599
1772642826057583000,1.6875830078125,-4.221090339580178,0.12790595668405294,0.058101037443429225
1772642826067627300,1.697627197265625,-5.823669328358769,-0.03545128914210945,-0.01841156274229288
1772642826077672000,1.707671875,-6.791932761234045,-0.08765269235400483,-0.24118344936110078
1772642826087717000,1.717717041015625,-6.9598711608380075,-0.16698108061281963,-0.3090861151769757
1772642826097762000,1.727761962890625,-6.298537834149599,-0.4647277085918933,-0.2553202573936432
1772642826107807200,1.73780712890625,-5.178694431275129,-0.8738578139286488,-0.3019608664069325
1772642826117851100,1.74785107421875,-4.331599463522434,-1.2124454795304684,-0.4804248247437179
1772642826127896000,1.75789599609375,-4.2209477162390945,-1.4843401473671196,-0.8083179317213595
1772642826137941200,1.767941162109375,-4.830930794918537,-1.361010704818368,-1.1722733358789235
1772642826147986200,1.777986083984375,-6.210248140799999,-1.049614266872406,-1.508741305913031
1772642826158030000,1.788030029296875,-8.042991391471029,-0.7820853199645876,-1.8314568641223012
1772642826168075000,1.798074951171875,-9.8026033549577,-0.5039062380962074,-2.4480833263389763
1772642826178120200,1.8081201171875,-10.960058987867832,0.15897512175180017,-3.3582962829142806
1772642826188165000,1.8181650390625,-11.796166113138199,0.9179371941518037,-4.177333323179185
1772642826198210000,1.8282099609375,-12.007676527965067,1.5083615128152073,-4.375865890750289
1772642826208254200,1.838254150390625,-11.539729345870017,1.7090769773833452,-3.8509450678065416
1772642826218299100,1.848299072265625,-10.367841282981633,1.5575865853637456,-2.8450129985332486
1772642826228344000,1.858343994140625,-8.732998439458012,1.5132482619434595,-2.053827257268131
1772642826238389000,1.868388916015625,-7.181404957029223,1.1587035871446132,-1.3284861533105372
1772642826248434200,1.87843408203125,-5.692898337632418,0.7936708360791206,-0.7404794171828776
1772642826258479400,1.888479248046875,-4.369903182953596,0.4548453431334346,-0.35680429029390215
1772642826268524300,1.898524169921875,-3.1936925806909797,0.12042130001708864,-0.04306852268017828
1772642826278569200,1.9085693359375,-1.9939549723684786,-0.13123542990032583,0.36124322258941827
1772642826288614400,1.918614501953125,-0.9024041825205087,-0.338028387751244,0.8230693645209074
1772642826298659300,1.928659423828125,-0.023773089775443075,-0.605782850510627,1.2114135061342268
1772642826308703500,1.938703369140625,0.6798743610292672,-0.9583326982304453,1.456892168471217
1772642826318748200,1.948748046875,1.4710042804539203,-1.1953938069645316,1.5843343070358038
1772642826328793300,1.95879345703125,2.0226883148998023,-1.3996274357214569,1.4188371631041168
1772642826338838300,1.96883837890625,2.299563474562764,-1.6268647042512894,0.8133606020636857
1772642826348883500,1.978883544921875,2.3926024082660673,-1.7022025615692138,0.07558255279399455
1772642826358927400,1.98892724609375,2.4062363813430068,-1.6480121216982602,-0.34196444855853914
1772642826368972300,1.99897216796875,2.4295424381285904,-1.40724477885738,-0.24920243210047482
1772642826379017500,2.009017578125,2.1811457694530487,-1.1712700771205127,0.12494659542180597
1772642826389062400,2.0190625,1.7503431998819112,-0.8664224762961268,0.7325682056669145
1772642826399106300,2.029106201171875,1.3600152640402317,-0.5475025840427726,1.3931713914498687
1772642826409151200,2.039151123046875,1.2311843014657498,-0.24156185421943663,1.799070405910909
1772642826419196400,2.049196533203125,1.3360036893337963,0.0336126390054822,1.9526430110320447
1772642826429241300,2.059241455078125,1.8315046487867832,0.24259791926890611,1.9453624986350535
1772642826439286300,2.069286376953125,2.6142227136969565,0.4036388875093311,1.8153683375000953
1772642826449330400,2.079330322265625,3.6177789937496185,0.49533042519167064,1.5400032901391385
1772642826459375400,2.089375244140625,4.670763613837957,0.5004305978748947,1.0246825816463678
1772642826469420500,2.099420654296875,5.678416807815432,0.48477688247337936,0.4117858805425465
1772642826479465200,2.10946533203125,6.548880376195907,0.5192595457790419,-0.14577099145948885
1772642826489510400,2.119510498046875,7.291853290694951,0.6785041686546057,-0.4250986588411033
1772642826499554300,2.12955419921875,7.853752429684996,0.8812067153867333,-0.45595885733328756
1772642826509599500,2.139599609375,8.258881628817319,1.0718939032197,-0.3680765026755631
1772642826519644200,2.14964404296875,8.519128309762477,1.3153542845368384,-0.1332024556569755
1772642826529689300,2.159689453125,8.716824718770384,1.6211038026370108,0.1084395145939663
1772642826539734300,2.169734375,8.829595357903838,1.909507049138844,0.25997820273470135
1772642826549778200,2.179778076171875,8.935600156164169,2.071782308414578,0.2281679004434496
1772642826559823400,2.1898232421875,8.954071632400154,2.1572614743880925,0.042726138983294366
1772642826569868300,2.199868408203125,8.759322382760047,2.1886795259587464,-0.14299367223326115
1772642826579913500,2.20991357421875,8.32618990893662,2.2447245076552034,-0.31527485028188673
1772642826589958400,2.21995849609375,7.615747975686192,2.2765844577744603,-0.4522768078196793
1772642826600002300,2.230002197265625,6.802784410116076,2.2803611998341977,-0.40652945785168554
1772642826610047200,2.240047119140625,6.226846224379539,2.2687108017899096,-0.40516160356458275
1772642826620092400,2.250092529296875,5.762369348743557,2.20021316575557,-0.5736731634140014
1772642826630137300,2.260137451171875,5.20674271415174,2.101934285572171,-0.7266966102197766
1772642826640181200,2.27018115234375,4.596173944538831,2.054669407180697,-0.8217976640846579
1772642826650226400,2.280226318359375,3.7352591257482763,2.0995674103103577,-0.8314360647194087
1772642826660271400,2.290271240234375,2.0889853721499443,2.0903413168035447,-0.6518582999218255
1772642826670316300,2.30031640625,0.06523205836713314,1.9546255631513894,-0.06807163830776698
1772642826680361200,2.310361328125,-0.8288134611308574,1.5390939202092586,0.45658864313680675
1772642826690405400,2.3204052734375,0.15256430486142633,0.9800840729199349,0.4466259424511343
1772642826700450300,2.3304501953125,1.9937404528349636,0.7728291235804557,-0.19317958917059003
1772642826710495200,2.3404951171875,2.788614234963059,0.601919599211216,-0.5679902589393779
1772642826720540200,2.3505400390625,1.7526117293357848,0.3662015025839209,-0.12543339255806057
1772642826730585300,2.36058544921875,-0.6928998468190432,0.5709181656174361,0.6204471895486116
1772642826740629500,2.37062939453125,-3.4740672729074955,0.6083458328664303,1.1526184950772673
1772642826750674200,2.380674072265625,-5.305598225179314,0.546737810215354,1.2938875720076262
1772642826760719400,2.39071923828125,-5.9143999851197,0.31807642716653645,0.8970059767387807
1772642826770764300,2.400764404296875,-5.504444973266124,-0.23068441330902278,0.3717905912952497
1772642826780809500,2.4108095703125,-4.850846040222049,-0.8726124900426715,0.28241237205658104
1772642826790853400,2.420853271484375,-4.50079984588623,-1.4783105118140578,0.5326343929957598
1772642826800898300,2.430898193359375,-4.332194506806135,-1.7529991212181746,0.806689234540984
1772642826810943500,2.440943603515625,-4.446798791107535,-1.8932501802124082,1.071475312481448
1772642826820988400,2.450988525390625,-4.678950427424907,-2.067072961679846,1.5365648401230574
1772642826831033300,2.461033447265625,-4.7639960242867465,-2.2523840824976564,2.0307626080229877
1772642826841077200,2.4710771484375,-5.042954419964552,-2.3153166317507625,2.187322120000422
1772642826851122400,2.481122314453125,-5.884360236164927,-2.061234026393294,1.927720458960533
1772642826861167400,2.49116748046875,-7.466899476477503,-1.6630466092228888,1.4146768285542726
1772642826871212300,2.50121240234375,-9.653015435558556,-1.2371478860452771,0.7712257800370454
1772642826881256400,2.51125634765625,-11.665347776138782,-0.8335602172665297,0.1535327845674008
1772642826891301400,2.52130126953125,-12.693797674429415,-0.7185469868380576,-0.1458941429151222
1772642826901346600,2.5313466796875,-12.377192561924456,-0.8517853175260126,-0.33114827284868803
1772642826911391200,2.54139111328125,-11.172049879688023,-0.9916182972386479,-0.4992861040148884
1772642826921436400,2.5514365234375,-9.695334820371865,-0.994522932638973,-0.6660099401973187
1772642826931480300,2.561480224609375,-8.377246726956963,-0.9092305944744496,-0.7713390311531723
1772642826941525200,2.571525146484375,-7.495235928645729,-0.7338872523762285,-0.5674173178896308
1772642826951570200,2.581570068359375,-6.8334747319340705,-0.618976824735105,0.012063992947014048
1772642826961615400,2.591615478515625,-5.866455746161938,-0.3906109905667603,0.5907574596079066
1772642826971660300,2.601660400390625,-4.80300701520443,-0.1290426325637847,1.0940819157607853
1772642826981704200,2.6117041015625,-3.8007729236662384,-0.013566753059625625,1.6167688421726225
1772642826991749400,2.621749267578125,-2.6869705545216798,0.0880789001431316,2.0086250104948875
1772642827001794300,2.631794189453125,-1.4526871179968117,0.1663121135763824,2.132729967460781
1772642827011839500,2.641839599609375,-0.17329846533238888,0.2811496221117675,2.039296773742884
1772642827021884400,2.651884521484375,1.007505894461274,0.3021692119279876,1.801002543017268
1772642827031928300,2.66192822265625,2.17786075643301,0.2279607604987919,1.5260916691645978
1772642827041973200,2.67197314453125,3.3343256247401234,0.13443908477984368,1.1960569470483808
1772642827052018400,2.682018310546875,4.549272492632269,0.054853762617893514,0.8413655572552233
1772642827062063000,2.69206298828125,5.546994659703969,-0.07791658523213117,0.2114885683212429
1772642827072108300,2.7021083984375,5.550318835690617,-0.17603291353126987,-0.450250635754317
1772642827082152400,2.71215234375,4.773022795829177,-0.282713875753805,-1.1122010714277624
1772642827092197400,2.722197265625,3.9521740299671886,-0.1548234088998288,-1.3907589234806597
1772642827102242300,2.7322421875,3.29766616538465,-0.008760106263146735,-1.265461395729333
1772642827112287200,2.742287353515625,2.853177600288391,0.14576377626741305,-0.7319624217934906
1772642827122331400,2.752331298828125,2.801149306887388,0.4654941263871267,0.12601736645847558
1772642827132376300,2.762376220703125,2.80161224822402,0.6869229643665253,0.9897064722679555
1772642827142421200,2.772421142578125,2.815569461905956,0.9143187844589352,1.6841064945168793
1772642827152466200,2.782466064453125,3.2350141866385935,1.0686747950427233,2.0618539118573067
1772642827162511400,2.792511474609375,4.059247918763757,0.9134052498105912,2.1406810725957155
1772642827172555500,2.802555419921875,5.028051449865102,0.5966323795232922,1.9424851896330713
1772642827182600200,2.81260009765625,5.759937737682462,0.2897784438451752,1.4477869248650967
1772642827192645400,2.822645263671875,6.08366700297892,0.028893903387896713,0.862104247770831
1772642827202690300,2.832690185546875,6.210387841531634,-0.05580361982178874,0.38866811287067826
1772642827212735500,2.842735595703125,6.351475643610954,0.01959047032855451,0.08777151469439268
1772642827222779400,2.852779296875,6.565979979556799,0.13816055298838764,-0.024379458170756697
1772642827232824300,2.86282421875,6.77500792991817,0.389861596971564,0.10190963790118694
1772642827242869500,2.872869384765625,6.980097956308722,0.6675850805595517,0.4075749848492443
1772642827252914000,2.882913818359375,7.13331283403337,0.7914344553291797,0.6226798439715058
1772642827262959000,2.892958984375,7.161032031086087,0.7988729347668587,0.6180388862978666
1772642827273002800,2.903002685546875,7.189997428807616,0.7536604588605463,0.46317083453871305
1772642827283048000,2.9130478515625,7.073915473169088,0.6211147135466337,0.23222616285830736
1772642827293092900,2.9230927734375,6.525324728563428,0.6130686236046254,0.02131963220871985
1772642827303138000,2.933137939453125,5.73202155675292,0.7007072326343506,-0.005091404854878783
1772642827313183000,2.943182861328125,4.795726795068383,0.7065833581261336,0.06015373218953609
1772642827323227000,2.953226806640625,3.767054193937778,0.6985573611240834,0.10927307934127747
1772642827333272000,2.96327197265625,3.062390844088793,0.6734822488393634,0.10616590710617602
1772642827343317000,2.97331689453125,3.0269489438295363,0.28620946278460324,-0.04506305749826133
1772642827353362000,2.98336181640625,3.5753257534235714,-0.10540091408304869,-0.3721463824629783
1772642827363406800,2.99340673828125,4.287997053161263,-0.3814088624574244,-0.5908263601256534
1772642827373451000,3.003450927734375,4.447708891689777,-0.8379932312779128,-0.5137163055034354
1772642827383496000,3.013495849609375,3.527134846228361,-1.2662769498959183,-0.15512378008589148
1772642827393540900,3.023540771484375,2.0095149450719356,-1.4099613443396986,0.578740237545222
1772642827403585800,3.033585693359375,0.8758002532333136,-1.645260338772088,1.128310567772761
1772642827413630000,3.0436298828125,0.3245359055042267,-1.8641368984527884,1.2015344286113976
1772642827423675100,3.053675048828125,0.34545419037044045,-1.849648646634072,0.8706259193353354
1772642827433719800,3.0637197265625,0.07610065838396549,-1.7825490408293903,0.5024519476346672
1772642827443765000,3.073764892578125,-0.7970581404298543,-1.5785891875125466,0.6018193171745165
1772642827453810000,3.083809814453125,-2.2657786938607694,-1.1755343104362488,0.8980608195539563
1772642827463854000,3.09385400390625,-4.119225709864497,-0.6138204648852348,1.2115915661148726
1772642827473899000,3.10389892578125,-6.064171444392204,-0.22602942711003124,1.4249907172977923
1772642827483944000,3.11394384765625,-7.44012428227663,-0.2792917192853987,1.317392658496648
1772642827493988900,3.12398876953125,-7.529982247856259,-0.5505139677532017,0.6330084918927401
1772642827504034000,3.134033935546875,-6.885273892754316,-0.7860309888504445,0.0024838093225029298
1772642827514078000,3.144077880859375,-6.695825672131776,-1.0699086476866155,0.07186906696250661
1772642827524123000,3.154122802734375,-6.901682006719708,-1.250262803684175,0.5805901762608439
1772642827534168000,3.16416796875,-7.318511580517888,-1.1291112166311592,1.0153842266209423
1772642827544213000,3.174212890625,-8.00617411120534,-0.870240719410032,1.377371326380223
1772642827554258000,3.1842578125,-8.873933681324123,-0.41454818486273287,1.3392847568310797
1772642827564302000,3.194302001953125,-9.971621951013804,0.01846548488661647,0.8974989478874951
1772642827574347000,3.204346923828125,-11.164667368221282,0.31547482983339575,0.11807875547893344
1772642827584392200,3.21439208984375,-12.315209860742092,0.7414321147978306,-0.5836950469410047
1772642827594436900,3.224436767578125,-12.98653909626603,1.3591075015455483,-1.0775995675154029
1772642827604482000,3.23448193359375,-13.301761229979991,1.5639153499938547,-1.2218390385586768
1772642827614526000,3.24452587890625,-13.183435294806957,1.3361729084208607,-1.323771984270215
1772642827624571000,3.25457080078125,-11.807309438443184,1.0383657276272773,-1.4192317153796552
1772642827634615800,3.26461572265625,-9.557665302303432,0.5647758634701371,-1.2870670783378184
1772642827644661000,3.274660888671875,-7.21082160564959,0.07580415965542196,-0.8497617758091539
1772642827654705200,3.284705078125,-5.154058002668619,-0.35730113390013574,-0.2552816058836877
1772642827664749800,3.294749755859375,-3.317608298695087,-0.8452942750062793,0.3656824106132611
1772642827674795000,3.304794921875,-1.601463721013069,-1.2857523424774409,0.7511661578267812
1772642827684840000,3.31483984375,-0.044047231519222255,-1.7312284573063252,0.9656284812618047
1772642827694885000,3.324885009765625,1.3111118246614932,-2.026285024217516,1.1450827658101916
1772642827704928800,3.3349287109375,2.430160277765989,-2.1160101571977137,1.1931938127022237
1772642827714974000,3.344973876953125,3.086748455753922,-2.0421612232632933,1.1106808030579238
1772642827725019000,3.355018798828125,3.234626064103842,-1.797496580722928,0.8749567881464958
1772642827735064000,3.36506396484375,3.1122166590094564,-1.4363047229945658,0.646360798484087
1772642827745108700,3.375108642578125,2.8952684370428323,-1.1025583599440754,0.3485300906844437
1772642827755153000,3.38515283203125,2.7624627256184815,-0.6674295246716588,0.11051328866071998
1772642827765198000,3.395197998046875,2.6677555664420125,-0.12176423905864357,0.23903452769890426
1772642827775243000,3.405242919921875,2.60574948438406,0.38095505427531895,0.5719727161716669
1772642827785288000,3.415287841796875,2.829803154441714,0.6881009221047163,0.8338774665221571
1772642827795332900,3.425332763671875,3.3435675003379584,0.7693095711521803,0.7634275273762643
1772642827805377000,3.435376953125,3.95414854491055,0.9445096323221921,0.49985930079296226
1772642827815422000,3.445421875,4.280204791849851,1.034199840119481,0.23414938600584864
1772642827825467000,3.455466796875,4.212883652248978,1.058023125712201,0.06891293883696198
1772642827835511800,3.46551171875,3.761084471878409,1.1289729772042483,0.02869154921621084
1772642827845557000,3.475556884765625,3.305486483746767,1.2455296376824379,0.10373962980732321
1772642827855601200,3.48560107421875,3.224884422290325,1.393289026480168,0.2286579489827156
1772642827865645800,3.495645751953125,3.334401028063893,1.4739080390714108,0.5083412979342044
1772642827875691000,3.50569091796875,3.9130630858063697,1.4408480655126272,0.7602507970362902
1772642827885736000,3.51573583984375,4.583985494095087,1.3541283979587255,1.0438893133543432
1772642827895779800,3.52577978515625,5.512325497382879,1.297843616157025,1.0412709475494921
1772642827905825000,3.535824951171875,6.455845534145832,1.306477735120058,0.8977496347129345
1772642827915870000,3.545869873046875,7.26613783468008,1.16850769973509,0.7646247743368149
1772642827925915000,3.555914794921875,8.008917272433639,0.9940447937332093,0.6120648533895612
1772642827935960000,3.5659599609375,8.825475063103436,0.948314942889288,0.5142169119693338
1772642827946004000,3.57600390625,9.534566750788688,1.1128661842729897,0.6154790457472205
1772642827956049000,3.586048828125,9.924919821071624,1.3210669630952179,0.9783850139170884
1772642827966094000,3.596093994140625,9.980924032366275,1.4124470236755906,1.3815944970332086
1772642827976139000,3.606138916015625,9.724511815017461,1.4321806288018821,1.6572854153476655
1772642827986184000,3.616183837890625,9.136303345772623,1.4674321210555732,1.707102462439984
1772642827996228000,3.62622802734375,8.419358606499433,1.5401120112106204,1.4106307680338621
1772642828006273000,3.63627294921875,7.77211401091814,1.596508436693251,0.9176559660576283
1772642828016318000,3.64631787109375,7.004970531758666,1.5994219860523937,0.4258156480040401
1772642828026363000,3.65636279296875,6.2353101013422005,1.5564634265527129,0.04097074668332934
1772642828036408000,3.666407958984375,5.715570188167691,1.5598662207335232,-0.06215330850891768
1772642828046452000,3.676451904296875,5.740950713139772,1.4751856577917932,0.09554821311049162
1772642828056497000,3.686496826171875,6.365282635167241,1.297948976227641,0.2572634273506701
1772642828066541800,3.696541748046875,7.046419563478231,1.0513855143286288,0.31767683338969943
1772642828076587000,3.7065869140625,7.23372434233129,0.8070939428843558,0.42653570590689777
1772642828086632000,3.7166318359375,6.601883067587018,0.5216230965726077,0.6362897055204957
1772642828096675800,3.72667578125,5.444819648864865,0.27710955294072626,0.776766243833676
1772642828106721000,3.736720947265625,4.31461676453948,-0.1284524846509099,0.6003706892687827
1772642828116766000,3.746765869140625,2.5791706895381212,-0.6387696127027273,0.6030347208462655
1772642828126811100,3.75681103515625,0.49429976696968075,-0.8544348821867257,0.7346371939606964
1772642828136855800,3.766855712890625,-1.3280623749405145,-0.7556842197731137,0.6712311819769442
1772642828146900000,3.77689990234375,-2.6755688705414533,-0.4832884705465287,0.2890919959509745
1772642828156945000,3.78694482421875,-3.910102482435107,-0.35286724310591816,0.01205317015890032
1772642828166990000,3.796989990234375,-5.051785376673936,-0.3855551684819162,-0.03216631265468895
1772642828177034800,3.80703466796875,-5.7376440728098155,-0.33354974449984726,-0.1052679718857631
1772642828187079000,3.817078857421875,-5.954240412598848,-0.3140977327939123,-0.21330328959301112
1772642828197124000,3.8271240234375,-6.118809043508768,-0.246915819000639,-0.14192816189359872
1772642828207169000,3.8371689453125,-6.553930645322799,-0.3250485677340999,0.12849617766216395
1772642828217214000,3.8472138671875,-7.0649185122430325,-0.3587644844509661,0.4046761946678161
1772642828227259000,3.8572587890625,-7.45043817102015,-0.48097051246035843,0.49999425228424366
1772642828237303000,3.867302978515625,-7.872845252689719,-0.6017283509554341,0.3952211877759546
1772642828247348000,3.877347900390625,-8.375959609755872,-0.6610005876027047,0.23758907813094554
1772642828257392400,3.887392333984375,-9.01657864971757,-0.7171371931053697,0.06462956242933869
1772642828267437600,3.8974375,-10.156194090032576,-0.7017769807577133,-0.4526925490137189
1772642828277482500,3.907482421875,-11.226520305544136,-0.549117033502087,-1.1945474192682652
1772642828287526700,3.917526611328125,-11.80196457028389,-0.461357538039051,-1.806369476877898
1772642828297571300,3.9275712890625,-12.05017477647662,-0.26939178163763133,-2.397163578701764
1772642828307616500,3.937616455078125,-11.78103985567689,0.13679989562705158,-2.6782132475703953
1772642828317661400,3.947661376953125,-11.41935524599552,0.4344411452692002,-2.688642871648073
1772642828327706600,3.95770654296875,-11.193697063350676,0.6478869120728225,-2.5655682806432245
1772642828337750500,3.96775048828125,-11.138308938127755,0.6577692044660448,-2.261528635200858
1772642828347795500,3.97779541015625,-10.858125384569167,0.4241678077317774,-1.99808798051998
1772642828357840600,3.987840576171875,-9.97664299404621,0.042994032671861346,-1.9057509114757178
1772642828367885600,3.997885498046875,-8.618441501429677,-0.204499293955788,-1.8785963625684379
1772642828377930500,4.007930419921875,-7.026842171826958,-0.30056784114595503,-1.799178834721446
1772642828387974400,4.017974365234375,-5.477159491455555,-0.32986988694332536,-1.511662892448157
1772642828398019600,4.02801953125,-3.924042744982242,-0.44014728448893875,-1.0189220453582704
1772642828408064500,4.038064453125,-2.203398517793417,-0.5336388573305682,-0.56979179193601
1772642828418109400,4.048109375,-0.5210182625472546,-0.5682306800991297,-0.2002975314170122
1772642828428153600,4.058153564453125,0.7263847677916287,-0.5071943198561668,0.14445318685919045
1772642828438198500,4.068198486328125,1.6297680244773625,-0.3317477365791797,0.3462286818742752
1772642828448243500,4.078243408203125,2.390665302723646,-0.0821092054832261,0.44512978560924527
1772642828458288400,4.088288330078125,2.870513935014605,0.10592216147817671,0.45102980343326926
1772642828468333600,4.09833349609375,2.998830518326163,0.13606365377437324,0.19691300354525446
1772642828478377500,4.10837744140625,2.8920307702958583,0.154156688619405,-0.22117504588142037
1772642828488422400,4.11842236328125,2.7714146783590317,0.0638560207735747,-0.5964443826705217
1772642828498467300,4.12846728515625,2.6056910321950912,-0.01968983904980123,-0.8537830672144889
1772642828508512500,4.138512451171875,1.9711989506810903,-0.03154262779839337,-0.8615572083473205
1772642828518557400,4.148557373046875,0.726675275170803,-0.05999050445184111,-0.5873249644085764
1772642828528601300,4.158601318359375,-0.24528818126618862,-0.1583265216499567,-0.15535188975334166
1772642828538646500,4.168646484375,-0.13612988741099832,-0.4817790158316493,0.22497166168540714
1772642828548691500,4.17869140625,0.8632879776626825,-0.8339195520982146,0.4216270372077822
1772642828558736600,4.188736572265625,2.230032257696986,-1.0775624503754078,0.607939882414043
1772642828568781600,4.198781494140625,3.6557577190101145,-1.24131055868268,0.9002280075252056
1772642828578825500,4.208825439453125,5.157399714311957,-1.322272393362224,1.289923782943189
1772642828588870400,4.218870361328125,6.515189118996262,-1.3239578622311352,1.796209755782783
1772642828598915600,4.22891552734375,7.677295208060741,-1.3011574168801308,2.4279285731911657
1772642828608960500,4.23896044921875,8.645790111604333,-1.1847221177592873,3.0320234706148503
1772642828619005400,4.24900537109375,9.307474151426554,-0.978424030753225,3.4905151343613863
1772642828629049600,4.259049560546875,9.625794251155853,-0.7985788471911102,3.8255791558817025
1772642828639094500,4.269094482421875,9.739579035767912,-0.7043880400389433,3.973701386642456
1772642828649139500,4.279139404296875,9.5968528188318,-0.6995346817236393,3.8006168563216924
1772642828659184400,4.289184326171875,9.107036919277906,-0.7065196452401578,3.346609644512832
1772642828669228500,4.299228515625,8.390592530742287,-0.6905893048543482,2.7356173887908457
1772642828679273700,4.309273681640625,7.419126502433419,-0.6002816227458417,2.0469671622402963
1772642828689318400,4.319318359375,6.3949389377623795,-0.28040280406614765,1.6144041588678955
1772642828699363600,4.329363525390625,5.510818599951267,0.19065878372238948,1.5703076813794672
1772642828709408500,4.339408447265625,5.066147664025426,0.7406634685128927,1.6721842937938869
1772642828719452400,4.349452392578125,5.009828395432233,1.199533098726347,1.7107298591569065
1772642828729497300,4.359497314453125,4.9691626230448485,1.5609256666585802,1.6313701989769935
1772642828739542500,4.36954248046875,4.678369997188448,1.7882041439816354,1.51389518154487
1772642828749587500,4.37958740234375,4.316231798520684,1.896196316666901,1.4503217040397225
1772642828759632600,4.389632568359375,4.185551408687234,1.8612270023554562,1.5631431965775786
1772642828769676500,4.399676513671875,4.402529441270232,1.5442746838480232,1.69945428577438
1772642828779721500,4.409721435546875,5.003092949697375,1.0988654237102717,1.8258349325872956
1772642828789766700,4.4197666015625,5.836324811792373,0.6036451808948069,1.8346245343729852
1772642828799811600,4.4298115234375,6.394157431995868,0.32149748765639957,1.7795426986202596
1772642828809856500,4.4398564453125,5.5846548205345865,0.09577456921227276,1.7293718696542084
1772642828819900400,4.449900390625,3.3697938284844158,0.005624415753036737,1.8274385683916508
1772642828829945600,4.459945556640625,1.5075333914279936,0.1370222331408411,1.5604416825339198
1772642828839990500,4.469990478515625,0.31623686371445653,0.2761705185249448,1.0816958969183266
1772642828850035500,4.480035400390625,0.3705219961315393,-0.04224266631528735,0.8645159850876778
1772642828860080400,4.490080322265625,1.4959879150629043,-0.8220067037254571,0.44927733374275264
1772642828870124500,4.50012451171875,2.2099545153081417,-1.578395856897533,0.040905572492629286
1772642828880169500,4.51016943359375,1.779212151491642,-2.050974352055043,0.07101977492310106
1772642828890214400,4.52021435546875,-0.1487795256257057,-1.9028660036891698,0.23500351861715316
1772642828900259600,4.530259521484375,-2.637785960114002,-1.233265199393034,0.2608745305199176
1772642828910303500,4.540303466796875,-5.410355069205164,-0.19287713562529532,-0.07082498300336301
1772642828920348400,4.550348388671875,-8.424128305119275,0.7005901821259409,-0.2698055866029113
1772642828930393300,4.560393310546875,-10.35044708058834,1.0669940754141658,-0.5720262729898095
1772642828940438500,4.5704384765625,-10.78312888803482,0.7939956841193139,-1.0106876663025468
1772642828950483500,4.5804833984375,-9.923764805817603,0.06584278327715583,-1.5188783767849205
1772642828960527400,4.59052734375,-9.056656977605819,-0.6289773366805166,-1.6488051717720924
1772642828970572500,4.600572509765625,-8.691109847277403,-1.1956984889995306,-1.3570087757006286
1772642828980617500,4.610617431640625,-9.220748638653754,-1.309336631682515,-1.3489270299233496
1772642828990662700,4.62066259765625,-10.36676576270461,-1.119748564197868,-1.5967539358869194
1772642829000707300,4.630707275390625,-11.38763441208601,-0.8079999518133699,-2.241522058352083
1772642829010751500,4.64075146484375,-12.498258735716343,-0.4212105653613806,-3.031772126202285
1772642829020796400,4.65079638671875,-13.654625404345989,0.050343728714389725,-3.507874849963188
1772642829030841600,4.660841552734375,-14.680164383625984,0.4414440463012084,-3.700418113991618
1772642829040886500,4.670886474609375,-15.233213276684284,0.5707713775578886,-3.760968736544251
1772642829050931500,4.680931396484375,-15.137978294241428,0.5984439589899033,-3.5052205360621214
1772642829060975600,4.6909755859375,-14.354891980540751,0.4374729872457683,-2.8937925192713734
1772642829071020500,4.7010205078125,-12.9912959354043,0.17709595791921018,-2.272736988566071
1772642829081065500,4.7110654296875,-11.324377453184127,0.07008032038221135,-1.6948394854553044
1772642829091110400,4.7211103515625,-9.505762681108713,-0.06976396617572754,-0.9903924087055027
1772642829101154600,4.731154541015625,-7.820158203119039,-0.09668032241296022,-0.3223594382479787
1772642829111199700,4.74119970703125,-6.302198694744706,-0.10343465551137923,0.3423275827825069
1772642829121244400,4.751244384765625,-4.9856356189399955,-0.3685485771667212,0.9320305283688008
1772642829131289600,4.76128955078125,-3.902784268376231,-0.7043097871709615,1.2774753663890064
1772642829141334500,4.77133447265625,-3.111531599354744,-0.8923622425861656,1.5211401842370629
1772642829151378400,4.78137841796875,-2.319555876755714,-0.9791086520165204,1.3838783701866864
1772642829161423400,4.79142333984375,-1.4806108977109194,-0.7697041234277189,0.8967442570626735
1772642829171468500,4.801468505859375,-1.014942181941867,-0.37341961726918815,0.6358787135668098
1772642829181513500,4.811513427734375,-0.6106500181555747,0.10356171595714986,0.7807375586174428
1772642829191558700,4.82155859375,0.12248831554949283,0.6415967989526689,1.134270572155714
1772642829201602600,4.8316025390625,1.025357777494192,1.0680860353693364,1.4058553703255952
1772642829211647500,4.8416474609375,2.2787118251919747,1.1541337950110435,1.3952528738990426
1772642829221692700,4.851692626953125,3.820947696688771,1.130104392386973,1.0744888881489634
1772642829231737600,4.861737548828125,5.151785966083407,0.8967924801185727,0.41269378916770216
1772642829241782500,4.871782470703125,6.152032683196664,0.649139615547657,-0.3964230378463864
1772642829251826400,4.881826416015625,7.034097257521748,0.7634747275188565,-0.9599030162870883
1772642829261870800,4.891870849609375,7.556023282563686,1.1210881422385572,-0.970686129977554
1772642829271916000,4.901916015625,7.6153604376733295,1.485279474043846,-0.3144283529877662
1772642829281961000,4.9119609375,7.3889505598783485,1.5827388545379042,0.45925446481257676
1772642829292005000,4.922005126953125,7.069567214831709,1.6861438455633817,0.9916006154514848
1772642829302049800,4.9320498046875,6.710583680802583,1.7477768565252423,1.2444630313642322
1772642829312095000,4.942094970703125,6.774091984117031,1.5888121831022202,1.0077830309022218
1772642829322140000,4.952139892578125,7.384253926494718,1.3887740332737564,0.4311467798989266
1772642829332185000,4.96218505859375,8.23282773462832,1.1699812063537538,-0.017308204610273242
1772642829342229000,4.97222900390625,9.19884368083775,0.9913508784741163,-0.20299254265464842
1772642829352274000,4.98227392578125,10.134370380759238,0.9099274176321923,-0.29226050645187496
1772642829362319000,4.992319091796875,10.89728718213439,0.8660307004995643,-0.20506386903598903
1772642829372364000,5.002364013671875,11.375428425985573,0.7363219321772456,-0.11796426225379109
1772642829382409000,5.012408935546875,11.470037970006466,0.799656632490456,-0.2086166661467403
1772642829392452900,5.022452880859375,11.21540153015852,1.0339834208898246,-0.28838278823569413
1772642829402498000,5.032498046875,10.78993506091833,1.2204717687934636,-0.28325331639274953
1772642829412543000,5.04254296875,10.199137744224071,1.3001288044847548,-0.3101142161156982
1772642829422588000,5.052587890625,9.531673951956629,1.4278557513400911,-0.4469701527789235
1772642829432632800,5.0626328125,8.936432515335083,1.658914477854222,-0.6803449742157012
1772642829442677000,5.072677001953125,8.496496791237591,1.9937185332641005,-0.8602595697522163
1772642829452722200,5.08272216796875,8.078168503314256,2.304276182298362,-0.8690603505190462
1772642829462766800,5.092766845703125,7.691274049052596,2.547712305957079,-0.6831027484912425
1772642829472812000,5.10281201171875,7.394111303642392,2.701789353469014,-0.43019791820887476
1772642829482856000,5.11285595703125,7.188710896128415,2.7616812198519707,-0.09064264968391507
1772642829492900900,5.12290087890625,6.864781139823794,2.6802123124331234,0.4252465794118121
1772642829502945800,5.13294580078125,6.523121081039309,2.0310963700219986,1.0125887506835163
1772642829512991000,5.142990966796875,6.940911024302244,1.212941227158159,0.977849737996608
1772642829523036000,5.153035888671875,7.488759426108002,0.842314017086476,0.33042324650976806
1772642829533079800,5.163079833984375,7.357565826055407,0.15525047520548105,-0.16449790376126766
1772642829543125000,5.173125,6.617780309420824,-0.7183427695028484,-0.2529650725696236
1772642829553170000,5.183169921875,5.533437843516468,-0.9236991917446256,-0.2855580496711656
1772642829563215000,5.193215087890625,3.932268137013912,-0.7594722138792276,-0.44273854309115557
1772642829573260000,5.203260009765625,1.435166658875346,-0.5926413371257484,-0.2963889845587313
1772642829583304000,5.213303955078125,-1.2219365806490181,-0.45019145291298623,0.1662696261415258
1772642829593348900,5.223348876953125,-3.364379402220249,-0.07231602527871728,0.4213570976926014
1772642829603394000,5.23339404296875,-5.089110606461763,0.5656742736145853,0.31806488285921514
1772642829613438700,5.243438720703125,-6.63824500530064,0.7539674789831042,0.2668078660916537
1772642829623484000,5.25348388671875,-7.446098680511117,0.7277898122839629,0.23859357899837194
1772642829633528000,5.263528076171875,-7.423467746508121,0.6037476183559746,0.0365216217873618
1772642829643573000,5.273572998046875,-7.189366729688644,0.34544527641162276,-0.13676544536817817
1772642829653618000,5.283617919921875,-6.640941989299654,0.15914799410067498,0.005133600028790534
1772642829663662800,5.293662841796875,-5.899937744525075,-0.1435812263302505,0.43180096949134017
1772642829673707000,5.30370703125,-5.141059404885769,-0.5778994758721441,0.7433909207154065
1772642829683752000,5.313751953125,-4.691425293594598,-1.0337785459674895,0.7993609374795109
1772642829693796900,5.323796875,-4.916431149810553,-1.27138391764611,0.6161679778594523
1772642829703842000,5.333842041015625,-5.890685932055115,-1.2579694325387478,0.32505627611652016
1772642829713887000,5.343886962890625,-7.4099857491225,-0.9706124071542173,0.1502816007517278
1772642829723931100,5.35393115234375,-9.020648091113566,-0.6490992104720323,0.30640476713851095
1772642829733975800,5.363975830078125,-10.412616828775406,-0.34959158243611455,0.5224311980850994
1772642829744021000,5.37402099609375,-11.519645173740386,-0.3293389949370175,0.578730885194987
1772642829754066000,5.38406591796875,-11.761026995217799,-0.30970088607445356,0.40408137057982385
1772642829764111000,5.394111083984375,-11.374922230029105,-0.3506471559036523,0.12634323741197584
1772642829774155000,5.404155029296875,-11.057468391740322,-0.3025935200209729,-0.04295271428078413
1772642829784200000,5.414199951171875,-11.146722546207904,-0.32309115005601197,-0.05188472021184861
1772642829794245000,5.4242451171875,-11.354665039420127,-0.12656771208392456,-0.031235096219182013
1772642829804290000,5.4342900390625,-11.43541440039277,-0.07773626022916287,0.06603723727017641
1772642829814334000,5.444333984375,-11.163782402080297,-0.2066884745631367,-0.07405190916061401
1772642829824379000,5.45437890625,-10.490369930541515,-0.4006178591877222,-0.31982042128965255
1772642829834424000,5.464424072265625,-9.488969951739907,-0.6617452684901655,-0.4032949694424867
1772642829844469000,5.474468994140625,-8.49407687061429,-0.7519605230748653,-0.40736718731746074
1772642829854514000,5.484513916015625,-7.574807478010654,-0.7711222465973347,-0.3485367396209389
1772642829864558000,5.49455810546875,-6.76073975059092,-0.738848235784471,-0.3652075231105089
1772642829874603000,5.50460302734375,-6.042923489180207,-0.6463773112274706,-0.5703323285534978
1772642829884648000,5.51464794921875,-5.401271014517546,-0.4319651470771059,-0.957618997003138
1772642829894692900,5.52469287109375,-4.537378056699037,-0.06966361107379197,-1.4717343482941387
1772642829904738000,5.534738037109375,-3.347812882822752,-0.020820048656128347,-1.6098855123996734
1772642829914782000,5.544781982421875,-2.18205645455718,-0.01055197181571275,-1.3678880432419478
1772642829924827000,5.554826904296875,-1.499559928330779,-0.16518212316576392,-0.5720574718456715
1772642829934871800,5.564871826171875,-1.185038051840663,-0.06741206928733735,0.43694070699997245
1772642829944917000,5.5749169921875,-1.04388127617836,0.14053615954592824,1.2763137752637266
1772642829954961200,5.584961181640625,-0.7049176168709993,0.04721665533557534,1.6821292030945418
1772642829965005800,5.595005859375,-0.17955518763959408,-0.2661708833623677,1.5438449141286312
1772642829975051000,5.605051025390625,0.8111269977927208,-0.32534269184246656,1.0751148380275815
1772642829985096000,5.615095947265625,2.1454531093031166,-0.345213148156181,0.815970053909719
1772642829995141000,5.62514111328125,3.487893553686142,-0.3755858553923666,0.6834937205702066
1772642830005184800,5.635184814453125,4.614209951967001,-0.22736301380135118,0.5964006896592676
1772642830015230000,5.64522998046875,5.49018614628911,0.06535356585495174,0.7529625397242605
1772642830025275000,5.65527490234375,6.298753522726893,0.3809242938108742,1.0859821959353984
1772642830035320000,5.665320068359375,7.031350004640221,0.5752573638655245,1.3880536100447176
1772642830045364700,5.67536474609375,7.7760297230571505,0.6611774054743349,1.614502066284418
1772642830055409000,5.685408935546875,8.52568956797421,0.611649623652175,1.6500152782142161
1772642830065454000,5.6954541015625,9.252931829378008,0.36945268639959394,1.4272881805852056
1772642830075499000,5.7054990234375,9.995207409262656,0.048329292752593754,0.9521450225714594
1772642830085544000,5.7155439453125,10.70269049270749,-0.1896047263585031,0.420803153604269
1772642830095588900,5.7255888671875,11.333699408280848,-0.24137626851946115,0.0046588586565107105
1772642830105633000,5.735633056640625,11.703487829440832,-0.11245397439971566,-0.1487026609972119
1772642830115678000,5.745677978515625,11.785935811024904,0.07019055755734444,-0.09042458648644387
1772642830125723000,5.755722900390625,11.743428210163115,0.2849056136444211,-0.1510091843739152
1772642830135768000,5.76576806640625,11.521156747347115,0.6137417005605995,-0.2965995585694909
1772642830145813000,5.77581298828125,11.070772109949589,1.0222392070822417,-0.519972114495188
1772642830155857000,5.78585693359375,10.521872153264283,1.4328336858831345,-0.9545398818187415
1772642830165901800,5.79590185546875,10.052842436629533,2.063891409034282,-1.0595283426433801
1772642830175947000,5.805947021484375,9.42559199680686,2.6033912308201193,-0.6928291196703911
1772642830185992000,5.815991943359375,8.8789564779222,2.908935727867484,-0.3646329015603289
1772642830196035800,5.826035888671875,8.27794230311811,3.1030747366547584,-0.45268323319610204
1772642830206081000,5.8360810546875,7.436652806773782,3.424824810832739,-0.7388200326032937
1772642830216126000,5.8461259765625,6.579018324828147,3.7166239833831787,-0.9872722308583557
1772642830226171100,5.856171142578125,5.823631334435939,3.633772097173333,-1.0337733583357185
1772642830236216000,5.866216064453125,5.493715489459038,2.8150936610877513,-0.6789149414125829
1772642830246260000,5.876260009765625,6.661366937690973,1.6053699346713721,-0.48144094298370177
1772642830256306000,5.886305908203125,9.070368107572197,0.923926716890186,-0.7630087174423038
1772642830266351000,5.89635107421875,10.42223104481697,0.38715091324076056,-0.9838997587505728
1772642830276395800,5.906395751953125,9.767939453333616,-0.1793406681060791,-0.6528320403248071
1772642830286441000,5.91644091796875,7.88727826718986,-0.6039787236981093,-0.09723490582210942
1772642830296484900,5.92648486328125,5.961635199025273,-0.6910555341266095,0.19976948895491659
1772642830306529800,5.93652978515625,4.580027696380019,0.09029664925783872,-0.0974963149709627
1772642830316574700,5.94657470703125,3.065032883030176,1.4200671432904899,-0.5863830804485828
1772642830326620000,5.956619873046875,0.8550544023245572,2.0161555521301926,-0.44578784765917806
1772642830336664000,5.9666640625,-1.1635709009200335,1.8796213217020035,0.25709519464429464
1772642830346708700,5.976708740234375,-2.294901327970624,1.1738501567415893,0.9137377697005867
1772642830356754000,5.98675390625,-3.0766900030761954,0.2737909299120307,1.3865100338645278
1772642830366798800,5.996798828125,-4.154159076079726,-0.20578962602727113,1.2732795221343636
1772642830376844000,6.006843994140625,-6.305647373893857,-0.009544365675747395,0.3781234841112047
1772642830386887700,6.0168876953125,-9.134361564055085,0.5964924961285665,-0.6023448388859629
1772642830396932900,6.026932861328125,-11.535892544186115,1.3574344537667928,-1.316923433549702
1772642830406977800,6.036977783203125,-12.618976534461975,1.7866044537000356,-1.6933549459859727
1772642830417023000,6.04702294921875,-12.252657835239171,1.714629643074423,-1.6499048035770654
1772642830427067600,6.057067626953125,-11.167494116079807,1.0872736970506607,-1.2255340206190943
1772642830437111800,6.06711181640625,-10.285911187791823,0.44848888677880167,-0.6511702445924281
1772642830447157000,6.077156982421875,-9.779280347037314,-0.039673888972937124,-0.030839228769391772
1772642830457202000,6.087201904296875,-9.574297872674464,-0.6815396638929844,0.44532311622425913
1772642830467246800,6.097246826171875,-9.90933880558014,-1.0150155394390226,0.6022240620505065
1772642830477290800,6.107290771484375,-10.748352173686026,-1.0056706418581307,0.35325193157456813
1772642830487336000,6.1173359375,-11.707250981366634,-0.720210682266578,-0.45567529115155336
1772642830497380900,6.127380859375,-12.928244728207588,-0.1736776191093959,-1.468955969621986
1772642830507425800,6.13742578125,-13.984713098758458,0.36281679204907263,-2.462583999247849
1772642830517470700,6.147470703125,-14.243238947260378,0.7233392626158893,-3.45753524030149
1772642830527515000,6.157514892578125,-13.64859781461954,0.6039476709727197,-3.6697599408775567
1772642830537560000,6.16756005859375,-12.209144856727123,0.4737508634051308,-2.7499545417010784
1772642830547604700,6.177604736328125,-10.567454339265822,0.5799094639876857,-1.8138500418916343
1772642830557650000,6.18764990234375,-9.259022547468543,0.4837010334027931,-1.0638820078082383
1772642830567694800,6.19769482421875,-8.167910733559728,0.46245103236418217,-0.4764040447950363
1772642830577738800,6.20773876953125,-7.281390933391451,0.6022242081809789,-0.2521840051945299
1772642830587784000,6.217783935546875,-6.541500202816724,0.6367809961687773,-0.06478752947002649
1772642830597828900,6.227828857421875,-5.958598023286461,0.620071634234488,0.13250190617218613
1772642830607873800,6.237873779296875,-5.4100031870275735,0.5827772379763424,0.43369887553453446
1772642830617917700,6.247917724609375,-4.706998125779628,0.43569677135348317,0.6964382500782609
1772642830627963000,6.257962890625,-3.7735289429098366,0.13908303812816739,0.6852335499748587
1772642830638007800,6.2680078125,-2.6070716728985306,0.04312894763052463,0.7228757367573678
1772642830648053000,6.278052978515625,-1.3987299023598432,0.026645941798016427,1.1801266066625713
1772642830658098000,6.288097900390625,-0.08373159165382385,-0.12347520769499241,1.8996620930813253
1772642830668141800,6.298141845703125,1.4366454992562532,-0.04007672045305371,2.3488589819990096
1772642830678187000,6.30818701171875,2.6087100877553224,-0.2099194193083793,2.186525416664779
1772642830688232000,6.31823193359375,3.199068428510427,-0.4349170922178775,1.3557627211622894
1772642830698276900,6.32827685546875,3.51169470051229,-0.5204143783699721,0.5641929490156471
1772642830708321800,6.33832177734375,3.8570588745117185,-0.4263454440318048,0.1895508042141795
1772642830718366000,6.348365966796875,4.106381425860524,-0.12309504927098751,0.34081089460924263
1772642830728411000,6.358410888671875,4.614590475717186,0.10948496852628886,0.672097881808877
1772642830738455800,6.368455810546875,5.1145928382426495,0.23329065028466284,0.8946626284830271
1772642830748500700,6.378500732421875,5.333486933580041,0.4364233320623636,0.9734202311165631
1772642830758545000,6.388544921875,5.549322225868702,0.6176972332533448,1.0031561748191713
1772642830768590000,6.398590087890625,5.574292416474223,0.7462606309328228,1.0598948378682136
1772642830778634800,6.408634765625,5.852232575020194,0.907701266015321,1.1232906207188964
1772642830788680000,6.418679931640625,6.54652533750236,1.0224866790372877,1.2119684366032482
1772642830798724900,6.428724853515625,7.604081503289938,1.0811490766905247,1.284664254979789
1772642830808769000,6.43876904296875,8.732825420978665,1.0645979740578682,1.3029117132015526
1772642830818813700,6.448813720703125,9.695480950844287,1.0490759952772408,1.278529551617056
1772642830828859000,6.45885888671875,10.335530081963539,1.1425840808622538,1.3288929805457592
1772642830838903800,6.46890380859375,10.661188269495963,1.2569871435031295,1.4638203602991997
1772642830848949000,6.478948974609375,10.77195867472291,1.3506642289794981,1.57167341677472
1772642830858993000,6.488992919921875,10.539700070899725,1.4993958238102494,1.685058826805651
1772642830869037800,6.499037841796875,10.056743535721301,1.6533803707331418,1.797571107263863
1772642830879083000,6.5090830078125,9.502730181545019,1.759803832796961,1.7655176803991197
1772642830889128000,6.5191279296875,8.989037147319316,1.9125490471832454,1.5131766580119728
1772642830899171800,6.529171875,8.515742758977412,2.161402519715577,1.2151377142891286
1772642830909216800,6.539216796875,8.147513842219114,2.414127426853776,1.1355972907148302
1772642830919262000,6.549261962890625,8.017907219097017,2.6516531574249265,1.2442448585689068
1772642830929307000,6.559306884765625,8.067489288389682,2.926198120574653,1.448859376402199
1772642830939351800,6.569351806640625,8.066836961960792,3.1707369447782634,1.6503703752622008
1772642830949396000,6.57939599609375,8.042133313336969,3.2831513178199527,1.7402154813602566
1772642830959441000,6.58944091796875,8.124546808129548,3.214780084644258,1.4959775397993624
1772642830969485800,6.59948583984375,8.27559310964346,3.0637095254719258,1.2022701955400406
1772642830979530800,6.60953076171875,8.373749532490969,2.8833693249344825,1.1872675644583999
1772642830989576000,6.619575927734375,8.271604332268238,2.6253742223083973,1.4682415377423166
1772642830999619800,6.629619873046875,8.19724028841853,2.1290027636311946,1.795821633248031
1772642831009664800,6.639664794921875,8.280922195711732,1.3745480856530368,1.9503011240810155
1772642831019710000,6.6497099609375,8.499920335945486,0.47487712748870253,1.7879072068616746
1772642831029755000,6.6597548828125,8.20525934422314,-0.1922336135573685,1.4258840128757058
1772642831039799000,6.669799072265625,6.588669950270653,-0.41475510561168194,1.047837758719176
1772642831049843700,6.67984375,3.7877462688326835,-0.633395226188004,0.6496200925409793
1772642831059889000,6.689888916015625,0.819194568914175,-0.8366106908783316,0.2402675766251981
1772642831069933800,6.699933837890625,-1.4478607207536696,-0.9155744836084544,-0.3790744281604886
1772642831079979000,6.70997900390625,-2.6489982590019703,-0.8234056107379496,-1.0861541915014385
1772642831090023000,6.72002294921875,-3.5574306157708167,-1.0758765431150794,-1.4669079510509966
1772642831100067800,6.73006787109375,-5.059514509621263,-1.100487545019388,-1.5944434669874608
1772642831110113000,6.740113037109375,-7.345539872696995,-0.626587884260714,-1.5023615417480467
1772642831120158000,6.750157958984375,-9.996744701832533,-0.17304777850694952,-1.2492678012974558
1772642831130203000,6.760202880859375,-12.106729607391356,0.13103183361962437,-1.2123629888787866
1772642831140246800,6.770246826171875,-13.03439624146223,0.3272270442843437,-1.29671066660434
1772642831150292000,6.7802919921875,-12.657428722453117,0.10741619942821562,-1.3238320438943803
1772642831160337000,6.7903369140625,-11.355511427116394,-0.6120384037740528,-1.13106549250409
1772642831170381800,6.8003818359375,-9.815511351847649,-1.5775146901488304,-0.9890218510046601
1772642831180426000,6.810426025390625,-9.0437700235039,-2.219540820429474,-1.1255880840063095
1772642831190471000,6.820470947265625,-9.582375380668044,-2.5067089721783993,-1.1712183469332753
1772642831200516000,6.83051611328125,-10.775188742685318,-2.5263717040255664,-1.374693339342624
1772642831210560800,6.840560791015625,-11.998680736082791,-2.2801646543487903,-1.7434253833174704
1772642831220606000,6.85060595703125,-13.002344568163156,-2.135266061809659,-2.016183463050425
1772642831230649900,6.86064990234375,-13.515858738690614,-1.8854609876409172,-2.2969271347098053
1772642831240694800,6.87069482421875,-13.832387863349913,-1.4198724975012242,-2.2196426733687518
1772642831250739700,6.88073974609375,-14.361190788424015,-1.0262801530361174,-1.7442184333913027
1772642831260783900,6.890783935546875,-15.072929191225766,-0.7847009092904627,-1.1680797566466032
1772642831270829000,6.9008291015625,-15.460381863892078,-0.7798647943709045,-0.7440392285563051
1772642831280873000,6.910873046875,-14.874965655714272,-0.9391142030194402,-0.7397520527563989
1772642831290918100,6.920918212890625,-13.305890292608737,-1.1137855641402303,-1.0852912910617887
1772642831300962800,6.930962890625,-11.078073957395553,-1.306452746809274,-1.3030430844962597
1772642831311008000,6.941008056640625,-8.761950393176079,-1.3631855646394193,-1.2101767308808862
1772642831321052200,6.95105224609375,-6.778076669839024,-1.4912924507230518,-0.988562270668894
1772642831331096800,6.961096923828125,-5.132044323781132,-1.5797054781913757,-0.8471541505940258
1772642831341142000,6.97114208984375,-3.8644256038874385,-1.6355258573517202,-0.5973287642896175
1772642831351187000,6.98118701171875,-3.0696903534471986,-1.6960510532021522,-0.3141445676103234
1772642831361232100,6.991232177734375,-2.3792162724703547,-1.636359970088303,-0.11967208908498286
1772642831371275800,7.00127587890625,-1.633450512382388,-1.5341536873281,0.18062325526252387
1772642831381321000,7.011321044921875,-0.7192454174309969,-1.4030465965151786,0.5846306107580661
1772642831391366000,7.021365966796875,0.2810503995209932,-1.2756563342683016,0.9253246009893715
1772642831401411000,7.0314111328125,1.2940572294861077,-1.203652151417732,1.1940692072972654
1772642831411455000,7.041455078125,2.0314087969720362,-1.194343494194001,1.375793117278069
1772642831421500000,7.0515,2.594070152506232,-1.073149237043038,1.475066999848187
1772642831431545000,7.061545166015625,3.0003625501990316,-0.9345444839511066,1.6716861350134014
1772642831441590000,7.071590087890625,3.6708155874103308,-0.7833419689621776,1.9791616001233456
1772642831451635000,7.081635009765625,4.9833536454826595,-1.041670833587274,2.108912892413139
1772642831461679000,7.09167919921875,6.737838767474889,-1.5024595952950417,1.5787306418098508
1772642831471724000,7.10172412109375,8.052886762541531,-1.6011379961900412,0.4900666594445705
1772642831481769000,7.11176904296875,8.391180559763312,-0.9815259422913193,-0.12362594127729534
1772642831491814000,7.12181396484375,7.209946576380729,-0.09762114692702889,0.016531886475533247
1772642831501859000,7.131859130859375,5.61269784271419,0.7837181087981909,0.4677691951796412
1772642831511903000,7.141903076171875,4.7274575609624385,1.4550725518286227,0.8483164723716675
1772642831521948200,7.1519482421875,4.5855093426615,1.897957627250999,1.134795618943125
1772642831531992800,7.161992919921875,4.889744802936911,2.1078410253979265,1.337631728927046
1772642831542038000,7.1720380859375,5.305264463180303,2.1332440544627604,1.4123080535963177
1772642831552082200,7.182082275390625,5.850120112910866,2.120938407380134,1.3985852331921458
1772642831562127000,7.192127197265625,6.59977118999958,2.12256323210299,1.3921195443093777
1772642831572172000,7.202172119140625,7.591631187039614,2.0608830209985376,1.391115335702896
1772642831582217000,7.212217041015625,8.811372887992858,1.962533559796959,1.428810860107839
1772642831592262100,7.22226220703125,10.012888027381896,1.7606901141121982,1.3100884729631244
1772642831602305800,7.232305908203125,10.824693070566653,1.5863932853922247,1.2362616047300397
1772642831612351000,7.24235107421875,11.172961733835935,1.6759759411618111,1.4671782924249768
1772642831622396000,7.25239599609375,11.158899306213856,1.7196407492347061,1.8224626796752212
1772642831632441000,7.262441162109375,11.03678800728321,1.650537548522651,1.9966388046249746
1772642831642486000,7.272486083984375,10.7725373513937,1.5959586938560009,1.925924515454471
1772642831652530000,7.282530029296875,10.303774176740646,1.5983376979470252,1.5898245750151574
1772642831662575000,7.2925751953125,9.593023031410574,1.5916218336954713,1.1236389957651496
1772642831672620000,7.3026201171875,8.896289890038966,1.5880986280053853,0.6762398039191961
1772642831682665200,7.312665283203125,8.284572534912824,1.5005124067500233,0.30398207003623245
1772642831692708900,7.322708984375,7.69342801221609,1.5239575797453522,0.23317396510243416
1772642831702754000,7.332754150390625,7.088783956477045,1.7150412926152347,0.33944705891013144
1772642831712799000,7.342799072265625,6.466447592180967,1.825182752288878,0.4729154720269143
1772642831722844000,7.352843994140625,6.0482350395917885,1.7990904257856308,0.5772809786476194
1772642831732888800,7.362888916015625,5.893124557378888,1.6213547086581588,0.6763171069391072
1772642831742933000,7.37293310546875,5.768774539610743,1.4123703051775693,0.808990131894499
1772642831752978200,7.382978271484375,5.363111087471246,1.2966039913594722,0.888975668887794
1772642831763022800,7.39302294921875,4.3346278714329,1.1616698896043003,0.8787021121546625
1772642831773068000,7.403068115234375,2.6900299420922993,0.6738268244933336,0.8387459493413567
1772642831783113000,7.413113037109375,2.1471862167060376,-0.8083169088080525,1.0619311660014092
1772642831793157000,7.4231572265625,5.822699022021889,-1.172582328762859,-0.34542569492831826
1772642831803201800,7.433201904296875,7.003283017063141,-0.2896490453118458,-1.9622056430168449
1772642831813247000,7.4432470703125,2.4966134023606776,0.4154182456955313,-0.753732793444395
1772642831823292000,7.4532919921875,-2.5892858408391475,0.2996923369530588,1.2425960684485733
1772642831833336000,7.463336181640625,-4.591808150544763,0.8075870601635425,1.0150542640142142
1772642831843381000,7.473381103515625,-4.208955080628395,1.6456163126029073,-0.5196576417185366
1772642831853426000,7.483426025390625,-4.499603914099931,1.3848043989904224,-1.397878984618932
1772642831863471000,7.49347119140625,-5.487841628989577,1.0369823104448617,-1.3472021058268844
1772642831873516000,7.50351611328125,-6.008035715672373,1.2544697538547218,-1.2674984545148908
1772642831883560000,7.513559814453125,-6.227405611827969,1.6210034110024572,-1.3403076701380312
1772642831893605000,7.523605224609375,-6.496436487731337,1.7403361851304768,-1.3956798671394586
1772642831903650000,7.533650146484375,-6.373132179623842,1.5543426350064575,-1.4031151317067443
1772642831913695000,7.543695068359375,-5.51834782641232,1.3161157704286277,-1.2133999307110905
1772642831923739000,7.55373876953125,-3.921961262533068,0.9429279160887002,-0.7975517691656947
1772642831933784000,7.5637841796875,-2.1103122378170487,0.6375150825969874,-0.5630740279883146
1772642831943829000,7.5738291015625,-1.1502771195828914,0.8348463115543127,-0.37207477853149173
1772642831953874200,7.583874267578125,-1.7471505413204431,1.5129491328664124,-0.04447700123861432
1772642831963918800,7.5939189453125,-3.2906641776680945,2.396324497529119,0.11432780544757842
1772642831973963000,7.603962890625,-5.00358803973794,3.156621325664222,0.14641104292869567
1772642831984008200,7.61400830078125,-6.650390785646438,3.5910268881633876,0.07377674548104406
1772642831994052900,7.624052978515625,-7.665393757864832,3.7726696957319974,-0.10277677612453698
1772642832004098000,7.63409814453125,-7.995619983965158,3.488848077932,-0.3909256094738841
1772642832014143000,7.64414306640625,-7.686842204084992,2.9604332753926514,-0.8331582123368978
1772642832024187100,7.654187255859375,-6.71952335858345,2.3871698618233204,-0.933076530290395
1772642832034231800,7.664231689453125,-5.494982148393988,1.9023571773841976,-0.7111728778734803
1772642832044277000,7.674277099609375,-4.434850579160452,1.6782696050569414,-0.3907324249893427
1772642832054322000,7.684322021484375,-3.517197389581799,1.5921896967113016,0.000836158563196659
1772642832064366000,7.694365966796875,-2.832259899944067,1.3886781716838479,0.41229061519429083
1772642832074411000,7.704410888671875,-2.4929484501123427,1.2701812638580798,0.6388154976710677
1772642832084456000,7.7144560546875,-2.365769930920005,1.1049836873948573,0.5497158031128346
1772642832094501000,7.724501220703125,-2.0771458812743426,0.8710650414049624,0.4334551299065351
1772642832104546000,7.734546142578125,-1.7153455362588166,0.6601923399597406,0.3063862085685134
1772642832114590000,7.74458984375,-1.2883271614015102,0.4116381426349282,0.12501754176616667
1772642832124635000,7.754634765625,-0.8969815729498862,0.21440759757310152,-0.039045623839646576
1772642832134680000,7.76468017578125,-0.7473954071164131,0.0963297919422388,-0.08131810077130794
1772642832144725000,7.77472509765625,-0.6446867277920246,0.003711713999509811,0.0046384734556078906
1772642832154770000,7.78477001953125,-0.7605641007691621,-0.18927227953374384,-0.0033626083008944986
1772642832164814000,7.79481396484375,-0.9017407501757144,-0.3055594023555517,-0.132158061170578
1772642832174859000,7.80485888671875,-0.9657546649247407,-0.36323388494998216,-0.25420959273800253
1772642832184904200,7.814904296875,-0.703215489128232,-0.4871852587893605,-0.21625497900545596
1772642832194948900,7.824948974609375,-0.1613105058968067,-0.5585118346393108,0.013611907375603914
1772642832204993000,7.834992919921875,0.09791618435084819,-0.5177092841297388,0.11389306729212402
1772642832215038000,7.845037841796875,-0.6347019248723983,-0.3664800272643566,-0.10275222620517015
1772642832225083100,7.855083251953125,-1.0489245310425759,-0.21240151844769714,-0.21166852799803018
1772642832235127800,7.8651279296875,-1.0580635307878254,-0.16205577130615711,-0.22031419126838445
1772642832245173000,7.875173095703125,-1.1473720457911492,-0.11531798552870749,-0.27525238076671954
1772642832255217700,7.8852177734375,-1.3101643146783113,-0.03422463342398405,-0.24161416892856358
1772642832265262600,7.8952626953125,-1.663783106803894,0.03750876966118812,-0.24654957950413225
1772642832275307800,7.905307861328125,-2.030844148826599,0.18540216010212898,-0.19597747626081108
