time,seconds_elapsed,z,y,x
1772642824425304000,0.055303955078125,-0.834503173828125,-0.263641357421875,-0.105194091796875
1772642824435349000,0.065348876953125,-0.813690185546875,-0.2631988525390625,-0.103363037109375
1772642824445393000,0.075392822265625,-0.7979278564453125,-0.2640838623046875,-0.10235595703125
1772642824455437800,0.085437744140625,-0.8013763427734375,-0.2615509033203125,-0.1085205078125
1772642824465483000,0.09548291015625,-0.8198394775390625,-0.253143310546875,-0.1095733642578125
1772642824475527700,0.105527587890625,-0.8220672607421875,-0.243194580078125,-0.11444091796875
1772642824485572900,0.11557275390625,-0.8123016357421875,-0.240997314453125,-0.1150054931640625
1772642824495617000,0.125616943359375,-0.807830810546875,-0.2374420166015625,-0.1101837158203125
1772642824505662000,0.135661865234375,-0.803070068359375,-0.2322540283203125,-0.10028076171875
1772642824515707000,0.145706787109375,-0.80181884765625,-0.2335357666015625,-0.0816497802734375
1772642824525751800,0.155751708984375,-0.8012847900390625,-0.2376251220703125,-0.0562286376953125
1772642824535797000,0.165796875,-0.7925567626953125,-0.227752685546875,-0.044219970703125
1772642824545841000,0.1758408203125,-0.7759246826171875,-0.188568115234375,-0.05535888671875
1772642824555885800,0.1858857421875,-0.7766571044921875,-0.1468048095703125,-0.058685302734375
1772642824565930800,0.1959306640625,-0.7660369873046875,-0.1045074462890625,-0.055572509765625
1772642824575976000,0.205975830078125,-0.732452392578125,-0.06591796875,-0.05078125
1772642824586019800,0.216019775390625,-0.69036865234375,-0.0475006103515625,-0.03387451171875
1772642824596064800,0.226064697265625,-0.63165283203125,-0.04364013671875,-0.0173797607421875
1772642824606110000,0.23610986328125,-0.5803680419921875,-0.0509796142578125,-0.0163726806640625
1772642824616155000,0.24615478515625,-0.5609283447265625,-0.07470703125,-0.025177001953125
1772642824626200000,0.256199951171875,-0.558685302734375,-0.0928192138671875,-0.0330352783203125
1772642824636243700,0.26624365234375,-0.5688934326171875,-0.107513427734375,-0.0318145751953125
1772642824646289000,0.276288818359375,-0.60491943359375,-0.1237640380859375,-0.0288848876953125
1772642824656333800,0.286333740234375,-0.681915283203125,-0.1323394775390625,-0.0372314453125
1772642824666379000,0.29637890625,-0.7795562744140625,-0.1265869140625,-0.0722198486328125
1772642824676423700,0.306423583984375,-0.867828369140625,-0.1248779296875,-0.105072021484375
1772642824686467800,0.3164677734375,-0.9622802734375,-0.1518707275390625,-0.1136474609375
1772642824696513000,0.326512939453125,-1.0770721435546875,-0.196319580078125,-0.10455322265625
1772642824706558000,0.336557861328125,-1.1927490234375,-0.214599609375,-0.074462890625
1772642824716603000,0.346602783203125,-1.2618560791015625,-0.18426513671875,-0.064727783203125
1772642824726647800,0.356647705078125,-1.327117919921875,-0.138214111328125,-0.072662353515625
1772642824736692000,0.36669189453125,-1.4270172119140625,-0.0825653076171875,-0.1140289306640625
1772642824746736600,0.376736572265625,-1.6632843017578125,-0.086151123046875,-0.2684173583984375
1772642824756781800,0.38678173828125,-1.8308563232421875,-0.0425567626953125,-0.3500823974609375
1772642824766826800,0.39682666015625,-1.9746856689453125,-0.0186614990234375,-0.3379669189453125
1772642824776872000,0.406871826171875,-2.0673065185546875,-0.0411834716796875,-0.29034423828125
1772642824786915800,0.416915771484375,-2.0504608154296875,-0.0975341796875,-0.22564697265625
1772642824796960800,0.426960693359375,-1.8911285400390625,-0.1668548583984375,-0.1698150634765625
1772642824807006000,0.437005859375,-1.714752197265625,-0.2496337890625,-0.117950439453125
1772642824817051000,0.44705078125,-1.5835113525390625,-0.35186767578125,-0.09185791015625
1772642824827096000,0.457095947265625,-1.4575042724609375,-0.4135284423828125,-0.087005615234375
1772642824837140000,0.467139892578125,-1.375579833984375,-0.4599151611328125,-0.06707763671875
1772642824847185000,0.477184814453125,-1.3495941162109375,-0.4833984375,-0.0288848876953125
1772642824857229800,0.487229736328125,-1.324920654296875,-0.4821319580078125,-0.015594482421875
1772642824867274800,0.497274658203125,-1.2833251953125,-0.4746551513671875,-0.0177459716796875
1772642824877320000,0.50731982421875,-1.1999053955078125,-0.4629974365234375,0.0180511474609375
1772642824887363800,0.51736376953125,-1.1056365966796875,-0.46746826171875,0.080230712890625
1772642824897409000,0.527408935546875,-1.07135009765625,-0.4853668212890625,0.09716796875
1772642824907453700,0.53745361328125,-1.063018798828125,-0.4619598388671875,0.029937744140625
1772642824917499000,0.547498779296875,-1.060821533203125,-0.43963623046875,-0.0671539306640625
1772642824927543800,0.557543701171875,-1.0782623291015625,-0.410736083984375,-0.100738525390625
1772642824937588000,0.567587890625,-1.1081085205078125,-0.3394317626953125,-0.05523681640625
1772642824947633000,0.5776328125,-1.143341064453125,-0.2850341796875,0.01568603515625
1772642824957677800,0.587677734375,-1.16754150390625,-0.2267608642578125,0.0389251708984375
1772642824967723000,0.597722900390625,-1.180206298828125,-0.1546173095703125,0.0286407470703125
1772642824977767000,0.607766845703125,-1.1831512451171875,-0.08880615234375,0.01812744140625
1772642824987811800,0.617811767578125,-1.1597137451171875,-0.043365478515625,0.0030517578125
1772642824997856800,0.627856689453125,-1.0880889892578125,-0.00018310546875,-0.0027008056640625
1772642825007902000,0.63790185546875,-0.971923828125,0.01849365234375,-0.01019287109375
1772642825017947000,0.64794677734375,-0.838775634765625,0.0107269287109375,-0.0245819091796875
1772642825027990800,0.65799072265625,-0.7028961181640625,0.0004730224609375,-0.0350494384765625
1772642825038036000,0.668035888671875,-0.58148193359375,-0.0064697265625,-0.042144775390625
1772642825048081000,0.678080810546875,-0.48052978515625,-0.0179901123046875,-0.0562591552734375
1772642825058126000,0.6881259765625,-0.3900299072265625,-0.0368194580078125,-0.0735626220703125
1772642825068170800,0.698170654296875,-0.3116607666015625,-0.059906005859375,-0.075225830078125
1772642825078215000,0.70821484375,-0.22576904296875,-0.0774993896484375,-0.04449462890625
1772642825088259800,0.718259765625,-0.1171875,-0.0806121826171875,-0.0014801025390625
1772642825098305000,0.728304931640625,-0.0146484375,-0.0803680419921875,0.026397705078125
1772642825108349700,0.738349609375,0.0793304443359375,-0.074432373046875,0.036468505859375
1772642825118395000,0.748394775390625,0.147735595703125,-0.062408447265625,0.0288238525390625
1772642825128439000,0.75843896484375,0.1700592041015625,-0.04510498046875,0.00750732421875
1772642825138483700,0.768483642578125,0.139678955078125,-0.0254974365234375,-0.014892578125
1772642825148529000,0.77852880859375,0.0631256103515625,-0.00933837890625,-0.0170135498046875
1772642825158573800,0.78857373046875,-0.0331573486328125,0.0042266845703125,0.0022735595703125
1772642825168619000,0.798618896484375,-0.1284942626953125,0.0063323974609375,0.0223236083984375
1772642825178662700,0.80866259765625,-0.2037200927734375,0.0068511962890625,0.033935546875
1772642825188707800,0.818707763671875,-0.257049560546875,0.01361083984375,0.025604248046875
1772642825198752800,0.828752685546875,-0.3004913330078125,0.0225830078125,0.00506591796875
1772642825208798000,0.8387978515625,-0.3672637939453125,0.0322265625,-0.0259246826171875
1772642825218841900,0.848841796875,-0.4727020263671875,0.047821044921875,-0.0361785888671875
1772642825228886800,0.85888671875,-0.598175048828125,0.0292816162109375,-0.0138397216796875
1772642825238932000,0.868931884765625,-0.703460693359375,-0.016387939453125,0.0202789306640625
1772642825248977200,0.87897705078125,-0.7330780029296875,-0.0634918212890625,0.0374908447265625
1772642825259022000,0.88902197265625,-0.7108917236328125,-0.104583740234375,0.025726318359375
1772642825269066000,0.89906591796875,-0.706146240234375,-0.1557464599609375,-0.00146484375
1772642825279111200,0.909111083984375,-0.7451324462890625,-0.1595611572265625,-0.027313232421875
1772642825289156000,0.919156005859375,-0.832427978515625,-0.1294708251953125,-0.025634765625
1772642825299201000,0.929200927734375,-0.9904937744140625,-0.1103057861328125,0.014404296875
1772642825309246000,0.939245849609375,-1.2010345458984375,-0.1033172607421875,0.10076904296875
1772642825319290000,0.9492900390625,-1.3624267578125,-0.092681884765625,0.187896728515625
1772642825329335000,0.9593349609375,-1.444915771484375,-0.07568359375,0.2135467529296875
1772642825339380000,0.9693798828125,-1.4883270263671875,-0.0611724853515625,0.13348388671875
1772642825349425200,0.979425048828125,-1.544586181640625,-0.037384033203125,-0.004302978515625
1772642825359470000,0.989469970703125,-1.655975341796875,-0.0205535888671875,-0.1206207275390625
1772642825369514000,0.999513916015625,-1.8095550537109375,-0.0233612060546875,-0.1709747314453125
1772642825379559200,1.00955908203125,-1.92034912109375,-0.024627685546875,-0.1916656494140625
1772642825389604000,1.01960400390625,-1.9493560791015625,-0.05963134765625,-0.1939849853515625
1772642825399649000,1.02964892578125,-1.894500732421875,-0.09674072265625,-0.175689697265625
1772642825409694200,1.039694091796875,-1.82562255859375,-0.119476318359375,-0.1551666259765625
1772642825419738000,1.049738037109375,-1.7875213623046875,-0.152862548828125,-0.1495208740234375
1772642825429783000,1.059782958984375,-1.80328369140625,-0.1806182861328125,-0.1351470947265625
1772642825439828200,1.069828125,-1.8411102294921875,-0.203948974609375,-0.126556396484375
1772642825449873000,1.079872802734375,-1.863037109375,-0.21832275390625,-0.1341094970703125
1772642825459917000,1.0899169921875,-1.85284423828125,-0.2206268310546875,-0.165130615234375
1772642825469962200,1.099962158203125,-1.85894775390625,-0.209014892578125,-0.220733642578125
1772642825480007200,1.110007080078125,-1.897491455078125,-0.1952362060546875,-0.2574615478515625
1772642825490052000,1.120052001953125,-1.94097900390625,-0.1490478515625,-0.27490234375
1772642825500097000,1.130096923828125,-1.9743499755859375,-0.1029510498046875,-0.267913818359375
1772642825510141200,1.14014111328125,-1.987884521484375,-0.0688323974609375,-0.248748779296875
1772642825520186000,1.15018603515625,-1.9851226806640625,-0.0502166748046875,-0.231719970703125
1772642825530231000,1.16023095703125,-1.93646240234375,-0.0558624267578125,-0.21630859375
1772642825540276000,1.17027587890625,-1.8249664306640625,-0.068572998046875,-0.2126007080078125
1772642825550321200,1.180321044921875,-1.684478759765625,-0.0865325927734375,-0.2090606689453125
1772642825560365300,1.190365234375,-1.529327392578125,-0.1037750244140625,-0.1898193359375
1772642825570410000,1.200409912109375,-1.3621978759765625,-0.115753173828125,-0.154327392578125
1772642825580455200,1.210455078125,-1.178009033203125,-0.1225128173828125,-0.10003662109375
1772642825590500000,1.2205,-1.0005950927734375,-0.1519775390625,-0.0406951904296875
1772642825600545300,1.230545166015625,-0.8253173828125,-0.1733551025390625,-0.013519287109375
1772642825610589000,1.2405888671875,-0.65618896484375,-0.162200927734375,-0.02093505859375
1772642825620634000,1.250634033203125,-0.509918212890625,-0.1274566650390625,-0.0416717529296875
1772642825630679000,1.260678955078125,-0.3936004638671875,-0.0890350341796875,-0.0665283203125
1772642825640724200,1.27072412109375,-0.3197784423828125,-0.05194091796875,-0.1080322265625
1772642825650769000,1.280768798828125,-0.3096466064453125,-0.005584716796875,-0.1521453857421875
1772642825660813000,1.29081298828125,-0.3652191162109375,0.0426177978515625,-0.1782989501953125
1772642825670858200,1.300858154296875,-0.4386138916015625,0.0764312744140625,-0.1877593994140625
1772642825680903200,1.310903076171875,-0.5191650390625,0.087799072265625,-0.1912841796875
1772642825690948000,1.320947998046875,-0.625640869140625,0.0995635986328125,-0.20733642578125
1772642825700993000,1.330992919921875,-0.71112060546875,0.1153717041015625,-0.233978271484375
1772642825711037200,1.341037109375,-0.7366943359375,0.125,-0.2646942138671875
1772642825721081900,1.351081787109375,-0.7108612060546875,0.1219635009765625,-0.2901611328125
1772642825731127000,1.361126953125,-0.6470947265625,0.106536865234375,-0.28704833984375
1772642825741172000,1.371171875,-0.569793701171875,0.086456298828125,-0.2589263916015625
1772642825751216000,1.381216064453125,-0.5104827880859375,0.0682830810546875,-0.2179412841796875
1772642825761261000,1.391260986328125,-0.462249755859375,0.05792236328125,-0.1895904541015625
1772642825771306000,1.401305908203125,-0.4177703857421875,0.0505828857421875,-0.1690673828125
1772642825781351200,1.41135107421875,-0.36505126953125,0.0489501953125,-0.142913818359375
1772642825791396000,1.42139599609375,-0.310791015625,0.0412750244140625,-0.116973876953125
1772642825801440000,1.43143994140625,-0.262664794921875,0.034423828125,-0.1021881103515625
1772642825811485000,1.44148486328125,-0.2263336181640625,0.0257415771484375,-0.103973388671875
1772642825821530000,1.451530029296875,-0.2171630859375,0.0213775634765625,-0.1058502197265625
1772642825831575000,1.461574951171875,-0.225341796875,0.0198516845703125,-0.105194091796875
1772642825841620000,1.471619873046875,-0.2580108642578125,0.0221099853515625,-0.1020355224609375
1772642825851664100,1.4816640625,-0.30242919921875,0.040069580078125,-0.08837890625
1772642825861709000,1.491708984375,-0.33526611328125,0.0583953857421875,-0.068572998046875
1772642825871754200,1.501754150390625,-0.3508148193359375,0.07476806640625,-0.05291748046875
1772642825881799000,1.511798828125,-0.3632049560546875,0.08856201171875,-0.051025390625
1772642825891844000,1.521843994140625,-0.37298583984375,0.115875244140625,-0.05670166015625
1772642825901888300,1.53188818359375,-0.4172210693359375,0.14300537109375,-0.057708740234375
1772642825911933200,1.54193310546875,-0.5219268798828125,0.16766357421875,-0.05157470703125
1772642825921978000,1.55197802734375,-0.6555328369140625,0.1544342041015625,-0.03662109375
1772642825932023000,1.56202294921875,-0.7281341552734375,0.1541748046875,-0.068389892578125
1772642825942067200,1.572067138671875,-0.7156982421875,0.180694580078125,-0.1186065673828125
1772642825952112000,1.582112060546875,-0.6629180908203125,0.1603240966796875,-0.1509246826171875
1772642825962157000,1.592156982421875,-0.6351318359375,0.1137847900390625,-0.1665496826171875
1772642825972202000,1.602201904296875,-0.6652984619140625,0.0987396240234375,-0.1879119873046875
1772642825982247200,1.6122470703125,-0.8062591552734375,0.1136474609375,-0.2137908935546875
1772642825992291000,1.622291015625,-1.050384521484375,0.1274261474609375,-0.203094482421875
1772642826002336000,1.6323359375,-1.252532958984375,0.1591796875,-0.171661376953125
1772642826012381200,1.642381103515625,-1.3311004638671875,0.187408447265625,-0.1390228271484375
1772642826022426000,1.652426025390625,-1.2938385009765625,0.166656494140625,-0.077178955078125
1772642826032471300,1.66247119140625,-1.2236328125,0.1039886474609375,-0.0426177978515625
1772642826042515000,1.672514892578125,-1.218109130859375,0.051544189453125,-0.063720703125
1772642826052560100,1.68256005859375,-1.3048858642578125,0.0390625,-0.0988006591796875
1772642826062605000,1.69260498046875,-1.468658447265625,0.033233642578125,-0.106964111328125
1772642826072650200,1.702650146484375,-1.6179046630859375,0.0187225341796875,-0.126373291015625
1772642826082695000,1.71269482421875,-1.69708251953125,0.0132904052734375,-0.1508941650390625
1772642826092739000,1.722739013671875,-1.6912384033203125,0.000396728515625,-0.153472900390625
1772642826102784300,1.7327841796875,-1.6085357666015625,-0.0393524169921875,-0.146270751953125
1772642826112829000,1.742828857421875,-1.4926910400390625,-0.0778045654296875,-0.1486358642578125
1772642826122874000,1.7528740234375,-1.4263153076171875,-0.1112060546875,-0.1649169921875
1772642826132919000,1.7629189453125,-1.433074951171875,-0.12298583984375,-0.193267822265625
1772642826142963200,1.772963134765625,-1.5160369873046875,-0.092559814453125,-0.2265625
1772642826153007900,1.7830078125,-1.6706390380859375,-0.0494537353515625,-0.2597808837890625
1772642826163053000,1.793052978515625,-1.8619537353515625,-0.013031005859375,-0.3009033203125
1772642826173098000,1.803097900390625,-2.0260467529296875,0.032684326171875,-0.37841796875
1772642826183142100,1.81314208984375,-2.1330108642578125,0.114410400390625,-0.479278564453125
1772642826193187000,1.82318701171875,-2.2056884765625,0.192840576171875,-0.5537109375
1772642826203232000,1.83323193359375,-2.2069549560546875,0.2492218017578125,-0.5574493408203125
1772642826213277200,1.843277099609375,-2.145172119140625,0.253631591796875,-0.4822235107421875
1772642826223322000,1.853322021484375,-2.006134033203125,0.23931884765625,-0.3805084228515625
1772642826233366000,1.863365966796875,-1.8406219482421875,0.2221832275390625,-0.3008575439453125
1772642826243411000,1.873410888671875,-1.68536376953125,0.1749267578125,-0.228851318359375
1772642826253457400,1.88345751953125,-1.536346435546875,0.13140869140625,-0.17724609375
1772642826263502300,1.89350244140625,-1.4072113037109375,0.08660888671875,-0.1439056396484375
1772642826273547500,1.903547607421875,-1.2868499755859375,0.0482025146484375,-0.1113128662109375
1772642826283591200,1.913591064453125,-1.1670074462890625,0.0198516845703125,-0.0660858154296875
1772642826293636400,1.92363623046875,-1.0595550537109375,-0.001251220703125,-0.015411376953125
1772642826303681300,1.933681396484375,-0.978668212890625,-0.0305938720703125,0.0264434814453125
1772642826313726500,1.9437265625,-0.9049224853515625,-0.062042236328125,0.0537109375
1772642826323771100,1.953771240234375,-0.826416015625,-0.0767669677734375,0.0671539306640625
1772642826333815300,1.963815185546875,-0.7791748046875,-0.095306396484375,0.0410919189453125
1772642826343860500,1.973860595703125,-0.755615234375,-0.1083984375,-0.0247955322265625
1772642826353905400,1.983905517578125,-0.7492218017578125,-0.1066436767578125,-0.0965118408203125
1772642826363950300,1.993950439453125,-0.7472381591796875,-0.0885009765625,-0.122650146484375
1772642826373995300,2.003995361328125,-0.749053955078125,-0.0546112060546875,-0.1038665771484375
1772642826384039400,2.014039306640625,-0.7808990478515625,-0.0241241455078125,-0.0576019287109375
1772642826394084000,2.024083984375,-0.8251495361328125,0.015716552734375,0.0109405517578125
1772642826404129300,2.03412939453125,-0.8589630126953125,0.0502471923828125,0.075439453125
1772642826414174200,2.04417431640625,-0.866485595703125,0.080718994140625,0.10986328125
1772642826424218400,2.05421826171875,-0.8470306396484375,0.1031646728515625,0.122467041015625
1772642826434263300,2.06426318359375,-0.7892608642578125,0.1164093017578125,0.1210479736328125
1772642826444308200,2.07430810546875,-0.7040863037109375,0.1195526123046875,0.1075897216796875
1772642826454353400,2.084353515625,-0.5994415283203125,0.1127166748046875,0.0763702392578125
1772642826464398300,2.0943984375,-0.49407958984375,0.0955810546875,0.0218658447265625
1772642826474442200,2.104442138671875,-0.3946990966796875,0.076171875,-0.0388031005859375
1772642826484487200,2.114487060546875,-0.309814453125,0.0621490478515625,-0.0887603759765625
1772642826494532400,2.124532470703125,-0.2380828857421875,0.0608673095703125,-0.1097869873046875
1772642826504577300,2.134577392578125,-0.185211181640625,0.06048583984375,-0.1074676513671875
1772642826514622500,2.14462255859375,-0.1462860107421875,0.0610809326171875,-0.0957794189453125
1772642826524666400,2.154666259765625,-0.1212158203125,0.0694427490234375,-0.0691680908203125
1772642826534711300,2.164711181640625,-0.1013336181640625,0.083526611328125,-0.0456695556640625
1772642826544756500,2.174756591796875,-0.0891571044921875,0.0948028564453125,-0.0313873291015625
1772642826554801200,2.18480126953125,-0.0780029296875,0.0959014892578125,-0.037384033203125
1772642826564846300,2.194846435546875,-0.07952880859375,0.09051513671875,-0.053955078125
1772642826574890500,2.204890380859375,-0.1043701171875,0.0858154296875,-0.0682220458984375
1772642826584935400,2.214935302734375,-0.1543731689453125,0.08489990234375,-0.0826873779296875
1772642826594980400,2.22498046875,-0.232513427734375,0.081787109375,-0.0879364013671875
1772642826605025300,2.235025390625,-0.3115997314453125,0.07720947265625,-0.07635498046875
1772642826615070500,2.245070556640625,-0.363037109375,0.0728759765625,-0.0775299072265625
1772642826625114400,2.2551142578125,-0.4122467041015625,0.0603179931640625,-0.09027099609375
1772642826635159300,2.2651591796875,-0.47125244140625,0.050445556640625,-0.0995941162109375
1772642826645204200,2.275204345703125,-0.5354156494140625,0.0472869873046875,-0.103302001953125
1772642826655249400,2.28524951171875,-0.6393585205078125,0.0525970458984375,-0.0986175537109375
1772642826665293300,2.295293212890625,-0.8274078369140625,0.049652099609375,-0.0670013427734375
1772642826675338200,2.305338134765625,-1.0197601318359375,0.02911376953125,0.00164794921875
1772642826685383400,2.315383544921875,-1.0626068115234375,-0.0221099853515625,0.0548095703125
1772642826695428400,2.325428466796875,-0.9241943359375,-0.0753631591796875,0.0477447509765625
1772642826705473500,2.3354736328125,-0.7458038330078125,-0.087860107421875,-0.013214111328125
1772642826715517200,2.34551708984375,-0.711761474609375,-0.1087646484375,-0.02252197265625
1772642826725562400,2.355562255859375,-0.8608551025390625,-0.1132354736328125,0.0394287109375
1772642826735607300,2.365607177734375,-1.1335601806640625,-0.0805206298828125,0.11370849609375
1772642826745652500,2.375652587890625,-1.4031982421875,-0.0737152099609375,0.1610107421875
1772642826755697200,2.385697265625,-1.55902099609375,-0.0740509033203125,0.164337158203125
1772642826765741300,2.3957412109375,-1.59295654296875,-0.1007843017578125,0.119781494140625
1772642826775786500,2.405786376953125,-1.5350494384765625,-0.1569061279296875,0.080657958984375
1772642826785831200,2.4158310546875,-1.475433349609375,-0.2189178466796875,0.0916290283203125
1772642826795876400,2.42587646484375,-1.4450225830078125,-0.2696075439453125,0.128082275390625
1772642826805921300,2.43592138671875,-1.4338226318359375,-0.2851409912109375,0.161285400390625
1772642826815965400,2.44596533203125,-1.4511871337890625,-0.2942962646484375,0.1986083984375
1772642826826010000,2.456010009765625,-1.4733428955078125,-0.3040618896484375,0.2545928955078125
1772642826836055300,2.46605517578125,-1.4820709228515625,-0.314483642578125,0.2990264892578125
1772642826846100200,2.476100341796875,-1.52508544921875,-0.3032989501953125,0.3003082275390625
1772642826856144400,2.486144287109375,-1.6272125244140625,-0.259033203125,0.2559661865234375
1772642826866189300,2.496189208984375,-1.8117218017578125,-0.206085205078125,0.189422607421875
1772642826876234200,2.506234130859375,-2.0382537841796875,-0.1488494873046875,0.110198974609375
1772642826886279400,2.516279541015625,-2.22735595703125,-0.1014556884765625,0.0501251220703125
1772642826896324400,2.526324462890625,-2.298370361328125,-0.088623046875,0.0235748291015625
1772642826906368300,2.5363681640625,-2.2354736328125,-0.100067138671875,0.0059661865234375
1772642826916413200,2.5464130859375,-2.1019744873046875,-0.1097564697265625,-0.0127410888671875
1772642826926458400,2.556458251953125,-1.9510345458984375,-0.108917236328125,-0.0356903076171875
1772642826936503300,2.56650341796875,-1.8270721435546875,-0.100860595703125,-0.04986572265625
1772642826946548200,2.57654833984375,-1.7466278076171875,-0.0893402099609375,-0.031585693359375
1772642826956592400,2.58659228515625,-1.6754913330078125,-0.0823211669921875,0.0183868408203125
1772642826966637300,2.59663720703125,-1.570037841796875,-0.061920166015625,0.0618896484375
1772642826976682500,2.6066826171875,-1.46240234375,-0.0439300537109375,0.1007843017578125
1772642826986727200,2.61672705078125,-1.359527587890625,-0.038360595703125,0.14288330078125
1772642826996772400,2.6267724609375,-1.240264892578125,-0.032562255859375,0.165374755859375
1772642827006816500,2.63681640625,-1.112548828125,-0.0264129638671875,0.161834716796875
1772642827016861400,2.646861328125,-0.9824981689453125,-0.0181121826171875,0.137054443359375
1772642827026906400,2.65690625,-0.8636322021484375,-0.01812744140625,0.101715087890625
1772642827036951300,2.666951416015625,-0.74359130859375,-0.0263824462890625,0.0626983642578125
1772642827046996500,2.67699658203125,-0.6243743896484375,-0.0336456298828125,0.0194091796875
1772642827057040100,2.6870400390625,-0.499420166015625,-0.03814697265625,-0.03173828125
1772642827067085300,2.697085205078125,-0.4169769287109375,-0.045684814453125,-0.109130859375
1772642827077130200,2.707130126953125,-0.4405364990234375,-0.0479583740234375,-0.1877899169921875
1772642827087175400,2.717175537109375,-0.52655029296875,-0.0450592041015625,-0.256072998046875
1772642827097220400,2.727220458984375,-0.6052703857421875,-0.0184173583984375,-0.279052734375
1772642827107264300,2.73726416015625,-0.6676788330078125,0.0021820068359375,-0.256561279296875
1772642827117309400,2.747309326171875,-0.7047576904296875,0.0312957763671875,-0.1924285888671875
1772642827127354400,2.757354248046875,-0.70416259765625,0.068939208984375,-0.097930908203125
1772642827137399600,2.767399658203125,-0.70745849609375,0.092864990234375,-0.0079803466796875
1772642827147443200,2.777443115234375,-0.69891357421875,0.1194610595703125,0.0623626708984375
1772642827157488400,2.78748828125,-0.645416259765625,0.127655029296875,0.1002044677734375
1772642827167533300,2.797533203125,-0.5556182861328125,0.102508544921875,0.1081390380859375
1772642827177578500,2.80757861328125,-0.4597015380859375,0.0633544921875,0.0832366943359375
1772642827187623200,2.817623046875,-0.395843505859375,0.0261688232421875,0.02685546875
1772642827197667300,2.827667236328125,-0.3703155517578125,-0.005126953125,-0.0336761474609375
1772642827207712500,2.83771240234375,-0.3578643798828125,-0.01910400390625,-0.08428955078125
1772642827217757200,2.847757080078125,-0.3396148681640625,-0.020050048828125,-0.11395263671875
1772642827227802400,2.85780224609375,-0.316986083984375,-0.016754150390625,-0.12579345703125
1772642827237847300,2.867847412109375,-0.2954864501953125,0.0038909912109375,-0.1068878173828125
1772642827247891500,2.877891357421875,-0.27447509765625,0.0201263427734375,-0.074859619140625
1772642827257936100,2.88793603515625,-0.2616119384765625,0.0221710205078125,-0.0537109375
1772642827267981000,2.89798095703125,-0.2606048583984375,0.017822265625,-0.0529327392578125
1772642827278026000,2.90802587890625,-0.2592010498046875,0.00677490234375,-0.06317138671875
1772642827288071000,2.91807080078125,-0.2812957763671875,-0.0075836181640625,-0.08056640625
1772642827298115000,2.928114990234375,-0.34722900390625,-0.0064544677734375,-0.091400146484375
1772642827308160000,2.938159912109375,-0.43121337890625,-0.00030517578125,-0.0847320556640625
1772642827318205000,2.948204833984375,-0.5306854248046875,-0.008697509765625,-0.0759429931640625
1772642827328249900,2.958249755859375,-0.6325225830078125,-0.011993408203125,-0.06744384765625
1772642827338295000,2.968294921875,-0.6874237060546875,-0.0315704345703125,-0.0676727294921875
1772642827348339000,2.9783388671875,-0.6736907958984375,-0.08587646484375,-0.0816802978515625
1772642827358383900,2.9883837890625,-0.6074676513671875,-0.13140869140625,-0.1113433837890625
1772642827368429000,2.998428955078125,-0.5415191650390625,-0.170318603515625,-0.1194915771484375
1772642827378474000,3.008473876953125,-0.548553466796875,-0.2270355224609375,-0.1027679443359375
1772642827388518000,3.018517822265625,-0.667633056640625,-0.2685394287109375,-0.0536651611328125
1772642827398562800,3.028562744140625,-0.8184967041015625,-0.2835693359375,0.024505615234375
1772642827408608000,3.03860791015625,-0.9205474853515625,-0.314453125,0.071044921875
1772642827418653000,3.04865283203125,-0.958404541015625,-0.3296966552734375,0.07135009765625
1772642827428698000,3.058697998046875,-0.954925537109375,-0.3248291015625,0.0349884033203125
1772642827438742000,3.068741943359375,-0.9983367919921875,-0.3107452392578125,0.0107574462890625
1772642827448787000,3.078786865234375,-1.10479736328125,-0.2771453857421875,0.0333404541015625
1772642827458832100,3.08883203125,-1.26885986328125,-0.2192535400390625,0.068328857421875
1772642827468876800,3.098876708984375,-1.465087890625,-0.1525726318359375,0.1021728515625
1772642827478922000,3.108921875,-1.6583709716796875,-0.1120758056640625,0.124969482421875
1772642827488966000,3.1189658203125,-1.7713165283203125,-0.1189727783203125,0.1065216064453125
1772642827499011000,3.129010986328125,-1.748992919921875,-0.1414031982421875,0.0364990234375
1772642827509055700,3.1390556640625,-1.6887054443359375,-0.16094970703125,-0.0056610107421875
1772642827519101000,3.149100830078125,-1.6824493408203125,-0.187164306640625,0.02215576171875
1772642827529145900,3.159145751953125,-1.7103424072265625,-0.1950836181640625,0.0777587890625
1772642827539190000,3.16918994140625,-1.7595367431640625,-0.17352294921875,0.1192474365234375
1772642827549235000,3.17923486328125,-1.835205078125,-0.1396026611328125,0.1477813720703125
1772642827559279900,3.18927978515625,-1.9300079345703125,-0.0823974609375,0.1307373046875
1772642827569325000,3.199324951171875,-2.046356201171875,-0.036834716796875,0.0729827880859375
1772642827579370000,3.209369873046875,-2.1682281494140625,0.001373291015625,-0.0108642578125
1772642827589414000,3.219413818359375,-2.2774658203125,0.057464599609375,-0.0819854736328125
1772642827599458800,3.229458740234375,-2.3340301513671875,0.118316650390625,-0.129852294921875
1772642827609504000,3.23950390625,-2.3600921630859375,0.1230010986328125,-0.1464691162109375
1772642827619549000,3.249548828125,-2.321533203125,0.090576171875,-0.1618804931640625
1772642827629593900,3.25959375,-2.1495513916015625,0.0482330322265625,-0.17138671875
1772642827639638000,3.269637939453125,-1.911834716796875,-0.0165557861328125,-0.152374267578125
1772642827649683000,3.279682861328125,-1.6758880615234375,-0.0748443603515625,-0.1065521240234375
1772642827659728100,3.28972802734375,-1.4730072021484375,-0.135498046875,-0.048065185546875
1772642827669772800,3.299772705078125,-1.2872467041015625,-0.1936798095703125,0.00732421875
1772642827679817000,3.30981689453125,-1.115570068359375,-0.247650146484375,0.0353546142578125
1772642827689862000,3.31986181640625,-0.9606781005859375,-0.2958984375,0.0518951416015625
1772642827699907000,3.329906982421875,-0.827362060546875,-0.322662353515625,0.0632781982421875
1772642827709952000,3.339951904296875,-0.7220611572265625,-0.324462890625,0.057861328125
1772642827719997000,3.349996826171875,-0.6690216064453125,-0.3090362548828125,0.03656005859375
1772642827730041000,3.360041015625,-0.6634368896484375,-0.2729339599609375,0.0002899169921875
1772642827740085800,3.370085693359375,-0.6786041259765625,-0.2265777587890625,-0.0330963134765625
1772642827750131000,3.380130859375,-0.701416015625,-0.180511474609375,-0.07470703125
1772642827760175900,3.39017578125,-0.7112274169921875,-0.1201934814453125,-0.0995330810546875
1772642827770221000,3.400220947265625,-0.7232818603515625,-0.05224609375,-0.087646484375
1772642827780265000,3.410264892578125,-0.722564697265625,0.0054779052734375,-0.0595245361328125
1772642827790310000,3.420309814453125,-0.6909637451171875,0.0390167236328125,-0.047515869140625
1772642827800355000,3.43035498046875,-0.6322479248046875,0.0553131103515625,-0.068267822265625
1772642827810400000,3.44039990234375,-0.5743560791015625,0.08184814453125,-0.10107421875
1772642827820445200,3.450445068359375,-0.5500946044921875,0.093353271484375,-0.132293701171875
1772642827830488800,3.46048876953125,-0.5662994384765625,0.1044464111328125,-0.1490936279296875
1772642827840534000,3.470533935546875,-0.618438720703125,0.118896484375,-0.1515350341796875
1772642827850579000,3.480578857421875,-0.6554718017578125,0.1354522705078125,-0.143341064453125
1772642827860624100,3.4906240234375,-0.6578826904296875,0.15069580078125,-0.127197265625
1772642827870668800,3.500668701171875,-0.6375885009765625,0.153076171875,-0.09686279296875
1772642827880713000,3.510712890625,-0.570953369140625,0.1439971923828125,-0.0715179443359375
1772642827890758100,3.520758056640625,-0.49932861328125,0.1224365234375,-0.0501861572265625
1772642827900802800,3.530802734375,-0.399078369140625,0.108612060546875,-0.061248779296875
1772642827910848000,3.540847900390625,-0.30487060546875,0.092071533203125,-0.0788421630859375
1772642827920893000,3.550892822265625,-0.224761962890625,0.0601654052734375,-0.09515380859375
1772642827930937000,3.56093701171875,-0.145751953125,0.0303802490234375,-0.1108245849609375
1772642827940981800,3.570981689453125,-0.06243896484375,0.0197601318359375,-0.115631103515625
1772642827951027000,3.58102685546875,0.00286865234375,0.029449462890625,-0.0935821533203125
1772642827961071900,3.59107177734375,0.0335693359375,0.0416412353515625,-0.0479278564453125
1772642827971116000,3.601115966796875,0.030975341796875,0.043548583984375,-0.0010986328125
1772642827981161000,3.611160888671875,-0.0047760009765625,0.044677734375,0.031768798828125
1772642827991206000,3.621205810546875,-0.07373046875,0.05072021484375,0.037322998046875
1772642828001251000,3.6312509765625,-0.14581298828125,0.0598602294921875,0.010040283203125
1772642828011296000,3.6412958984375,-0.21429443359375,0.065826416015625,-0.03253173828125
1772642828021340000,3.65133984375,-0.2957305908203125,0.0625,-0.0720367431640625
1772642828031384800,3.661384765625,-0.3717498779296875,0.0585174560546875,-0.09710693359375
1772642828041430000,3.671429931640625,-0.413726806640625,0.05340576171875,-0.0909271240234375
1772642828051475000,3.681474853515625,-0.39385986328125,0.036224365234375,-0.063995361328125
1772642828061520000,3.691519775390625,-0.3208160400390625,0.006072998046875,-0.0437774658203125
1772642828071564000,3.70156396484375,-0.26165771484375,-0.0274810791015625,-0.034027099609375
1772642828081609000,3.71160888671875,-0.2580413818359375,-0.060577392578125,-0.0187530517578125
1772642828091654100,3.721654052734375,-0.3429412841796875,-0.0930328369140625,0.002899169921875
1772642828101698800,3.73169873046875,-0.4591217041015625,-0.1212005615234375,0.0079803466796875
1772642828111744000,3.741743896484375,-0.5853424072265625,-0.163848876953125,-0.010986328125
1772642828121788000,3.751787841796875,-0.7795257568359375,-0.203826904296875,-0.0017547607421875
1772642828131832800,3.761832763671875,-0.990814208984375,-0.20526123046875,0.014129638671875
1772642828141878000,3.7718779296875,-1.165435791015625,-0.1772308349609375,0.0032958984375
1772642828151923000,3.7819228515625,-1.2986602783203125,-0.1373748779296875,-0.033172607421875
1772642828161967000,3.791967041015625,-1.424835205078125,-0.118896484375,-0.0526580810546875
1772642828172011800,3.80201171875,-1.5342864990234375,-0.109344482421875,-0.0549774169921875
1772642828182057000,3.812056884765625,-1.589813232421875,-0.095428466796875,-0.0675811767578125
1772642828192102000,3.822101806640625,-1.607208251953125,-0.084747314453125,-0.0795440673828125
1772642828202147000,3.83214697265625,-1.627838134765625,-0.0729827880859375,-0.072265625
1772642828212191000,3.84219091796875,-1.6794281005859375,-0.0725555419921875,-0.044921875
1772642828222236000,3.85223583984375,-1.7293548583984375,-0.0662689208984375,-0.0222320556640625
1772642828232281000,3.862281005859375,-1.7666015625,-0.071502685546875,-0.0208282470703125
1772642828242326000,3.872325927734375,-1.813262939453125,-0.0701904296875,-0.0385284423828125
1772642828252370700,3.88237060546875,-1.86480712890625,-0.06793212890625,-0.0595550537109375
1772642828262414300,3.892414306640625,-1.9383544921875,-0.0648040771484375,-0.0943603515625
1772642828272459500,3.90245947265625,-2.06219482421875,-0.055877685546875,-0.171539306640625
1772642828282504400,3.91250439453125,-2.1537322998046875,-0.037322998046875,-0.2615509033203125
1772642828292549600,3.922549560546875,-2.20379638671875,-0.031646728515625,-0.341217041015625
1772642828302594300,3.93259423828125,-2.2126617431640625,-0.00518798828125,-0.41143798828125
1772642828312638500,3.942638427734375,-2.176727294921875,0.0330047607421875,-0.4438323974609375
1772642828322683600,3.95268359375,-2.1405792236328125,0.0621337890625,-0.4519805908203125
1772642828332728300,3.962728271484375,-2.12188720703125,0.0805206298828125,-0.4384765625
1772642828342773500,3.9727734375,-2.115814208984375,0.07647705078125,-0.4110260009765625
1772642828352818400,3.982818359375,-2.071868896484375,0.0470428466796875,-0.39013671875
1772642828362862600,3.992862548828125,-1.96783447265625,0.00750732421875,-0.38836669921875
1772642828372907500,4.002907470703125,-1.819793701171875,-0.016998291015625,-0.389190673828125
1772642828382952400,4.012952392578125,-1.6552581787109375,-0.0286865234375,-0.3837890625
1772642828392997400,4.022997314453125,-1.496734619140625,-0.038665771484375,-0.3554229736328125
1772642828403042600,4.03304248046875,-1.3336181640625,-0.056610107421875,-0.3111419677734375
1772642828413086500,4.04308642578125,-1.15423583984375,-0.0649261474609375,-0.271881103515625
1772642828423131400,4.05313134765625,-0.9906768798828125,-0.06561279296875,-0.237396240234375
1772642828433176600,4.063176513671875,-0.8738250732421875,-0.05029296875,-0.206634521484375
1772642828443221500,4.073221435546875,-0.7876434326171875,-0.0204620361328125,-0.1900482177734375
1772642828453265400,4.083265380859375,-0.7137908935546875,0.0160980224609375,-0.1832733154296875
1772642828463310600,4.093310546875,-0.6721343994140625,0.0440216064453125,-0.19256591796875
1772642828473355500,4.10335546875,-0.6643829345703125,0.0601654052734375,-0.2321929931640625
1772642828483400700,4.113400634765625,-0.6754608154296875,0.0756072998046875,-0.2841644287109375
1772642828493445400,4.1234453125,-0.683074951171875,0.0796966552734375,-0.3276519775390625
1772642828503489500,4.133489501953125,-0.7025909423828125,0.089141845703125,-0.356597900390625
1772642828513534500,4.143534423828125,-0.78375244140625,0.1029510498046875,-0.3558197021484375
1772642828523579600,4.15357958984375,-0.91229248046875,0.1119842529296875,-0.3247528076171875
1772642828533624300,4.163624267578125,-0.986083984375,0.1063385009765625,-0.278900146484375
1772642828543669500,4.17366943359375,-0.9487152099609375,0.073211669921875,-0.240875244140625
1772642828553713700,4.183713623046875,-0.8339996337890625,0.0394134521484375,-0.2182464599609375
1772642828563758600,4.193758544921875,-0.693634033203125,0.009307861328125,-0.19287109375
1772642828573803500,4.203803466796875,-0.548065185546875,-0.0164337158203125,-0.1582794189453125
1772642828583848400,4.213848388671875,-0.3980560302734375,-0.037628173828125,-0.116455078125
1772642828593893600,4.2238935546875,-0.266571044921875,-0.05535888671875,-0.0615081787109375
1772642828603937300,4.233937255859375,-0.1537933349609375,-0.068634033203125,0.0013580322265625
1772642828613982500,4.243982421875,-0.061492919921875,-0.0708770751953125,0.0592193603515625
1772642828624027400,4.25402734375,-0.003814697265625,-0.0630950927734375,0.1022796630859375
1772642828634072600,4.264072509765625,0.02099609375,-0.059326171875,0.1328887939453125
1772642828644116500,4.274116455078125,0.02667236328125,-0.060943603515625,0.1427154541015625
1772642828654161400,4.284161376953125,0.0031280517578125,-0.0670013427734375,0.119415283203125
1772642828664206600,4.29420654296875,-0.054718017578125,-0.0706329345703125,0.072418212890625
1772642828674251500,4.30425146484375,-0.1352996826171875,-0.0701904296875,0.010650634765625
1772642828684296700,4.314296630859375,-0.239013671875,-0.0575714111328125,-0.051544189453125
1772642828694340400,4.32434033203125,-0.3438873291015625,-0.0240478515625,-0.0811004638671875
1772642828704385500,4.334385498046875,-0.4259796142578125,0.0210418701171875,-0.0726318359375
1772642828714430500,4.344430419921875,-0.458892822265625,0.0699005126953125,-0.0591278076171875
1772642828724475400,4.354475341796875,-0.4616546630859375,0.10247802734375,-0.055633544921875
1772642828734520300,4.364520263671875,-0.4709320068359375,0.125518798828125,-0.06365966796875
1772642828744564500,4.374564453125,-0.5067901611328125,0.1329345703125,-0.0710601806640625
1772642828754609700,4.384609619140625,-0.540740966796875,0.1287078857421875,-0.0668182373046875
1772642828764654300,4.394654296875,-0.5458831787109375,0.106689453125,-0.044219970703125
1772642828774699500,4.404699462890625,-0.5160369873046875,0.05743408203125,-0.019195556640625
1772642828784744400,4.414744384765625,-0.447601318359375,-0.0003509521484375,0.0034637451171875
1772642828794788600,4.42478857421875,-0.3636322021484375,-0.0546417236328125,0.0140838623046875
1772642828804833500,4.43483349609375,-0.3316192626953125,-0.0806884765625,0.0162506103515625
1772642828814878500,4.44487841796875,-0.4628143310546875,-0.1019134521484375,0.0234222412109375
1772642828824923400,4.45492333984375,-0.694091796875,-0.0997467041015625,0.0367889404296875
1772642828834968600,4.464968505859375,-0.8708038330078125,-0.077484130859375,0.0088043212890625
1772642828845012500,4.475012451171875,-0.968841552734375,-0.064910888671875,-0.02325439453125
1772642828855057400,4.485057373046875,-0.9267425537109375,-0.1079254150390625,-0.03265380859375
1772642828865102600,4.4951025390625,-0.8129119873046875,-0.1871185302734375,-0.0697021484375
1772642828875147500,4.5051474609375,-0.7648162841796875,-0.25128173828125,-0.095428466796875
1772642828885191400,4.51519140625,-0.8487548828125,-0.2777862548828125,-0.08404541015625
1772642828895236600,4.525236572265625,-1.0718231201171875,-0.2322845458984375,-0.072113037109375
1772642828905281500,4.535281494140625,-1.3277740478515625,-0.1410675048828125,-0.0881805419921875
1772642828915326700,4.54532666015625,-1.6245269775390625,-0.01409912109375,-0.1317138671875
1772642828925371400,4.555371337890625,-1.9138031005859375,0.076202392578125,-0.155487060546875
1772642828935415600,4.56541552734375,-2.0741119384765625,0.110870361328125,-0.1909332275390625
1772642828945460500,4.57546044921875,-2.0782623291015625,0.0717010498046875,-0.23736572265625
1772642828955505700,4.585505615234375,-1.9785919189453125,0.0005645751953125,-0.2831573486328125
1772642828965550300,4.59555029296875,-1.900634765625,-0.066314697265625,-0.2832794189453125
1772642828975595500,4.605595458984375,-1.8806610107421875,-0.115478515625,-0.26336669921875
1772642828985639700,4.6156396484375,-1.957366943359375,-0.1151885986328125,-0.284637451171875
1772642828995684400,4.625684326171875,-2.071441650390625,-0.09478759765625,-0.3324737548828125
1772642829005729500,4.6357294921875,-2.173797607421875,-0.0596160888671875,-0.4239959716796875
1772642829015774500,4.6457744140625,-2.2856903076171875,-0.01904296875,-0.5096435546875
1772642829025819600,4.655819580078125,-2.4036407470703125,0.0338592529296875,-0.552520751953125
1772642829035863300,4.66586328125,-2.499053955078125,0.067138671875,-0.5669403076171875
1772642829045908500,4.675908447265625,-2.54095458984375,0.077911376953125,-0.55889892578125
1772642829055953400,4.685953369140625,-2.5150299072265625,0.0745086669921875,-0.5153350830078125
1772642829065998600,4.69599853515625,-2.4195098876953125,0.04315185546875,-0.444732666015625
1772642829076042500,4.70604248046875,-2.27032470703125,0.0070648193359375,-0.383941650390625
1772642829086087400,4.71608740234375,-2.0931243896484375,-0.0218353271484375,-0.3274078369140625
1772642829096132600,4.726132568359375,-1.906951904296875,-0.0558624267578125,-0.261444091796875
1772642829106177500,4.736177490234375,-1.737823486328125,-0.075286865234375,-0.2020263671875
1772642829116222500,4.746222412109375,-1.5861663818359375,-0.0981903076171875,-0.1364288330078125
1772642829126266400,4.756266357421875,-1.4548492431640625,-0.14501953125,-0.0822296142578125
1772642829136311600,4.7663115234375,-1.351776123046875,-0.1852264404296875,-0.0462646484375
1772642829146356500,4.7763564453125,-1.2762603759765625,-0.20947265625,-0.0221710205078125
1772642829156401400,4.7864013671875,-1.1924896240234375,-0.2165069580078125,-0.0419769287109375
1772642829166446300,4.7964462890625,-1.1137237548828125,-0.1893768310546875,-0.085235595703125
1772642829176490500,4.806490478515625,-1.07525634765625,-0.14935302734375,-0.0946197509765625
1772642829186535700,4.81653564453125,-1.02520751953125,-0.099639892578125,-0.068450927734375
1772642829196580400,4.826580322265625,-0.9459991455078125,-0.0489654541015625,-0.0281982421875
1772642829206625500,4.83662548828125,-0.846435546875,-0.0182342529296875,-0.0067291259765625
1772642829216670500,4.84667041015625,-0.7075958251953125,-0.0205841064453125,-0.019561767578125
1772642829226714600,4.856714599609375,-0.54803466796875,-0.03375244140625,-0.0653228759765625
1772642829236759600,4.866759521484375,-0.421234130859375,-0.07177734375,-0.14678955078125
1772642829246804500,4.876804443359375,-0.3200225830078125,-0.0951385498046875,-0.232208251953125
1772642829256849200,4.88684912109375,-0.23681640625,-0.0792083740234375,-0.279541015625
1772642829266893800,4.896893798828125,-0.1953277587890625,-0.038360595703125,-0.2588653564453125
1772642829276938000,4.90693798828125,-0.2024078369140625,-0.0037384033203125,-0.1719207763671875
1772642829286983000,4.91698291015625,-0.2303314208984375,0.0099029541015625,-0.084930419921875
1772642829297028000,4.927028076171875,-0.269195556640625,0.0289764404296875,-0.023193359375
1772642829307072800,4.93707275390625,-0.3031463623046875,0.0341033935546875,0.006927490234375
1772642829317117000,4.947116943359375,-0.2825775146484375,0.0184173583984375,-0.0175018310546875
1772642829327162000,4.957162109375,-0.211822509765625,-0.0052490234375,-0.0674896240234375
1772642829337206800,4.967206787109375,-0.12213134765625,-0.0315704345703125,-0.0969696044921875
1772642829347252000,4.977251953125,-0.022003173828125,-0.0557861328125,-0.10919189453125
1772642829357297000,4.987296875,0.072113037109375,-0.0684814453125,-0.1111907958984375
1772642829367341000,4.997341064453125,0.1440277099609375,-0.084564208984375,-0.0966033935546875
1772642829377385700,5.0073857421875,0.1849212646484375,-0.102874755859375,-0.0911102294921875
1772642829387431000,5.017430908203125,0.185699462890625,-0.09649658203125,-0.1014404296875
1772642829397475800,5.027475830078125,0.1544189453125,-0.0738525390625,-0.106536865234375
1772642829407521000,5.03752099609375,0.1077117919921875,-0.0611114501953125,-0.104217529296875
1772642829417565000,5.04756494140625,0.04388427734375,-0.054534912109375,-0.107513427734375
1772642829427609900,5.05760986328125,-0.0243377685546875,-0.038787841796875,-0.1229248046875
1772642829437655000,5.067655029296875,-0.0800628662109375,-0.0132293701171875,-0.1451568603515625
1772642829447700000,5.077699951171875,-0.1238861083984375,0.0216217041015625,-0.1563873291015625
1772642829457744000,5.087743896484375,-0.16546630859375,0.0496826171875,-0.148651123046875
1772642829467789000,5.0977890625,-0.2035675048828125,0.071075439453125,-0.122100830078125
1772642829477834000,5.107833984375,-0.231842041015625,0.0811004638671875,-0.0910491943359375
1772642829487879000,5.11787890625,-0.25115966796875,0.0823516845703125,-0.0475616455078125
1772642829497923800,5.127923828125,-0.289703369140625,0.0596771240234375,0.0133514404296875
1772642829507968000,5.137968017578125,-0.308929443359375,-0.0251922607421875,0.0678863525390625
1772642829518013000,5.148012939453125,-0.2497711181640625,-0.104736328125,0.0438690185546875
1772642829528058000,5.15805810546875,-0.206695556640625,-0.14404296875,-0.024658203125
1772642829538102800,5.168102783203125,-0.238250732421875,-0.23065185546875,-0.06707763671875
1772642829548148000,5.17814794921875,-0.3247833251953125,-0.3035736083984375,-0.0702362060546875
1772642829558192000,5.188192138671875,-0.4456939697265625,-0.3026123046875,-0.0806884765625
1772642829568237000,5.198237060546875,-0.633148193359375,-0.27239990234375,-0.09283447265625
1772642829578282000,5.208281982421875,-0.9069366455078125,-0.24127197265625,-0.0640411376953125
1772642829588327000,5.218326904296875,-1.1700897216796875,-0.20623779296875,-0.01300048828125
1772642829598372000,5.2283720703125,-1.376983642578125,-0.1400299072265625,0.00604248046875
1772642829608415700,5.238415771484375,-1.5518798828125,-0.067840576171875,-0.0030975341796875
1772642829618461000,5.2484609375,-1.6985931396484375,-0.0478973388671875,-0.0048828125
1772642829628505900,5.258505859375,-1.757293701171875,-0.04522705078125,-0.012725830078125
1772642829638551000,5.268551025390625,-1.7452850341796875,-0.059234619140625,-0.0422210693359375
1772642829648595000,5.278594970703125,-1.7145233154296875,-0.082855224609375,-0.059844970703125
1772642829658640000,5.288639892578125,-1.6524658203125,-0.1052703857421875,-0.040435791015625
1772642829668685000,5.29868505859375,-1.5734405517578125,-0.137298583984375,-0.000640869140625
1772642829678730000,5.30872998046875,-1.5005950927734375,-0.1819305419921875,0.0233917236328125
1772642829688775200,5.318775146484375,-1.46929931640625,-0.21612548828125,0.0228424072265625
1772642829698818800,5.32881884765625,-1.5146636962890625,-0.2254486083984375,-0.000885009765625
1772642829708864000,5.338864013671875,-1.6292724609375,-0.201995849609375,-0.0299530029296875
1772642829718909000,5.348908935546875,-1.7964324951171875,-0.1577911376953125,-0.040191650390625
1772642829728953900,5.358953857421875,-1.9517974853515625,-0.1089935302734375,-0.0210723876953125
1772642829738998800,5.368998779296875,-2.09381103515625,-0.076568603515625,-0.0031890869140625
1772642829749043000,5.37904296875,-2.186981201171875,-0.06903076171875,-0.005615234375
1772642829759088000,5.389088134765625,-2.190765380859375,-0.06475830078125,-0.0304107666015625
1772642829769132800,5.3991328125,-2.1451416015625,-0.06292724609375,-0.0619049072265625
1772642829779178000,5.409177978515625,-2.1239166259765625,-0.0576171875,-0.0752105712890625
1772642829789222000,5.419221923828125,-2.1383514404296875,-0.053009033203125,-0.0804595947265625
1772642829799267000,5.42926708984375,-2.160003662109375,-0.0303192138671875,-0.076995849609375
1772642829809311700,5.439311767578125,-2.1601409912109375,-0.030853271484375,-0.07183837890625
1772642829819357000,5.44935693359375,-2.122100830078125,-0.044586181640625,-0.0924530029296875
1772642829829401900,5.45940185546875,-2.0424957275390625,-0.0671539306640625,-0.11114501953125
1772642829839446000,5.469446044921875,-1.939117431640625,-0.0913848876953125,-0.113677978515625
1772642829849491000,5.479490966796875,-1.8387451171875,-0.0984649658203125,-0.10931396484375
1772642829859536000,5.489535888671875,-1.748077392578125,-0.101531982421875,-0.1009368896484375
1772642829869581000,5.4995810546875,-1.6679229736328125,-0.09942626953125,-0.1077728271484375
1772642829879626000,5.5096259765625,-1.5964813232421875,-0.09478759765625,-0.1333160400390625
1772642829889670000,5.519669921875,-1.5286407470703125,-0.0695343017578125,-0.185150146484375
1772642829899715000,5.529715087890625,-1.4316253662109375,-0.0492706298828125,-0.2337646484375
1772642829909760000,5.539760009765625,-1.3035888671875,-0.0509185791015625,-0.24560546875
1772642829919805000,5.549804931640625,-1.195159912109375,-0.0607452392578125,-0.21337890625
1772642829929849900,5.559849853515625,-1.135406494140625,-0.075653076171875,-0.1280059814453125
1772642829939894000,5.56989404296875,-1.1097259521484375,-0.060699462890625,-0.03314208984375
1772642829949939000,5.57993896484375,-1.091766357421875,-0.0453643798828125,0.0385894775390625
1772642829959984000,5.589984130859375,-1.0521087646484375,-0.06591796875,0.060943603515625
1772642829970028800,5.60002880859375,-0.989349365234375,-0.09661865234375,0.027679443359375
1772642829980073000,5.610072998046875,-0.874176025390625,-0.10205078125,-0.024749755859375
1772642829990118100,5.6201181640625,-0.736328125,-0.1121826171875,-0.0483856201171875
1772642830000162800,5.630162841796875,-0.600128173828125,-0.1159515380859375,-0.0668792724609375
1772642830010208000,5.6402080078125,-0.493988037109375,-0.101898193359375,-0.070648193359375
1772642830020253000,5.6502529296875,-0.4058990478515625,-0.07452392578125,-0.0457763671875
1772642830030297000,5.660297119140625,-0.326995849609375,-0.049072265625,-0.00653076171875
1772642830040341800,5.670341796875,-0.2522430419921875,-0.0354156494140625,0.0318145751953125
1772642830050387000,5.680386962890625,-0.1774139404296875,-0.0341949462890625,0.0608367919921875
1772642830060432000,5.690431884765625,-0.1008758544921875,-0.0485992431640625,0.0683746337890625
1772642830070477000,5.70047705078125,-0.0278778076171875,-0.08331298828125,0.0469970703125
1772642830080521000,5.71052099609375,0.0490570068359375,-0.1212158203125,0.0010986328125
1772642830090566000,5.72056591796875,0.118804931640625,-0.1500244140625,-0.0467071533203125
1772642830100611000,5.730611083984375,0.1806182861328125,-0.1583709716796875,-0.081817626953125
1772642830110656000,5.740656005859375,0.2099456787109375,-0.1505889892578125,-0.0885009765625
1772642830120701200,5.750701171875,0.216644287109375,-0.138946533203125,-0.084136962890625
1772642830130744800,5.760744873046875,0.2085723876953125,-0.1204376220703125,-0.09295654296875
1772642830140790000,5.7707900390625,0.1815185546875,-0.087860107421875,-0.107086181640625
1772642830150835000,5.7808349609375,0.13031005859375,-0.04888916015625,-0.1339111328125
1772642830160879900,5.7908798828125,0.0774383544921875,-0.0041656494140625,-0.171966552734375
1772642830170924000,5.800924072265625,0.0252532958984375,0.062164306640625,-0.162567138671875
1772642830180969000,5.810968994140625,-0.0396270751953125,0.1118011474609375,-0.1122283935546875
1772642830191014100,5.82101416015625,-0.09271240234375,0.139312744140625,-0.082305908203125
1772642830201058800,5.831058837890625,-0.1616973876953125,0.1612701416015625,-0.0925750732421875
1772642830211104000,5.84110400390625,-0.2497711181640625,0.19671630859375,-0.1177520751953125
1772642830221148000,5.85114794921875,-0.3367462158203125,0.2159881591796875,-0.134002685546875
1772642830231193000,5.861193115234375,-0.40606689453125,0.1896209716796875,-0.1241455078125
1772642830241237800,5.87123779296875,-0.412841796875,0.077728271484375,-0.0764312744140625
1772642830251283000,5.881282958984375,-0.2439422607421875,-0.04583740234375,-0.0643157958984375
1772642830261329000,5.891328857421875,-0.003753662109375,-0.114501953125,-0.09588623046875
1772642830271372800,5.901372802734375,0.086334228515625,-0.1779022216796875,-0.1125946044921875
1772642830281417700,5.911417724609375,-0.0244293212890625,-0.2357025146484375,-0.0738525390625
1772642830291463000,5.921462890625,-0.228485107421875,-0.2685546875,-0.0298004150390625
1772642830301507800,5.9315078125,-0.41107177734375,-0.254852294921875,-0.0186920166015625
1772642830311551700,5.9415517578125,-0.5485687255859375,-0.13739013671875,-0.06640625
1772642830321597000,5.951596923828125,-0.723419189453125,0.00372314453125,-0.108795166015625
1772642830331641900,5.961641845703125,-0.9599761962890625,0.0588531494140625,-0.0765228271484375
1772642830341687000,5.97168701171875,-1.1445465087890625,0.0500030517578125,0.0005340576171875
1772642830351731700,5.981731689453125,-1.24859619140625,-0.0174560546875,0.0636749267578125
1772642830361775900,5.99177587890625,-1.3278350830078125,-0.08416748046875,0.09747314453125
1772642830371820800,6.00182080078125,-1.462493896484375,-0.101593017578125,0.0526580810546875
1772642830381866000,6.011865966796875,-1.7075042724609375,-0.05242919921875,-0.0650482177734375
1772642830391911000,6.021910888671875,-1.994873046875,0.0316314697265625,-0.17852783203125
1772642830401955800,6.031955810546875,-2.2124786376953125,0.1153564453125,-0.2556610107421875
1772642830412000000,6.042,-2.281951904296875,0.1592864990234375,-0.292327880859375
1772642830422045000,6.052044921875,-2.2180938720703125,0.14544677734375,-0.2751922607421875
1772642830432089900,6.06208984375,-2.105133056640625,0.08331298828125,-0.223236083984375
1772642830442134800,6.072134765625,-2.027130126953125,0.02996826171875,-0.1555328369140625
1772642830452180000,6.082179931640625,-1.98358154296875,-0.0184173583984375,-0.0908660888671875
1772642830462224000,6.092223876953125,-1.9731903076171875,-0.0792083740234375,-0.0475311279296875
1772642830472268800,6.102268798828125,-2.024658203125,-0.1025238037109375,-0.0453948974609375
1772642830482314000,6.11231396484375,-2.1135711669921875,-0.0978851318359375,-0.0950775146484375
1772642830492359000,6.12235888671875,-2.21307373046875,-0.0641326904296875,-0.20098876953125
1772642830502402800,6.13240283203125,-2.3423309326171875,-0.01397705078125,-0.3131866455078125
1772642830512447700,6.14244775390625,-2.4283905029296875,0.0361328125,-0.4242706298828125
1772642830522493000,6.152492919921875,-2.43524169921875,0.05511474609375,-0.5147247314453125
1772642830532537900,6.162537841796875,-2.351531982421875,0.0329437255859375,-0.4968414306640625
1772642830542583000,6.1725830078125,-2.1935577392578125,0.0203704833984375,-0.3820343017578125
1772642830552627000,6.182626953125,-2.033203125,0.0233612060546875,-0.2847900390625
1772642830562671900,6.192671875,-1.9078369140625,0.0017547607421875,-0.205230712890625
1772642830572717000,6.202717041015625,-1.800506591796875,-0.00091552734375,-0.1571197509765625
1772642830582761700,6.21276171875,-1.7140350341796875,0.0007171630859375,-0.141265869140625
1772642830592806000,6.222805908203125,-1.640838623046875,-0.006927490234375,-0.128326416015625
1772642830602850800,6.232850830078125,-1.581695556640625,-0.0169219970703125,-0.112396240234375
1772642830612896000,6.24289599609375,-1.522186279296875,-0.027679443359375,-0.082489013671875
1772642830622940700,6.252940673828125,-1.4456024169921875,-0.0525054931640625,-0.0637969970703125
1772642830632985900,6.26298583984375,-1.342529296875,-0.082611083984375,-0.0667724609375
1772642830643030000,6.273030029296875,-1.2213287353515625,-0.08746337890625,-0.052093505859375
1772642830653075000,6.283074951171875,-1.0986785888671875,-0.0968780517578125,0.0076446533203125
1772642830663120000,6.293119873046875,-0.9563751220703125,-0.1062164306640625,0.0750579833984375
1772642830673164800,6.303164794921875,-0.8038482666015625,-0.1011505126953125,0.1035003662109375
1772642830683210000,6.3132099609375,-0.6979217529296875,-0.126190185546875,0.05743408203125
1772642830693253600,6.323253662109375,-0.646728515625,-0.1449737548828125,-0.0464935302734375
1772642830703298800,6.333298828125,-0.6124267578125,-0.150634765625,-0.12982177734375
1772642830713343700,6.34334375,-0.5802764892578125,-0.1323699951171875,-0.16265869140625
1772642830723389000,6.353388916015625,-0.5483245849609375,-0.097503662109375,-0.146026611328125
1772642830733432800,6.363432861328125,-0.4912872314453125,-0.075286865234375,-0.1171112060546875
1772642830743477800,6.373477783203125,-0.4488067626953125,-0.05743408203125,-0.1001129150390625
1772642830753523000,6.38352294921875,-0.4269866943359375,-0.033294677734375,-0.096099853515625
1772642830763567900,6.39356787109375,-0.4102325439453125,-0.0158233642578125,-0.091522216796875
1772642830773613000,6.403613037109375,-0.40576171875,-0.0037994384765625,-0.0868682861328125
1772642830783657000,6.413656982421875,-0.3663787841796875,0.0075225830078125,-0.078643798828125
1772642830793702000,6.423701904296875,-0.28448486328125,0.01190185546875,-0.0694732666015625
1772642830803746800,6.433746826171875,-0.1700439453125,0.0052642822265625,-0.063323974609375
1772642830813792000,6.4437919921875,-0.0565032958984375,-0.0074920654296875,-0.0620574951171875
1772642830823837000,6.4538369140625,0.035308837890625,-0.01654052734375,-0.0621795654296875
1772642830833880800,6.463880859375,0.0920562744140625,-0.0150604248046875,-0.0531158447265625
1772642830843926000,6.473926025390625,0.120361328125,-0.011444091796875,-0.0362701416015625
1772642830853970700,6.483970703125,0.1247100830078125,-0.008636474609375,-0.0233917236328125
1772642830864016000,6.494015869140625,0.0929718017578125,0.0032501220703125,-0.0087738037109375
1772642830874060000,6.50406005859375,0.0403900146484375,0.0124969482421875,0.0035552978515625
1772642830884105000,6.51410498046875,-0.0147552490234375,0.0207366943359375,-0.0036163330078125
1772642830894150000,6.52414990234375,-0.066925048828125,0.034088134765625,-0.0304107666015625
1772642830904194800,6.53419482421875,-0.11212158203125,0.05853271484375,-0.0519561767578125
1772642830914240000,6.544239990234375,-0.1461334228515625,0.0792999267578125,-0.049285888671875
1772642830924284000,6.554283935546875,-0.1527557373046875,0.099365234375,-0.0281524658203125
1772642830934328800,6.564328857421875,-0.146820068359375,0.1245574951171875,-0.0020294189453125
1772642830944373800,6.574373779296875,-0.150177001953125,0.140869140625,0.0237579345703125
1772642830954419000,6.5844189453125,-0.149444580078125,0.142181396484375,0.0323638916015625
1772642830964463900,6.5944638671875,-0.1392364501953125,0.126800537109375,0.0081939697265625
1772642830974507800,6.6045078125,-0.123046875,0.1067047119140625,-0.00946044921875
1772642830984553000,6.614552978515625,-0.1185760498046875,0.082763671875,0.003997802734375
1772642830994598000,6.624597900390625,-0.1298980712890625,0.048431396484375,0.0428009033203125
1772642831004643000,6.63464306640625,-0.13427734375,-0.01275634765625,0.0787506103515625
1772642831014686700,6.644686767578125,-0.1205596923828125,-0.096038818359375,0.0901641845703125
1772642831024732000,6.65473193359375,-0.1027374267578125,-0.18743896484375,0.0662689208984375
1772642831034776800,6.66477685546875,-0.159759521484375,-0.2398223876953125,0.021514892578125
1772642831044822000,6.674822021484375,-0.362457275390625,-0.254486083984375,-0.02618408203125
1772642831054866700,6.68486669921875,-0.66278076171875,-0.2680816650390625,-0.0769500732421875
1772642831064910800,6.694910888671875,-0.9571533203125,-0.2776031494140625,-0.1287994384765625
1772642831074956000,6.7049560546875,-1.1614532470703125,-0.2637481689453125,-0.2009124755859375
1772642831085001000,6.7150009765625,-1.2679595947265625,-0.2447052001953125,-0.26812744140625
1772642831095046000,6.7250458984375,-1.3741912841796875,-0.2563934326171875,-0.2951507568359375
1772642831105090800,6.7350908203125,-1.5497589111328125,-0.2227630615234375,-0.3037872314453125
1772642831115135000,6.745135009765625,-1.8011932373046875,-0.1519775390625,-0.285400390625
1772642831125179600,6.7551796875,-2.0696563720703125,-0.09100341796875,-0.2630615234375
1772642831135224800,6.765224853515625,-2.2584228515625,-0.0470733642578125,-0.2659454345703125
1772642831145269800,6.775269775390625,-2.3201446533203125,-0.0235443115234375,-0.2745361328125
1772642831155314000,6.78531396484375,-2.2529754638671875,-0.051513671875,-0.27166748046875
1772642831165358800,6.79535888671875,-2.106597900390625,-0.1305694580078125,-0.2487640380859375
1772642831175403800,6.80540380859375,-1.95843505859375,-0.2193145751953125,-0.2441253662109375
1772642831185449000,6.815448974609375,-1.9138336181640625,-0.2668304443359375,-0.259979248046875
1772642831195494000,6.825493896484375,-1.993499755859375,-0.2812957763671875,-0.267822265625
1772642831205537800,6.835537841796875,-2.1185302734375,-0.265380859375,-0.3010101318359375
1772642831215582700,6.845582763671875,-2.2413177490234375,-0.22998046875,-0.3386688232421875
1772642831225628000,6.8556279296875,-2.33135986328125,-0.206024169921875,-0.3690185546875
1772642831235672800,6.8656728515625,-2.374359130859375,-0.163482666015625,-0.390350341796875
1772642831245717800,6.8757177734375,-2.409515380859375,-0.1081085205078125,-0.3677215576171875
1772642831255761000,6.885760986328125,-2.4693603515625,-0.0623016357421875,-0.310333251953125
1772642831265806000,6.89580615234375,-2.5419158935546875,-0.0403289794921875,-0.2529296875
1772642831275851000,6.90585107421875,-2.559356689453125,-0.0473785400390625,-0.21875
1772642831285896000,6.91589599609375,-2.474273681640625,-0.074676513671875,-0.23486328125
1772642831295939800,6.92593994140625,-2.289642333984375,-0.1060638427734375,-0.2806854248046875
1772642831305985000,6.935985107421875,-2.05462646484375,-0.1410980224609375,-0.30401611328125
1772642831316030000,6.946030029296875,-1.8225555419921875,-0.164093017578125,-0.2989501953125
1772642831326075100,6.9560751953125,-1.6279296875,-0.1953277587890625,-0.28594970703125
1772642831336119800,6.966119873046875,-1.465362548828125,-0.2152557373046875,-0.27685546875
1772642831346164000,6.9761640625,-1.3489837646484375,-0.2319488525390625,-0.251983642578125
1772642831356209200,6.986209228515625,-1.2720489501953125,-0.2441253662109375,-0.2268524169921875
1772642831366254000,6.996254150390625,-1.2014923095703125,-0.2422332763671875,-0.2083892822265625
1772642831376299000,7.006299072265625,-1.1209564208984375,-0.2358856201171875,-0.173126220703125
1772642831386344000,7.016343994140625,-1.023406982421875,-0.22430419921875,-0.1329498291015625
1772642831396388000,7.02638818359375,-0.9202423095703125,-0.214385986328125,-0.09930419921875
1772642831406433000,7.03643310546875,-0.8211669921875,-0.2096710205078125,-0.0749664306640625
1772642831416478000,7.04647802734375,-0.754302978515625,-0.2052764892578125,-0.056793212890625
1772642831426523000,7.05652294921875,-0.7005767822265625,-0.1893157958984375,-0.0468292236328125
1772642831436567000,7.066567138671875,-0.658447265625,-0.171661376953125,-0.021820068359375
1772642831446612000,7.076612060546875,-0.57525634765625,-0.1601715087890625,0.0093841552734375
1772642831456657000,7.086656982421875,-0.4264984130859375,-0.19683837890625,0.0118865966796875
1772642831466702000,7.0967021484375,-0.2481231689453125,-0.2398529052734375,-0.0639495849609375
1772642831476747000,7.1067470703125,-0.1340484619140625,-0.23187255859375,-0.175048828125
1772642831486791000,7.116791015625,-0.1367340087890625,-0.154296875,-0.2234954833984375
1772642831496835800,7.1268359375,-0.2830963134765625,-0.0586090087890625,-0.1999969482421875
1772642831506881000,7.136881103515625,-0.432403564453125,0.0332794189453125,-0.1540374755859375
1772642831516926000,7.146926025390625,-0.5042877197265625,0.10076904296875,-0.113677978515625
1772642831526971100,7.15697119140625,-0.504180908203125,0.144500732421875,-0.08135986328125
1772642831537015000,7.16701513671875,-0.470672607421875,0.1628265380859375,-0.0574951171875
1772642831547060000,7.17706005859375,-0.42608642578125,0.16253662109375,-0.0507049560546875
1772642831557105200,7.187105224609375,-0.365753173828125,0.15911865234375,-0.0488433837890625
1772642831567150000,7.197150146484375,-0.284454345703125,0.1523590087890625,-0.0477294921875
1772642831577194000,7.207194091796875,-0.17584228515625,0.1371307373046875,-0.0440826416015625
1772642831587239000,7.217239013671875,-0.04876708984375,0.1183319091796875,-0.040313720703125
1772642831597284000,7.2272841796875,0.0673370361328125,0.0867462158203125,-0.0512847900390625
1772642831607328800,7.237328857421875,0.1377105712890625,0.0709991455078125,-0.0502471923828125
1772642831617374000,7.2473740234375,0.1618194580078125,0.0782623291015625,-0.018524169921875
1772642831627418000,7.257418212890625,0.1550140380859375,0.075653076171875,0.01824951171875
1772642831637463000,7.267463134765625,0.1410369873046875,0.0670928955078125,0.0323333740234375
1772642831647508000,7.277508056640625,0.1082763671875,0.0648345947265625,0.0182952880859375
1772642831657553000,7.287552978515625,0.0539093017578125,0.0673828125,-0.0209808349609375
1772642831667597000,7.29759716796875,-0.0208282470703125,0.0695343017578125,-0.06732177734375
1772642831677642000,7.30764208984375,-0.090087890625,0.0706024169921875,-0.11248779296875
1772642831687687000,7.31768701171875,-0.151763916015625,0.0670166015625,-0.1433258056640625
1772642831697732000,7.327732177734375,-0.213104248046875,0.0775604248046875,-0.14080810546875
1772642831707777000,7.337777099609375,-0.2761993408203125,0.1020965576171875,-0.1266937255859375
1772642831717821000,7.347821044921875,-0.3376617431640625,0.113189697265625,-0.10968017578125
1772642831727865900,7.357865966796875,-0.374755859375,0.1090240478515625,-0.0956268310546875
1772642831737911000,7.3679111328125,-0.3870086669921875,0.091796875,-0.0805511474609375
1772642831747956000,7.3779560546875,-0.40576171875,0.074249267578125,-0.062744140625
1772642831758001200,7.388001220703125,-0.4596710205078125,0.0672607421875,-0.056182861328125
1772642831768045000,7.398045166015625,-0.5809173583984375,0.0528411865234375,-0.0613555908203125
1772642831778090000,7.408090087890625,-0.758148193359375,-0.0216522216796875,-0.0536956787109375
1772642831788135200,7.41813525390625,-0.70269775390625,-0.166015625,-0.0537567138671875
1772642831798180000,7.42818017578125,-0.3074798583984375,-0.1559295654296875,-0.2364959716796875
1772642831808224000,7.43822412109375,-0.3473358154296875,-0.044403076171875,-0.357330322265625
1772642831818269000,7.44826904296875,-0.8761444091796875,0.02191162109375,-0.1800994873046875
1772642831828314000,7.458314208984375,-1.338958740234375,0.0314483642578125,-0.020233154296875
1772642831838359000,7.468359130859375,-1.45184326171875,0.1326751708984375,-0.093963623046875
1772642831848404000,7.478404052734375,-1.412261962890625,0.212432861328125,-0.240234375
1772642831858448100,7.4884482421875,-1.4683074951171875,0.1930389404296875,-0.298248291015625
1772642831868493000,7.4984931640625,-1.565093994140625,0.187042236328125,-0.28289794921875
1772642831878538000,7.5085380859375,-1.6006011962890625,0.23760986328125,-0.2830810546875
1772642831888583000,7.5185830078125,-1.624908447265625,0.2836151123046875,-0.2931976318359375
1772642831898628000,7.528628173828125,-1.643768310546875,0.30108642578125,-0.3019256591796875
1772642831908672000,7.538672119140625,-1.61285400390625,0.2876434326171875,-0.3027496337890625
1772642831918717000,7.548717041015625,-1.5044097900390625,0.2723541259765625,-0.2764434814453125
1772642831928761900,7.558761962890625,-1.326202392578125,0.2412109375,-0.2349853515625
1772642831938807000,7.56880712890625,-1.149658203125,0.23052978515625,-0.218597412109375
1772642831948851200,7.578851318359375,-1.0868988037109375,0.280242919921875,-0.19976806640625
1772642831958895900,7.588895751953125,-1.1766815185546875,0.3748321533203125,-0.175140380859375
1772642831968941000,7.598941162109375,-1.33636474609375,0.484527587890625,-0.173309326171875
1772642831978986000,7.608986083984375,-1.507049560546875,0.5763092041015625,-0.1771240234375
1772642831989031200,7.61903125,-1.65594482421875,0.6349334716796875,-0.1927947998046875
1772642831999074800,7.62907470703125,-1.73529052734375,0.66265869140625,-0.213043212890625
1772642832009120000,7.6391201171875,-1.7498931884765625,0.6398468017578125,-0.246368408203125
1772642832019165000,7.6491650390625,-1.6952056884765625,0.59765625,-0.284423828125
1772642832029210000,7.659210205078125,-1.5816192626953125,0.5484161376953125,-0.2825775146484375
1772642832039254800,7.6692548828125,-1.4571685791015625,0.5107574462890625,-0.259429931640625
1772642832049299000,7.679298828125,-1.34918212890625,0.49786376953125,-0.23101806640625
1772642832059344100,7.68934423828125,-1.2601318359375,0.488525390625,-0.1944122314453125
1772642832069389000,7.69938916015625,-1.193756103515625,0.470916748046875,-0.16253662109375
1772642832079434000,7.70943408203125,-1.1677398681640625,0.46240234375,-0.1534576416015625
1772642832089478000,7.719477783203125,-1.1491241455078125,0.44866943359375,-0.168060302734375
1772642832099523000,7.729523193359375,-1.1138763427734375,0.429107666015625,-0.1796112060546875
1772642832109568000,7.739568115234375,-1.07464599609375,0.41253662109375,-0.19384765625
1772642832119613000,7.749613037109375,-1.02752685546875,0.393402099609375,-0.2103118896484375
1772642832129657900,7.759657958984375,-0.9929046630859375,0.381683349609375,-0.2238922119140625
1772642832139702000,7.769701904296875,-0.9768829345703125,0.375946044921875,-0.2235565185546875
1772642832149747000,7.779746826171875,-0.9676666259765625,0.3692779541015625,-0.2147064208984375
1772642832159791900,7.7897919921875,-0.982574462890625,0.3537750244140625,-0.22119140625
1772642832169837000,7.799837158203125,-0.9911346435546875,0.350067138671875,-0.2362518310546875
1772642832179881200,7.809881103515625,-0.994476318359375,0.343963623046875,-0.249359130859375
1772642832189926000,7.81992578125,-0.951751708984375,0.3336181640625,-0.2412567138671875
1772642832199971000,7.82997119140625,-0.8968505859375,0.3303375244140625,-0.22271728515625
1772642832210016000,7.84001611328125,-0.891754150390625,0.340423583984375,-0.2271881103515625
1772642832220061200,7.850061279296875,-0.971160888671875,0.3596343994140625,-0.2554473876953125
1772642832230104800,7.860104736328125,-0.9932098388671875,0.3777618408203125,-0.2604827880859375
1772642832240150000,7.87014990234375,-0.994232177734375,0.3856658935546875,-0.261474609375
1772642832250195000,7.88019482421875,-1.0018157958984375,0.39898681640625,-0.2594146728515625
1772642832260241000,7.890240966796875,-1.0224151611328125,0.4130859375,-0.25201416015625
1772642832270285600,7.90028564453125,-1.058197021484375,0.43023681640625,-0.2480316162109375
