time,seconds_elapsed,z,y,x
1772642824425304000,0.055303955078125,0.5190828442573547,-0.04512406885623932,-0.20052777230739594
1772642824435349000,0.065348876953125,0.49069729447364807,0.16121871769428253,-0.40781357884407043
1772642824445393000,0.075392822265625,0.4438040852546692,0.307084321975708,-0.5922247171401978
1772642824455437800,0.085437744140625,0.3829993009567261,0.4413678050041199,-0.7196441888809204
1772642824465483000,0.09548291015625,0.3105807602405548,0.5723218321800232,-0.7955881953239441
1772642824475527700,0.105527587890625,0.2208375781774521,0.6213434338569641,-0.8355348110198975
1772642824485572900,0.11557275390625,0.11258220672607422,0.6115435361862183,-0.844312846660614
1772642824495617000,0.125616943359375,0.003572896821424365,0.5759764909744263,-0.821736752986908
1772642824505662000,0.135661865234375,-0.10067521035671234,0.5345611572265625,-0.7826665639877319
1772642824515707000,0.145706787109375,-0.18337221443653107,0.512493371963501,-0.7303737998008728
1772642824525751800,0.155751708984375,-0.23950234055519104,0.4917425811290741,-0.6673884391784668
1772642824535797000,0.165796875,-0.2739015817642212,0.4461170434951782,-0.586974024772644
1772642824545841000,0.1758408203125,-0.31248733401298523,0.4330555498600006,-0.48510676622390747
1772642824555885800,0.1858857421875,-0.34866929054260254,0.47151878476142883,-0.334058940410614
1772642824565930800,0.1959306640625,-0.3766719102859497,0.5201449394226074,-0.1464666724205017
1772642824575976000,0.205975830078125,-0.3973710536956787,0.564498245716095,0.0578095018863678
1772642824586019800,0.216019775390625,-0.40792250633239746,0.5635451078414917,0.24620337784290314
1772642824596064800,0.226064697265625,-0.410719096660614,0.48001694679260254,0.3820919692516327
1772642824606110000,0.23610986328125,-0.4452190101146698,0.3624096214771271,0.47190016508102417
1772642824616155000,0.24615478515625,-0.536692202091217,0.22543153166770935,0.5464135408401489
1772642824626200000,0.256199951171875,-0.6618056297302246,0.015801599249243736,0.6175572276115417
1772642824636243700,0.26624365234375,-0.8020690083503723,-0.26571211218833923,0.6886450052261353
1772642824646289000,0.276288818359375,-0.9335436820983887,-0.5627520084381104,0.7497464418411255
1772642824656333800,0.286333740234375,-1.050838589668274,-0.7701132297515869,0.798201322555542
1772642824666379000,0.29637890625,-1.1647896766662598,-0.8943765759468079,0.8201404213905334
1772642824676423700,0.306423583984375,-1.2755537033081055,-0.9063205718994141,0.787739634513855
1772642824686467800,0.3164677734375,-1.3835500478744507,-0.8365742564201355,0.6880263090133667
1772642824696513000,0.326512939453125,-1.457594633102417,-0.6770226955413818,0.5552392601966858
1772642824706558000,0.336557861328125,-1.4634077548980713,-0.5678005814552307,0.3903754651546478
1772642824716603000,0.346602783203125,-1.4071530103683472,-0.61903315782547,0.18132691085338593
1772642824726647800,0.356647705078125,-1.2153388261795044,-0.9231272339820862,-0.027538949623703957
1772642824736692000,0.36669189453125,-1.0649560689926147,-1.0584970712661743,-0.20726077258586884
1772642824746736600,0.376736572265625,-1.0919266939163208,-0.987453281879425,-0.19128447771072388
1772642824756781800,0.38678173828125,-1.0930811166763306,-0.8213028907775879,-0.06921315938234329
1772642824766826800,0.39682666015625,-0.9914666414260864,-0.43946364521980286,0.21647104620933533
1772642824776872000,0.406871826171875,-0.8353007435798645,-0.13747930526733398,0.6024669408798218
1772642824786915800,0.416915771484375,-0.7014768719673157,-0.08974026888608932,1.055371642112732
1772642824796960800,0.426960693359375,-0.6133755445480347,-0.3840608596801758,1.3915698528289795
1772642824807006000,0.437005859375,-0.5928981900215149,-0.7945154905319214,1.5826796293258667
1772642824817051000,0.44705078125,-0.6472344398498535,-1.2781023979187012,1.6476445198059082
1772642824827096000,0.457095947265625,-0.7284584641456604,-1.7834028005599976,1.5771162509918213
1772642824837140000,0.467139892578125,-0.7563830018043518,-2.054696559906006,1.3668354749679565
1772642824847185000,0.477184814453125,-0.6861557364463806,-1.987054467201233,1.0463975667953491
1772642824857229800,0.487229736328125,-0.5803622007369995,-1.635495662689209,0.6353447437286377
1772642824867274800,0.497274658203125,-0.4752672016620636,-1.1384936571121216,0.13670405745506287
1772642824877320000,0.50731982421875,-0.31194671988487244,-0.7826772332191467,-0.38006478548049927
1772642824887363800,0.51736376953125,-0.08931683003902435,-0.6455196142196655,-0.8707500696182251
1772642824897409000,0.527408935546875,0.08754316717386246,-0.6072771549224854,-1.283056378364563
1772642824907453700,0.53745361328125,0.11618147045373917,-0.5962282419204712,-1.6449365615844727
1772642824917499000,0.547498779296875,-0.0392315573990345,-0.5112094879150391,-2.015591859817505
1772642824927543800,0.557543701171875,-0.21965619921684265,-0.405832976102829,-2.3237836360931396
1772642824937588000,0.567587890625,-0.29637521505355835,-0.4320584833621979,-2.472332239151001
1772642824947633000,0.5776328125,-0.29592353105545044,-0.5981787443161011,-2.4504435062408447
1772642824957677800,0.587677734375,-0.2511819005012512,-0.7858871221542358,-2.3069875240325928
1772642824967723000,0.597722900390625,-0.16647392511367798,-0.851698100566864,-2.0968167781829834
1772642824977767000,0.607766845703125,-0.043665189296007156,-0.7622062563896179,-1.835438847541809
1772642824987811800,0.617811767578125,0.097543865442276,-0.5151299238204956,-1.5458259582519531
1772642824997856800,0.627856689453125,0.24059823155403137,-0.22040081024169922,-1.2537840604782104
1772642825007902000,0.63790185546875,0.36037176847457886,-0.001130511867813766,-0.9555342197418213
1772642825017947000,0.64794677734375,0.4437020719051361,0.1069624051451683,-0.659088134765625
1772642825027990800,0.65799072265625,0.49674639105796814,0.12272059172391891,-0.3708406388759613
1772642825038036000,0.668035888671875,0.5213321447372437,0.07287953048944473,-0.08819270879030228
1772642825048081000,0.678080810546875,0.49077850580215454,0.006613960489630699,0.18755178153514862
1772642825058126000,0.6881259765625,0.41906729340553284,-0.03737320378422737,0.4309122562408447
1772642825068170800,0.698170654296875,0.34118741750717163,0.04440155252814293,0.59916090965271
1772642825078215000,0.70821484375,0.3088529109954834,0.2071811407804489,0.6458237767219543
1772642825088259800,0.718259765625,0.3211367428302765,0.4034089744091034,0.5908217430114746
1772642825098305000,0.728304931640625,0.33798763155937195,0.5656008124351501,0.44656097888946533
1772642825108349700,0.738349609375,0.34626951813697815,0.6771885752677917,0.2095324546098709
1772642825118395000,0.748394775390625,0.33459368348121643,0.749193012714386,-0.10727692395448685
1772642825128439000,0.75843896484375,0.2988831102848053,0.8523406982421875,-0.4564428925514221
1772642825138483700,0.768483642578125,0.24727371335029602,1.0314193964004517,-0.7785272002220154
1772642825148529000,0.77852880859375,0.21781621873378754,1.2520949840545654,-1.0148470401763916
1772642825158573800,0.78857373046875,0.21577011048793793,1.451765775680542,-1.1402031183242798
1772642825168619000,0.798618896484375,0.23302340507507324,1.5621109008789062,-1.152353286743164
1772642825178662700,0.80866259765625,0.24138225615024567,1.5643658638000488,-1.0872232913970947
1772642825188707800,0.818707763671875,0.2235657125711441,1.4527783393859863,-0.9684500098228455
1772642825198752800,0.828752685546875,0.17483758926391602,1.2535667419433594,-0.8251335620880127
1772642825208798000,0.8387978515625,0.08261578530073166,1.016437292098999,-0.6391043066978455
1772642825218841900,0.848841796875,-0.00002663161103555467,0.7821711897850037,-0.35391226410865784
1772642825228886800,0.85888671875,-0.056404951959848404,0.5523313283920288,0.038051776587963104
1772642825238932000,0.868931884765625,-0.10258576273918152,0.26017698645591736,0.47874313592910767
1772642825248977200,0.87897705078125,-0.1798533797264099,-0.20917852222919464,0.8463195562362671
1772642825259022000,0.88902197265625,-0.3313683569431305,-0.7860815525054932,1.0699098110198975
1772642825269066000,0.89906591796875,-0.5242506861686707,-1.2873233556747437,1.0978623628616333
1772642825279111200,0.909111083984375,-0.6781827807426453,-1.5625197887420654,0.9158975481987
1772642825289156000,0.919156005859375,-0.7431742548942566,-1.5559406280517578,0.571293830871582
1772642825299201000,0.929200927734375,-0.6860249638557434,-1.2124605178833008,0.19401182234287262
1772642825309246000,0.939245849609375,-0.46509045362472534,-0.7081907391548157,-0.10589154809713364
1772642825319290000,0.9492900390625,-0.12602850794792175,-0.3078494369983673,-0.33681291341781616
1772642825329335000,0.9593349609375,0.19659055769443512,-0.11133477836847305,-0.547145664691925
1772642825339380000,0.9693798828125,0.38600096106529236,-0.09046678245067596,-0.7414501309394836
1772642825349425200,0.979425048828125,0.4315716326236725,-0.15239965915679932,-0.8653560876846313
1772642825359470000,0.989469970703125,0.39587196707725525,-0.1489655077457428,-0.832051157951355
1772642825369514000,0.999513916015625,0.3512544333934784,-0.056468334048986435,-0.6185159683227539
1772642825379559200,1.00955908203125,0.291617214679718,0.042937081307172775,-0.2888413965702057
1772642825389604000,1.01960400390625,0.22236862778663635,0.032279111444950104,0.042929358780384064
1772642825399649000,1.02964892578125,0.177734836935997,-0.09854947775602341,0.27054306864738464
1772642825409694200,1.039694091796875,0.1357644945383072,-0.2562602758407593,0.36571887135505676
1772642825419738000,1.049738037109375,0.10849345475435257,-0.320949524641037,0.35313835740089417
1772642825429783000,1.059782958984375,0.11878124624490738,-0.24234046041965485,0.2747308909893036
1772642825439828200,1.069828125,0.148799866437912,-0.09634331613779068,0.17802485823631287
1772642825449873000,1.079872802734375,0.1732868254184723,0.011798336170613766,0.05624542757868767
1772642825459917000,1.0899169921875,0.1594647616147995,0.02576049044728279,-0.10427553951740265
1772642825469962200,1.099962158203125,0.10207922756671906,0.02708248421549797,-0.26097726821899414
1772642825480007200,1.110007080078125,0.05486830696463585,0.03187644109129906,-0.37250378727912903
1772642825490052000,1.120052001953125,0.04023796692490578,0.05888834968209267,-0.40260788798332214
1772642825500097000,1.130096923828125,0.07432190328836441,0.06076161935925484,-0.34557443857192993
1772642825510141200,1.14014111328125,0.1578436940908432,0.06921395659446716,-0.20594118535518646
1772642825520186000,1.15018603515625,0.2555345594882965,0.0936383381485939,-0.0070738885551691055
1772642825530231000,1.16023095703125,0.3385618031024933,0.08301153033971786,0.18237566947937012
1772642825540276000,1.17027587890625,0.37651583552360535,0.010004164651036263,0.31465888023376465
1772642825550321200,1.180321044921875,0.37599679827690125,-0.11943665146827698,0.3853950798511505
1772642825560365300,1.190365234375,0.34814172983169556,-0.2871028780937195,0.39642244577407837
1772642825570410000,1.200409912109375,0.32755735516548157,-0.47702834010124207,0.3362930715084076
1772642825580455200,1.210455078125,0.35830941796302795,-0.6778626441955566,0.2153051197528839
1772642825590500000,1.2205,0.4210795760154724,-0.8675284385681152,0.03286127746105194
1772642825600545300,1.230545166015625,0.48146384954452515,-1.0271148681640625,-0.21615414321422577
1772642825610589000,1.2405888671875,0.5199707746505737,-1.162157416343689,-0.5195592641830444
1772642825620634000,1.250634033203125,0.5443461537361145,-1.29171621799469,-0.8596369624137878
1772642825630679000,1.260678955078125,0.5362921953201294,-1.4046611785888672,-1.236802577972412
1772642825640724200,1.27072412109375,0.48538854718208313,-1.4690507650375366,-1.6294084787368774
1772642825650769000,1.280768798828125,0.44796764850616455,-1.4088542461395264,-1.9619081020355225
1772642825660813000,1.29081298828125,0.4436197876930237,-1.2255043983459473,-2.169590950012207
1772642825670858200,1.300858154296875,0.46612802147865295,-1.0341891050338745,-2.258514165878296
1772642825680903200,1.310903076171875,0.507177472114563,-0.8282268643379211,-2.199026584625244
1772642825690948000,1.320947998046875,0.5559753775596619,-0.5610271096229553,-1.962674617767334
1772642825700993000,1.330992919921875,0.5892866849899292,-0.272084504365921,-1.6043041944503784
1772642825711037200,1.341037109375,0.5734675526618958,-0.007750331424176693,-1.1934255361557007
1772642825721081900,1.351081787109375,0.5087628364562988,0.20146094262599945,-0.7931639552116394
1772642825731127000,1.361126953125,0.4243515431880951,0.291436105966568,-0.43297913670539856
1772642825741172000,1.371171875,0.3520536422729492,0.270212322473526,-0.10542202740907669
1772642825751216000,1.381216064453125,0.2984127998352051,0.21225367486476898,0.1993863433599472
1772642825761261000,1.391260986328125,0.25023433566093445,0.1603553146123886,0.46096310019493103
1772642825771306000,1.401305908203125,0.20769193768501282,0.1411166489124298,0.6654611229896545
1772642825781351200,1.41135107421875,0.17438778281211853,0.12550999224185944,0.7968268394470215
1772642825791396000,1.42139599609375,0.14255449175834656,0.08857380598783493,0.8565804362297058
1772642825801440000,1.43143994140625,0.10233648866415024,0.0030186930671334267,0.8506642580032349
1772642825811485000,1.44148486328125,0.03518035635352135,-0.08742625266313553,0.7985264658927917
1772642825821530000,1.451530029296875,-0.04147553816437721,-0.1443830132484436,0.7154787182807922
1772642825831575000,1.461574951171875,-0.1190105453133583,-0.1415587216615677,0.6131259799003601
1772642825841620000,1.471619873046875,-0.1895773857831955,-0.053885869681835175,0.5327616333961487
1772642825851664100,1.4816640625,-0.233827143907547,0.09225109964609146,0.4839363098144531
1772642825861709000,1.491708984375,-0.2537696957588196,0.22606855630874634,0.4602949023246765
1772642825871754200,1.501754150390625,-0.2616046965122223,0.30252605676651,0.4665251076221466
1772642825881799000,1.511798828125,-0.2840610146522522,0.32538607716560364,0.4866814911365509
1772642825891844000,1.521843994140625,-0.29513150453567505,0.28643548488616943,0.5082278251647949
1772642825901888300,1.53188818359375,-0.2939123213291168,0.25647813081741333,0.5486510992050171
1772642825911933200,1.54193310546875,-0.25641366839408875,0.3539583384990692,0.6730667948722839
1772642825921978000,1.55197802734375,-0.1790701448917389,0.5018582940101624,0.8858627080917358
1772642825932023000,1.56202294921875,-0.13712748885154724,0.6355245113372803,1.0877816677093506
1772642825942067200,1.572067138671875,-0.16039127111434937,0.6884204745292664,1.1356559991836548
1772642825952112000,1.582112060546875,-0.2036908119916916,0.5853497385978699,1.009739637374878
1772642825962157000,1.592156982421875,-0.2672005295753479,0.3998275697231293,0.7241273522377014
1772642825972202000,1.602201904296875,-0.35823696851730347,0.3045678734779358,0.3075394332408905
1772642825982247200,1.6122470703125,-0.4439105987548828,0.5186660885810852,-0.10218122601509094
1772642825992291000,1.622291015625,-0.43975767493247986,1.0516506433486938,-0.3714720904827118
1772642826002336000,1.6323359375,-0.3697338402271271,1.6693532466888428,-0.49387282133102417
1772642826012381200,1.642381103515625,-0.2801235318183899,2.016044855117798,-0.5340415835380554
1772642826022426000,1.652426025390625,-0.22356091439723969,1.8699116706848145,-0.5551146268844604
1772642826032471300,1.66247119140625,-0.23046676814556122,1.2438254356384277,-0.5548283457756042
1772642826042515000,1.672514892578125,-0.3308524787425995,0.4367954432964325,-0.4900890290737152
1772642826052560100,1.68256005859375,-0.42599231004714966,-0.21054604649543762,-0.34676408767700195
1772642826062605000,1.69260498046875,-0.4392937421798706,-0.5218471884727478,-0.14518915116786957
1772642826072650200,1.702650146484375,-0.39881983399391174,-0.4714764356613159,0.043709930032491684
1772642826082695000,1.71269482421875,-0.30133479833602905,-0.14114060997962952,0.18019907176494598
1772642826092739000,1.722739013671875,-0.16683825850486755,0.23816516995429993,0.19234015047550201
1772642826102784300,1.7327841796875,-0.01781068928539753,0.518607497215271,0.05507949739694595
1772642826112829000,1.742828857421875,0.11271935701370239,0.6482679843902588,-0.21677838265895844
1772642826122874000,1.7528740234375,0.19460436701774597,0.6442295908927917,-0.572108268737793
1772642826132919000,1.7629189453125,0.22541314363479614,0.4414205551147461,-0.8934556245803833
1772642826142963200,1.772963134765625,0.2220868617296219,0.08431195467710495,-1.0863628387451172
1772642826153007900,1.7830078125,0.21909533441066742,-0.2908720374107361,-1.1045795679092407
1772642826163053000,1.793052978515625,0.21004244685173035,-0.5377247333526611,-0.9664542078971863
1772642826173098000,1.803097900390625,0.16856583952903748,-0.6000069975852966,-0.7797573208808899
1772642826183142100,1.81314208984375,0.08547522127628326,-0.4450048804283142,-0.557476282119751
1772642826193187000,1.82318701171875,-0.014188789762556553,-0.13784921169281006,-0.3024514615535736
1772642826203232000,1.83323193359375,-0.09725544601678848,0.15408118069171906,-0.02756638079881668
1772642826213277200,1.843277099609375,-0.12735208868980408,0.28281810879707336,0.27003440260887146
1772642826223322000,1.853322021484375,-0.1368422657251358,0.2187291532754898,0.5289056301116943
1772642826233366000,1.863365966796875,-0.14174088835716248,0.041847582906484604,0.7297655344009399
1772642826243411000,1.873410888671875,-0.1171034500002861,-0.1684979349374771,0.8504498600959778
1772642826253457400,1.88345751953125,-0.059839364141225815,-0.2688556909561157,0.8454436659812927
1772642826263502300,1.89350244140625,0.01004943810403347,-0.15679414570331573,0.7068309187889099
1772642826273547500,1.903547607421875,0.10094153136014938,0.07802289724349976,0.46201422810554504
1772642826283591200,1.913591064453125,0.20731936395168304,0.3159449100494385,0.16858795285224915
1772642826293636400,1.92363623046875,0.32593122124671936,0.4959202706813812,-0.10203981399536133
1772642826303681300,1.933681396484375,0.4066263437271118,0.5906608700752258,-0.29888656735420227
1772642826313726500,1.9437265625,0.4605465829372406,0.507785439491272,-0.41328316926956177
1772642826323771100,1.953771240234375,0.5233880877494812,0.3250598609447479,-0.4924216866493225
1772642826333815300,1.963815185546875,0.5400983691215515,0.16888409852981567,-0.5618857145309448
1772642826343860500,1.973860595703125,0.4846108853816986,0.08150923997163773,-0.6338746547698975
1772642826353905400,1.983905517578125,0.36649996042251587,0.09009899944067001,-0.6983932256698608
1772642826363950300,1.993950439453125,0.2621628940105438,0.1403970569372177,-0.7515794634819031
1772642826373995300,2.003995361328125,0.19149433076381683,0.16893655061721802,-0.7439537644386292
1772642826384039400,2.014039306640625,0.18795791268348694,0.14690662920475006,-0.6202265024185181
1772642826394084000,2.024083984375,0.2561787962913513,0.11254625022411346,-0.3704233467578888
1772642826404129300,2.03412939453125,0.3869341313838959,0.07110799849033356,-0.043841756880283356
1772642826414174200,2.04417431640625,0.5449554324150085,0.08549492806196213,0.33158352971076965
1772642826424218400,2.05421826171875,0.7003152370452881,0.1399909257888794,0.7201632261276245
1772642826434263300,2.06426318359375,0.8415511846542358,0.1962784379720688,1.084972620010376
1772642826444308200,2.07430810546875,0.9531911611557007,0.23423540592193604,1.4018720388412476
1772642826454353400,2.084353515625,1.0052623748779297,0.22159790992736816,1.66252601146698
1772642826464398300,2.0943984375,0.9844446778297424,0.16872483491897583,1.860243797302246
1772642826474442200,2.104442138671875,0.8779855966567993,0.10654188692569733,1.9901072978973389
1772642826484487200,2.114487060546875,0.7165834307670593,0.058514177799224854,2.0593013763427734
1772642826494532400,2.124532470703125,0.5478484630584717,0.024759141728281975,2.069922924041748
1772642826504577300,2.134577392578125,0.38878315687179565,0.014488128945231438,2.017453670501709
1772642826514622500,2.14462255859375,0.25414547324180603,0.04019216075539589,1.9201580286026
1772642826524666400,2.154666259765625,0.16707287728786469,0.09980835020542145,1.7807245254516602
1772642826534711300,2.164711181640625,0.12476962804794312,0.17884165048599243,1.616444706916809
1772642826544756500,2.174756591796875,0.09651881456375122,0.26722079515457153,1.4092808961868286
1772642826554801200,2.18480126953125,0.055272575467824936,0.34108275175094604,1.1714028120040894
1772642826564846300,2.194846435546875,-0.011749600060284138,0.3819817304611206,0.9327559471130371
1772642826574890500,2.204890380859375,-0.09908343851566315,0.38966894149780273,0.7178545594215393
1772642826584935400,2.214935302734375,-0.20322288572788239,0.37976357340812683,0.5390341877937317
1772642826594980400,2.22498046875,-0.2898816168308258,0.39691272377967834,0.4161657989025116
1772642826605025300,2.235025390625,-0.35354769229888916,0.4234095811843872,0.33532553911209106
1772642826615070500,2.245070556640625,-0.43007946014404297,0.41691040992736816,0.2474886178970337
1772642826625114400,2.2551142578125,-0.5271413326263428,0.3795323967933655,0.16092470288276672
1772642826635159300,2.2651591796875,-0.6369482278823853,0.3142543435096741,0.06783390790224075
1772642826645204200,2.275204345703125,-0.7503208518028259,0.18525907397270203,-0.0401972196996212
1772642826655249400,2.28524951171875,-0.8635560870170593,0.09898969531059265,-0.10068772733211517
1772642826665293300,2.295293212890625,-0.888008177280426,0.29723408818244934,-0.0157129168510437
1772642826675338200,2.305338134765625,-0.8063945174217224,0.7302595376968384,0.1604653149843216
1772642826685383400,2.315383544921875,-0.7205983996391296,1.058430790901184,0.22405147552490234
1772642826695428400,2.325428466796875,-0.7426488399505615,0.9856564402580261,0.04716857895255089
1772642826705473500,2.3354736328125,-0.8973388075828552,0.5920484066009521,-0.3187926411628723
1772642826715517200,2.34551708984375,-1.0622981786727905,0.1821487694978714,-0.7091299891471863
1772642826725562400,2.355562255859375,-1.080780267715454,-0.07935979962348938,-0.9495439529418945
1772642826735607300,2.365607177734375,-0.9644765853881836,-0.07491019368171692,-0.9407704472541809
1772642826745652500,2.375652587890625,-0.746059000492096,0.11120801419019699,-0.7550668716430664
1772642826755697200,2.385697265625,-0.5320726633071899,0.39278456568717957,-0.5399311184883118
1772642826765741300,2.3957412109375,-0.43415650725364685,0.6450762152671814,-0.4086226522922516
1772642826775786500,2.405786376953125,-0.42753535509109497,0.7674569487571716,-0.38161712884902954
1772642826785831200,2.4158310546875,-0.4432474672794342,0.768394410610199,-0.4210076928138733
1772642826795876400,2.42587646484375,-0.4587540030479431,0.6927377581596375,-0.4971511960029602
1772642826805921300,2.43592138671875,-0.4703643023967743,0.5850434899330139,-0.6058291792869568
1772642826815965400,2.44596533203125,-0.46690165996551514,0.4462171792984009,-0.7091585397720337
1772642826826010000,2.456010009765625,-0.4322022795677185,0.14666986465454102,-0.8106436133384705
1772642826836055300,2.46605517578125,-0.36653751134872437,-0.3458753824234009,-0.9387160539627075
1772642826846100200,2.476100341796875,-0.26848578453063965,-0.860436201095581,-1.0823363065719604
1772642826856144400,2.486144287109375,-0.14407888054847717,-1.16305410861969,-1.2188105583190918
1772642826866189300,2.496189208984375,-0.005274923052638769,-1.0662071704864502,-1.2893747091293335
1772642826876234200,2.506234130859375,0.11518970876932144,-0.6390369534492493,-1.2199757099151611
1772642826886279400,2.516279541015625,0.2208375781774521,-0.1565379500389099,-0.9859437942504883
1772642826896324400,2.526324462890625,0.2735348641872406,0.06803204864263535,-0.6404209733009338
1772642826906368300,2.5363681640625,0.2549540102481842,-0.07350005209445953,-0.25287726521492004
1772642826916413200,2.5464130859375,0.17645758390426636,-0.44917672872543335,0.09661655128002167
1772642826926458400,2.556458251953125,0.05907397344708443,-0.8836669325828552,0.3386041522026062
1772642826936503300,2.56650341796875,-0.05983110889792442,-1.216245412826538,0.4906187057495117
1772642826946548200,2.57654833984375,-0.11322589218616486,-1.338041067123413,0.5775903463363647
1772642826956592400,2.58659228515625,-0.08704222738742828,-1.3206645250320435,0.5931437611579895
1772642826966637300,2.59663720703125,-0.007562578655779362,-1.2332621812820435,0.5486441850662231
1772642826976682500,2.6066826171875,0.120733343064785,-1.1258270740509033,0.4835538864135742
1772642826986727200,2.61672705078125,0.28768423199653625,-1.0367348194122314,0.4123478829860687
1772642826996772400,2.6267724609375,0.4610922634601593,-0.9881515502929688,0.3240795433521271
1772642827006816500,2.63681640625,0.6250002384185791,-0.9792153239250183,0.22886726260185242
1772642827016861400,2.646861328125,0.7689515352249146,-0.9684271216392517,0.12359464168548584
1772642827026906400,2.65690625,0.8948359489440918,-0.9482230544090271,0.01888687163591385
1772642827036951300,2.666951416015625,0.9815729856491089,-0.9202523827552795,-0.10437141358852386
1772642827046996500,2.67699658203125,1.0501989126205444,-0.9163175821304321,-0.26566576957702637
1772642827057040100,2.6870400390625,1.0542229413986206,-0.9582729935646057,-0.4766317903995514
1772642827067085300,2.697085205078125,1.0000438690185547,-0.943832278251648,-0.6939893960952759
1772642827077130200,2.707130126953125,0.8791773915290833,-0.8047494888305664,-0.8283669352531433
1772642827087175400,2.717175537109375,0.7035730481147766,-0.5557873249053955,-0.8707825541496277
1772642827097220400,2.727220458984375,0.5288702249526978,-0.2723931670188904,-0.8409658074378967
1772642827107264300,2.73726416015625,0.3774314522743225,0.03393479809165001,-0.7410498857498169
1772642827117309400,2.747309326171875,0.3026650547981262,0.27036145329475403,-0.5916792750358582
1772642827127354400,2.757354248046875,0.32522469758987427,0.4323599338531494,-0.4089600741863251
1772642827137399600,2.767399658203125,0.43629157543182373,0.5996227264404297,-0.18403933942317963
1772642827147443200,2.777443115234375,0.6088628172874451,0.7409795522689819,0.0592058002948761
1772642827157488400,2.78748828125,0.784532368183136,0.7133756279945374,0.30632585287094116
1772642827167533300,2.797533203125,0.9134615659713745,0.4556831121444702,0.5502607226371765
1772642827177578500,2.80757861328125,0.9655694961547852,0.054542869329452515,0.7638809084892273
1772642827187623200,2.817623046875,0.9269792437553406,-0.3135981261730194,0.9349290728569031
1772642827197667300,2.827667236328125,0.8145927786827087,-0.531683623790741,1.0591328144073486
1772642827207712500,2.83771240234375,0.664692759513855,-0.5612310767173767,1.1161640882492065
1772642827217757200,2.847757080078125,0.5058506727218628,-0.4471716284751892,1.102067232131958
1772642827227802400,2.85780224609375,0.36477795243263245,-0.22786645591259003,1.0221598148345947
1772642827237847300,2.867847412109375,0.2702226936817169,0.06895456463098526,0.8862842917442322
1772642827247891500,2.877891357421875,0.22489462792873383,0.3626580834388733,0.7073630094528198
1772642827257936100,2.88793603515625,0.1929185837507248,0.6253770589828491,0.5201084613800049
1772642827267981000,2.89798095703125,0.14288471639156342,0.7793810367584229,0.3653995394706726
1772642827278026000,2.90802587890625,0.06579392403364182,0.7810665369033813,0.2507382035255432
1772642827288071000,2.91807080078125,-0.046853259205818176,0.6720729470252991,0.1958632469177246
1772642827298115000,2.928114990234375,-0.160045325756073,0.5039963126182556,0.23243138194084167
1772642827308160000,2.938159912109375,-0.2575511038303375,0.3402547836303711,0.3459049463272095
1772642827318205000,2.948204833984375,-0.32533973455429077,0.26848816871643066,0.534382164478302
1772642827328249900,2.958249755859375,-0.3487454652786255,0.32531577348709106,0.754948616027832
1772642827338295000,2.968294921875,-0.3743501603603363,0.4440227150917053,0.9353117346763611
1772642827348339000,2.9783388671875,-0.4340244233608246,0.5432201623916626,0.9950578808784485
1772642827358383900,2.9883837890625,-0.5500152111053467,0.5227583050727844,0.9107648730278015
1772642827368429000,2.998428955078125,-0.7017927169799805,0.3319574296474457,0.7014566659927368
1772642827378474000,3.008473876953125,-0.8612391352653503,0.07532298564910889,0.4611811935901642
1772642827388518000,3.018517822265625,-0.943153977394104,-0.003469299990683794,0.2883007824420929
1772642827398562800,3.028562744140625,-0.9375661015510559,0.07018787413835526,0.16196972131729126
1772642827408608000,3.03860791015625,-0.9013737440109253,0.2263074368238449,0.035042937844991684
1772642827418653000,3.04865283203125,-0.8899072408676147,0.283546507358551,-0.1694556027650833
1772642827428698000,3.058697998046875,-0.9430221319198608,0.25124314427375793,-0.46174126863479614
1772642827438742000,3.068741943359375,-0.989031970500946,0.25170519948005676,-0.7884490489959717
1772642827448787000,3.078786865234375,-0.9659996032714844,0.23900459706783295,-1.048005223274231
1772642827458832100,3.08883203125,-0.8493454456329346,0.232072114944458,-1.1526366472244263
1772642827468876800,3.098876708984375,-0.6331175565719604,0.363540917634964,-1.0903782844543457
1772642827478922000,3.108921875,-0.3837735056877136,0.6414612531661987,-0.8819409608840942
1772642827488966000,3.1189658203125,-0.22945769131183624,0.8196924924850464,-0.6298455595970154
1772642827499011000,3.129010986328125,-0.22885608673095703,0.7227787375450134,-0.4485170841217041
1772642827509055700,3.1390556640625,-0.30917248129844666,0.46323448419570923,-0.33418917655944824
1772642827519101000,3.149100830078125,-0.3749283254146576,0.1793724149465561,-0.29845941066741943
1772642827529145900,3.159145751953125,-0.3947742283344269,-0.02749713882803917,-0.35021287202835083
1772642827539190000,3.16918994140625,-0.331295371055603,-0.133632093667984,-0.4638028144836426
1772642827549235000,3.17923486328125,-0.19292950630187988,-0.18851079046726227,-0.6010230183601379
1772642827559279900,3.18927978515625,-0.039556995034217834,-0.21014177799224854,-0.6953849196434021
1772642827569325000,3.199324951171875,0.07021930068731308,-0.2768672704696655,-0.7083784937858582
1772642827579370000,3.209369873046875,0.10698184370994568,-0.41035422682762146,-0.5884991884231567
1772642827589414000,3.219413818359375,0.1105041429400444,-0.5659494400024414,-0.3336338996887207
1772642827599458800,3.229458740234375,0.12228409945964813,-0.6091893315315247,0.017120663076639175
1772642827609504000,3.23950390625,0.14844539761543274,-0.4547882676124573,0.4422362744808197
1772642827619549000,3.249548828125,0.16580414772033691,-0.3058485984802246,0.8397346138954163
1772642827629593900,3.25959375,0.14835724234580994,-0.29207101464271545,1.1301614046096802
1772642827639638000,3.269637939453125,0.13231143355369568,-0.37542101740837097,1.2842241525650024
1772642827649683000,3.279682861328125,0.15504656732082367,-0.4351687729358673,1.2928355932235718
1772642827659728100,3.28972802734375,0.23325829207897186,-0.43122702836990356,1.1652696132659912
1772642827669772800,3.299772705078125,0.33868643641471863,-0.38779112696647644,0.9309215545654297
1772642827679817000,3.30981689453125,0.4258767366409302,-0.3563708961009979,0.6252819895744324
1772642827689862000,3.31986181640625,0.49251994490623474,-0.40950921177864075,0.2894669771194458
1772642827699907000,3.329906982421875,0.5382956862449646,-0.5732001662254333,-0.037091974169015884
1772642827709952000,3.339951904296875,0.5589466691017151,-0.7967482805252075,-0.35235485434532166
1772642827719997000,3.349996826171875,0.5483914613723755,-0.9710119366645813,-0.6404029130935669
1772642827730041000,3.360041015625,0.5177429914474487,-1.0187184810638428,-0.8840816020965576
1772642827740085800,3.370085693359375,0.46215006709098816,-0.9755875468254089,-1.065114974975586
1772642827750131000,3.380130859375,0.3680107891559601,-0.8907970190048218,-1.1590391397476196
1772642827760175900,3.39017578125,0.2695547640323639,-0.8137241005897522,-1.1610546112060547
1772642827770221000,3.400220947265625,0.22877885401248932,-0.7582429647445679,-1.063609004020691
1772642827780265000,3.410264892578125,0.2492750734090805,-0.7096181511878967,-0.9172976016998291
1772642827790310000,3.420309814453125,0.2853582501411438,-0.6497330069541931,-0.7906128764152527
1772642827800355000,3.43035498046875,0.31088224053382874,-0.5877540707588196,-0.7210180759429932
1772642827810400000,3.44039990234375,0.3124639093875885,-0.5094587206840515,-0.6953161954879761
1772642827820445200,3.450445068359375,0.30160990357398987,-0.4105702340602875,-0.6682105660438538
1772642827830488800,3.46048876953125,0.29073435068130493,-0.2589958906173706,-0.5915780663490295
1772642827840534000,3.470533935546875,0.28998973965644836,-0.057675015181303024,-0.4277760982513428
1772642827850579000,3.480578857421875,0.28771379590034485,0.060440175235271454,-0.16912324726581573
1772642827860624100,3.4906240234375,0.2853401303291321,0.05302992835640907,0.1845458745956421
1772642827870668800,3.500668701171875,0.2708384096622467,-0.07509101927280426,0.5696578621864319
1772642827880713000,3.510712890625,0.30651625990867615,-0.25945845246315,0.973721444606781
1772642827890758100,3.520758056640625,0.3125933110713959,-0.3797939419746399,1.2691091299057007
1772642827900802800,3.530802734375,0.29158738255500793,-0.38388320803642273,1.4428287744522095
1772642827910848000,3.540847900390625,0.24894431233406067,-0.27913177013397217,1.5004537105560303
1772642827920893000,3.550892822265625,0.17871488630771637,-0.0898691713809967,1.4605225324630737
1772642827930937000,3.56093701171875,0.07719065994024277,0.13426460325717926,1.3188927173614502
1772642827940981800,3.570981689453125,-0.02598845772445202,0.3406292200088501,1.0860555171966553
1772642827951027000,3.58102685546875,-0.08303096890449524,0.5383851528167725,0.7774576544761658
1772642827961071900,3.59107177734375,-0.07823408395051956,0.7272301912307739,0.449795663356781
1772642827971116000,3.601115966796875,-0.030373351648449898,0.8633105158805847,0.15141375362873077
1772642827981161000,3.611160888671875,0.03989308699965477,0.9509133696556091,-0.055146876722574234
1772642827991206000,3.621205810546875,0.09383994340896606,0.9935412406921387,-0.147269606590271
1772642828001251000,3.6312509765625,0.099309541285038,0.9705946445465088,-0.1474701464176178
1772642828011296000,3.6412958984375,0.06567461788654327,0.9084873199462891,-0.05336974933743477
1772642828021340000,3.65133984375,-0.0033310819417238235,0.8668578863143921,0.13066454231739044
1772642828031384800,3.661384765625,-0.08025862276554108,0.8622077107429504,0.3751065135002136
1772642828041430000,3.671429931640625,-0.1243421882390976,0.8457000851631165,0.6289728879928589
1772642828051475000,3.681474853515625,-0.14823314547538757,0.7016335129737854,0.8161009550094604
1772642828061520000,3.691519775390625,-0.18670091032981873,0.42567992210388184,0.8618857264518738
1772642828071564000,3.70156396484375,-0.22416278719902039,0.11962892860174179,0.7493786215782166
1772642828081609000,3.71160888671875,-0.23301275074481964,-0.10548967123031616,0.4926035702228546
1772642828091654100,3.721654052734375,-0.19482222199440002,-0.130925253033638,0.16052016615867615
1772642828101698800,3.73169873046875,-0.16519242525100708,-0.0646841898560524,-0.2602930963039398
1772642828111744000,3.741743896484375,-0.1707877218723297,0.10063765943050385,-0.7027786374092102
1772642828121788000,3.751787841796875,-0.17171530425548553,0.3296436667442322,-1.0455669164657593
1772642828131832800,3.761832763671875,-0.15683382749557495,0.4888264238834381,-1.2340576648712158
1772642828141878000,3.7718779296875,-0.17324821650981903,0.4725622236728668,-1.2975927591323853
1772642828151923000,3.7819228515625,-0.22860068082809448,0.29984530806541443,-1.2577273845672607
1772642828161967000,3.791967041015625,-0.288856565952301,0.041432928293943405,-1.1198080778121948
1772642828172011800,3.80201171875,-0.3219476640224457,-0.23991405963897705,-0.9349882006645203
1772642828182057000,3.812056884765625,-0.33346691727638245,-0.4562112092971802,-0.8143216967582703
1772642828192102000,3.822101806640625,-0.30069220066070557,-0.5174285173416138,-0.8072150349617004
1772642828202147000,3.83214697265625,-0.2139810025691986,-0.4193733036518097,-0.8758319020271301
1772642828212191000,3.84219091796875,-0.0718853771686554,-0.24616263806819916,-0.9619710445404053
1772642828222236000,3.85223583984375,0.08286452293395996,-0.17460589110851288,-1.0151690244674683
1772642828232281000,3.862281005859375,0.1993091106414795,-0.26731452345848083,-1.010551929473877
1772642828242326000,3.872325927734375,0.25285622477531433,-0.546564519405365,-0.9223781228065491
1772642828252370700,3.88237060546875,0.27826836705207825,-1.0001161098480225,-0.7550660967826843
1772642828262414300,3.892414306640625,0.2637573480606079,-1.4441584348678589,-0.506284773349762
1772642828272459500,3.90245947265625,0.19002187252044678,-1.695772647857666,-0.22052305936813354
1772642828282504400,3.91250439453125,0.11678094416856766,-1.7589361667633057,0.021015802398324013
1772642828292549600,3.922549560546875,0.044674791395664215,-1.60640549659729,0.1564449965953827
1772642828302594300,3.93259423828125,-0.005038168281316757,-1.3484010696411133,0.15515656769275665
1772642828312638500,3.942638427734375,-0.011389008723199368,-1.0295679569244385,0.0432547964155674
1772642828322683600,3.95268359375,0.023275228217244148,-0.6966957449913025,-0.08711759001016617
1772642828332728300,3.962728271484375,0.09846851974725723,-0.44002506136894226,-0.12070244550704956
1772642828342773500,3.9727734375,0.17643629014492035,-0.29559969902038574,-0.023689083755016327
1772642828352818400,3.982818359375,0.21073220670223236,-0.30251139402389526,0.16607126593589783
1772642828362862600,3.992862548828125,0.17939558625221252,-0.43441537022590637,0.36884835362434387
1772642828372907500,4.002907470703125,0.10004590451717377,-0.6357119679450989,0.5187089443206787
1772642828382952400,4.012952392578125,0.006024602800607681,-0.7731641530990601,0.5724533796310425
1772642828392997400,4.022997314453125,-0.0460340715944767,-0.7297897338867188,0.4971836805343628
1772642828403042600,4.03304248046875,-0.05627046152949333,-0.5357276201248169,0.26172107458114624
1772642828413086500,4.04308642578125,-0.04362684115767479,-0.30953946709632874,-0.10327126085758209
1772642828423131400,4.05313134765625,-0.016395751386880875,-0.12492436170578003,-0.5061489343643188
1772642828433176600,4.063176513671875,0.010719489306211472,-0.03851037472486496,-0.8610740303993225
1772642828443221500,4.073221435546875,0.03749304637312889,-0.12252591550350189,-1.119506597518921
1772642828453265400,4.083265380859375,0.07848415523767471,-0.40395039319992065,-1.2849973440170288
1772642828463310600,4.093310546875,0.11944516748189926,-0.7216714024543762,-1.3960343599319458
1772642828473355500,4.10335546875,0.14157763123512268,-0.8983811736106873,-1.4911041259765625
1772642828483400700,4.113400634765625,0.14141172170639038,-0.9114788770675659,-1.565557837486267
1772642828493445400,4.1234453125,0.09063828736543655,-0.8357308506965637,-1.6109000444412231
1772642828503489500,4.133489501953125,0.015379488468170166,-0.6798485517501831,-1.598658561706543
1772642828513534500,4.143534423828125,-0.048702556639909744,-0.36695748567581177,-1.4582992792129517
1772642828523579600,4.15357958984375,-0.07956326752901077,0.05098035931587219,-1.1031415462493896
1772642828533624300,4.163624267578125,-0.09980888664722443,0.37751612067222595,-0.5898963212966919
1772642828543669500,4.17366943359375,-0.14702486991882324,0.5110741853713989,-0.029212746769189835
1772642828553713700,4.183713623046875,-0.22639799118041992,0.46212607622146606,0.5261117219924927
1772642828563758600,4.193758544921875,-0.32385343313217163,0.3048997223377228,1.0173163414001465
1772642828573803500,4.203803466796875,-0.4258818030357361,0.11779454350471497,1.3886057138442993
1772642828583848400,4.213848388671875,-0.5063691735267639,-0.04173945635557175,1.610460877418518
1772642828593893600,4.2238935546875,-0.5390512347221375,-0.11832211911678314,1.6897696256637573
1772642828603937300,4.233937255859375,-0.5181787014007568,-0.12426362931728363,1.6309350728988647
1772642828613982500,4.243982421875,-0.4406908452510834,-0.07351096719503403,1.4560599327087402
1772642828624027400,4.25402734375,-0.31964829564094543,0.0330309197306633,1.2128453254699707
1772642828634072600,4.264072509765625,-0.16871871054172516,0.16317534446716309,0.9376353621482849
1772642828644116500,4.274116455078125,-0.02064082957804203,0.28598248958587646,0.6504715085029602
1772642828654161400,4.284161376953125,0.07569955289363861,0.38073989748954773,0.40460899472236633
1772642828664206600,4.29420654296875,0.09740431606769562,0.4366644024848938,0.2413492351770401
1772642828674251500,4.30425146484375,0.042631082236766815,0.46223127841949463,0.18522605299949646
1772642828684296700,4.314296630859375,-0.06847786158323288,0.470906525850296,0.25125059485435486
1772642828694340400,4.32434033203125,-0.179620623588562,0.4676620066165924,0.4312038719654083
1772642828704385500,4.334385498046875,-0.26329606771469116,0.4081728458404541,0.680679976940155
1772642828714430500,4.344430419921875,-0.312953919172287,0.30647364258766174,0.9184097647666931
1772642828724475400,4.354475341796875,-0.34930419921875,0.25986674427986145,1.0726118087768555
1772642828734520300,4.364520263671875,-0.361299604177475,0.3530115783214569,1.1486653089523315
1772642828744564500,4.374564453125,-0.35677462816238403,0.5707375407218933,1.1792525053024292
1772642828754609700,4.384609619140625,-0.3245152235031128,0.8306311368942261,1.1781738996505737
1772642828764654300,4.394654296875,-0.2768031060695648,1.0604475736618042,1.135338544845581
1772642828774699500,4.404699462890625,-0.22939351201057434,1.2039825916290283,1.0071697235107422
1772642828784744400,4.414744384765625,-0.19612130522727966,1.1939363479614258,0.7425942420959473
1772642828794788600,4.42478857421875,-0.18729905784130096,1.0104475021362305,0.32478848099708557
1772642828804833500,4.43483349609375,-0.17697398364543915,0.7619953751564026,-0.14856897294521332
1772642828814878500,4.44487841796875,-0.1101379543542862,0.7409521341323853,-0.4602088928222656
1772642828824923400,4.45492333984375,-0.00686136819422245,0.8952469229698181,-0.5724281072616577
1772642828834968600,4.464968505859375,0.08563581109046936,1.1500227451324463,-0.5212535858154297
1772642828845012500,4.475012451171875,0.1629662811756134,1.3210210800170898,-0.4127817153930664
1772642828855057400,4.485057373046875,0.1706005036830902,1.175910472869873,-0.43190479278564453
1772642828865102600,4.4951025390625,0.0721927061676979,0.7847774028778076,-0.6216331720352173
1772642828875147500,4.5051474609375,-0.06919717788696289,0.2091023474931717,-0.9306754469871521
1772642828885191400,4.51519140625,-0.16452929377555847,-0.35287442803382874,-1.2198851108551025
1772642828895236600,4.525236572265625,-0.15436133742332458,-0.7808992862701416,-1.4202685356140137
1772642828905281500,4.535281494140625,-0.06344768404960632,-0.9395096898078918,-1.5198441743850708
1772642828915326700,4.54532666015625,0.12166757881641388,-0.6586838960647583,-1.4231911897659302
1772642828925371400,4.555371337890625,0.3549250662326813,-0.17790448665618896,-1.148557186126709
1772642828935415600,4.56541552734375,0.5220687985420227,0.197947695851326,-0.7705329060554504
1772642828945460500,4.57546044921875,0.5576704740524292,0.18554723262786865,-0.42667490243911743
1772642828955505700,4.585505615234375,0.4884013831615448,-0.11149083822965622,-0.18480953574180603
1772642828965550300,4.59555029296875,0.39224952459335327,-0.6363487839698792,-0.02503238245844841
1772642828975595500,4.605595458984375,0.3043875992298126,-1.2085374593734741,0.08075796067714691
1772642828985639700,4.6156396484375,0.2603277266025543,-1.5774054527282715,0.15844343602657318
1772642828995684400,4.625684326171875,0.2601706087589264,-1.6389657258987427,0.1428128182888031
1772642829005729500,4.6357294921875,0.2877444326877594,-1.2749707698822021,0.023810524493455887
1772642829015774500,4.6457744140625,0.33787044882774353,-0.6119539141654968,-0.135908305644989
1772642829025819600,4.655819580078125,0.39573001861572266,0.12363112717866898,-0.18404839932918549
1772642829035863300,4.66586328125,0.4056686758995056,0.6699258685112,-0.06440828740596771
1772642829045908500,4.675908447265625,0.34728074073791504,0.843263566493988,0.26259326934814453
1772642829055953400,4.685953369140625,0.22981615364551544,0.5955595374107361,0.7583332657814026
1772642829065998600,4.69599853515625,0.07341828942298889,0.07129095494747162,1.3063042163848877
1772642829076042500,4.70604248046875,-0.07928816229104996,-0.439342200756073,1.7612357139587402
1772642829086087400,4.71608740234375,-0.1719171702861786,-0.7501810193061829,2.0150763988494873
1772642829096132600,4.726132568359375,-0.1777936965227127,-0.737089991569519,2.0237395763397217
1772642829106177500,4.736177490234375,-0.084588922560215,-0.42532333731651306,1.8235121965408325
1772642829116222500,4.746222412109375,0.07838349044322968,-0.011799135245382786,1.4987164735794067
1772642829126266400,4.756266357421875,0.23613423109054565,0.34743598103523254,1.143707036972046
1772642829136311600,4.7663115234375,0.3709237277507782,0.5980207920074463,0.8229489922523499
1772642829146356500,4.7763564453125,0.46243181824684143,0.7457391619682312,0.5572930574417114
1772642829156401400,4.7864013671875,0.4587377607822418,0.7159386277198792,0.3365708291530609
1772642829166446300,4.7964462890625,0.382741242647171,0.597736120223999,0.21315914392471313
1772642829176490500,4.806490478515625,0.31920889019966125,0.49291089177131653,0.2101505696773529
1772642829186535700,4.81653564453125,0.3225354254245758,0.3539671301841736,0.3002359867095947
1772642829196580400,4.826580322265625,0.383073091506958,0.1428823173046112,0.48413339257240295
1772642829206625500,4.83662548828125,0.44273748993873596,-0.1478392630815506,0.7078277468681335
1772642829216670500,4.84667041015625,0.46784281730651855,-0.4574415981769562,0.8720792531967163
1772642829226714600,4.856714599609375,0.43973395228385925,-0.6351218223571777,0.9072420597076416
1772642829236759600,4.866759521484375,0.34359678626060486,-0.555220365524292,0.7891140580177307
1772642829246804500,4.876804443359375,0.21209201216697693,-0.2539563775062561,0.49107757210731506
1772642829256849200,4.88684912109375,0.08682384341955185,0.23961152136325836,0.07403241842985153
1772642829266893800,4.896893798828125,0.06235525384545326,0.8301312923431396,-0.33627015352249146
1772642829276938000,4.90693798828125,0.1380273699760437,1.317872405052185,-0.6207870841026306
1772642829286983000,4.91698291015625,0.2578621804714203,1.5555590391159058,-0.7056236863136292
1772642829297028000,4.927028076171875,0.39851489663124084,1.557761788368225,-0.5599450469017029
1772642829307072800,4.93707275390625,0.5050240159034729,1.400962233543396,-0.2435130625963211
1772642829317117000,4.947116943359375,0.5295834541320801,1.1311014890670776,0.12802694737911224
1772642829327162000,4.957162109375,0.48394083976745605,0.8416153788566589,0.4712394177913666
1772642829337206800,4.967206787109375,0.41195374727249146,0.5954234004020691,0.725204348564148
1772642829347252000,4.977251953125,0.32190611958503723,0.4115294814109802,0.85410475730896
1772642829357297000,4.987296875,0.2402767837047577,0.27901700139045715,0.8617592453956604
1772642829367341000,4.997341064453125,0.16913549602031708,0.16995441913604736,0.7664313912391663
1772642829377385700,5.0073857421875,0.10025789588689804,0.08695513755083084,0.6055833697319031
1772642829387431000,5.017430908203125,0.03525679185986519,0.07397009432315826,0.42207667231559753
1772642829397475800,5.027475830078125,-0.012926983647048473,0.09977293014526367,0.24918638169765472
1772642829407521000,5.03752099609375,-0.05836663767695427,0.13775387406349182,0.11186501383781433
1772642829417565000,5.04756494140625,-0.10999813675880432,0.16761909425258636,0.03671620413661003
1772642829427609900,5.05760986328125,-0.18047283589839935,0.19978821277618408,0.018934275954961777
1772642829437655000,5.067655029296875,-0.26174718141555786,0.22453190386295319,0.0349140428006649
1772642829447700000,5.077699951171875,-0.3458932340145111,0.2574291527271271,0.07325450330972672
1772642829457744000,5.087743896484375,-0.39138534665107727,0.33219844102859497,0.12159061431884766
1772642829467789000,5.0977890625,-0.4058588147163391,0.40781623125076294,0.18898296356201172
1772642829477834000,5.107833984375,-0.40296584367752075,0.391552597284317,0.28962916135787964
1772642829487879000,5.11787890625,-0.36359870433807373,0.3095836937427521,0.3996911942958832
1772642829497923800,5.127923828125,-0.2718280553817749,0.25071585178375244,0.5361904501914978
1772642829507968000,5.137968017578125,-0.1689077913761139,0.12472835183143616,0.5923996567726135
1772642829518013000,5.148012939453125,-0.13782364130020142,-0.04476054757833481,0.47363120317459106
1772642829528058000,5.15805810546875,-0.17716093361377716,-0.17836228013038635,0.20078663527965546
1772642829538102800,5.168102783203125,-0.2601141333580017,-0.25097495317459106,-0.1703062206506729
1772642829548148000,5.17814794921875,-0.33338943123817444,-0.24811287224292755,-0.6118335723876953
1772642829558192000,5.188192138671875,-0.41469305753707886,-0.1418447494506836,-1.1127678155899048
1772642829568237000,5.198237060546875,-0.4859219789505005,0.06671005487442017,-1.5376365184783936
1772642829578282000,5.208281982421875,-0.5006505846977234,0.30486324429512024,-1.7603055238723755
1772642829588327000,5.218326904296875,-0.46335113048553467,0.40700051188468933,-1.757879376411438
1772642829598372000,5.2283720703125,-0.41708245873451233,0.31491026282310486,-1.5718469619750977
1772642829608415700,5.238415771484375,-0.3770735263824463,0.09383674710988998,-1.2297465801239014
1772642829618461000,5.2484609375,-0.3415016829967499,-0.1845133900642395,-0.8106180429458618
1772642829628505900,5.258505859375,-0.32443827390670776,-0.4760136902332306,-0.4195394814014435
1772642829638551000,5.268551025390625,-0.3294021189212799,-0.6675096154212952,-0.11449994891881943
1772642829648595000,5.278594970703125,-0.30807527899742126,-0.6607376933097839,0.020288759842514992
1772642829658640000,5.288639892578125,-0.2284771203994751,-0.45444154739379883,-0.04021293297410011
1772642829668685000,5.29868505859375,-0.11964836716651917,-0.19677245616912842,-0.2657451331615448
1772642829678730000,5.30872998046875,-0.02731577679514885,-0.02634851634502411,-0.5962409973144531
1772642829688775200,5.318775146484375,0.021616078913211823,0.01817421056330204,-0.9438125491142273
1772642829698818800,5.32881884765625,0.03163755312561989,-0.016876718029379845,-1.2298616170883179
1772642829708864000,5.338864013671875,0.016932377591729164,-0.06978067755699158,-1.3896629810333252
1772642829718909000,5.348908935546875,0.0028104339726269245,-0.10904845595359802,-1.3462917804718018
1772642829728953900,5.358953857421875,0.01575392857193947,-0.18335837125778198,-1.136597752571106
1772642829738998800,5.368998779296875,0.0406038835644722,-0.23043426871299744,-0.8089554309844971
1772642829749043000,5.37904296875,0.0783882811665535,-0.23417548835277557,-0.5036871433258057
1772642829759088000,5.389088134765625,0.10362759232521057,-0.2611410617828369,-0.3218661844730377
1772642829769132800,5.3991328125,0.10692165791988373,-0.31845200061798096,-0.24929477274417877
1772642829779178000,5.409177978515625,0.12915772199630737,-0.3287304937839508,-0.2316574603319168
1772642829789222000,5.419221923828125,0.17842167615890503,-0.28350895643234253,-0.20469722151756287
1772642829799267000,5.42926708984375,0.269171804189682,-0.17501921951770782,-0.1382521539926529
1772642829809311700,5.439311767578125,0.3712981939315796,0.007710916455835104,-0.05438627675175667
1772642829819357000,5.44935693359375,0.44317078590393066,0.2124083936214447,0.022958045825362206
1772642829829401900,5.45940185546875,0.4735012352466583,0.3370797634124756,0.08019523322582245
1772642829839446000,5.469446044921875,0.47528424859046936,0.33745819330215454,0.13656823337078094
1772642829849491000,5.479490966796875,0.4628451466560364,0.2288355827331543,0.2064671516418457
1772642829859536000,5.489535888671875,0.44916367530822754,0.07024993002414703,0.3023039400577545
1772642829869581000,5.4995810546875,0.4111233651638031,-0.11589810997247696,0.42546501755714417
1772642829879626000,5.5096259765625,0.3491968810558319,-0.32475730776786804,0.5720456838607788
1772642829889670000,5.519669921875,0.2515999972820282,-0.48726794123649597,0.6919417381286621
1772642829899715000,5.529715087890625,0.12396695464849472,-0.5743066668510437,0.6987529993057251
1772642829909760000,5.539760009765625,-0.007386809680610895,-0.6224931478500366,0.5587647557258606
1772642829919805000,5.549804931640625,-0.10649874806404114,-0.6328307390213013,0.3504038155078888
1772642829929849900,5.559849853515625,-0.11768055707216263,-0.6356353163719177,0.16787289083003998
1772642829939894000,5.56989404296875,-0.03382773697376251,-0.5776202082633972,0.07209096848964691
1772642829949939000,5.57993896484375,0.10141424089670181,-0.5598598122596741,0.10400789231061935
1772642829959984000,5.589984130859375,0.21900051832199097,-0.5756784677505493,0.23840990662574768
1772642829970028800,5.60002880859375,0.270255446434021,-0.5443506836891174,0.403285950422287
1772642829980073000,5.610072998046875,0.27677807211875916,-0.4895380139350891,0.5395860075950623
1772642829990118100,5.6201181640625,0.2554408311843872,-0.375602662563324,0.5913445353507996
1772642830000162800,5.630162841796875,0.2296939194202423,-0.14327487349510193,0.5649880170822144
1772642830010208000,5.6402080078125,0.23004065454006195,0.17526289820671082,0.4991789162158966
1772642830020253000,5.6502529296875,0.28111129999160767,0.5047028660774231,0.4376002550125122
1772642830030297000,5.660297119140625,0.36635056138038635,0.8056344389915466,0.4119367003440857
1772642830040341800,5.670341796875,0.47225674986839294,1.0061033964157104,0.4387131631374359
1772642830050387000,5.680386962890625,0.5835779309272766,1.061736822128296,0.51390540599823
1772642830060432000,5.690431884765625,0.6531879305839539,0.9852550625801086,0.622103750705719
1772642830070477000,5.70047705078125,0.6514739394187927,0.8024919033050537,0.7361161112785339
1772642830080521000,5.71052099609375,0.5760758519172668,0.565390408039093,0.8281744122505188
1772642830090566000,5.72056591796875,0.4309154450893402,0.32088106870651245,0.8645169734954834
1772642830100611000,5.730611083984375,0.2662881314754486,0.12633822858333588,0.8325046896934509
1772642830110656000,5.740656005859375,0.14589382708072662,0.03032940998673439,0.7492169737815857
1772642830120701200,5.750701171875,0.047267645597457886,0.009516806341707706,0.6252465844154358
1772642830130744800,5.760744873046875,-0.05428560823202133,0.05567711219191551,0.46366992592811584
1772642830140790000,5.7707900390625,-0.1365908682346344,0.1846928894519806,0.28324076533317566
1772642830150835000,5.7808349609375,-0.22977247834205627,0.35614213347435,0.12094772607088089
1772642830160879900,5.7908798828125,-0.3313153386116028,0.5049659609794617,-0.03543948382139206
1772642830170924000,5.800924072265625,-0.3670576214790344,0.6289885640144348,-0.1313209980726242
1772642830180969000,5.810968994140625,-0.3407224416732788,0.6662507057189941,-0.14324717223644257
1772642830191014100,5.82101416015625,-0.3045575022697449,0.5938204526901245,-0.0930766835808754
1772642830201058800,5.831058837890625,-0.2909032106399536,0.5065262913703918,0.021383319050073624
1772642830211104000,5.84110400390625,-0.28607863187789917,0.4606613516807556,0.19628003239631653
1772642830221148000,5.85114794921875,-0.2878360450267792,0.5162436366081238,0.41093480587005615
1772642830231193000,5.861193115234375,-0.27592799067497253,0.653251051902771,0.6851085424423218
1772642830241237800,5.87123779296875,-0.2671020030975342,0.6285861730575562,0.9582570195198059
1772642830251283000,5.881282958984375,-0.36418914794921875,0.20927998423576355,0.9892743229866028
1772642830261329000,5.891328857421875,-0.5528762340545654,-0.45365458726882935,0.7250133752822876
1772642830271372800,5.901372802734375,-0.7215741872787476,-0.9442551732063293,0.2709028720855713
1772642830281417700,5.911417724609375,-0.7769899964332581,-1.0496330261230469,-0.2375054955482483
1772642830291463000,5.921462890625,-0.7428911924362183,-0.8747749328613281,-0.7095814347267151
1772642830301507800,5.9315078125,-0.6915422081947327,-0.6500216722488403,-1.1470937728881836
1772642830311551700,5.9415517578125,-0.6655164957046509,-0.46169573068618774,-1.5456209182739258
1772642830321597000,5.951596923828125,-0.6212648749351501,-0.2320667952299118,-1.8124678134918213
1772642830331641900,5.961641845703125,-0.5160572528839111,0.02196095883846283,-1.8806588649749756
1772642830341687000,5.97168701171875,-0.38397881388664246,0.05333379656076431,-1.8179250955581665
1772642830351731700,5.981731689453125,-0.277537077665329,-0.3103083372116089,-1.7020862102508545
1772642830361775900,5.99177587890625,-0.1885150521993637,-1.0164226293563843,-1.6207462549209595
1772642830371820800,6.00182080078125,-0.14389406144618988,-1.6772830486297607,-1.5655709505081177
1772642830381866000,6.011865966796875,-0.1098540648818016,-1.8796026706695557,-1.470650553703308
1772642830391911000,6.021910888671875,-0.04428224265575409,-1.543575644493103,-1.3053356409072876
1772642830401955800,6.031955810546875,0.03696094825863838,-0.8313637971878052,-1.109329104423523
1772642830412000000,6.042,0.10747639089822769,-0.10234501212835312,-0.9341682195663452
1772642830422045000,6.052044921875,0.1571512669324875,0.3565983176231384,-0.7881603837013245
1772642830432089900,6.06208984375,0.16698579490184784,0.547536313533783,-0.6549868583679199
1772642830442134800,6.072134765625,0.1648011952638626,0.5046040415763855,-0.4925827980041504
1772642830452180000,6.082179931640625,0.1372169703245163,0.17723336815834045,-0.28123700618743896
1772642830462224000,6.092223876953125,0.08295506983995438,-0.3616684675216675,-0.031214112415909767
1772642830472268800,6.102268798828125,0.032534774392843246,-0.8738478422164917,0.2155972719192505
1772642830482314000,6.11231396484375,-0.02545689046382904,-1.2097984552383423,0.37565749883651733
1772642830492359000,6.12235888671875,-0.09325245022773743,-1.243304967880249,0.45916199684143066
1772642830502402800,6.13240283203125,-0.14055870473384857,-0.842136561870575,0.491678386926651
1772642830512447700,6.14244775390625,-0.21700234711170197,-0.1411461979150772,0.46562469005584717
1772642830522493000,6.152492919921875,-0.3612165153026581,0.5897703170776367,0.4348007142543793
1772642830532537900,6.162537841796875,-0.46830037236213684,0.9805652499198914,0.45424073934555054
1772642830542583000,6.1725830078125,-0.5294036865234375,0.9360670447349548,0.5362895131111145
1772642830552627000,6.182626953125,-0.5791081190109253,0.5548107624053955,0.6731429696083069
1772642830562671900,6.192671875,-0.5887511372566223,0.019699934870004654,0.8146303296089172
1772642830572717000,6.202717041015625,-0.5631855726242065,-0.42142367362976074,0.8927837610244751
1772642830582761700,6.21276171875,-0.49564409255981445,-0.6659660339355469,0.885409414768219
1772642830592806000,6.222805908203125,-0.3833489716053009,-0.6620365381240845,0.7909241914749146
1772642830602850800,6.232850830078125,-0.23182950913906097,-0.44146713614463806,0.6309918165206909
1772642830612896000,6.24289599609375,-0.05218623951077461,-0.13834775984287262,0.4435049891471863
1772642830622940700,6.252940673828125,0.08670932799577713,0.12055703997612,0.27831417322158813
1772642830632985900,6.26298583984375,0.1611257791519165,0.23051762580871582,0.16374684870243073
1772642830643030000,6.273030029296875,0.20177572965621948,0.17654520273208618,0.11337955296039581
1772642830653075000,6.283074951171875,0.2767610251903534,-0.05518602207303047,0.1335330307483673
1772642830663120000,6.293119873046875,0.39344263076782227,-0.45010244846343994,0.16638311743736267
1772642830673164800,6.303164794921875,0.5247527360916138,-0.8763405680656433,0.1633889228105545
1772642830683210000,6.3132099609375,0.6028246283531189,-1.1445661783218384,0.12079912424087524
1772642830693253600,6.323253662109375,0.6211852431297302,-1.1456586122512817,0.05006396770477295
1772642830703298800,6.333298828125,0.5965547561645508,-0.974909782409668,-0.05232658609747887
1772642830713343700,6.34334375,0.5903533101081848,-0.6821357011795044,-0.14103461802005768
1772642830723389000,6.353388916015625,0.6150932908058167,-0.3943134844303131,-0.20210808515548706
1772642830733432800,6.363432861328125,0.6492049098014832,-0.18517811596393585,-0.2291807234287262
1772642830743477800,6.373477783203125,0.6747624278068542,-0.031192541122436523,-0.1793375313282013
1772642830753523000,6.38352294921875,0.6733281016349792,0.00019121496006846428,-0.03696361184120178
1772642830763567900,6.39356787109375,0.6540020704269409,0.013822072185575962,0.20368734002113342
1772642830773613000,6.403613037109375,0.6268588304519653,0.038186267018318176,0.5002513527870178
1772642830783657000,6.413656982421875,0.5902742147445679,0.07406836748123169,0.7970297932624817
1772642830793702000,6.423701904296875,0.5465104579925537,0.10596584528684616,1.020768642425537
1772642830803746800,6.433746826171875,0.500312328338623,0.13211676478385925,1.138173222541809
1772642830813792000,6.4437919921875,0.42788901925086975,0.16218064725399017,1.1372627019882202
1772642830823837000,6.4538369140625,0.3489428162574768,0.21404998004436493,1.0496982336044312
1772642830833880800,6.463880859375,0.27709951996803284,0.27381476759910583,0.9081262350082397
1772642830843926000,6.473926025390625,0.21251332759857178,0.2810649573802948,0.7508748173713684
1772642830853970700,6.483970703125,0.14554494619369507,0.2595548629760742,0.6023074388504028
1772642830864016000,6.494015869140625,0.09511745721101761,0.2497677505016327,0.48247769474983215
1772642830874060000,6.50406005859375,0.05489147827029228,0.2654130160808563,0.39479419589042664
1772642830884105000,6.51410498046875,-0.00227886694483459,0.3089229464530945,0.3430385887622833
1772642830894150000,6.52414990234375,-0.08892481029033661,0.3843367397785187,0.3172301650047302
1772642830904194800,6.53419482421875,-0.17076349258422852,0.47887471318244934,0.3283730745315552
1772642830914240000,6.544239990234375,-0.23687885701656342,0.5450124740600586,0.370415598154068
1772642830924284000,6.554283935546875,-0.2748696506023407,0.5549535155296326,0.42043909430503845
1772642830934328800,6.564328857421875,-0.27827581763267517,0.5553335547447205,0.457903116941452
1772642830944373800,6.574373779296875,-0.24559777975082397,0.5833007097244263,0.480657696723938
1772642830954419000,6.5844189453125,-0.2178630828857422,0.6263943910598755,0.4707414209842682
1772642830964463900,6.5944638671875,-0.22356517612934113,0.6529368162155151,0.44232574105262756
1772642830974507800,6.6045078125,-0.24588780105113983,0.6408053040504456,0.39899611473083496
1772642830984553000,6.614552978515625,-0.24793604016304016,0.6061205267906189,0.3440766930580139
1772642830994598000,6.624597900390625,-0.21620553731918335,0.5221068859100342,0.2935328185558319
1772642831004643000,6.63464306640625,-0.1669575572013855,0.3552856743335724,0.2178732007741928
1772642831014686700,6.644686767578125,-0.13592134416103363,0.021771341562271118,0.08190178871154785
1772642831024732000,6.65473193359375,-0.15267902612686157,-0.4865054786205292,-0.1604410707950592
1772642831034776800,6.66477685546875,-0.17215925455093384,-0.9533461332321167,-0.49962952733039856
1772642831044822000,6.674822021484375,-0.16832590103149414,-1.085721492767334,-0.860605001449585
1772642831054866700,6.68486669921875,-0.12432648241519928,-0.8679769039154053,-1.157305359840393
1772642831064910800,6.694910888671875,-0.09615928679704666,-0.46234580874443054,-1.3612987995147705
1772642831074956000,6.7049560546875,-0.12461889535188675,-0.07520074397325516,-1.547165870666504
1772642831085001000,6.7150009765625,-0.21304889023303986,0.11889336258172989,-1.7792067527770996
1772642831095046000,6.7250458984375,-0.3159409165382385,0.12685328722000122,-1.9921821355819702
1772642831105090800,6.7350908203125,-0.3957212269306183,0.06790341436862946,-2.089261293411255
1772642831115135000,6.745135009765625,-0.39414143562316895,-0.015136076137423515,-1.9830483198165894
1772642831125179600,6.7551796875,-0.34070858359336853,-0.0712752416729927,-1.6775767803192139
1772642831135224800,6.765224853515625,-0.2585862874984741,-0.07366543263196945,-1.2668308019638062
1772642831145269800,6.775269775390625,-0.17049264907836914,-0.025834793224930763,-0.8685345649719238
1772642831155314000,6.78531396484375,-0.08972083032131195,0.019543873146176338,-0.6023750901222229
1772642831165358800,6.79535888671875,-0.022219818085432053,-0.04128246009349823,-0.5327006578445435
1772642831175403800,6.80540380859375,0.0010556770721450448,-0.21844126284122467,-0.6476016640663147
1772642831185449000,6.815448974609375,0.025595907121896744,-0.37269794940948486,-0.8111687898635864
1772642831195494000,6.825493896484375,0.06728342920541763,-0.44093024730682373,-0.9419198632240295
1772642831205537800,6.835537841796875,0.09986454248428345,-0.3434934616088867,-1.018545389175415
1772642831215582700,6.845582763671875,0.12060391157865524,-0.12189554423093796,-1.025779366493225
1772642831225628000,6.8556279296875,0.10923940688371658,0.07773607224225998,-0.9869874715805054
1772642831235672800,6.8656728515625,0.10376900434494019,0.22377583384513855,-0.9147758483886719
1772642831245717800,6.8757177734375,0.13219745457172394,0.2883242070674896,-0.7680665850639343
1772642831255761000,6.885760986328125,0.19758151471614838,0.21457327902317047,-0.4495064318180084
1772642831265806000,6.89580615234375,0.27212393283843994,-0.02232714369893074,0.08723876625299454
1772642831275851000,6.90585107421875,0.31246310472488403,-0.39944514632225037,0.7435764074325562
1772642831285896000,6.91589599609375,0.2842508852481842,-0.7804926037788391,1.3473174571990967
1772642831295939800,6.92593994140625,0.21137721836566925,-1.0321533679962158,1.7366724014282227
1772642831305985000,6.935985107421875,0.1405206322669983,-1.0767202377319336,1.8570208549499512
1772642831316030000,6.946030029296875,0.10391281545162201,-0.9161202311515808,1.7392641305923462
1772642831326075100,6.9560751953125,0.07541406154632568,-0.6426724195480347,1.4624780416488647
1772642831336119800,6.966119873046875,0.03641100600361824,-0.3990938663482666,1.1390049457550049
1772642831346164000,6.9761640625,-0.008246212266385555,-0.23842854797840118,0.8610207438468933
1772642831356209200,6.986209228515625,-0.06762591749429703,-0.1413440853357315,0.6440090537071228
1772642831366254000,6.996254150390625,-0.1299779713153839,-0.06627222895622253,0.4667418897151947
1772642831376299000,7.006299072265625,-0.16594769060611725,-0.026214027777314186,0.31327348947525024
1772642831386344000,7.016343994140625,-0.18624843657016754,0.002968625631183386,0.15725886821746826
1772642831396388000,7.02638818359375,-0.20535369217395782,0.03008120320737362,-0.01738112047314644
1772642831406433000,7.03643310546875,-0.22854235768318176,0.018747055903077126,-0.1782352477312088
1772642831416478000,7.04647802734375,-0.25037601590156555,-0.001969940261915326,-0.2830258309841156
1772642831426523000,7.05652294921875,-0.24953286349773407,0.030375482514500618,-0.31521254777908325
1772642831436567000,7.066567138671875,-0.2180550992488861,0.09345538169145584,-0.23854465782642365
1772642831446612000,7.076612060546875,-0.18768706917762756,0.10281932353973389,-0.11561501026153564
1772642831456657000,7.086656982421875,-0.22092358767986298,-0.05710722878575325,-0.053525540977716446
1772642831466702000,7.0967021484375,-0.36708879470825195,-0.3391090929508209,-0.10323930531740189
1772642831476747000,7.1067470703125,-0.5738531351089478,-0.6104108691215515,-0.28569647669792175
1772642831486791000,7.116791015625,-0.7054705619812012,-0.5845516324043274,-0.5220533609390259
1772642831496835800,7.1268359375,-0.703688383102417,-0.19290047883987427,-0.6948277950286865
1772642831506881000,7.136881103515625,-0.6247179508209229,0.27496153116226196,-0.7451050877571106
1772642831516926000,7.146926025390625,-0.5216381549835205,0.5323467254638672,-0.6370049715042114
1772642831526971100,7.15697119140625,-0.4173138737678528,0.5293226838111877,-0.402357816696167
1772642831537015000,7.16701513671875,-0.327259361743927,0.3928213119506836,-0.09754014015197754
1772642831547060000,7.17706005859375,-0.2501097023487091,0.2577063739299774,0.2147706300020218
1772642831557105200,7.187105224609375,-0.17668741941452026,0.20424501597881317,0.48543861508369446
1772642831567150000,7.197150146484375,-0.09738621115684509,0.22616629302501678,0.685685932636261
1772642831577194000,7.207194091796875,-0.02762417122721672,0.27124693989753723,0.7778518199920654
1772642831587239000,7.217239013671875,0.01417360920459032,0.27407601475715637,0.7559912800788879
1772642831597284000,7.2272841796875,0.005668005906045437,0.24422146379947662,0.6355457901954651
1772642831607328800,7.237328857421875,0.004037618637084961,0.23343752324581146,0.4653192162513733
1772642831617374000,7.2473740234375,0.04265904799103737,0.24963432550430298,0.2942332327365875
1772642831627418000,7.257418212890625,0.10107521712779999,0.22525575757026672,0.12985067069530487
1772642831637463000,7.267463134765625,0.1543557494878769,0.14371535181999207,-0.01335601881146431
1772642831647508000,7.277508056640625,0.18080227077007294,0.04842505604028702,-0.1469327211380005
1772642831657553000,7.287552978515625,0.17354542016983032,0.020425911992788315,-0.26303428411483765
1772642831667597000,7.29759716796875,0.1288360059261322,0.05783506855368614,-0.3510216772556305
1772642831677642000,7.30764208984375,0.0442364364862442,0.11992187798023224,-0.4072311520576477
1772642831687687000,7.31768701171875,-0.044131774455308914,0.17524105310440063,-0.4367927610874176
1772642831697732000,7.327732177734375,-0.11441046744585037,0.2203424870967865,-0.43178150057792664
1772642831707777000,7.337777099609375,-0.15248194336891174,0.31327536702156067,-0.3972504138946533
1772642831717821000,7.347821044921875,-0.1675325334072113,0.4323010742664337,-0.3552230894565582
1772642831727865900,7.357865966796875,-0.17883072793483734,0.4761289954185486,-0.3152008354663849
1772642831737911000,7.3679111328125,-0.17417898774147034,0.38316524028778076,-0.3027588129043579
1772642831747956000,7.3779560546875,-0.14524081349372864,0.1833607703447342,-0.3152221441268921
1772642831758001200,7.388001220703125,-0.10243210196495056,-0.051542285829782486,-0.32096922397613525
1772642831768045000,7.398045166015625,-0.05572744458913803,-0.09087157994508743,-0.27372103929519653
1772642831778090000,7.408090087890625,0.006484530866146088,0.29414108395576477,-0.07134635001420975
1772642831788135200,7.41813525390625,-0.07575201988220215,-0.08018618077039719,-0.24865242838859558
1772642831798180000,7.42818017578125,-0.4468448758125305,-0.91916823387146,-1.073928713798523
1772642831808224000,7.43822412109375,-0.6727376580238342,-0.9665200114250183,-1.8989722728729248
1772642831818269000,7.44826904296875,-0.49445581436157227,-0.26448333263397217,-2.2821762561798096
1772642831828314000,7.458314208984375,-0.23517842590808868,0.46365049481391907,-2.265737533569336
1772642831838359000,7.468359130859375,-0.18213944137096405,0.6203122735023499,-2.1926071643829346
1772642831848404000,7.478404052734375,-0.32711607217788696,0.431946337223053,-2.1303179264068604
1772642831858448100,7.4884482421875,-0.49759113788604736,0.20175841450691223,-2.0046603679656982
1772642831868493000,7.4984931640625,-0.6175910234451294,-0.05168157070875168,-1.817141056060791
1772642831878538000,7.5085380859375,-0.6881672143936157,-0.26646363735198975,-1.6376299858093262
1772642831888583000,7.5185830078125,-0.7149708867073059,-0.31616833806037903,-1.454512596130371
1772642831898628000,7.528628173828125,-0.7238354682922363,-0.21045523881912231,-1.268608808517456
1772642831908672000,7.538672119140625,-0.7323482632637024,-0.017080184072256088,-1.122926950454712
1772642831918717000,7.548717041015625,-0.7395952343940735,0.09583624452352524,-1.0766656398773193
1772642831928761900,7.558761962890625,-0.779456615447998,-0.012209528125822544,-1.2091704607009888
1772642831938807000,7.56880712890625,-0.8479523658752441,-0.3020235002040863,-1.5237987041473389
1772642831948851200,7.578851318359375,-0.8648948669433594,-0.5703577399253845,-1.891239047050476
1772642831958895900,7.588895751953125,-0.8093727231025696,-0.6751611232757568,-2.190138578414917
1772642831968941000,7.598941162109375,-0.6981537938117981,-0.6010386943817139,-2.362034320831299
1772642831978986000,7.608986083984375,-0.5390477776527405,-0.36195528507232666,-2.3585205078125
1772642831989031200,7.61903125,-0.37085768580436707,-0.04266064614057541,-2.1904377937316895
1772642831999074800,7.62907470703125,-0.22825127840042114,0.20637154579162598,-1.8941861391067505
1772642832009120000,7.6391201171875,-0.17559951543807983,0.31894657015800476,-1.5202330350875854
1772642832019165000,7.6491650390625,-0.21189308166503906,0.21773791313171387,-1.1262476444244385
1772642832029210000,7.659210205078125,-0.2800697386264801,-0.08548533916473389,-0.7694830894470215
1772642832039254800,7.6692548828125,-0.33977407217025757,-0.3861303925514221,-0.5008444786071777
1772642832049299000,7.679298828125,-0.35061049461364746,-0.5721966624259949,-0.355276882648468
1772642832059344100,7.68934423828125,-0.2983318269252777,-0.6287872195243835,-0.32842394709587097
1772642832069389000,7.69938916015625,-0.20143644511699677,-0.554103672504425,-0.37792810797691345
1772642832079434000,7.70943408203125,-0.10368937999010086,-0.3379276990890503,-0.45558804273605347
1772642832089478000,7.719477783203125,-0.01774783805012703,-0.1049133688211441,-0.5363760590553284
1772642832099523000,7.729523193359375,0.036186233162879944,0.06740567088127136,-0.588024377822876
1772642832109568000,7.739568115234375,0.04453737288713455,0.1637125015258789,-0.6187441945075989
1772642832119613000,7.749613037109375,0.014103301800787449,0.1560090333223343,-0.6424372792243958
1772642832129657900,7.759657958984375,-0.047692954540252686,0.11158405244350433,-0.6347023844718933
1772642832139702000,7.769701904296875,-0.09135600924491882,0.023799605667591095,-0.6055426597595215
1772642832149747000,7.779746826171875,-0.12022334337234497,-0.055685900151729584,-0.551714301109314
1772642832159791900,7.7897919921875,-0.16079899668693542,-0.09907998144626617,-0.47562113404273987
1772642832169837000,7.799837158203125,-0.21078386902809143,-0.11919616162776947,-0.38431012630462646
1772642832179881200,7.809881103515625,-0.2754310369491577,-0.194041907787323,-0.2805001139640808
1772642832189926000,7.81992578125,-0.3179907500743866,-0.36039093136787415,-0.23309184610843658
1772642832199971000,7.82997119140625,-0.3059133291244507,-0.5374288558959961,-0.28628048300743103
1772642832210016000,7.84001611328125,-0.27213138341903687,-0.3881000578403473,-0.39198267459869385
1772642832220061200,7.850061279296875,-0.22000160813331604,-0.04827725142240524,-0.49971073865890503
1772642832230104800,7.860104736328125,-0.15496960282325745,0.2861928641796112,-0.629721999168396
1772642832240150000,7.87014990234375,-0.10495943576097488,0.5291173458099365,-0.738662600517273
1772642832250195000,7.88019482421875,-0.06812871992588043,0.6109190583229065,-0.7987592220306396
1772642832260241000,7.890240966796875,-0.056341834366321564,0.5815105438232422,-0.7765743136405945
1772642832270285600,7.90028564453125,-0.04252961650490761,0.4627407491207123,-0.6819474101066589
