time,seconds_elapsed,z,y,x
1772639256825364700,0.05936474609375,0.0731242729216814,0.007285324998604482,0.006504166862787679
1772639256835409700,0.06940966796875,0.10499766704440117,0.00670063699966995,0.01035431208545342
1772639256845455600,0.07945556640625,0.09751578685641288,-0.014926564462523674,0.006999476099060848
1772639256855500800,0.089500732421875,0.09182955791354179,-0.010848539042915217,-0.0032971509824041277
1772639256865545700,0.099545654296875,0.08195289154350757,0.01831660533468239,0.00392617873409763
1772639256875591000,0.1095908203125,0.08748772931694984,0.016992700928804696,-0.0008734674994368105
1772639256885635800,0.1196357421875,0.09152677557468414,0.006286490682739531,0.008403598142787813
1772639256895680800,0.1296806640625,0.0987087960332632,0.00048310905429243574,0.008879700355092062
1772639256905725700,0.1397255859375,0.10062076713442802,0.002765466104118968,-0.00008773308238014578
1772639256915771600,0.149771728515625,0.09431377594470977,-0.009834392422664677,-0.00249151542163454
1772639256925816800,0.15981689453125,0.08861644108593464,0.005390132073126733,0.006961171648977324
1772639256935861800,0.16986181640625,0.08672317468523978,0.013206507195776793,0.015501703177578747
1772639256945906700,0.17990673828125,0.10647650742530822,0.004741385840810835,-0.000226904091052711
1772639256955951600,0.18995166015625,0.08314064002335071,-0.004189550369529752,0.0032942375061102208
1772639256965996800,0.199996826171875,0.10063245757222175,-0.003016218288695381,0.0017531364107970147
1772639256976041700,0.210041748046875,0.09224106132388114,-0.003277497575507732,-0.015235572187835349
1772639256986087700,0.220087646484375,0.08430909928083419,0.00246506894564809,-0.01167758744531311
1772639256996132900,0.2301328125,0.09987082554996013,-0.007277355179635923,-0.004765004178415984
1772639257006177500,0.240177490234375,0.0923784239679575,-0.005758399700760492,-0.007599387354124337
1772639257016222700,0.25022265625,0.0947615197122097,-0.002317563077236991,-0.0022237861298490314
1772639257026267600,0.260267578125,0.09880524214506149,-0.01188142803789815,-0.015489510416286066
1772639257036312800,0.270312744140625,0.08339315347969531,0.0025178451644896995,-0.015064681733492761
1772639257046357500,0.280357421875,0.11017828455269336,0.006093403808787115,-0.004295477837370708
1772639257056403700,0.29040380859375,0.08639701147079468,-0.006183455570772639,-0.00813670910121873
1772639257066448600,0.30044873046875,0.0928396117389202,-0.0067395859079697395,-0.009822588962083682
1772639257076493800,0.310493896484375,0.09762976862490176,0.01043714979700744,0.01059672427289188
1772639257086538800,0.320538818359375,0.08296820606589317,0.00883806515771721,-0.006100654962658882
1772639257096584000,0.330583984375,0.09493746080100536,-0.008201116677760727,0.00015340959657914936
1772639257106628600,0.340628662109375,0.0846183113604784,-0.007478600814691162,0.004159339036000892
1772639257116673800,0.350673828125,0.09001111031472682,-0.0038096528112509984,0.00988136994461529
1772639257126719700,0.3607197265625,0.09839023160338402,0.00894898617779545,-0.0015242595583666114
1772639257136764700,0.3707646484375,0.09569850830137729,0.00421849447786808,0.004677362427581102
1772639257146809900,0.380809814453125,0.0901648395717144,0.003019198265770683,-0.005311696542054415
1772639257156854500,0.3908544921875,0.09001111031472682,-0.007720419917907565,-0.003736218253104016
1772639257166899700,0.400899658203125,0.06457388671934604,-0.012394111959013389,0.009849961026199162
1772639257176944600,0.410944580078125,0.09584756138324738,-0.009650136738317086,0.0025942542769014833
1772639257186989800,0.42098974609375,0.08222820135354995,0.005119478459426318,-0.0009416464979760348
1772639257197035800,0.431035888671875,0.09479425293803215,0.005960515268784365,0.0004696359388995915
1772639257207081000,0.4410810546875,0.10227671764791012,0.00040977496084524317,0.0052970926279667764
1772639257217125600,0.451125732421875,0.0885088890582323,-0.01194334854229819,0.006667458532564342
1772639257227170800,0.4611708984375,0.09853636207580566,-0.006440411165149999,-0.0004354505415074527
1772639257237215700,0.4712158203125,0.0886614492714405,0.0016767518437380204,-0.0017661785554606466
1772639257247261000,0.481260986328125,0.09479308389425277,-0.0004368633263482479,-0.00618695413977839
1772639257257305600,0.4913056640625,0.08940554563701152,0.0023280707715195603,-0.007859883187524975
1772639257267351600,0.5013515625,0.0771370156943798,-0.006281771695960196,-0.00875965417199768
1772639257277396700,0.511396728515625,0.08716331966817378,-0.007121669715113239,-0.006151206972962245
1772639257287441700,0.521441650390625,0.10033025975525378,-0.007970449156221002,-0.013165825842227787
1772639257297486800,0.53148681640625,0.043316579157114024,-0.014058536898251622,-0.008863699068361893
1772639257307531800,0.54153173828125,0.03583469896912574,-0.006536431443618494,-0.0006586009060498327
1772639257317576700,0.55157666015625,0.13190204058289526,-0.005963143904821481,-0.002570380210969597
1772639257327621600,0.56162158203125,0.12711539082825182,0.0014953559784014942,0.01094400334060192
1772639257337667600,0.57166748046875,0.06127484517395496,0.0073669656960933935,0.007368537740316241
1772639257347712800,0.581712646484375,0.0840209299892187,0.0021241548304096794,-0.01184234041981399
1772639257357757700,0.5917578125,0.08776187008321285,-0.007601372673589503,-0.02617429656512104
1772639257367802600,0.601802734375,0.0678612378269434,-0.006802724546854733,-0.0007479140241630375
1772639257377847600,0.61184765625,0.10452303526997565,-0.006899774017673917,0.007431529107084498
1772639257387892700,0.621892822265625,0.09554477904438972,-0.001979118053242564,-0.003620318522164598
1772639257397938700,0.631938720703125,0.10527180781066417,0.010377415541472146,-0.007330333754932508
1772639257407983900,0.64198388671875,0.08417115211486816,0.0034926769794372376,-0.000052497372217476366
1772639257418028800,0.65202880859375,0.08177578141093253,-0.01788244028467452,-0.008238297179015353
1772639257428073700,0.66207373046875,0.09464695342183113,-0.0151481930151931,0.01045125138759613
1772639257438118700,0.67211865234375,0.08103285408914089,0.010442054300988093,0.009581519348360597
1772639257448163800,0.682163818359375,0.09898995106220244,0.009176458236895267,0.01386706944676116
1772639257458208800,0.692208740234375,0.09090893593728541,0.006813375517498934,0.0065916076842229806
1772639257468254700,0.702254638671875,0.09584697686135768,-0.01596158034086693,-0.011501262764027341
1772639257478300000,0.7122998046875,0.0970446622133255,-0.014945941591495647,-0.0007788936843164265
1772639257488344600,0.722344482421875,0.08941314442157745,0.004791859077656408,-0.004274535514041781
1772639257498389800,0.7323896484375,0.09345452876687049,0.011308918529702349,0.005790721363807097
1772639257508434700,0.7424345703125,0.09210545224547385,0.014497178335621719,-0.00252935408083722
1772639257518480000,0.75247998046875,0.07220248190164566,-0.007184727297251811,-0.0061365573931019745
1772639257528524500,0.762524658203125,0.09015665626525879,0.004685649052847293,-0.013476809753850101
1772639257538570800,0.77257080078125,0.07713643117249011,-0.017716296787397005,-0.010664455746859312
1772639257548615700,0.78261572265625,0.07444412334859371,-0.006575540752944652,-0.01050053388942033
1772639257558660900,0.792660888671875,0.08851005810201168,0.01721474047342781,0.001622568833688274
1772639257568705800,0.802705810546875,0.08880991783142089,0.008929235731132211,0.005168022888200357
1772639257578751000,0.8127509765625,0.07893383598327636,-0.008001711944164708,0.0013994002028368414
1772639257588795600,0.822795654296875,0.08402209903299808,-0.014414428530680016,-0.017142839714419097
1772639257598841600,0.832841552734375,0.077289575907588,-0.006698060879271361,-0.008566378355911002
1772639257608886800,0.84288671875,0.09225450532734393,-0.011053057772223837,0.003350762599473819
1772639257618931700,0.852931640625,0.08417524376809596,0.008956363483364111,0.0036346484416164455
1772639257628977000,0.862976806640625,0.10108546203672886,0.0029035108806740027,-0.0005215213897638022
1772639257639021600,0.873021484375,0.07774199585020541,-0.012610605395550372,-0.0019176062575075774
1772639257649066800,0.883066650390625,0.0769938078314066,-0.013339885501191018,-0.013905848820880055
1772639257659112700,0.89311279296875,0.0888140094846487,0.0029312979324982733,0.000328464769385755
1772639257669157600,0.90315771484375,0.08821662811338901,0.011547914917347952,0.003974858447723091
1772639257679202800,0.913202880859375,0.08522504508197307,-0.00045292626187147105,0.008549838213063776
1772639257689247700,0.923247802734375,0.09105974258482456,-0.006276941398860071,-0.00034860337511636317
1772639257699292700,0.933292724609375,0.09255611862242222,-0.0135151267620211,-0.0032507454242557284
1772639257709337600,0.943337646484375,0.09061024525165558,-0.01218230725568137,-0.004333599624363705
1772639257719382800,0.9533828125,0.08627075474262237,-0.005087946814246243,-0.012675905167125164
1772639257729428700,0.9634287109375,0.08223229300677776,-0.0024091395052062577,0.005626425047032535
1772639257739474000,0.973473876953125,0.0907616364210844,-0.008165054987935582,0.01143881025337614
1772639257749518600,0.9835185546875,0.09180909964740276,-0.003894954191238503,-0.002513334527797997
1772639257759563800,0.993563720703125,0.09689560913145541,0.008181470691552385,-0.0008381678571924567
1772639257769608700,1.003608642578125,0.08507365391254425,-0.00131638896134682,-0.008812306807842105
1772639257779654000,1.01365380859375,0.09539923309385775,0.004066120352683356,0.0020270123155787588
1772639257789698800,1.02369873046875,0.09495032028257847,-0.008802090803682222,0.002511918888846412
1772639257799744800,1.033744873046875,0.08911620730161667,0.008789576098692487,0.00522478544358164
1772639257809790200,1.043790283203125,0.08268062129616736,-0.00602535267441126,0.004807080621318891
1772639257819835100,1.053835205078125,0.0835766933530569,-0.011112189239560392,0.006977035938389599
1772639257829880000,1.063880126953125,0.08178045758605003,0.0008257113760628272,0.010818258069083094
1772639257839925000,1.073925048828125,0.09644494275450706,-0.005924699603309273,0.01234656361490488
1772639257849970200,1.08397021484375,0.10108546203672886,0.00748259428650781,0.0025051694876514373
1772639257860016000,1.09401611328125,0.09569909282326698,-0.0008996676656621275,0.0074710391335655
1772639257870061000,1.10406103515625,0.10213292526304721,-0.006553675981008564,-0.004714817494293674
1772639257880106200,1.114106201171875,0.08761690865457057,-0.004800242742689443,0.010890757049713283
1772639257890151000,1.12415087890625,0.09734335289895533,0.0021323010334250284,-0.003934288975317031
1772639257900196000,1.134196044921875,0.09030980100035667,0.0009667541105911368,-0.0008317015837877988
1772639257910241000,1.144240966796875,0.09285188669860363,0.0021008441659476373,0.0009149868199136108
1772639257920286200,1.1542861328125,0.09778817405700684,-0.007031989558352506,-0.0010504954336211085
1772639257930332200,1.164332275390625,0.08297463580667971,-0.005034820966832922,-0.00506336607048288
1772639257940377000,1.174377197265625,0.08117840003967285,0.003090378076393972,0.005475910660438239
1772639257950422000,1.184422119140625,0.0897071589320898,0.0007681148495088564,-0.011733774611959234
1772639257960467200,1.19446728515625,0.08686345993876457,0.016536725905787898,-0.014540265133744104
1772639257970512100,1.20451220703125,0.08970657441020011,0.0023580115353455766,-0.0010739128418266772
1772639257980557300,1.214557373046875,0.09269874196350573,0.004198285090189892,-0.002298312670784071
1772639257990603300,1.224603271484375,0.08656360020935534,-0.008617303113083471,-0.001880479984357953
1772639258000648000,1.23464794921875,0.10137772298157215,-0.00931340988901793,-0.0035056791665498167
1772639258010693000,1.244693115234375,0.08611468739807605,-0.00170064132186817,-0.008527827310655265
1772639258020738000,1.254738037109375,0.101676413667202,0.0033879961871891282,0.0011277801872231065
1772639258030783200,1.264783203125,0.09329846142232417,0.0016907649568922351,0.010164132408751175
1772639258040828200,1.274828125,0.09928513461649417,-0.0031114739508833734,-0.004983779761940241
1772639258050873000,1.284873046875,0.08536883746683598,0.007086358656425727,0.0011363105535507202
1772639258060919000,1.2949189453125,0.08611761000752449,0.0027180895774799865,0.00597514715315774
1772639258070964200,1.304964111328125,0.09150456374287605,-0.0010078595850034615,0.0016489088513422757
1772639258081009200,1.315009033203125,0.09704057056009768,0.002506123902299441,0.004109453745977953
1772639258091054000,1.32505419921875,0.09644202014505862,0.0031433463768917136,0.001620860933791846
1772639258101099000,1.33509912109375,0.09629179801940918,-0.0003837603118212428,0.007062293935893103
1772639258111144200,1.345144287109375,0.07878302933573722,-0.0036313593643426427,0.0006617244448978454
1772639258121190100,1.355190185546875,0.08806114529073238,-0.0018080106864799745,0.0011759027784224599
1772639258131235000,1.365235107421875,0.08491817108988761,0.008367331527807982,-0.0056395859227050095
1772639258141280300,1.3752802734375,0.08252338490784168,-0.011540109495160867,-0.006616961321188136
1772639258151325200,1.3853251953125,0.08805997624695301,-0.0009792613948928191,0.008213272335613146
1772639258161370000,1.3953701171875,0.10137713845968246,0.0031722162783495147,-0.006092453389894217
1772639258171415000,1.4054150390625,0.08536591485738754,0.008779301870672497,-0.012072979971067979
1772639258181461000,1.4154609375,0.08476561087667941,0.0023804596875270363,-0.0026732469303999092
1772639258191506200,1.425506103515625,0.10062719687521457,0.0022852123022603335,-0.006105139341531321
1772639258201551000,1.435551025390625,0.09015256461203097,-0.0032325464722176545,-0.001928830904420465
1772639258211596000,1.445595947265625,0.07219546763896942,-0.0006708142169401981,-0.007536332055274397
1772639258221641000,1.455640869140625,0.08491466395854949,-0.00905392441083677,-0.0018389880633447318
1772639258231686100,1.46568603515625,0.08820669124126433,0.002307279145240318,-0.0016686547314282505
1772639258241731000,1.47573095703125,0.09000292700827121,-0.0008683186835725792,0.002597122087422758
1772639258251777300,1.48577734375,0.0864127935618162,-0.00136189033719711,0.0011701032252982259
1772639258261822200,1.495822265625,0.0895545987188816,0.00622862301566056,0.009361666052602231
1772639258271867100,1.5058671875,0.08970482084453106,0.0050554499087971634,-0.000004840571898967027
1772639258281912000,1.515912109375,0.08222352517843246,-0.001439884051919216,0.0008026490192394703
1772639258291957200,1.525957275390625,0.09449380868673324,-0.007413861019653268,-0.004259867667872458
1772639258302002200,1.536002197265625,0.09613865328431129,0.002500332340685418,-0.0009194163998588919
1772639258312048000,1.546048095703125,0.07129881106019019,0.00265433559230878,-0.002785274203820154
1772639258322093000,1.556093017578125,0.08611234931051731,0.0062698968826094634,-0.0011963884440250694
1772639258332138000,1.566137939453125,0.09434183299541472,0.005961310424050316,-0.010679224057728424
1772639258342183200,1.57618310546875,0.08267009990215302,-0.006545505803462583,-0.004859778922935948
1772639258352228000,1.58622802734375,0.10481529621481894,0.004206655626313295,-0.011879987282771617
1772639258362273300,1.596273193359375,0.09134791187644005,0.005156694351654732,0.003678113124007359
1772639258372319200,1.6063193359375,0.0928442879140377,-0.0021500507484248374,0.0025280845723580567
1772639258382364200,1.6163642578125,0.08566226745545863,0.012721723920095246,0.0042077630212996155
1772639258392409000,1.6264091796875,0.0944914705991745,0.004997189516073558,-0.01638367364387959
1772639258402454000,1.6364541015625,0.08192249640524386,0.009005630572990048,-0.012454407903552055
1772639258412499200,1.646499267578125,0.0891056859076023,-0.0008840345592238009,-0.005199705801252275
1772639258422544100,1.656544189453125,0.0952408276617527,-0.005095639784468221,-0.0039901108157821
1772639258432589000,1.666589111328125,0.08012859872579574,-0.006975341738224961,0.0032968861209228635
1772639258442635000,1.676635009765625,0.0873112037062645,0.01044376220088452,0.0013563921781722455
1772639258452680200,1.68668017578125,0.09703706342875956,-0.002379749584762612,-0.0007775602437555789
1772639258462725000,1.69672509765625,0.09090133715271949,0.0027087109694257376,0.004382617264706641
1772639258472770300,1.706770263671875,0.09000409605205059,-0.00029814326718042135,0.004302747828373686
1772639258482815000,1.71681494140625,0.09494330601990222,-0.0005779585765150841,-0.00635451099271886
1772639258492860200,1.726860107421875,0.08596504979431628,0.0069605631525570056,0.0021621373367961493
1772639258502906000,1.736906005859375,0.08970540536642074,0.005171877650232636,0.0021325733155943454
1772639258512951000,1.746950927734375,0.08237257826030255,-0.007793619868147652,-0.00014937274227850138
1772639258522996200,1.756996337890625,0.09554068739116191,-0.006678993706731125,0.005058178438711911
1772639258533041000,1.767041015625,0.09015314913392067,-0.0032029818801936924,0.010699883253267034
1772639258543086000,1.777086181640625,0.0891056859076023,-0.0003819685010676039,0.007537464566435665
1772639258553131000,1.787131103515625,0.08521452368795872,0.00378435968143458,0.010163447422161697
1772639258563177200,1.79717724609375,0.09763561384379864,-0.01705050808873493,0.00579587246295996
1772639258573222100,1.80722216796875,0.09194880037903785,-0.0021387895688938442,-0.003829787421226501
1772639258583267300,1.817267333984375,0.09030278673768043,0.000922277360514272,0.0005884491461329162
1772639258593312000,1.82731201171875,0.08102467078268527,0.006629615306784398,0.0005684018719475716
1772639258603357200,1.837357177734375,0.08566285197734833,0.005516868291911669,-0.006518542448012158
1772639258613402000,1.847402099609375,0.09149813400208949,-0.0069909548658877605,-0.0018204020938836036
1772639258623447300,1.857447265625,0.09523848957419395,-0.007364454649420804,0.0013880020259879528
1772639258633493200,1.8674931640625,0.09239420605897902,-0.00193953781563614,0.0017054796104785054
1772639258643538000,1.877537841796875,0.08790507794618606,0.0012541510798269881,0.002362144287768751
1772639258653583000,1.8875830078125,0.09523790505230426,0.007831763346382649,-0.01628949255440384
1772639258663628000,1.8976279296875,0.09134732735455035,0.006992557163684978,-0.0073094553636852645
1772639258673673200,1.907673095703125,0.08940203850567341,-0.011514234126743393,-0.008199079413479193
1772639258683718100,1.91771826171875,0.07817980274558067,0.0002348139736946905,-0.012783612458454444
1772639258693764000,1.92776416015625,0.09299392551779746,0.008326417849640711,0.0035066198814660307
1772639258703809000,1.93780908203125,0.08611059574484825,0.011397039771149866,-0.0005267820867709815
1772639258713854000,1.94785400390625,0.09733341602683067,-0.006430217993876431,-0.01325283740540035
1772639258723899100,1.957899169921875,0.08805530007183551,0.0045520869426982245,0.00001175436987541616
1772639258733944000,1.967944091796875,0.0897024827569723,0.00032717128637596034,0.004036689903866499
1772639258743989200,1.9779892578125,0.0840174228578806,-0.009873944689985365,-0.0006192826758138836
1772639258754035000,1.988034912109375,0.09539046526551247,-0.01412092776010977,0.00002262282376177609
1772639258764080000,1.998080078125,0.09284662600159645,-0.0052352965627971565,0.0014286171641666441
1772639258774125000,2.008125,0.09494155245423316,0.0078886103834433,-0.0011610888017807156
1772639258784170200,2.018170166015625,0.1013753848940134,0.007940511246505775,0.003419014663249254
1772639258794215200,2.028215087890625,0.09135024996399879,-0.001239224651220138,-0.0022250008394010365
1772639258804260600,2.038260498046875,0.09583996259868144,0.00011793927850958425,-0.0012632340020034463
1772639258814306600,2.048306640625,0.08027706728577613,-0.0037790550311212426,-0.0008209975266829133
1772639258824351200,2.058351318359375,0.0817728588014841,-0.004373807195521658,-0.003287533770687878
1772639258834396400,2.068396484375,0.0726449649721384,-0.002513769494282314,0.0002685604088474065
1772639258844441300,2.07844140625,0.1049661028623581,0.008582099939783802,0.0011223094276618213
1772639258854486500,2.088486572265625,0.0904518398195505,-0.0004418426080315839,-0.0009449618330691009
1772639258864531500,2.098531494140625,0.1100543659120798,-0.008509193962955032,-0.014960490706656128
1772639258874576400,2.108576416015625,0.1007780035227537,-0.005958303903744672,-0.0038141971264500168
1772639258884622300,2.118622314453125,0.091650109693408,-0.018760293981572612,-0.004111828366154805
1772639258894667300,2.128667236328125,0.09598960020244121,-0.0000061877121916040776,0.004156836551660672
1772639258904712400,2.13871240234375,0.08760989439189433,0.006434318209436606,-0.0049664359014946965
1772639258914757400,2.14875732421875,0.08910743947327136,-0.004424807872041128,-0.0009331069984938948
1772639258924802300,2.15880224609375,0.0889578018695116,-0.0054980111819255394,-0.0005166534184012562
1772639258934847200,2.16884716796875,0.08746201035380363,0.003561535256344359,-0.0031652042989619073
1772639258944893400,2.1788935546875,0.10092939469218254,0.003388395191877498,-0.015534783463273196
1772639258954938400,2.1889384765625,0.09958324078023433,0.007145973039307864,-0.0026315449468325824
1772639258964983600,2.198983642578125,0.08461889588236808,0.00510700257034332,0.008558478177245706
1772639258975028500,2.209028564453125,0.08925766159892082,0.002174171980351093,-0.0101695483693853
1772639258985073400,2.219073486328125,0.09015490269958973,-0.005477163615074824,-0.0022775438773911445
1772639258995118300,2.229118408203125,0.09224982915222645,0.0024657428012054877,0.0024699520437978205
1772639259005164300,2.239164306640625,0.08551496793925761,0.002611954901195713,-0.00974123082156293
1772639259015209500,2.24920947265625,0.08551496793925761,0.000334775208341307,-0.0063409482582472265
1772639259025254400,2.25925439453125,0.09673895726501941,0.0007908278631715802,0.0017467980015557257
1772639259035299300,2.26929931640625,0.10317337422668933,0.000892750442752731,-0.006483462001476437
1772639259045344300,2.27934423828125,0.08252280038595199,0.012205556842172517,-0.009859249444352462
1772639259055389400,2.289389404296875,0.08701309754252433,-0.006363284529285738,-0.0037647958936169743
1772639259065435400,2.299435302734375,0.08372107025980949,-0.009053865045332348,-0.00644854595172219
1772639259075480600,2.30948046875,0.08087795578837394,-0.007393487806015764,-0.010166781023563817
1772639259085525500,2.319525390625,0.08656476925313472,-0.006111976649338612,-0.0015760445445310324
1772639259095570400,2.3295703125,0.09404606491923331,-0.0020036542728776112,0.002458188540767878
1772639259105615400,2.339615478515625,0.095092943623662,0.010576182666717795,-0.004246725058509037
1772639259115660500,2.34966064453125,0.08761106343567371,-0.00020704747146810403,-0.008406182825518771
1772639259125706500,2.35970654296875,0.09015548722147941,-0.00808654182504979,-0.0007148337384685874
1772639259135751400,2.36975146484375,0.09509352814555168,0.0007067982749518705,-0.005983339592767879
1772639259145796400,2.37979638671875,0.09673954178690909,-0.00038700258167809806,0.0031654600272886455
1772639259155841300,2.38984130859375,0.09180208538472652,-0.0010794418252480682,0.0068273526688572015
1772639259165886500,2.399886474609375,0.09389701183736324,-0.006561235378845594,-0.00018498291177675128
1772639259175931400,2.409931396484375,0.07983049256205559,-0.013121958159393397,-0.003982311101816595
1772639259185977300,2.419977294921875,0.09060440003275871,-0.004076510457601398,0.0045517450202256435
1772639259196022500,2.4300224609375,0.09943360317647457,0.007943428718554787,-0.0015149254744406789
1772639259206067200,2.440067138671875,0.0919511384665966,0.0049848460577311925,0.004723667521029711
1772639259216112400,2.4501123046875,0.09210136059224605,-0.0029216367674758654,0.0013059771651867777
1772639259226157300,2.4601572265625,0.09703940151631832,0.011396342226472915,-0.0030002869276795534
1772639259236202500,2.470202392578125,0.09943360317647457,0.005031384046620223,-0.0019706150863785295
1772639259246248400,2.48024853515625,0.08716331966817378,0.004039440125023247,0.0019477639337535946
1772639259256293400,2.49029345703125,0.09045593147277832,-0.013002283010701648,-0.005359946997417137
1772639259266338300,2.50033837890625,0.08910860851705074,-0.010406703284749528,0.0022438516703434286
1772639259276383500,2.510383544921875,0.09494505958557128,0.00851729678348638,-0.005812832730915397
1772639259286428400,2.520428466796875,0.09255085792541504,0.004602982017118483,0.0024308621424250303
1772639259296473600,2.5304736328125,0.08716331966817378,-0.0004269635576638393,0.0059910753746517
1772639259306518300,2.540518310546875,0.09449614677429198,0.010065831124939723,-0.0017986377866473049
1772639259316564200,2.550564208984375,0.09449614677429198,-0.0014440076711878646,-0.016888609225023537
1772639259326609400,2.560609375,0.07983107708394527,-0.0010052258115669246,-0.0033264501421246674
1772639259336654300,2.570654296875,0.09135317257344722,0.00351788220264134,-0.0073898636561352754
1772639259346699500,2.580699462890625,0.09180150086283684,0.0075905430356098804,-0.006350538070499897
1772639259356744200,2.590744140625,0.09883446823954582,0.004544073170423508,0.005743868281086906
1772639259366789400,2.600789306640625,0.09329787690043449,0.0034808552525471895,0.0005069266088306904
1772639259376835300,2.61083544921875,0.08955693680644035,-0.005901011054578703,0.0022887228585314005
1772639259386880500,2.620880615234375,0.09000643413960933,-0.007187879948029876,-0.010701728150481357
1772639259396925400,2.630925537109375,0.09015724078714847,-0.010391879033308942,0.00003791172443889081
1772639259406970600,2.640970703125,0.097039986038208,0.010849371301621431,0.0005715345439501106
1772639259417015300,2.651015380859375,0.08222527874410152,0.003186627254547784,-0.011425274918368086
1772639259427060500,2.661060546875,0.09449614677429198,-0.005861551831269753,-0.009568477203696966
1772639259437106400,2.6711064453125,0.08761281700134277,0.011171223667130106,-0.005686968728387728
1772639259447151400,2.6811513671875,0.09629238254129886,0.0011256441707082558,-0.00372882039793767
1772639259457196500,2.691196533203125,0.09165420134663581,0.0008965903634089045,-0.0005266450894530863
1772639259467241200,2.7012412109375,0.09270224909484386,-0.00033096382879302833,-0.0046549679326824845
1772639259477286400,2.711286376953125,0.10138064559102059,0.0022433875919290586,-0.0067971675931476055
1772639259487331300,2.721331298828125,0.09359949019551277,0.0009781711245712358,0.0015968772700056433
1772639259497377300,2.731377197265625,0.08462181849181652,-0.009244107512471964,-0.0017996880994178353
1772639259507422500,2.74142236328125,0.10617021795511244,-0.004066414326094673,-0.014451764866383745
1772639259517467400,2.75146728515625,0.0846224030137062,0.006037865666934521,-0.0011891641187947242
1772639259527512300,2.76151220703125,0.07459668356180191,0.009082072222264832,-0.002203939785063267
1772639259537557200,2.77155712890625,0.0959942763775587,0.0024911443872319065,-0.003938271030690521
1772639259547602400,2.7816025390625,0.10183014292418956,-0.00207358284133079,-0.0007917805653531104
1772639259557648400,2.7916484375,0.10242927786111831,0.0015841513608174864,0.0028559739530086515
1772639259567693600,2.801693603515625,0.09419862513244151,0.008158537340536714,-0.005587042884714901
1772639259577738500,2.811738525390625,0.09030804743468761,-0.009043815150420414,0.007916600077133625
1772639259587783400,2.821783447265625,0.10003507620096207,0.008458252081117825,0.005837136055110022
1772639259597828400,2.831828369140625,0.08911094660460948,0.01017332721207058,-0.01126085987058468
1772639259607873500,2.84187353515625,0.09898702845275402,-0.005721041102992603,-0.012183445475064216
1772639259617919500,2.85191943359375,0.08836217406392097,0.0008776259388570906,-0.00807129744850099
1772639259627964400,2.86196435546875,0.10242810881733894,0.0011975186718977055,-0.010296206956356763
1772639259638009300,2.87200927734375,0.09629296706318854,-0.010612134187866468,-0.0028223730775061994
1772639259648054300,2.88205419921875,0.09629296706318854,0.007466664352547377,0.001836997035657987
1772639259658099500,2.892099365234375,0.08462123396992682,-0.0059463320506270975,-0.003575027208868414
1772639259668144400,2.902144287109375,0.09075579120218753,0.0007293166382587514,-0.010975823250971734
1772639259678190600,2.912190673828125,0.10212824908792972,0.0033065609856770604,-0.007231229895167052
1772639259688235500,2.922235595703125,0.09060615359842776,0.0003089306643203599,0.005773980291560292
1772639259698280400,2.932280517578125,0.08626666308939457,0.00850641520069039,-0.004711310362955555
1772639259708325400,2.942325439453125,0.08626607856750487,0.000852400166055304,-0.0020729977486189455
1772639259718370600,2.95237060546875,0.09853636207580566,-0.001997094384639058,-0.00955284124314785
1772639259728415500,2.96241552734375,0.08641513164937496,0.004068739284743788,-0.000016741072246804833
1772639259738461400,2.97246142578125,0.0867144068568945,0.006562951841074391,-0.0015412654920946805
1772639259748506400,2.98250634765625,0.10407295341491699,-0.004215455420699436,-0.0022581541903316975
1772639259758551300,2.99255126953125,0.08491992465555667,-0.015497532750893151,0.002006554049439728
1772639259768596500,3.002596435546875,0.09150339469909667,-0.008509277302990085,-0.0012227467279881238
1772639259778641400,3.012641357421875,0.09075520668029785,-0.005608842012102832,0.007750093536963686
1772639259788686600,3.0226865234375,0.09419687156677245,-0.012659442656091414,0.0026701416578609493
1772639259798732500,3.032732666015625,0.0900076031833887,-0.006005896771981497,-0.0091040836954955
1772639259808777500,3.042777587890625,0.09255027340352534,-0.005721440107680973,-0.006513975870748982
1772639259818822400,3.052822509765625,0.08955752132833003,-0.00876518658035202,0.005872353498963639
1772639259828867300,3.062867431640625,0.09778700501322746,0.004313510680160834,-0.003713257502624765
1772639259838912500,3.07291259765625,0.08476853348612785,-0.006799538217569351,-0.0019177341216709465
1772639259848957400,3.08295751953125,0.10212649552226066,-0.004337634195375722,-0.004616809613071381
1772639259859003600,3.093003662109375,0.09644026657938956,0.003072242485615425,-0.0009068309129215776
1772639259869048600,3.103048583984375,0.08461948040425776,-0.011584533158777048,0.004987807483086362
1772639259879093500,3.113093505859375,0.08821136741638183,-0.0078086450489878185,-0.007057928288029506
1772639259889138400,3.123138427734375,0.07668927192687988,-0.013702600741694913,-0.005669076878670603
1772639259899183600,3.13318359375,0.09344809902608395,-0.0007204386412369786,0.004124897910282015
1772639259909228500,3.143228515625,0.09554244095683097,-0.013125703894393518,-0.004909618547186255
1772639259919274500,3.1532744140625,0.0727975251853466,-0.00987338642591494,-0.009100667895702644
1772639259929319400,3.1633193359375,0.08746259487569331,-0.004444417325631366,0.00892278144499287
1772639259939364400,3.1733642578125,0.0853676684230566,0.006472777923147077,-0.0037737920508254317
1772639259949409500,3.183409423828125,0.08955810585021973,0.005122006059941486,-0.009736052322946488
1772639259959454500,3.193454345703125,0.08701485110819339,-0.005022869092490873,-0.006517583466786891
1772639259969500400,3.20350048828125,0.10257716189920901,0.004042769730670261,-0.00037356428643688555
1772639259979545600,3.213545654296875,0.09195289203226566,0.0009691903795610414,0.0003763407654128969
1772639259989590500,3.223590576171875,0.08581775027811527,-0.0017273255452833836,0.007845553268073126
1772639259999635500,3.233635498046875,0.09479542198181151,0.0017352879435638896,-0.0009060819942504167
1772639260009680400,3.243680419921875,0.08506839321553707,0.0012446583073411602,-0.004850444839010015
1772639260019725600,3.2537255859375,0.0814770907253027,-0.0013384329714404885,0.0007207337562926113
1772639260029771500,3.263771484375,0.08686579802632331,-0.0015630132454884005,-0.0027274430693592874
1772639260039816400,3.27381640625,0.09419804061055183,-0.0017393156647100112,0.0007345430859364569
1772639260049861400,3.283861328125,0.08731412631571292,-0.0027026962163479765,-0.005128184068156406
1772639260059906600,3.293906494140625,0.07968319304585457,-0.005936411161522846,-0.0029973369187675414
1772639260069951500,3.303951416015625,0.09060673812031746,0.002565000212131417,0.00675463449251838
1772639260079996700,3.31399658203125,0.09135551066100597,-0.006093773701545433,0.007216452451143413
1772639260090042600,3.324042724609375,0.096443189188838,-0.003887937645273632,-0.003226506032142788
1772639260100087300,3.33408740234375,0.08761515508890151,-0.00650676410360611,-0.0013826956632081418
1772639260110132500,3.344132568359375,0.0885135652333498,-0.014433012216852512,0.012756139929639174
1772639260120177400,3.354177490234375,0.08836334310770035,-0.0035316510039119747,0.012232864974206312
1772639260130222600,3.36422265625,0.07609364412128924,0.003218750842305599,-0.007477806801069528
1772639260140267300,3.374267333984375,0.09464870698750019,-0.00382213041280047,-0.0055427105526439846
1772639260150313500,3.3843134765625,0.09270224909484386,-0.010307541201123966,0.0027140355985146012
1772639260160358400,3.3943583984375,0.09524608835875988,-0.004313518671671045,0.003893061915785074
1772639260170403600,3.404403564453125,0.10422434458434582,-0.004117042255745037,-0.0038593788418918844
1772639260180448500,3.414448486328125,0.0811801536053419,-0.007698884510356583,0.0030316045145504173
1772639260190493700,3.42449365234375,0.09389934992492198,-0.0035032354768918593,0.011372412219969555
1772639260200538400,3.434538330078125,0.10422317554056644,-0.0006515506815776461,0.007054585553472862
1772639260210584300,3.444584228515625,0.09150339469909667,-0.008272010506482911,-0.002280530418921262
1772639260220629500,3.45462939453125,0.09285013313293457,0.002651419832726242,-0.007819003187865018
1772639260230674400,3.46467431640625,0.09509469718933104,0.0005296704468899406,-0.0026829828731250015
1772639260240719600,3.4747197265625,0.10018237571716308,-0.008042631330553558,-0.010194390549696982
1772639260250764300,3.484764404296875,0.08162672832906245,-0.003929371342426748,0.003226332502206787
1772639260260810500,3.494810546875,0.0840209299892187,-0.004293215669158962,0.005158542673802003
1772639260270855400,3.50485546875,0.08297288224101067,0.0011206660306692356,-0.0011875384172890335
1772639260280900400,3.514900390625,0.08701309754252433,0.0016048824799479915,-0.01509944251962006
1772639260290945500,3.524945556640625,0.08925766159892082,-0.004977529259311267,0.0012157963973935693
1772639260300990500,3.534990478515625,0.08821078289449215,-0.00542367472476908,-0.004873907912988216
1772639260311035400,3.545035400390625,0.08237433182597159,-0.006722931600690935,0.0101872575560119
1772639260321081300,3.555081298828125,0.08402034546732902,-0.0008137104110151995,-0.013159469166677444
1772639260331126500,3.56512646484375,0.0924000512778759,0.0067846095056738704,-0.0035589163242839275
1772639260341171500,3.57517138671875,0.09210019154846667,0.0033685362890042594,-0.006029251960571855
1772639260351216600,3.585216552734375,0.08701309754252433,-0.006906450353632681,0.0026652462870348243
1772639260361261600,3.595261474609375,0.09135317257344722,-0.009950185980682726,0.00860481980331242
1772639260371306500,3.605306396484375,0.08746259487569331,-0.0017973094834858783,0.0030637714847922323
1772639260381352400,3.6153525390625,0.08596621883809566,0.002227912603228469,0.009638172305887564
1772639260391397400,3.6253974609375,0.08761223247945309,-0.008809119336912408,-0.005329624924389645
1772639260401442600,3.635442626953125,0.08821136741638183,0.004033477316761855,-0.013517625821428373
1772639260411487500,3.645487548828125,0.10586860466003417,0.010043596460245316,-0.009603594182850792
1772639260421532400,3.655532470703125,0.09404781848490237,-0.0027310518070415126,-0.010882436745939776
1772639260431578400,3.665578369140625,0.09404664944112301,0.0020771864416135937,0.00918937822561711
1772639260441623600,3.67562353515625,0.08431962067484855,-0.003796962293036631,-0.0022858915806282312
1772639260451668500,3.68566845703125,0.08551672150492667,-0.010579033352574332,-0.004946078100055456
1772639260461713700,3.695713623046875,0.10167816723287106,0.006706043827149551,-0.008052948941057547
1772639260471758600,3.705758544921875,0.08611585644185543,-0.0115295801096363,0.0031812695177737623
1772639260481803500,3.715803466796875,0.09539397239685057,-0.0049120445413573174,0.007016253703925758
1772639260491849500,3.725849365234375,0.0956938321262598,-0.00907332951009448,-0.00788473450099118
1772639260501894400,3.735894287109375,0.09270166457295417,0.0005420064845442538,0.0022023780156392603
1772639260511939600,3.745939697265625,0.0856681126743555,-0.006079498010198585,0.006650050740037113
1772639260521984500,3.755984619140625,0.0877636236488819,-0.006825369632680667,-0.0015586732846219092
1772639260532029400,3.766029541015625,0.09060615359842776,-0.001897170253432705,-0.004873725249897688
1772639260542074400,3.776074462890625,0.10452303526997565,-0.0073105325050972165,0.013289205626724287
1772639260552120300,3.786120361328125,0.08836217406392097,0.0035451709267217664,0.015081852064002305
1772639260562165500,3.79616552734375,0.08282499820291996,-0.006144757253400166,0.000940924978768453
1772639260572210400,3.80621044921875,0.08432137424051761,-0.004634581590135349,0.004528071883693337
1772639260582255600,3.816255615234375,0.09778817405700684,0.0010948757147532888,-0.00805915035298094
1772639260592300300,3.82630029296875,0.09419687156677245,0.003031342507179943,-0.014998603360494599
1772639260602346500,3.836346435546875,0.09644143562316894,0.001363092488661641,-0.007373670573160052
1772639260612391400,3.846391357421875,0.09778758953511714,-0.009815559858031337,-0.0054579548786394295
1772639260622436600,3.8564365234375,0.09958324078023433,-0.00919198973698949,-0.006955691756261513
1772639260632481500,3.8664814453125,0.08207564114034176,0.0007978278552938718,-0.002609954169532284
1772639260642526500,3.8765263671875,0.0805792651027441,-0.0020456981789175187,0.004242012350773439
1772639260652571400,3.8865712890625,0.07803542583882808,-0.012576550145610235,-0.012471934427088126
1772639260662617300,3.896617431640625,0.09479483745992183,-0.013586484098335494,-0.0004976747232954949
1772639260672662500,3.90666259765625,0.1009305637359619,-0.0046194548029510766,0.00027055143653415144
1772639260682707500,3.91670751953125,0.09868599967956543,0.005715144510101526,-0.0008614756675437092
1772639260692752600,3.926752685546875,0.08895955543518066,-0.010208506981661775,-0.0037120519262272863
1772639260702797300,3.93679736328125,0.08327449553608894,-0.011243047935969662,0.000868380332365632
1772639260712843500,3.946843505859375,0.0786357298195362,0.006499244092497974,0.010031601203419267
1772639260722888400,3.956888427734375,0.08686521350443363,-0.0003729203990427777,0.012802152762142941
1772639260732933600,3.96693359375,0.06846037276387214,-0.00034404307689692355,0.0035688349300995468
1772639260742978600,3.976978515625,0.08896072447896003,-0.009259640725032658,0.003718381202314049
1772639260753023500,3.9870234375,0.09913666605651378,0.004397565955377649,-0.010079769460391253
1772639260763068400,3.997068359375,0.09374971232116222,0.001973934988048859,0.00413853370998986
1772639260773114400,4.0071142578125,0.08866261831521988,0.0038995675759186266,0.005239645085996017
1772639260783159600,4.01715966796875,0.0976414590626955,-0.002983797588004381,-0.0018734291890636085
1772639260793204500,4.02720458984375,0.09644377371072768,-0.003665953470399836,-0.003121977078588679
1772639260803249700,4.037249755859375,0.1081155068039894,0.003752403915391187,-0.0034282300161663443
1772639260813293800,4.0472939453125,0.09674304891824721,0.0035268395439430602,-0.0034239374335389584
1772639260823339000,4.057339111328125,0.08566928171813487,-0.007092311760710435,0.00010130495000630617
1772639260833385000,4.067385009765625,0.08731471083760262,-0.008006943529241835,-0.001167856469284743
1772639260843430100,4.07743017578125,0.09060615359842776,-0.005582047620011144,-0.002176622519874945
1772639260853475000,4.08747509765625,0.09270108005106449,-0.004683091769579914,0.00008671016907319426
1772639260863520000,4.09752001953125,0.08985796557962894,-0.0011824198549991705,-0.0004870254651177674
1772639260873565000,4.10756494140625,0.09105506640970706,0.008397707828940474,0.0014442805241793393
1772639260883611000,4.11761083984375,0.09973521647155284,-0.009221183865432976,0.008615176800545304
1772639260893656000,4.127656005859375,0.09075579120218753,-0.0035391487529559526,-0.004360021840408444
1772639260903701000,4.137700927734375,0.10063187305033207,-0.00497676036186458,-0.0036506679946556684
1772639260913746000,4.147745849609375,0.09255144244730472,-0.01459925846211845,0.005308335541188716
1772639260923790800,4.157790771484375,0.09299977073669433,-0.004821931701400899,-0.005945701862964779
1772639260933836000,4.1678359375,0.08806172981262206,-0.006322545522698783,0.009422337598120794
1772639260943882000,4.177882080078125,0.08671557590067386,0.0018964207639393861,-0.001589908673102036
1772639260953927200,4.18792724609375,0.08387246142923832,0.006914908225546241,0.0005349562600720673
1772639260963972000,4.19797216796875,0.08985796557962894,-0.010008119863132015,0.002866029556142166
1772639260974017000,4.20801708984375,0.08028115893900394,-0.004063696070978767,-0.002503580318763852
1772639260984062000,4.21806201171875,0.08940905276834964,0.0014440373539400752,0.00032382512688636776
1772639260994108000,4.22810791015625,0.0995844098240137,-0.008551740763316046,-0.0137070017805323
1772639261004153000,4.238153076171875,0.08821195193827151,-0.007001674906013068,-0.0029528401899151504
1772639261014198000,4.248197998046875,0.08955810585021973,-0.011274943194864316,0.0034331893190741535
1772639261024243000,4.258242919921875,0.10063128852844237,-0.0006112700451834825,0.003249357184767723
1772639261034287900,4.268287841796875,0.08028057441711425,-0.008869724096238497,0.010146067029098049
1772639261044333000,4.2783330078125,0.08940729920268058,-0.012680042486125602,-0.0016099011483602225
1772639261054379000,4.28837890625,0.09464403081238269,-0.001945321956562111,-0.003486417343653738
1772639261064424000,4.298423828125,0.08387012334167956,-0.009820411846373462,-0.006653055547876283
1772639261074469000,4.30846923828125,0.07249824997782707,-0.000846638287193491,0.006143288527987897
1772639261084513800,4.318513671875,0.09808628022074699,-0.00500780509574397,-0.0027211137932725248
1772639261094559000,4.32855908203125,0.09793664261698723,-0.00947165377845231,-0.0019470515477005392
1772639261104605000,4.33860498046875,0.07893325146138667,0.0025980976224906044,-0.011628451073961332
1772639261114650000,4.348650146484375,0.0924000512778759,0.004863319161959225,-0.005840460523357615
1772639261124695000,4.358695068359375,0.09030512482523918,-0.008759562840452418,0.006273929170332849
1772639261134740000,4.368739990234375,0.1024257707297802,0.0012996244853915413,-0.013631735454080626
1772639261144785000,4.378784912109375,0.09015548722147941,0.005419169796298956,0.0005958104686811566
1772639261154830000,4.388830078125,0.08177578141093253,-0.0064284878319158445,-0.0017789923712611198
1772639261164876000,4.3988759765625,0.09299860169291496,-0.005869475413643522,-0.0011933836361858992
1772639261174921000,4.4089208984375,0.09988251598775386,-0.0028737499258277236,0.0038065070103388277
1772639261184966100,4.418966064453125,0.09120353496968746,0.005758302090171492,0.0033328890160657463
1772639261195010800,4.4290107421875,0.09060440003275871,-0.005441495221716468,-0.001488813785649836
1772639261205056000,4.439055908203125,0.08806114529073238,-0.0045501347309182165,0.006918428485793993
1772639261215102000,4.44910205078125,0.07504267376363277,-0.003129329838804551,0.00006195932030677795
1772639261225147100,4.459147216796875,0.09030629386901855,-0.008164985347632318,-0.0018289324602112174
1772639261235192000,4.469192138671875,0.08686404446065425,0.0021468432987196136,-0.004558147361548617
1772639261245237000,4.479237060546875,0.08506780869364738,-0.0037599855752923758,-0.005656710587441921
1772639261255282000,4.489281982421875,0.09658990418314933,-0.0013776147751807,-0.00566575241042301
1772639261265327000,4.4993271484375,0.08566694363057613,-0.0008216351350332843,-0.006361004665587097
1772639261275373000,4.509373046875,0.08656476925313472,0.0018447208302764919,-0.00877530839885585
1772639261285418000,4.51941796875,0.09464403081238269,-0.0030948070855170953,-0.008860109738633036
1772639261295463200,4.529463134765625,0.07968027043640613,-0.00038804604458273384,-0.0026236539013218133
1772639261305507800,4.5395078125,0.09494272149801254,-0.006320750287012197,-0.006885877923062071
1772639261315553000,4.549552978515625,0.08237316278219223,0.00021652939833293201,-0.0067103843588382
1772639261325599000,4.559598876953125,0.09688801034688949,-0.0035778636241710045,-0.00849123076046817
1772639261335644000,4.569643798828125,0.0925485198378563,-0.0012898639973136596,0.0028504301282111554
1772639261345689000,4.579689208984375,0.10436989053487777,-0.0034189838388527277,0.010333972550323232
1772639261355733800,4.589733642578125,0.09254910435974598,-0.007003290903542074,0.006656005556788295
1772639261365779000,4.599779052734375,0.08865911118388176,0.00032273428574262653,-0.00406190654351376
1772639261375825000,4.609824951171875,0.07204933716654777,0.0064810948019876375,0.0001178724923171103
1772639261385870000,4.6198701171875,0.08731295727193356,-0.006380417756355018,-0.006249023057939484
1772639261395915000,4.6299150390625,0.08686345993876457,0.015447225052473368,0.005979403203167021
1772639261405960200,4.639960205078125,0.08641396260559558,-0.0009211836652597412,-0.013552331808628514
1772639261416004900,4.6500048828125,0.0907528685927391,-0.002233004907699069,-0.007909485349757597
1772639261426050000,4.660050048828125,0.08147475263774394,0.0009393689175660255,-0.005895049387961626
1772639261436096000,4.670095947265625,0.09120119688212872,0.007056544615118764,-0.00622509419308044
1772639261446141000,4.680140869140625,0.09718670103251933,-0.005576824597266386,0.00783167087319307
1772639261456186000,4.69018603515625,0.10556640684306622,-0.010635414598754141,-0.0008245411906391382
1772639261466230800,4.700230712890625,0.0977852514475584,-0.000797787897742819,0.0014300784688908606
1772639261476276000,4.71027587890625,0.09194938490092754,0.002897612004494294,-0.002319775583921
1772639261486322000,4.720322021484375,0.09628945993185042,-0.0008491596086649223,-0.010335479520820081
1772639261496367000,4.7303671875,0.08611410287618637,-0.005626386231125798,0.010598605702724306
1772639261506412000,4.740412109375,0.07713584665060043,-0.007253722571476828,-0.008873626807332039
1772639261516457000,4.75045703125,0.08297171319723129,-0.005318803848742391,-0.004794531666999682
1772639261526502000,4.760501953125,0.08177461236715317,-0.0032437642692646476,-0.0042135991070419545
1772639261536547000,4.770547119140625,0.09060264646708965,-0.00014684457094117534,-0.007263095471309497
1772639261546593000,4.780593017578125,0.08895663282573223,0.010115759797446663,-0.0027963435871060935
1772639261556638000,4.790637939453125,0.08596388075053692,0.006584788642724743,-0.008181781218806281
1772639261566683100,4.80068310546875,0.09748539171814918,-0.00020015993131091816,-0.006122300538886338
1772639261576728000,4.81072802734375,0.08207213400900364,-0.006859927776941913,-0.002720629736082628
1772639261586773000,4.82077294921875,0.09718611651062965,-0.00040567531610722653,-0.006414351421175525
1772639261596819000,4.83081884765625,0.09419394895732403,-0.00218074442667712,-0.005787150300387293
1772639261606864000,4.84086376953125,0.09733575411438941,-0.007526360362998093,-0.004475738908257335
1772639261616909000,4.850908935546875,0.09239771319031714,0.006142837578483158,0.009022159299394115
1772639261626954000,4.8609541015625,0.0929962636053562,-0.005376019066094887,0.002432752705411985
1772639261636999000,4.8709990234375,0.08117547743022441,-0.008658971418143483,-0.003500939059350639
1772639261647044900,4.881044921875,0.0950923591017723,-0.004888820641863276,0.002858969627693295
1772639261657090000,4.891090087890625,0.09464344629049301,-0.008804830750040127,0.004198565934691578
1772639261667135000,4.901135009765625,0.10407119984924793,-0.0015881591031880816,-0.0021502825022209435
1772639261677180200,4.91118017578125,0.09030454030334949,0.0037105249769549117,-0.002462764251185581
1772639261687225000,4.92122509765625,0.08491758656799793,-0.004349544399700244,0.014920286560431121
1772639261697270800,4.931270751953125,0.08312135080099105,-0.005341881617764011,0.006617235315823927
1772639261707316000,4.94131591796875,0.09868307707011699,0.00824497009004117,-0.0054206824750173835
1772639261717361000,4.95136083984375,0.0982341642588377,-0.01014838456705911,-0.006587790025630966
1772639261727406000,4.961406005859375,0.08850772001445292,-0.00353802023754979,-0.0033166320010088383
1772639261737451000,4.971450927734375,0.08865677309632301,0.004865049894741969,-0.005767240023519843
1772639261747496000,4.981495849609375,0.09808452665507793,-0.0013254576129693304,-0.005711016324255615
1772639261757542000,4.9915419921875,0.07758359041810035,-0.008985628964577335,0.003352132572652772
1772639261767587000,5.001587158203125,0.09688625678122043,-0.011102364248578668,0.0032568737709429115
1772639261777632000,5.011632080078125,0.08551321437358855,-0.009005465034564258,-0.007864860756741835
1772639261787677000,5.021677001953125,0.08027531372010707,-0.003827992185539915,-0.0047922575115226206
1772639261797722000,5.03172216796875,0.09434124847352504,-0.008044142296805511,0.014220412929076701
1772639261807768000,5.04176806640625,0.07563713252544403,-0.01915935346886981,-0.009245638457499443
1772639261817813000,5.05181298828125,0.09479133032858371,-0.00973845662587555,-0.00274065874395892
1772639261827858000,5.06185791015625,0.09149930304586887,-0.0012756573754479177,-0.008120963542815298
1772639261837903000,5.071903076171875,0.09568857142925262,-0.013748014210932887,-0.005757896806439384
1772639261847948000,5.081947998046875,0.0953887116998434,-0.010886916558234951,-0.002228928095847368
1772639261857994000,5.091993896484375,0.08955226063132285,-0.0006906051919766469,-0.004566093205986544
1772639261868039200,5.1020390625,0.0871580589711666,0.009255043894195113,-0.0038465832924004643
1772639261878083800,5.112083740234375,0.07713175499737263,-0.0022438967652939025,-0.0015103314977139234
1772639261888129000,5.12212890625,0.08521160107851028,-0.003557824912318028,0.0029278518791310488
1772639261898174000,5.132174072265625,0.09628419923484324,-0.004022282352601178,-0.002221548506990075
1772639261908219100,5.14221923828125,0.09014964200258255,0.0009099116401077481,-0.008000332837831229
1772639261918265000,5.15226513671875,0.09074760789573193,-0.002407619405799778,-0.006092562987748533
1772639261928310000,5.16231005859375,0.08925064733624458,-0.014259002790239172,0.003877873479807749
1772639261938355000,5.17235498046875,0.09448737894594669,-0.012732414277468341,0.0011048103035893291
1772639261948400000,5.182400146484375,0.09134557378888129,0.004077964341637562,-0.00962859162678942
1772639261958445000,5.192445068359375,0.09164426447451114,-0.006844652575996588,-0.010283557537337765
1772639261968491000,5.202490966796875,0.10496201120913028,0.007100865530746523,-0.007464381063915788
1772639261978536200,5.2125361328125,0.09867606280744075,0.0000378369467362063,-0.014265850372845307
1772639261988580900,5.222580810546875,0.09388765948712825,0.005015976414934266,-0.009336559010809287
1772639261998626000,5.2326259765625,0.08535831607282161,-0.003677620504485094,0.0036512890491634605
1772639262008671000,5.2426708984375,0.0784744017779827,-0.007295391447358997,-0.0019340916014276444
1772639262018717000,5.252717041015625,0.08715338279604912,-0.001506802104311646,-0.005216309876181185
1772639262028762000,5.26276220703125,0.08700491423606872,-0.0034234208394860613,0.0026583872879855333
1772639262038807000,5.27280712890625,0.09403788161277771,0.008970120297369431,0.011937562688905745
1772639262048852000,5.28285205078125,0.10511047976911067,0.010261040886497357,0.0026416827483568338
1772639262058897000,5.29289697265625,0.10241758742332457,-0.00012420348087034653,-0.0019875205554068087
1772639262068942000,5.302942138671875,0.09658055183291435,-0.0018901679780217817,-0.00657681197389029
1772639262078988000,5.312988037109375,0.08805120841860771,0.002862670267742942,-0.01119337499178946
1772639262089033200,5.323033203125,0.0862561416953802,-0.004349777865962824,-0.003239840437751263
1772639262099078000,5.333077880859375,0.09613163902163505,0.00031475190868659406,-0.013303489880403504
1772639262109123000,5.343123046875,0.08969780658185482,0.00042340276904287747,-0.006228409528173506
1772639262119168000,5.35316796875,0.08520809394717216,0.007404665645511704,-0.008408922771876678
1772639262129214000,5.3632138671875,0.09658055183291435,-0.0008677021956420503,-0.005214455845812335
1772639262139259100,5.373259033203125,0.09284019626080989,0.0032665138155454766,0.003644448316423222
1772639262149303800,5.3833037109375,0.08401216216087341,0.015588132502150255,-0.0007893054804764687
1772639262159349000,5.393348876953125,0.09298983386456966,0.005200070556611171,-0.009038836439559236
1772639262169394000,5.403393798828125,0.08730418944358825,-0.009550201761489734,0.00626806568512693
1772639262179440000,5.413440185546875,0.0901473039150238,-0.01940087289045332,-0.0010287493926938623
1772639262189485000,5.423485107421875,0.09463701654970645,-0.01769311684120912,0.003352991089178249
1772639262199530200,5.4335302734375,0.1021200657814741,0.0013901882748526986,-0.009114641622127965
1772639262209575000,5.443574951171875,0.0886526814430952,0.004934182166284881,0.008708060982078313
1772639262219620000,5.4536201171875,0.08296645250022411,-0.004647024371533188,0.004679179925331845
1772639262229666000,5.463666015625,0.07758008328676223,-0.006707160355290398,0.002651564821554348
1772639262239711000,5.4737109375,0.07428805600404739,0.005433874175086385,-0.005411878114053979
1772639262249756200,5.483756103515625,0.10197042817771435,0.016086946586472913,-0.005805115215340629
1772639262259800800,5.49380078125,0.0817681826263666,-0.0012534232815756695,-0.002433647754555568
1772639262269846000,5.503845947265625,0.08610767313539981,-0.00931810547208879,0.0011372969342395662
1772639262279891000,5.513890869140625,0.09987433268129825,-0.016102388467488345,0.007879957861173898
1772639262289937000,5.52393701171875,0.11992635610699653,0.005917861153857666,0.0019517003233544528
1772639262299982000,5.533982177734375,0.0852104320347309,0.0014053658652090233,-0.0078014218654017895
1772639262310027000,5.544027099609375,0.05618015238344669,-0.005855725449504098,-0.000689123908476904
1772639262320072000,5.554072021484375,0.12441431517601012,-0.001048961634482839,-0.012667091673007233
1772639262330116900,5.564116943359375,0.09897650705873966,0.0003392904116102727,-0.001571249638404697
1772639262340163000,5.5741630859375,0.07174246317446231,0.00031138634124363304,0.0002461293813306838
1772639262350208000,5.5842080078125,0.11124620604515074,0.004615123975239112,-0.0065398135649040335
1772639262360253200,5.594253173828125,0.08910042521059512,0.008789031534353852,0.014141986531158909
1772639262370298000,5.604298095703125,0.10376549490094185,0.0050180074001720636,0.003274363761860877
1772639262380343000,5.614343017578125,0.07623159128725528,-0.0026788044549291954,-0.01921546300370246
1772639262390389000,5.624388916015625,0.10062252070009708,-0.00397924236189574,-0.00930188955622725
1772639262400434000,5.634433837890625,0.10256897859275341,0.007027974395293859,-0.014007071572495623
1772639262410479000,5.64447900390625,0.06934943055808544,0.00874055560423876,-0.0009762520204763859
1772639262420524000,5.65452392578125,0.10002572385072707,-0.0021826355604862326,0.0027068021401297298
1772639262430569000,5.66456884765625,0.0902992796063423,-0.012161747383198234,-0.006448527685413137
1772639262440615000,5.674614990234375,0.06830196733176708,-0.009677819329686463,-0.0007760532732587307
1772639262450660000,5.68466015625,0.10137187776267528,-0.0061298764905659475,0.004294509722990915
1772639262460705000,5.694705078125,0.08416413785219191,-0.000018845693542971276,-0.014341162365069613
1772639262470750200,5.704750244140625,0.08670797711610793,0.0025829086156911214,0.00017095438642427324
1772639262480795100,5.714795166015625,0.07174480126202105,-0.007903060746370465,0.0017113887614570557
1772639262490840800,5.7248408203125,0.08581132053732872,-0.00023790782979049254,-0.002414778657304123
1772639262500886000,5.734885986328125,0.09089899906516075,0.0007717327203456079,-0.010039190854830666
1772639262510931000,5.744930908203125,0.09149696495831013,-0.004431101757154101,-0.006201548920711502
1772639262520976100,5.75497607421875,0.09613514615297317,0.0032125014813209414,-0.01032436447176151
1772639262531021000,5.76502099609375,0.10481354264914988,0.010716930286190472,-0.0017320022912230343
1772639262541066000,5.77506591796875,0.08296645250022411,0.006104430951233371,-0.0017416195029392838
1772639262551112000,5.78511181640625,0.08072247296571732,-0.013651990507531445,-0.0016877521575428545
1772639262561156900,5.795156982421875,0.08206862687766552,-0.00279127411552181,0.00039178492971695956
1772639262571202000,5.8052021484375,0.09344166928529739,0.0011492094218527199,-0.01022847548238933
1772639262581247000,5.8152470703125,0.09194587776958942,0.005832420493263634,0.004261630366696045
1772639262591292200,5.825292236328125,0.08865443500876426,-0.012680645274324342,0.008809548595175147
1772639262601338000,5.835338134765625,0.10167349105775356,-0.00902179168992443,-0.0011644224031828344
1772639262611383000,5.845383056640625,0.08042495132386684,-0.007139564989763311,0.0025760336336214094
1772639262621428000,5.855427978515625,0.083716394084692,0.005631652065532398,-0.0049483887881506235
1772639262631473200,5.86547314453125,0.09134791187644005,0.01608964315034682,-0.0040484990726690736
1772639262641518000,5.87551806640625,0.0958376245111227,0.010825381929613648,0.0043642961567267775
1772639262651564000,5.88556396484375,0.09778349788188934,0.00589577832785726,-0.007663429033663124
1772639262661609000,5.89560888671875,0.09015314913392067,-0.00683126736721606,-0.010402462076116352
1772639262671654000,5.90565380859375,0.08012742968201637,0.0025132574668066806,-0.004373246648162603
1772639262681699000,5.915698974609375,0.08880641070008277,-0.004073720849715755,-0.003648165510315448
1772639262691744000,5.925743896484375,0.08701134397685527,0.00048087485636642667,0.0001313256289344281
1772639262701790200,5.935790283203125,0.1004781437933445,0.005821406479727011,0.0054916836183052506
1772639262711835100,5.945835205078125,0.07503975115418433,-0.0011939247755915858,0.0017608265269082038
1772639262721880000,5.955880126953125,0.08401800737977028,0.009630379441787953,0.003982767759542912
1772639262731925000,5.965925048828125,0.09778466692566871,-0.009141876688925549,-0.003958866294147446
1772639262741970200,5.97597021484375,0.09359481402039527,-0.001997321571857901,-0.013057890222035348
1772639262752016100,5.98601611328125,0.08910627042949198,0.00879525349587493,0.004789846358727663
1772639262762061000,5.99606103515625,0.07967910139262675,0.003128006102220388,0.0007801266601774841
1772639262772106000,6.00610595703125,0.09165069421529769,-0.005687388282673783,0.009786933126812801
1772639262782151000,6.01615087890625,0.09329612333476543,-0.0027269002174871272,0.00392392284492962
1772639262792196000,6.026196044921875,0.0907528685927391,-0.006077111973578576,-0.002328178086085245
1772639262802242000,6.036241943359375,0.11020575708150863,0.004464754006650765,-0.00484254466034472
1772639262812287500,6.04628759765625,0.09404548039734363,-0.00018833649195439646,-0.005525914681470021
1772639262822332400,6.05633251953125,0.09509352814555168,-0.0015065366720082238,-0.008005301273893565
1772639262832377300,6.06637744140625,0.09344692998230457,-0.011794794358994113,0.004828561800764873
1772639262842422500,6.076422607421875,0.0798299080401659,-0.007957530879965634,0.007992131265066564
1772639262852468500,6.086468505859375,0.08835925145447254,-0.0003127574560669018,0.0030303624055348336
1772639262862513700,6.096513671875,0.09150105661153793,-0.0043042616487364285,-0.0007639792429748922
1772639262872558600,6.10655859375,0.08581541219055652,0.0007123169835744192,0.0018378372858744113
1772639262882603500,6.116603515625,0.09120353496968746,0.004584396047657356,0.001548060559062287
1772639262892648400,6.1266484375,0.09823650234639644,-0.007924415774119552,0.004677928683161735
1772639262902693600,6.136693603515625,0.09539338787496089,0.005167787709471304,-0.005189723263354972
1772639262912739600,6.146739501953125,0.0867144068568945,-0.0004104045776854036,-0.007253925784165039
1772639262922784500,6.156784423828125,0.08940729920268058,0.0073182791326020374,0.00017101831850595771
1772639262932829400,6.166829345703125,0.09763736740946768,0.003378237982399878,-0.0023782551723532377
1772639262942874400,6.176874267578125,0.08910802399516105,-0.013946594106510746,-0.005076408215146512
1772639262952919600,6.18691943359375,0.09090367524027824,0.0035151588101260127,-0.002511946288309991
1772639262962965500,6.196965576171875,0.08656418473124504,0.0030805342482810374,0.0010357362559065223
1772639262973010400,6.207010498046875,0.09060323098897934,-0.0015101847964193438,-0.0038793256513774393
1772639262983055600,6.2170556640625,0.08491700204610825,-0.003853010749898385,-0.0036904337494634088
1772639262993100300,6.227100341796875,0.08791033864319324,0.005132175256684422,-0.0006724102356936782
1772639263003145500,6.2371455078125,0.08117664647400379,0.0036410051171667872,-0.004578760891314595
1772639263013191400,6.24719140625,0.09224924463033675,0.0063056714488891885,-0.003242963976599276
1772639263023236600,6.257236572265625,0.09000526509582996,-0.0016229524261783808,0.006704347343696281
1772639263033281500,6.267281494140625,0.09389642731547355,0.0026505635994893964,0.0016222948390524833
1772639263043326500,6.277326416015625,0.0923994667559862,-0.0035777294809638985,0.0017338837210554628
1772639263053371400,6.287371337890625,0.09703823247253894,0.010438738965895027,-0.008743552420567721
1772639263063417300,6.297417236328125,0.09224982915222645,-0.01001473569194204,-0.006651923036715015
1772639263073462500,6.307462646484375,0.08880699522197245,-0.007391474516264861,-0.001185766585310921
1772639263083507500,6.317507568359375,0.0932972923785448,-0.011845280153927159,-0.004536839712038636
1772639263093552600,6.327552734375,0.09299801717102527,0.0017280750347767025,-0.004065057481825352
1772639263103597300,6.337597412109375,0.1046691657423973,0.006464852057484677,-0.00411108858063817
1772639263113643500,6.3476435546875,0.10362170251607894,-0.00006790957048069685,-0.004090292387781664
1772639263123688400,6.3576884765625,0.09853402398824691,-0.009993939499085535,-0.006656078622024506
1772639263133733600,6.367733642578125,0.08790975412130356,-0.005476898182771401,0.002049826935585588
1772639263143778600,6.377778564453125,0.08027823632955551,0.0041502778050664345,-0.0006790226395707577
1772639263153823500,6.387823486328125,0.0925479353159666,0.008168398864136542,-0.0032465807057917117
1772639263163869400,6.397869384765625,0.07848258508443832,-0.011315474993007956,0.0018745251676067708
1772639263173914400,6.407914306640625,0.08566519006490707,0.008613894733978668,0.0007247340779751539
1772639263183959600,6.41795947265625,0.08776011651754378,-0.0030517202873947095,-0.0023051534035243093
1772639263194004500,6.42800439453125,0.0982341642588377,0.003582984469749499,-0.009107170701725408
1772639263204049700,6.438049560546875,0.08730945014059543,0.0013645560766744893,-0.011000930292764678
1772639263214095600,6.448095703125,0.08596212718486786,-0.0044352356512215915,-0.005823628119565546
1772639263224140300,6.458140380859375,0.08611176478862761,-0.008626690283470089,0.0020792904920876026
1772639263234185500,6.468185546875,0.09149871852397919,0.000010120676859514788,-0.004624773723818362
1772639263244230400,6.47823046875,0.09119944331645966,-0.003214573565754108,-0.005831446099840105
1772639263254275600,6.488275634765625,0.09149930304586887,0.009134722003998468,-0.016732094355905426
1772639263264320300,6.4983203125,0.10421791484355926,-0.005076867156161461,-0.009406783835962414
1772639263274366500,6.508366455078125,0.08506547060608863,0.003387426506675547,0.0026328875205479563
1772639263284411400,6.518411376953125,0.08521452368795872,-0.002179695826373063,-0.004425506558362395
1772639263294456600,6.52845654296875,0.08880582617819309,0.007511186197574716,0.0030560631023719906
1772639263304501500,6.53850146484375,0.0970358943849802,-0.0011915124811523127,0.0056018933939747505
1772639263314546700,6.548546630859375,0.08820786028504371,0.009435003000160213,-0.00913628719835542
1772639263324592600,6.558592529296875,0.07952829474508762,0.010585092058958252,-0.0012825780232902616
1772639263334637300,6.56863720703125,0.09733575411438941,0.009479519136965972,-0.008541828436544165
1772639263344682500,6.5786826171875,0.09973054029643535,0.0031573634858010334,-0.004021108742244542
1772639263354727400,6.5887275390625,0.10930734693706035,-0.00006518332385458051,-0.007183673559548333
1772639263364772600,6.598772705078125,0.09194821585714817,-0.0024803992309316526,-0.0015699253309983759
1772639263374818600,6.608818603515625,0.08446633566915988,0.0075781756027368825,-0.008154783614026382
1772639263384863500,6.618863525390625,0.09419336443543433,0.000007954977592453361,-0.01676151224663481
1772639263394908400,6.628908447265625,0.09673778822124003,-0.01299910923950374,-0.005807151908800006
1772639263404953600,6.63895361328125,0.0959901847243309,0.0012717438187333755,-0.0021724669345654546
1772639263414998500,6.64899853515625,0.09494272149801254,0.0051637485718820245,-0.009656128087686374
1772639263425044500,6.65904443359375,0.0982341642588377,0.002364507491502445,0.007516905835596844
1772639263435089700,6.669089599609375,0.08850772001445292,0.0011303591617324855,0.004361282215733081
1772639263445134300,6.67913427734375,0.09269698839783667,-0.0008084577055182307,0.00475103958514519
1772639263455179500,6.689179443359375,0.08790858507752418,0.00505261977253831,0.004139748419541865
1772639263465224400,6.699224365234375,0.10197451983094215,-0.004422451518173329,-0.0027647428724449125
1772639263475270400,6.7092705078125,0.07788286562561988,-0.0022639023694617207,-0.0018595559273380784
1772639263485315600,6.719315673828125,0.08237140921652317,0.006036295906000305,0.0016951682790182529
1772639263495360300,6.7293603515625,0.09224807558655738,0.007831329521542647,-0.01099551433213055
1772639263505405400,6.739405517578125,0.08596271170675754,0.0011218036792299245,0.00034612829023972154
1772639263515450400,6.749450439453125,0.1079588549375534,0.0017299941388715524,0.008086732479650527
1772639263525496600,6.75949658203125,0.08491466395854949,-0.004150435351982014,-0.002701212649559602
1772639263535541500,6.76954150390625,0.08880465713441371,0.00030427789291134104,-0.006097156964475289
1772639263545586700,6.779586669921875,0.08611059574484825,0.005924522077618167,0.0092449991366826
1772639263555631400,6.78963134765625,0.09957856460511684,0.0083481416285038,0.003927621772512793
1772639263565676500,6.799676513671875,0.09853110137879847,0.0034904325067123864,-0.002964813755499199
1772639263575722500,6.809722412109375,0.09479016128480434,-0.0028166408813965972,-0.009558092807000502
1772639263585767400,6.819767333984375,0.08521335464417934,0.0013769349259906449,-0.00624412768711336
1772639263595812600,6.8298125,0.08745791870057583,0.0013775742468074895,0.0031757439592853187
1772639263605857300,6.839857177734375,0.09030044865012168,0.008354578219156247,-0.0101808460815344
1772639263615902500,6.84990234375,0.08401566929221153,-0.013331521814933512,-0.00585785004957579
1772639263625948400,6.859948486328125,0.08775660938620566,0.00024348533309530467,0.0010192783114500344
1772639263635993600,6.86999365234375,0.09344283832907677,-0.0029577846514468546,0.001605179307470098
1772639263646038500,6.88003857421875,0.08401566929221153,0.0009384065114078111,-0.0075373823680449275
1772639263656083500,6.89008349609375,0.08296820606589317,0.010191620920586866,-0.011699041225295513
1772639263666128400,6.90012841796875,0.09568740238547324,0.002204564264504006,0.00044166108658537265
1772639263676174300,6.91017431640625,0.09344283832907677,-0.010783272379025583,0.002073710134672001
1772639263686219500,6.920219482421875,0.0793769035756588,-0.0021577933801745527,-0.006440253047412261
1772639263696264400,6.930264404296875,0.07578618560731411,0.01069696406875155,0.0009599584728013724
1772639263706309600,6.9403095703125,0.08401625381410122,0.0007944714210054372,-0.008946591578843071
1772639263716354300,6.950354248046875,0.09030103317201137,0.0038589233258098828,-0.012488392371544614
1772639263726400300,6.960400146484375,0.09119944331645966,-0.005302549687796272,0.011659722995059563
1772639263736445400,6.970445556640625,0.10197451983094215,0.013978592113393824,-0.004254195978911593
1772639263746490400,6.980490478515625,0.08895663282573223,0.0015849311038851736,-0.003454213840793818
1772639263756535600,6.99053564453125,0.08760930987000465,0.0018906337689026259,-0.0029280436753761022
1772639263766580500,7.00058056640625,0.09538988074362277,-0.012849993367196293,0.00927832601754926
1772639263776626700,7.010626708984375,0.0944914705991745,0.0008415242914808914,0.004552366074733436
1772639263786671400,7.02067138671875,0.09045067077577114,0.0039010831087478433,-0.011170688235945999
1772639263796716500,7.030716552734375,0.09164777160584926,-0.0027799746909062378,-0.005369381546042859
1772639263806761500,7.040761474609375,0.09239186797142028,0.01203891672961763,0.0009788001705892384
1772639263816806400,7.050806396484375,0.06545242311954498,0.000054953049140749494,-0.007932455233391374
1772639263826852400,7.060852294921875,0.10495499694645405,0.00023433619554853066,0.010455041646724566
1772639263836897300,7.070897216796875,0.09657353757023811,-0.009297372069669654,-0.0011438088734168558
1772639263846942500,7.0809423828125,0.09567805003523826,-0.003708888429828221,-0.0002747161549981683
1772639263856987400,7.0909873046875,0.11678045929670333,0.004832529014762258,-0.007121102317888289
1772639263867032300,7.1010322265625,0.06755377931296826,0.0072227657442097545,-0.0008396382950711994
1772639263877078300,7.111078369140625,0.10227087242901324,-0.006548765197984176,-0.012686636623693629
1772639263887123500,7.12112353515625,0.06321487332582473,0.011444981982547323,-0.0076464504993986335
1772639263897168400,7.13116845703125,0.09583645546734333,-0.0034984160254127343,-0.003068995649181306
