time,seconds_elapsed,z,y,x
1772639256819087600,0.053087646484375,0.0016010924009606242,-0.004282363224774599,-0.006385461427271366
1772639256829132800,0.0631328125,0.0014293185668066144,-0.0036037894897162914,-0.007533816155046225
1772639256839177700,0.073177734375,0.0024445154704153538,-0.00239205127581954,-0.006727677304297686
1772639256849222700,0.08322265625,0.002606702037155628,-0.006045641843229532,-0.008056328631937504
1772639256859267600,0.093267578125,0.0007217166712507606,-0.0026759442407637835,-0.007757788058370352
1772639256869312800,0.103312744140625,0.0018556906143203378,-0.002855974016711116,-0.006356433033943176
1772639256879358700,0.113358642578125,0.0002798982313834131,-0.003906058380380273,-0.007640875410288572
1772639256889404000,0.12340380859375,0.0011808456620201468,-0.002543052425608039,-0.006144445389509201
1772639256899448600,0.133448486328125,0.002526541007682681,-0.005474393721669912,-0.007426491007208824
1772639256909493800,0.14349365234375,0.001704955706372857,-0.00430100504308939,-0.006913566030561924
1772639256919538700,0.15353857421875,0.0018197379540652037,-0.0038301581516861916,-0.007339405361562967
1772639256929583900,0.163583984375,0.002204564632847905,-0.003994741477072239,-0.006107427179813385
1772639256939628800,0.17362890625,0.002766491612419486,-0.0029981867410242558,-0.005883455276489258
1772639256949674800,0.1836748046875,0.0014881744282320142,-0.004041879437863827,-0.007236873731017113
1772639256959719700,0.1937197265625,0.0016338493442162871,-0.0031254857312887907,-0.007006244268268347
1772639256969764600,0.2037646484375,0.0024322650860995054,-0.004458398092538118,-0.007183344569057226
1772639256979809800,0.213809814453125,0.002737196860834956,-0.001443166984245181,-0.006761499680578709
1772639256989854700,0.223854736328125,0.0021752698812633753,-0.0046701193787157536,-0.006743390113115311
1772639256999899600,0.233899658203125,0.001258609932847321,-0.003915112931281328,-0.005878395400941372
1772639257009944600,0.243944580078125,0.002659698948264122,-0.0029790119733661413,-0.005939115304499865
1772639257019990800,0.25399072265625,0.0017659420846030116,-0.0034293525386601686,-0.006419016979634762
1772639257030035700,0.26403564453125,0.002016279147937894,-0.005827528890222311,-0.007180415093898773
1772639257040081000,0.274080810546875,0.004048271104693413,-0.004592088516801596,-0.006959106307476759
1772639257050125800,0.284125732421875,0.0024810009635984898,-0.0037558560725301504,-0.005885053426027298
1772639257060170800,0.294170654296875,0.0015105449128895998,-0.004867726005613804,-0.006789462640881538
1772639257070215700,0.304215576171875,0.0021851237397640944,-0.003178216516971588,-0.007474161684513092
1772639257080260900,0.3142607421875,0.0017781927017495036,-0.004474110435694456,-0.006265885196626186
1772639257090306800,0.324306884765625,0.001335575245320797,-0.0026815368328243494,-0.006643255241215229
1772639257100351700,0.334351806640625,0.0010479538468644023,-0.004348942078649998,-0.007508782669901848
1772639257110396700,0.344396728515625,-0.0003808320325333625,-0.004667456261813641,-0.004890096373856068
1772639257120441600,0.354441650390625,0.001987250754609704,-0.002936667762696743,-0.0046480149030685425
1772639257130486800,0.36448681640625,0.0028040423057973385,-0.0040442761965096,-0.005758286919444799
1772639257140531700,0.37453173828125,0.002796585438773036,-0.0038067223504185677,-0.00631888210773468
1772639257150577000,0.384576904296875,0.0031310785561800003,-0.003961718175560236,-0.008377505466341972
1772639257160622800,0.394622802734375,0.0024977787397801876,-0.003319630166515708,-0.005142031237483025
1772639257170667800,0.404667724609375,0.0005275722360238433,-0.003820304526016116,-0.008833705447614193
1772639257180712700,0.414712646484375,0.002656236756592989,-0.002639192622154951,-0.006795321591198444
1772639257190757600,0.424757568359375,0.0012948289513587952,-0.0027350664604455233,-0.007864048704504967
1772639257200802800,0.434802734375,0.0019321233266964555,-0.004436027258634567,-0.007282147649675608
1772639257210847700,0.44484765625,0.00279019377194345,-0.003965180367231369,-0.005859220866113901
1772639257220892700,0.454892578125,0.0009230516152456403,-0.0038597192615270615,-0.0070310113951563835
1772639257230938600,0.464938720703125,0.001032507512718439,-0.004667988512665033,-0.00546240946277976
1772639257240983800,0.47498388671875,0.0015180017799139023,-0.0032197616528719664,-0.006591323763132095
1772639257251028700,0.48502880859375,0.0029198897536844015,-0.004168379586189985,-0.0062184808775782585
1772639257261074000,0.495073974609375,0.0010309095960110426,-0.005742840468883514,-0.006358563434332609
1772639257271118600,0.50511865234375,0.0007214503129944205,-0.004483165219426155,-0.006943659856915474
1772639257281163800,0.515163818359375,0.0014658038271591067,-0.003905792022123933,-0.0051566786132752895
1772639257291208700,0.525208740234375,-0.0003890878288075328,-0.004187554586678743,-0.00995995569974184
1772639257301254700,0.535254638671875,0.0012532835826277733,-0.002275671111419797,-0.00814820732921362
1772639257311299800,0.5452998046875,0.0013230583863332868,-0.0034173682797700167,-0.006336991675198078
1772639257321344800,0.5553447265625,0.00019574233738239855,-0.004711398389190435,-0.006018743850290775
1772639257331389700,0.5653896484375,0.0011315771844238043,-0.0024796691723167896,-0.0056863813661038876
1772639257341434600,0.5754345703125,0.0003784351865760982,-0.0037707698065787554,-0.004832305945456028
1772639257351479800,0.585479736328125,0.0017092167399823666,-0.003638410707935691,-0.0067513794638216496
1772639257361525800,0.59552587890625,0.0005161206354387105,-0.0030059099663048983,-0.006702377460896969
1772639257371571000,0.605571044921875,0.0020849888678640127,-0.004637628793716431,-0.006019542925059795
1772639257381615600,0.61561572265625,0.00025486451340839267,-0.005097024142742157,-0.00606295233592391
1772639257391660800,0.625660888671875,0.001398159540258348,-0.005500758998095989,-0.006352438125759363
1772639257401705700,0.635705810546875,0.0021550299134105444,-0.0031931300181895494,-0.0057492321357131
1772639257411751000,0.6457509765625,0.000925448490306735,-0.004621649626642466,-0.006975351367145777
1772639257421795800,0.6557958984375,0.0006556702428497374,-0.004799016285687685,-0.006131395697593689
1772639257431841800,0.665841796875,0.002377936616539955,-0.0038810246624052525,-0.005571865476667881
1772639257441886700,0.67588671875,0.0018224010709673166,-0.004722849931567907,-0.006727677304297686
1772639257451931600,0.685931640625,0.001540638622827828,-0.004048537462949753,-0.00612367270514369
1772639257461976800,0.695976806640625,0.0017662084428593516,-0.0038274950347840786,-0.004707936197519302
1772639257472021800,0.706021728515625,0.00418515782803297,-0.004304733593016863,-0.006710899528115988
1772639257482066700,0.716066650390625,0.0015566176734864712,-0.003915379289537668,-0.005456284619867802
1772639257492111600,0.726111572265625,0.002957440447062254,-0.005269330460578203,-0.006924485322088003
1772639257502157600,0.736157470703125,0.000925448490306735,-0.004751611966639757,-0.00487118773162365
1772639257512202800,0.74620263671875,0.0012096078135073185,-0.004554005339741707,-0.005579855293035507
1772639257522247700,0.75624755859375,0.0006250438746064901,-0.005167065188288689,-0.00646615494042635
1772639257532292900,0.76629296875,0.0012412993237376213,-0.003944141324609518,-0.006707170978188515
1772639257542337500,0.776337646484375,0.002225603675469756,-0.0031007183715701103,-0.005271460860967636
1772639257552382700,0.7863828125,0.003126817522570491,-0.00432976707816124,-0.00660463934764266
1772639257562428700,0.7964287109375,0.0023244069889187813,-0.004971855320036411,-0.004920722916722298
1772639257572473900,0.806473876953125,0.0027148264925926924,-0.0048738508485257626,-0.006373210810124874
1772639257582518800,0.816518798828125,0.002304965863004327,-0.0031164311803877354,-0.005885053426027298
1772639257592563700,0.826563720703125,0.0022391858510673046,-0.005745237227529287,-0.006627542432397604
1772639257602608600,0.836608642578125,0.001882854849100113,-0.002192580606788397,-0.0070397998206317425
1772639257612653800,0.84665380859375,0.003025883575901389,-0.004285824950784445,-0.006190517917275429
1772639257622698800,0.85669873046875,0.0010338390711694956,-0.004311391618102789,-0.00720491586253047
1772639257632744700,0.86674462890625,0.0010913633741438389,-0.004218713380396366,-0.005899967160075903
1772639257642790000,0.876789794921875,0.002871153876185417,-0.005132444202899933,-0.006164418999105692
1772639257652834600,0.88683447265625,0.0003528688393998891,-0.003049852093681693,-0.007502124644815922
1772639257662879700,0.896879638671875,0.00009800432599149644,-0.0037862160243093967,-0.00743234995752573
1772639257672924700,0.906924560546875,0.003343598684296012,-0.002752376953139901,-0.005890113301575184
1772639257682969900,0.916969970703125,-0.00010998855577781796,-0.002889263443648815,-0.006607568822801113
1772639257693015800,0.927015869140625,0.002623746171593666,-0.0044051348231732845,-0.007574030198156834
1772639257703060700,0.937060791015625,0.0008862999966368079,-0.004128698725253344,-0.005363073665648699
1772639257713105700,0.947105712890625,0.003867442486807704,-0.004009655211120844,-0.006976416800171137
1772639257723150800,0.95715087890625,0.0007195860962383449,-0.00469621829688549,-0.006082660052925348
1772639257733195800,0.96719580078125,0.002073803450912237,-0.0047835698351264,-0.006841128226369619
1772639257743241000,0.977240966796875,0.00028868665685877204,-0.0044410875998437405,-0.006491188891232014
1772639257753285600,0.98728564453125,0.001234641415067017,-0.003707919269800186,-0.007348194252699614
1772639257763331600,0.99733154296875,0.0011776498286053538,-0.004083424806594849,-0.005902097560465336
1772639257773376800,1.007376708984375,0.001163268811069429,-0.003973170183598995,-0.006767624989151955
1772639257783421700,1.017421630859375,0.003397660795599222,-0.00475587323307991,-0.007645668927580118
1772639257793467000,1.027466796875,0.0027262780349701643,-0.004041080828756094,-0.006952980998903513
1772639257803512000,1.037511962890625,0.0001968075957847759,-0.0028991170693188906,-0.006668821442872286
1772639257813557200,1.04755712890625,0.0021225393284112215,-0.00387330143712461,-0.006866161711513996
1772639257823603200,1.057603271484375,0.00045087316539138556,-0.00279046013019979,-0.006671218667179346
1772639257833648000,1.067648193359375,0.0015531554818153381,-0.0036722328513860703,-0.0046544065698981285
1772639257843693000,1.077693115234375,0.0012604740913957357,-0.005379585549235344,-0.007576959673315287
1772639257853738000,1.087738037109375,0.0010567422723397613,-0.0032687638886272907,-0.007246194873005152
1772639257863783200,1.097783203125,0.0010122675448656082,-0.0031787490006536245,-0.005013134330511093
1772639257873828000,1.107828125,0.00119575927965343,-0.0034823494497686625,-0.00589703768491745
1772639257883873300,1.117873291015625,0.001612277701497078,-0.004786499310284853,-0.006572947837412357
1772639257893919200,1.127919189453125,0.0022977753542363644,-0.004652808886021376,-0.007017163094133139
1772639257903964200,1.137964111328125,0.0020668793004006147,-0.0024594292044639587,-0.006219013594090939
1772639257914009000,1.148009033203125,0.0020245350897312164,-0.0046938215382397175,-0.00785739067941904
1772639257924054300,1.15805419921875,0.0009672601008787751,-0.004117779433727264,-0.006148173473775387
1772639257934099200,1.16809912109375,0.003388339886441827,-0.00433136522769928,-0.006167881190776825
1772639257944144100,1.17814404296875,0.0031856733839958906,-0.004000866785645485,-0.005969741847366095
1772639257954190000,1.188190185546875,0.0028122980147600174,-0.0035057852510362864,-0.007276821415871382
1772639257964235000,1.198235107421875,0.0024778051301836967,-0.0033073797821998596,-0.006588927004486322
1772639257974280200,1.2082802734375,0.0027830032631754875,-0.003534547286108136,-0.006853378843516111
1772639257984325000,1.2183251953125,0.001478587044402957,-0.003275688039138913,-0.005932191386818886
1772639257994370300,1.228370361328125,-0.0009097357979044318,-0.003974767867475748,-0.006419016979634762
1772639258004415000,1.2384150390625,0.0009470200748182833,-0.003430950455367565,-0.005875465925782919
1772639258014460200,1.248460205078125,0.0023433153983205557,-0.003479952458292246,-0.005568137392401695
1772639258024506000,1.258506103515625,0.003751062322407961,-0.0057526943273842335,-0.00583844818174839
1772639258034551000,1.268551025390625,0.002110288944095373,-0.004478371702134609,-0.0072896042838692665
1772639258044596200,1.27859619140625,0.0032147017773240805,-0.004304200876504183,-0.00794447585940361
1772639258054641000,1.288640869140625,-0.00006231796578504145,-0.004699147772043943,-0.00615136930719018
1772639258064686000,1.29868603515625,0.0012024171883240342,-0.0041582598350942135,-0.004974252078682184
1772639258074731000,1.30873095703125,0.0021547635551542044,-0.0027718180790543556,-0.006871754303574562
1772639258084777200,1.318777099609375,0.0012253203894942999,-0.0044139232486486435,-0.006502107717096806
1772639258094822100,1.328822265625,0.002481533447280526,-0.003552923211827874,-0.007418501656502485
1772639258104867300,1.338867431640625,0.0012942962348461151,-0.0029529130551964045,-0.005252552684396505
1772639258114912000,1.348912109375,0.0020642161834985018,-0.003849332919344306,-0.007626228034496307
1772639258124957200,1.358957275390625,0.002019474981352687,-0.0032506543211638927,-0.006397179327905178
1772639258135002000,1.369002197265625,0.003153448924422264,-0.003270095447078347,-0.0065412563271820545
1772639258145047300,1.37904736328125,0.002089516259729862,-0.0041822283528745174,-0.006419816054403782
1772639258155093200,1.38909326171875,0.000012250540748937055,-0.0030304109677672386,-0.007072024047374725
1772639258165138000,1.399137939453125,0.0014413028256967664,-0.0033358754590153694,-0.006913299672305584
1772639258175183000,1.40918310546875,0.002204830991104245,-0.0033300165086984634,-0.006585731171071529
1772639258185228000,1.41922802734375,0.001514806062914431,-0.004578240215778351,-0.006807039491832256
1772639258195273200,1.429273193359375,0.0021310613956302404,-0.00492125516757369,-0.006417419295758009
1772639258205318100,1.439318115234375,0.002974750939756632,-0.0019891150295734406,-0.00592686515301466
1772639258215364000,1.449364013671875,0.0019912454299628735,-0.003447994589805603,-0.005252286326140165
1772639258225409000,1.459408935546875,0.0025012409314513206,-0.0046424223110079765,-0.00683233980089426
1772639258235454200,1.4694541015625,0.00296303303912282,-0.004205664154142141,-0.005916744936257601
1772639258245499100,1.4794990234375,0.002008023438975215,-0.003025617217645049,-0.0060206083580851555
1772639258255544000,1.4895439453125,0.0014500912511721253,-0.003835750976577401,-0.006354834884405136
1772639258265589000,1.499589111328125,-0.0008205199264921248,-0.004763862583786249,-0.007126885466277599
1772639258275635000,1.509635009765625,0.0013134710025042295,-0.004234958905726671,-0.0059657469391822815
1772639258285680000,1.51968017578125,0.00239258399233222,-0.003981958609074354,-0.006089583970606327
1772639258295725000,1.52972509765625,0.002225603675469756,-0.0033569145016372204,-0.00806005671620369
1772639258305770200,1.539770263671875,0.000483363721286878,-0.0027292075101286173,-0.007285609841346741
1772639258315815200,1.549815185546875,0.002113218419253826,-0.004495682194828987,-0.0054549528285861015
1772639258325860000,1.559860107421875,0.0019526296528056264,-0.004026167094707489,-0.007279484532773495
1772639258335905000,1.569905029296875,0.002109756227582693,-0.005715143866837025,-0.006642456166446209
1772639258345951000,1.579950927734375,0.00112438655924052,-0.003278617514297366,-0.006327404174953699
1772639258355996200,1.58999609375,0.0012391688069328666,-0.005959089379757643,-0.006192115601152182
1772639258366041000,1.600041015625,0.0013009541435167193,-0.0038184402510523796,-0.00737242866307497
1772639258376086000,1.6100859375,0.002913231961429119,-0.004852013196796179,-0.0062821307219564915
1772639258386131000,1.620130859375,0.002407231368124485,-0.004209125880151987,-0.005418733693659306
1772639258396176100,1.630176025390625,0.0010519486386328936,-0.0036666402593255043,-0.004743356257677078
1772639258406222000,1.64022216796875,0.0018911106744781137,-0.0037499971222132444,-0.007225688546895981
1772639258416267300,1.650267333984375,0.0013134710025042295,-0.003229881636798382,-0.007157511543482542
1772639258426312200,1.660312255859375,0.000675377668812871,-0.0031105722300708294,-0.0075601814314723015
1772639258436357000,1.670357177734375,0.0022117553744465113,-0.004472512751817703,-0.006225671619176865
1772639258446402000,1.680402099609375,0.001228782464750111,-0.004081827122718096,-0.006555370986461639
1772639258456447200,1.690447265625,0.002014148747548461,-0.0038368161767721176,-0.0068152956664562225
1772639258466493200,1.7004931640625,0.0011193265672773123,-0.0033625070936977863,-0.005772667936980724
1772639258476538000,1.7105380859375,0.0006849650526419282,-0.0034975295420736074,-0.005723932292312384
1772639258486583000,1.7205830078125,0.0019771307706832886,-0.0043710460886359215,-0.00749227125197649
1772639258496628000,1.7306279296875,0.0011494202772155404,-0.005286374595016241,-0.0051960935816168785
1772639258506673200,1.740673095703125,0.0012543488992378116,-0.003549461020156741,-0.005872802808880806
1772639258516718000,1.750718017578125,0.0014173343079164624,-0.004348942078649998,-0.006103698629885912
1772639258526763300,1.76076318359375,0.0022301310673356056,-0.0020540961995720863,-0.006247509736567736
1772639258536809200,1.770809326171875,0.0017102820565924048,-0.004107393324375153,-0.006930077914148569
1772639258546854100,1.780854248046875,0.0026322684716433287,-0.0026847326662391424,-0.005302886478602886
1772639258556899000,1.790899169921875,0.0026618295814841986,-0.0036738307680934668,-0.005930060520768166
1772639258566944000,1.800944091796875,0.0015907060587778687,-0.004478904418647289,-0.007269630674272776
1772639258576989200,1.8109892578125,0.0017757958266884089,-0.004762797150760889,-0.006491987966001034
1772639258587034000,1.8210341796875,0.0022272015921771526,-0.003400324145331979,-0.00785605888813734
1772639258597080300,1.831080322265625,0.0015776565996930003,-0.0031965922098606825,-0.005827795248478651
1772639258607125000,1.841125,0.0013459615875035524,-0.003233077470213175,-0.0057383133098483086
1772639258617170200,1.851170166015625,0.002668487373739481,-0.0033712955191731453,-0.008807339705526829
1772639258627215000,1.861215087890625,0.0019502328941598535,-0.003201385959982872,-0.005486111622303724
1772639258637260300,1.87126025390625,0.001353418454527855,-0.004571049474179745,-0.00549330236390233
1772639258647305000,1.881304931640625,0.001201618229970336,-0.004941761493682861,-0.006713829003274441
1772639258657351000,1.891350830078125,0.001716673607006669,-0.0034855452831834555,-0.007250456139445305
1772639258667396000,1.90139599609375,0.0023457121569663286,-0.003493002150207758,-0.009032110683619976
1772639258677441000,1.91144091796875,0.002254632068797946,-0.00401604687795043,-0.006959904916584492
1772639258687486200,1.921486328125,0.0028671592008322477,-0.00336117553524673,-0.007154582068324089
1772639258697531100,1.93153125,0.0026730147656053305,-0.004781439434736967,-0.00538331363350153
1772639258707576000,1.941576171875,0.001930525409989059,-0.004037085920572281,-0.006307696923613548
1772639258717622000,1.9516220703125,0.0024016385432332754,-0.003254382871091366,-0.00689066294580698
1772639258727667200,1.961667236328125,0.0013275857781991363,-0.002977414056658745,-0.006893326062709093
1772639258737712000,1.971712158203125,0.00008069378236541525,-0.0054664043709635735,-0.006925816647708416
1772639258747757300,1.98175732421875,0.0026724820490926504,-0.0041252365335822105,-0.005860019475221634
1772639258757802000,1.991802001953125,0.002138518262654543,-0.0028565065003931522,-0.006085323169827461
1772639258767847200,2.00184716796875,0.003023486817255616,-0.0038599856197834015,-0.007529555354267359
1772639258777892000,2.01189208984375,0.001433845958672464,-0.0038892803713679314,-0.007591607049107552
1772639258787938000,2.02193798828125,0.001163268811069429,-0.004367051646113396,-0.007472030818462372
1772639258797983200,2.031983154296875,0.002326537622138858,-0.0038549257442355156,-0.00666482700034976
1772639258808028400,2.0420283203125,0.0013907026732340455,-0.004198473412543535,-0.0068174260668456554
1772639258818073600,2.052073486328125,0.001407480682246387,-0.004218447022140026,-0.0052376389503479
1772639258828118300,2.0621181640625,0.000182959163794294,-0.002272741636261344,-0.006044310517609119
1772639258838163500,2.07216357421875,0.0033902039285749197,-0.0032687638886272907,-0.0070464578457176685
1772639258848209400,2.08220947265625,0.0023273364640772343,-0.0030858046375215054,-0.007200388703495264
1772639258858254300,2.09225439453125,0.0022562299855053425,-0.004419249482452869,-0.009353553876280785
1772639258868299500,2.102299560546875,0.0009440905996598303,-0.005635248962789774,-0.005717007908970118
1772639258878344200,2.11234423828125,0.0016399745363742113,-0.004197674337774515,-0.00663526589050889
1772639258888389400,2.122389404296875,0.0025121597573161125,-0.0038061898667365313,-0.006009423173964024
1772639258898434300,2.132434326171875,0.0013811152894049883,-0.003695935010910034,-0.0067484499886631966
1772639258908480500,2.14248046875,0.0003616572648752481,-0.005411809775978327,-0.0057218014262616634
1772639258918525400,2.152525390625,0.001745968358591199,-0.00347489258274436,-0.005652825813740492
1772639258928570600,2.162570556640625,0.0021931130904704332,-0.006133526097983122,-0.007119961082935333
1772639258938615300,2.172615234375,0.000520647969096899,-0.0035265579354017973,-0.005587578285485506
1772639258948660500,2.182660400390625,0.0008245146600529552,-0.0040855552069842815,-0.005398493725806475
1772639258958705400,2.192705322265625,0.0010831075487658381,-0.002977414056658745,-0.00697854720056057
1772639258968751400,2.20275146484375,0.0013936321483924985,-0.0024349282030016184,-0.006932208314538002
1772639258978796500,2.212796630859375,0.00145222176797688,-0.0026077672373503447,-0.006877879612147808
1772639258988841200,2.22284130859375,0.0014381069922819734,-0.004796885885298252,-0.0062712118960917
1772639258998886400,2.232886474609375,0.0024293356109410524,-0.002463423879817128,-0.007211573887616396
1772639259008931300,2.242931396484375,0.0021662150975316763,-0.0036583843175321817,-0.006892526987940073
1772639259018976500,2.2529765625,0.0023521038237959146,-0.004522313829511404,-0.005914348177611828
1772639259029021400,2.263021484375,0.0016588830621913075,-0.003316967049613595,-0.006050435826182365
1772639259039067400,2.2730673828125,0.0026256104465574026,-0.003626160090789199,-0.007309312000870705
1772639259049112300,2.2831123046875,0.001398425898514688,-0.004941495135426521,-0.005860818549990654
1772639259059157200,2.2931572265625,0.002145442645996809,-0.004709533881396055,-0.006247509736567736
1772639259069202400,2.303202392578125,0.00015659387281630188,-0.003288205014541745,-0.00552339619025588
1772639259079247400,2.313247314453125,0.00021678130724467337,-0.004091148264706135,-0.005977198481559753
1772639259089292300,2.323292236328125,0.00042504051816649735,-0.0032921996898949146,-0.006216084118932486
1772639259099338200,2.333338134765625,0.001312139444053173,-0.003519367426633835,-0.005874933209270239
1772639259109383400,2.343383544921875,0.0009544769418425858,-0.0035214978270232677,-0.00555056007578969
1772639259119428400,2.353428466796875,0.0019896477460861206,-0.004674380179494619,-0.005608617328107357
1772639259129473500,2.3634736328125,0.002133724745362997,-0.004002464935183525,-0.005812082905322313
1772639259139518500,2.3735185546875,0.0036250948905944824,-0.004021905828267336,-0.005203550215810537
1772639259149563400,2.3835634765625,0.001430916483514011,-0.00381471193395555,-0.006081328261643648
1772639259159609300,2.393609375,0.0012783173006027937,-0.0037798245903104544,-0.005903162993490696
1772639259169654300,2.403654296875,0.0006846986943855882,-0.002915895078331232,-0.004975051153451204
1772639259179699500,2.413699462890625,0.0007555388147011399,-0.004445082042366266,-0.005685849115252495
1772639259189744400,2.423744384765625,0.00025353292585350573,-0.005404086317867041,-0.007911186665296555
1772639259199789600,2.43378955078125,0.0002865561400540173,-0.003920173272490501,-0.005306880921125412
1772639259209834200,2.443834228515625,0.002126534003764391,-0.0032296155113726854,-0.004486893769353628
1772639259219880400,2.45388037109375,0.0031582426745444536,-0.004025101661682129,-0.006633135490119457
1772639259229925400,2.46392529296875,0.003041330026462674,-0.004402738064527512,-0.003914846573024988
1772639259239970600,2.473970458984375,0.0030455910600721836,-0.004137753508985043,-0.006184925325214863
1772639259250015500,2.484015380859375,0.000892691605258733,-0.004529770463705063,-0.006909038871526718
1772639259260060400,2.494060302734375,0.0023307986557483673,-0.00487145408987999,-0.006668289192020893
1772639259270105300,2.504105224609375,0.0007344998302869499,-0.0041340249590575695,-0.006222742144018412
1772639259280151300,2.5141513671875,0.0027443873696029186,-0.004355333745479584,-0.0062371231615543365
1772639259290196500,2.524196533203125,0.00199364242143929,-0.0036048549227416515,-0.006598514039069414
1772639259300241400,2.534241455078125,0.0027507790364325047,-0.0038418760523200035,-0.007119961082935333
1772639259310286600,2.54428662109375,0.0007755124825052917,-0.0046333675272762775,-0.006679740734398365
1772639259320331300,2.554331298828125,0.001663410454057157,-0.0041161817498505116,-0.006399043370038271
1772639259330376400,2.56437646484375,0.0006703176186420023,-0.005182777531445026,-0.0052205948159098625
1772639259340422400,2.57442236328125,0.002927612978965044,-0.003823234001174569,-0.005842176266014576
1772639259350467300,2.58446728515625,0.002644785214215517,-0.002540122950449586,-0.0064981128089129925
1772639259360512500,2.594512451171875,0.002299106912687421,-0.0034266894217580557,-0.005007808096706867
1772639259370557200,2.60455712890625,0.0021960425656288862,-0.0039023298304528,-0.007422496099025011
1772639259380602400,2.614602294921875,0.0012234562309458852,-0.004168912302702665,-0.005372927524149418
1772639259390647300,2.624647216796875,0.0022804648615419865,-0.0041641187854111195,-0.007395065855234861
1772639259400693500,2.634693603515625,0.0019502328941598535,-0.0033606430515646935,-0.0055060856975615025
1772639259410738400,2.644738525390625,0.0006601976347155869,-0.003489806316792965,-0.00634817685931921
1772639259420783600,2.65478369140625,0.0004905542591586709,-0.004628041293472052,-0.00672208471223712
1772639259430828300,2.664828369140625,0.0019481023773550987,-0.0034376082476228476,-0.006573480553925037
1772639259440873500,2.67487353515625,0.001186970854178071,-0.004178233444690704,-0.008431567810475826
1772639259450918400,2.68491845703125,0.00247567449696362,-0.005082643125206232,-0.007621966768056154
1772639259460964400,2.69496435546875,0.0006551376427523792,-0.0049188584089279175,-0.006910902913659811
1772639259471009500,2.705009521484375,0.002130528911948204,-0.0037204360123723745,-0.006506635341793299
1772639259481054200,2.71505419921875,0.0020687435753643513,-0.005860285833477974,-0.008494152687489986
1772639259491099400,2.725099365234375,0.0007574030314572155,-0.004108192399144173,-0.006037652492523193
1772639259501144300,2.735144287109375,0.0008900284301489592,-0.004282895475625992,-0.006843791343271732
1772639259511189500,2.745189453125,0.0008796420879662037,-0.0031158984638750553,-0.007638745009899139
1772639259521235500,2.7552353515625,0.0018455706303939223,-0.004085821565240622,-0.0051960935816168785
1772639259531280600,2.76528076171875,0.0012961605098098516,-0.0023518374655395746,-0.006307164207100868
1772639259541325300,2.7753251953125,0.0016969662392511964,-0.004563326481729746,-0.007056844420731068
1772639259551370500,2.78537060546875,0.0027425233274698257,-0.0035984632559120655,-0.006763896439224482
1772639259561415400,2.79541552734375,0.0017148094484582543,-0.004123372491449118,-0.006876015570014715
1772639259571460600,2.805460693359375,0.001517469179816544,-0.005441104527562857,-0.006028597708791494
1772639259581506600,2.815506591796875,0.0022863238118588924,-0.003962250892072916,-0.006705839652568102
1772639259591551200,2.82555126953125,0.0031033814884722233,-0.003576092654839158,-0.005881857592612505
1772639259601596400,2.835596435546875,0.0006197175825946033,-0.004216316621750593,-0.007530088070780039
1772639259611641300,2.845641357421875,0.002386192325502634,-0.0022485069930553436,-0.00706829596310854
1772639259621686500,2.8556865234375,0.0022602248936891556,-0.004607534967362881,-0.006983341183513403
1772639259631731500,2.8657314453125,0.0018588864477351308,-0.0035353463608771563,-0.006581203546375036
1772639259641777400,2.87577734375,0.0021201425697654486,-0.0031364047899842262,-0.006433930713683367
1772639259651822300,2.885822265625,0.0011747203534469008,-0.004997954238206148,-0.006052299868315458
1772639259661867300,2.8958671875,0.001984321279451251,-0.0041465419344604015,-0.006323143374174833
1772639259671912400,2.905912353515625,0.0008519452530890703,-0.0031880701426416636,-0.006095442920923233
1772639259681957400,2.915957275390625,0.0009752495680004358,-0.003355849301442504,-0.005042961798608303
1772639259692002300,2.926002197265625,0.0010804444318637252,-0.0031904669012874365,-0.0062973108142614365
1772639259702048300,2.93604833984375,0.002436792477965355,-0.002388855442404747,-0.005653624422848225
1772639259712093400,2.946093505859375,0.0009677927591837943,-0.0032581111881881952,-0.006213953718543053
1772639259722138400,2.956138427734375,0.002055694116279483,-0.0025899240281432867,-0.006740460637956858
1772639259732183600,2.96618359375,0.002359027974307537,-0.003867975203320384,-0.005901564843952656
1772639259742228500,2.976228515625,0.0015337144723162055,-0.0041542649269104,-0.0068389978259801865
1772639259752273400,2.9862734375,0.0012799152173101902,-0.004107926040887833,-0.00683207344263792
1772639259762319400,2.9963193359375,0.0013113404856994748,-0.0024618261959403753,-0.005432316102087498
1772639259772364300,3.0063642578125,0.000755805114749819,-0.004052532371133566,-0.008050736039876938
1772639259782409500,3.016409423828125,0.0027089675422757864,-0.0035870117135345936,-0.006848851218819618
1772639259792454400,3.026454345703125,0.0015552861150354147,-0.004525776021182537,-0.008500277064740658
1772639259802499300,3.036499267578125,0.0008255799184553325,-0.0026466494891792536,-0.00666456064209342
1772639259812544500,3.04654443359375,0.0018359832465648651,-0.0030061763245612383,-0.007770038675516844
1772639259822590500,3.056590576171875,0.002055161399766803,-0.0033563817851245403,-0.005286640953272581
1772639259832635400,3.066635498046875,0.0008636631537228823,-0.0029920614324510098,-0.007991081103682518
1772639259842680600,3.0766806640625,0.001781921018846333,-0.004534031730145216,-0.006059490609914064
1772639259852725500,3.0867255859375,0.0015209312550723553,-0.0034322820138186216,-0.0054703992791473866
1772639259862770400,3.0967705078125,0.002588326344266534,-0.004289819858968258,-0.006120743229985237
1772639259872815400,3.1068154296875,0.0014719291357323527,-0.004602475091814995,-0.006514891050755978
1772639259882861300,3.116861328125,-0.000290018244413659,-0.003297259798273444,-0.007649131119251251
1772639259892906500,3.126906494140625,0.0022951122373342514,-0.0029995182994753122,-0.007171626668423414
1772639259902951400,3.136951416015625,0.0026551715563982725,-0.0034639735240489244,-0.00782623142004013
1772639259912996600,3.14699658203125,0.0019949739798903465,-0.003085272153839469,-0.006679474376142025
1772639259923041500,3.15704150390625,0.0014828480780124664,-0.004293814767152071,-0.007000918034464121
1772639259933086500,3.16708642578125,0.0002846919232979417,-0.004948153160512447,-0.0063154203817248344
1772639259943132400,3.17713232421875,0.0010570086305961013,-0.0046754456125199795,-0.007179882377386093
1772639259953177300,3.18717724609375,0.004580370616167784,-0.0034818167332559824,-0.006554571911692619
1772639259963222500,3.197222412109375,0.0007483482477255166,-0.004881041590124369,-0.006355633959174156
1772639259973267500,3.207267333984375,0.0022338596172630787,-0.004575310740619898,-0.005230448208749294
1772639259983312600,3.217312744140625,-0.000011185276889591478,-0.003227484878152609,-0.007129015866667032
1772639259993357300,3.227357421875,0.001404284848831594,-0.0013603427214547992,-0.006491721607744694
1772639260003403500,3.237403564453125,0.0029872676823288202,-0.003643736941739917,-0.00669358903542161
1772639260013448400,3.247448486328125,0.000015180017726379447,-0.003341468283906579,-0.007089600898325443
1772639260023493600,3.25749365234375,0.003658917034044862,-0.0048738508485257626,-0.007925034500658512
1772639260033538600,3.26753857421875,0.0031667647417634726,-0.0043295007199049,-0.007934622466564178
1772639260043583500,3.27758349609375,0.0035689021460711956,-0.0027534421533346176,-0.006166815757751465
1772639260053628400,3.28762841796875,0.002016545506194234,-0.0046384274028241634,-0.007699997629970312
1772639260063674400,3.29767431640625,0.0019044264918193221,-0.004890096373856068,-0.005923669319599867
1772639260073719600,3.307719482421875,0.002546248259022832,-0.003451456781476736,-0.006695186719298363
1772639260083764500,3.317764404296875,0.0031337416730821133,-0.004293015692383051,-0.006726878695189953
1772639260093809700,3.3278095703125,0.0013374395202845335,-0.0032115059439092875,-0.007351922336965799
1772639260103854300,3.337854248046875,0.0007893609581515193,-0.004027764778584242,-0.00654631620272994
1772639260113900500,3.347900634765625,0.00009986854274757206,-0.003992344718426466,-0.007193730678409338
1772639260123945500,3.357945556640625,0.0031499869655817747,-0.003465305082499981,-0.005793174263089895
1772639260133990400,3.367990478515625,0.003001648932695389,-0.0035337484441697598,-0.006986004300415516
1772639260144035600,3.37803564453125,0.0006202502408996224,-0.0034229608718305826,-0.006608634255826473
1772639260154080500,3.38808056640625,0.0015443670563399792,-0.004311923868954182,-0.005335110705345869
1772639260164125400,3.39812548828125,0.0020535634830594063,-0.005007541738450527,-0.006266417913138866
1772639260174171400,3.40817138671875,0.0012026835465803742,-0.0038008634001016617,-0.0062549663707613945
1772639260184216600,3.418216552734375,0.0015124091878533363,-0.00564084155485034,-0.00643632747232914
1772639260194261500,3.428261474609375,0.0021907163318246603,-0.002832271857187152,-0.007967378944158554
1772639260204306700,3.438306640625,0.0009763148264028132,-0.0029984530992805958,-0.005435245577245951
1772639260214351400,3.448351318359375,0.0018738001817837358,-0.004095675423741341,-0.0060027651488780975
1772639260224396500,3.458396484375,0.0031824775505810976,-0.004607268609106541,-0.006743656471371651
1772639260234442500,3.4684423828125,0.002371012233197689,-0.003537476761266589,-0.008037686347961426
1772639260244487400,3.4784873046875,0.0022623552940785885,-0.003876497270539403,-0.006841394584625959
1772639260254532600,3.48853271484375,0.0003062635369133204,-0.0033923345617949963,-0.006227003410458565
1772639260264577300,3.498577392578125,0.0017888452857732773,-0.003450924064964056,-0.007486412301659584
1772639260274622500,3.50862255859375,0.0016375777777284384,-0.003888481529429555,-0.006840861868113279
1772639260284667400,3.51866748046875,0.0025901903863996267,-0.0038898130878806114,-0.008495483547449112
1772639260294713600,3.528713623046875,-0.0015659386990591884,-0.0036187032237648964,-0.006701844744384289
1772639260304758500,3.538758544921875,0.00239151855930686,-0.0029555761720985174,-0.00857191625982523
1772639260314803700,3.5488037109375,0.0014471617760136724,-0.003486077766865492,-0.005854426883161068
1772639260324848400,3.558848388671875,-0.0002569950302131474,-0.0037774275988340378,-0.007358846720308065
1772639260334893600,3.5688935546875,0.0018884475575760007,-0.002743588527664542,-0.005649363622069359
1772639260344939500,3.578939453125,0.0014623417519032955,-0.004461860284209251,-0.00743101816624403
1772639260354984400,3.588984375,0.0015539544401690364,-0.004858937580138445,-0.007189735770225525
1772639260365029600,3.599029541015625,0.0005352954030968249,-0.004939631093293428,-0.008491489104926586
1772639260375074300,3.60907421875,0.002630936913192272,-0.003156644757837057,-0.00726403808221221
1772639260385119500,3.619119384765625,0.001198955113068223,-0.005518335849046707,-0.005815810989588499
1772639260395164400,3.629164306640625,0.0024410535115748644,-0.0031257520895451307,-0.006944725289940834
1772639260405210400,3.63921044921875,0.002597380895167589,-0.004554804414510727,-0.00510021997615695
1772639260415255600,3.649255615234375,0.0019534286111593246,-0.0049124667420983315,-0.00695005152374506
1772639260425300500,3.659300537109375,0.0016937704058364034,-0.002950516063719988,-0.007023554760962725
1772639260435345400,3.669345458984375,0.0004974784678779542,-0.0031854070257395506,-0.007269364316016436
1772639260445390300,3.679390380859375,0.003239735495299101,-0.0041284323669970036,-0.008226770907640457
1772639260455435500,3.689435546875,0.002612560987472534,-0.003816842334344983,-0.005374791566282511
1772639260465481500,3.6994814453125,0.0026873957831412554,-0.004478638060390949,-0.005908489227294922
1772639260475526700,3.709526611328125,0.0010807107901200652,-0.0051742554642260075,-0.00618279492482543
1772639260485571300,3.7195712890625,0.001291100517846644,-0.004211523104459047,-0.004945756401866674
1772639260495616500,3.729616455078125,0.00199364242143929,-0.003754524514079094,-0.006298109423369169
1772639260505661400,3.739661376953125,0.0020607539918273687,-0.004298874642699957,-0.008070709183812141
1772639260515707400,3.749707275390625,0.0014642059104517102,-0.004195011220872402,-0.00689172837883234
1772639260525752600,3.759752685546875,0.0023552996572107077,-0.004165183752775192,-0.007416637148708105
1772639260535797500,3.769797607421875,0.001880191732198,-0.0041366880759596825,-0.006587062496691942
1772639260545842400,3.779842529296875,0.0009403621661476791,-0.0027683558873832226,-0.004393683280795813
1772639260555887400,3.789887451171875,0.0014053500490263104,-0.003524960018694401,-0.006655505858361721
1772639260565932500,3.7999326171875,0.0017694041598588228,-0.0029763488564640284,-0.006649114191532135
1772639260575978500,3.809978515625,0.00159470085054636,-0.0051958272233605385,-0.007042197044938803
1772639260586023700,3.820023681640625,0.0024104269687086344,-0.002953445538878441,-0.0075913406908512115
1772639260596068400,3.830068359375,0.001088433898985386,-0.0021944446489214897,-0.007142331451177597
1772639260606113500,3.840113525390625,0.0005387574783526361,-0.003769704606384039,-0.006822752300649881
1772639260616158500,3.850158447265625,0.0023483755066990852,-0.002674879040569067,-0.007302920334041119
1772639260626203600,3.86020361328125,0.002122006844729185,-0.003751062322407961,-0.006626477465033531
1772639260636249600,3.87024951171875,0.0012815131340175867,-0.0044288369826972485,-0.0049034119583666325
1772639260646294500,3.88029443359375,0.00018881811411119998,-0.004658934194594622,-0.005948969163000584
1772639260656339500,3.89033935546875,0.0018045579781755805,-0.0031188279390335083,-0.004637362435460091
1772639260666384400,3.90038427734375,0.0017294568242505193,-0.003692739177495241,-0.005961752496659756
1772639260676429600,3.9104296875,0.0019475696608424187,-0.0034056503791362047,-0.0067780110985040665
1772639260686475500,3.9204755859375,0.0022040321491658688,-0.0031784826423972845,-0.00566853815689683
1772639260696520400,3.9305205078125,0.002570749493315816,-0.0036163064651191235,-0.0073135728016495705
1772639260706565400,3.9405654296875,0.0027337349019944668,-0.003260774305090308,-0.006566023454070091
1772639260716610300,3.9506103515625,0.0008905610884539783,-0.0033393376506865025,-0.005904227960854769
1772639260726655500,3.960655517578125,0.0015307849971577525,-0.004731638357043266,-0.0054733287543058395
1772639260736700400,3.970700439453125,0.0014687333023175597,-0.00418515782803297,-0.006561229936778545
1772639260746746600,3.98074658203125,0.0023329290561378,-0.00569889834150672,-0.006229666527360678
1772639260756791600,3.99079150390625,0.0019560917280614376,-0.003640807466581464,-0.005329784471541643
1772639260766836500,4.00083642578125,0.0015124091878533363,-0.004495149478316307,-0.007069360930472612
1772639260776881400,4.01088134765625,0.002028796123340726,-0.005234176758676767,-0.006685599684715271
1772639260786926600,4.020926513671875,0.0012655340833589435,-0.002968625631183386,-0.005753759294748306
1772639260796972500,4.03097265625,0.002520682057365775,-0.004262655507773161,-0.006484530866146088
1772639260807017000,4.041016845703125,0.0013579458463937044,-0.004073038697242737,-0.005635515321046114
1772639260817062000,4.051061767578125,0.001573928166180849,-0.003242664970457554,-0.0059931776486337185
1772639260827107000,4.061107177734375,0.0004165183927398175,-0.0031973912846297026,-0.0063037024810910225
1772639260837152000,4.071152099609375,0.001776328426785767,-0.0038546593859791756,-0.0073529877699911594
1772639260847197000,4.081197021484375,0.003010969841852784,-0.0041582598350942135,-0.006911968346685171
1772639260857243100,4.0912431640625,0.00261895265430212,-0.0041731735691428185,-0.005024852231144905
1772639260867287800,4.101287841796875,0.0015960324089974165,-0.003478354774415493,-0.0057590859942138195
1772639260877333000,4.1113330078125,0.001457814360037446,-0.0064387246966362,-0.0046727824956178665
1772639260887378000,4.1213779296875,0.0026525084394961596,-0.0031377363484352827,-0.006918626371771097
1772639260897423000,4.131423095703125,0.0019374496769160032,-0.0033995250705629587,-0.007935420610010624
1772639260907469000,4.141468994140625,0.002263953210785985,-0.003638410707935691,-0.004780640359967947
1772639260917514000,4.151513916015625,0.00013555490295402706,-0.002740126335993409,-0.007028880994766951
1772639260927559000,4.161558837890625,0.0027052389923483133,-0.0046360306441783905,-0.0073173013515770435
1772639260937603800,4.171603759765625,0.0006612628931179643,-0.004673315212130547,-0.0064927865751087666
1772639260947649000,4.18164892578125,0.001106809708289802,-0.0048826392740011215,-0.007409180514514446
1772639260957694000,4.19169384765625,0.00261895265430212,-0.0035686357878148556,-0.005840045865625143
1772639260967740200,4.201740234375,0.0017723336350172758,-0.00446984963491559,-0.006062153726816177
1772639260977784800,4.211784912109375,-0.0009816411184147,-0.002377670258283615,-0.005921272095292807
1772639260987830000,4.221830078125,0.0015156050212681293,-0.004384362138807774,-0.007646468002349138
1772639260997875000,4.231875,0.0008921589469537139,-0.0032354744616895914,-0.005775863770395517
1772639261007920000,4.241920166015625,0.0006860303110443056,-0.004847219679504633,-0.005362274590879679
1772639261017966000,4.251966064453125,0.0018895127577707171,-0.004222175572067499,-0.00700837466865778
1772639261028011000,4.262010986328125,0.0029025792609900236,-0.0029638318810611963,-0.00640756543725729
1772639261038056000,4.272055908203125,0.0018788601737469435,-0.003040530951693654,-0.005256014876067638
1772639261048100900,4.282100830078125,0.0009598032338544726,-0.0032290827948600054,-0.0064773401245474815
1772639261058146000,4.29214599609375,0.0025720810517668724,-0.0028096348978579044,-0.007363640237599611
1772639261068191000,4.30219091796875,0.003180080559104681,-0.004679440520703793,-0.007668306119740009
1772639261078237200,4.3122373046875,0.001967543503269553,-0.002159823663532734,-0.006441121455281973
1772639261088281900,4.32228173828125,0.003216299694031477,-0.004479703027755022,-0.0059865196235477924
1772639261098327000,4.3323271484375,0.0022887205705046654,-0.005107676610350609,-0.006386526394635439
1772639261108372000,4.3423720703125,0.002103098202496767,-0.004151335451751947,-0.005305549595504999
1772639261118417200,4.352417236328125,0.002267681760713458,-0.0036274916492402554,-0.005843508057296276
1772639261128462000,4.362462158203125,0.003168362658470869,-0.004664793144911528,-0.007218231912702322
1772639261138508000,4.372508056640625,0.0021222729701548815,-0.003311640815809369,-0.008423046208918095
1772639261148553000,4.382552978515625,0.0013219931861385703,-0.0038429414853453636,-0.006730873137712479
1772639261158598000,4.392597900390625,0.00043888893560506403,-0.003518834710121155,-0.007277354132384062
1772639261168643000,4.40264306640625,0.002977414056658745,-0.00549356872215867,-0.006196909584105015
1772639261178688000,4.41268798828125,0.002541188383474946,-0.0035425368696451187,-0.006548712961375713
1772639261188734000,4.42273388671875,0.0017012272728607059,-0.00490287970751524,-0.006449110805988312
1772639261198779100,4.432779052734375,0.0018583538476377726,-0.00478383619338274,-0.007447530049830675
1772639261208823800,4.44282373046875,0.00152306177187711,-0.0038807583041489124,-0.005793440621346235
1772639261218869000,4.452868896484375,0.001100684516131878,-0.004421912599354982,-0.006311691831797361
1772639261228914000,4.462913818359375,0.0013707289472222328,-0.0026461167726665735,-0.00497984467074275
1772639261238960000,4.472960205078125,0.0010793792316690087,-0.002898318227380514,-0.005653624422848225
1772639261249005000,4.483005126953125,0.0013432984706014395,-0.004111388232558966,-0.0060080913826823235
1772639261259050000,4.493050048828125,0.00037683729897253215,-0.003772367723286152,-0.005428054835647345
1772639261269095000,4.503094970703125,0.0014740596525371075,-0.0034493261482566595,-0.0064922538585960865
1772639261279140000,4.51314013671875,0.0007920240750536323,-0.003299656556919217,-0.006731938570737839
1772639261289185000,4.52318505859375,0.0021920478902757168,-0.0029230855870991945,-0.006672283634543419
1772639261299231000,4.53323095703125,0.0018780612153932452,-0.002597380895167589,-0.006710633169859648
1772639261309276200,4.543276123046875,-0.00005219795639277436,-0.004230697639286518,-0.006966562941670418
1772639261319320800,4.55332080078125,0.0002772350562736392,-0.004263720940798521,-0.008233961649239063
1772639261329366000,4.563365966796875,0.001005343277938664,-0.004062652122229338,-0.006695719435811043
1772639261339411000,4.573410888671875,0.0013938985066488385,-0.003096190979704261,-0.007255516014993191
1772639261349457200,4.58345703125,0.0023515713401138783,-0.004028297495096922,-0.006274673622101545
1772639261359502000,4.593502197265625,0.001731587341055274,-0.00415373221039772,-0.0067878649570047855
1772639261369547000,4.603547119140625,0.0019062906503677368,-0.0041057956404984,-0.005816343706101179
1772639261379592000,4.613592041015625,0.00046152580762282014,-0.005216333549469709,-0.0070672305300831795
1772639261389637000,4.62363720703125,0.002026399364694953,-0.003388339886441827,-0.006834470201283693
1772639261399683000,4.63368310546875,0.0012516856659203768,-0.0027486486360430717,-0.005878928117454052
1772639261409728000,4.64372802734375,0.0011938951211050153,-0.003772101365029812,-0.004792358260601759
1772639261419773200,4.653773193359375,0.002712695859372616,-0.0031009847298264503,-0.005907956510782242
1772639261429817900,4.66381787109375,0.0018817896489053965,-0.0041334922425448895,-0.006905043963342905
1772639261439863000,4.673863037109375,-0.00021784658019896597,-0.0035060516092926264,-0.006908239796757698
1772639261449908000,4.683907958984375,0.0008000136003829539,-0.004353735595941544,-0.005619802512228489
1772639261459954000,4.693953857421875,0.0009653958841226995,-0.00478436890989542,-0.00686030276119709
1772639261469999000,4.7039990234375,-0.0005344964447431266,-0.004098072182387114,-0.007367901504039764
1772639261480043800,4.714043701171875,-0.00043329631444066763,-0.004612861201167107,-0.00600409647449851
1772639261490089000,4.7240888671875,0.0026490462478250265,-0.003739344421774149,-0.007270696107298136
1772639261500134000,4.7341337890625,0.0009384979493916035,-0.003667971817776561,-0.006345513742417097
1772639261510180000,4.74418017578125,-0.0001496696495451033,-0.004298608284443617,-0.006113019771873951
1772639261520225000,4.75422509765625,0.0017041567480191588,-0.0031185615807771683,-0.00737322773784399
1772639261530270200,4.764270263671875,0.002843989757820964,-0.0033537186682224274,-0.007505853194743395
1772639261540315000,4.77431494140625,0.00236328924074769,-0.003677825443446636,-0.00848456472158432
1772639261550360000,4.784360107421875,0.0014674017438665032,-0.0049590724520385265,-0.006779609248042107
1772639261560405000,4.794405029296875,0.0010093380697071552,-0.004059722647070885,-0.005863481666892767
1772639261570451000,4.804450927734375,0.001398159540258348,-0.004524976946413517,-0.006400375161319971
1772639261580496100,4.81449609375,0.0020130835473537445,-0.004215783905237913,-0.006148173473775387
1772639261590540800,4.824540771484375,0.0023134879302233458,-0.0037265613209456205,-0.005945240613073111
1772639261600586000,4.8345859375,0.000919323181733489,-0.003454119898378849,-0.00606428412720561
1772639261610631000,4.844630859375,0.0006708502769470215,-0.0038189729675650597,-0.008382299914956093
1772639261620677000,4.854677001953125,0.001261805766262114,-0.003713245503604412,-0.008492288179695606
1772639261630722000,4.86472216796875,0.00264798104763031,-0.005607019178569317,-0.006090383045375347
1772639261640767000,4.87476708984375,0.0011001517996191978,-0.005600627511739731,-0.005575594026595354
1772639261650812000,4.88481201171875,0.0009957558941096067,-0.0024288028944283724,-0.007390005514025688
1772639261660857000,4.894857177734375,0.0016098808264359832,-0.005569468718022108,-0.005805691238492727
1772639261670903000,4.904903076171875,0.0006029396899975836,-0.0036677054595202208,-0.007018494885414839
1772639261680948000,4.914947998046875,0.0013853764394298196,-0.0038725025951862335,-0.0065561700612306595
1772639261690993200,4.9249931640625,0.0006498112925328314,-0.00336197461001575,-0.006847253534942865
1772639261701037800,4.935037841796875,0.00213585514575243,-0.0033593112602829933,-0.005906624719500542
1772639261711083000,4.9450830078125,0.0018442390719428658,-0.0041609229519963264,-0.007434746716171503
1772639261721128000,4.9551279296875,0.002042910782620311,-0.0029923277907073498,-0.005889314226806164
1772639261731174000,4.965173828125,0.0015989618841558695,-0.004159058444201946,-0.008157262578606606
1772639261741219000,4.975218994140625,0.0019259981345385313,-0.004674912896007299,-0.007449394091963768
1772639261751264000,4.985263916015625,0.0015182681381702423,-0.0036916739773005247,-0.00580862071365118
1772639261761309000,4.995308837890625,0.0011427623685449362,-0.002907639369368553,-0.005449626594781876
1772639261771353900,5.005353759765625,0.0017246630741283298,-0.0034767568577080965,-0.0057553574442863464
1772639261781400000,5.015400146484375,0.0008857673965394497,-0.002192846732214093,-0.007276022341102362
1772639261791445000,5.025445068359375,0.0010484865633770823,-0.0035145736765116453,-0.004856273997575045
1772639261801490200,5.035490234375,0.0013627394801005721,-0.004292216617614031,-0.006667756475508213
1772639261811535000,5.04553515625,0.0013078784104436636,-0.004619252867996693,-0.00571833923459053
1772639261821580000,5.055580078125,0.0008439557277597487,-0.003906324505805969,-0.007247260306030512
1772639261831626000,5.0656259765625,0.0009406284661963582,-0.0036218990571796894,-0.007437143474817276
1772639261841671000,5.0756708984375,0.0019166769925504923,-0.004770520608872175,-0.005970807280391455
1772639261851716000,5.085716064453125,0.002385925967246294,-0.0023664848413318396,-0.006776946131139994
1772639261861761000,5.095760986328125,0.0009603358921594918,-0.005447762086987495,-0.00603419030085206
1772639261871806200,5.10580615234375,0.0015150723047554493,-0.003349990351125598,-0.005910353269428015
1772639261881851000,5.115850830078125,0.0019137475173920393,-0.003754258155822754,-0.005084240809082985
1772639261891897000,5.12589697265625,0.0010897654574364424,-0.0021704763639718294,-0.006849117577075958
1772639261901942000,5.13594189453125,0.0007518103811889887,-0.0032434638123959303,-0.007648332044482231
1772639261911987000,5.145987060546875,0.0007773766992613673,-0.002861832967028022,-0.00504029868170619
1772639261922032000,5.1560322265625,0.0034618431236594915,-0.0036301547661423683,-0.005889580585062504
1772639261932077000,5.1660771484375,0.000571248063351959,-0.003050118451938033,-0.005730057135224342
1772639261942123000,5.176123046875,0.0005091963685117662,-0.005446430761367083,-0.006995591334998608
1772639261952168000,5.18616796875,0.0027869981713593006,-0.002639192622154951,-0.006404635962098837
1772639261962213000,5.196213134765625,0.0005637911963276565,-0.003914846573024988,-0.007311975117772818
1772639261972258000,5.206258056640625,0.002883404493331909,-0.003469299990683794,-0.005938316695392132
1772639261982303200,5.21630322265625,0.00010652644414221868,-0.004056526813656092,-0.004703408572822809
1772639261992349200,5.22634912109375,-0.0008764463127590716,-0.0037180392537266016,-0.005689577199518681
1772639262002393900,5.236393798828125,0.0021398498211055994,-0.004051733296364546,-0.009127452038228512
1772639262012439000,5.24643896484375,0.0006506102508865297,-0.004336957819759846,-0.006770021747797728
1772639262022484000,5.25648388671875,0.00239231763407588,-0.00461632339283824,-0.007161772809922695
1772639262032529200,5.266529052734375,0.0010753844399005175,-0.003183010034263134,-0.006970824208110571
1772639262042575000,5.2765751953125,0.0032354744616895914,-0.0035566515289247036,-0.006980943959206343
1772639262052620000,5.2866201171875,0.0020359866321086884,-0.004011519718915224,-0.00570049649104476
1772639262062665000,5.2966650390625,0.00242107966914773,-0.0030722226947546005,-0.006207029335200787
1772639262072710100,5.306710205078125,0.0013683321885764599,-0.00452817277982831,-0.00472498033195734
1772639262082755000,5.316755126953125,0.0009837717516347766,-0.004003796260803938,-0.006518353242427111
1772639262092800300,5.32680029296875,0.0009004147723317146,-0.004282895475625992,-0.00649731419980526
1772639262102846200,5.33684619140625,0.0023489079903811216,-0.002299905987456441,-0.007506119552999735
1772639262112891000,5.346890869140625,0.000770452490542084,-0.003641073824837804,-0.006913832388818264
1772639262122936000,5.35693603515625,0.00148151651956141,-0.004829110112041235,-0.006851247977465391
1772639262132981000,5.36698095703125,0.0023158849216997623,-0.00392896169796586,-0.00746271014213562
1772639262143026200,5.377026123046875,0.0001840244367485866,-0.004350806120783091,-0.0073194317519664764
1772639262153072000,5.387072021484375,0.001597896683961153,-0.0031071100383996964,-0.005465605296194553
1772639262163117000,5.397116943359375,0.003357979701831937,-0.0032237565610557795,-0.005430984310805798
1772639262173162000,5.407161865234375,0.0028636970091611147,-0.003400856629014015,-0.004722317215055227
1772639262183207000,5.41720703125,0.000957939017098397,-0.004747883416712284,-0.008260592818260193
1772639262193252000,5.427252197265625,0.0020652813836932182,-0.003979029133915901,-0.007931958884000778
1772639262203298000,5.437298095703125,0.0013728595804423094,-0.0028160265646874905,-0.0057348511181771755
1772639262213343200,5.44734326171875,0.0034056503791362047,-0.002275138394907117,-0.006613427773118019
1772639262223388000,5.457387939453125,0.0021813951898366213,-0.004821120295673609,-0.00618119677528739
1772639262233433000,5.46743310546875,0.0032804817892611027,-0.004436293616890907,-0.0059537626802921295
1772639262243478000,5.47747802734375,0.0013395700370892882,-0.00373135507106781,-0.006432066671550274
1772639262253524000,5.48752392578125,0.0017379788914695382,-0.003982757218182087,-0.00592686515301466
1772639262263569200,5.497569091796875,0.0029888655990362167,-0.0028458540327847004,-0.006850981619209051
1772639262273613800,5.50761376953125,0.0027028422337025404,-0.00484402384608984,-0.007870440371334553
1772639262283659000,5.517658935546875,0.0016564861871302128,-0.004761465825140476,-0.0062581622041761875
1772639262293704000,5.527703857421875,0.00276116537861526,-0.0036511938087642193,-0.006397977937012911
1772639262303749000,5.5377490234375,0.0007416903390549123,-0.0038932752795517445,-0.005822469014674425
1772639262313795000,5.547795166015625,0.002576342085376382,-0.003403253620490432,-0.008278968743979931
1772639262323840300,5.55784033203125,0.003611512714996934,-0.0037031255196779966,-0.006091448478400707
1772639262333885000,5.567885009765625,0.0003510046226438135,-0.00427357479929924,-0.006927947048097849
1772639262343930000,5.57793017578125,0.002445048186928034,-0.00421285443007946,-0.007127151824533939
1772639262353975000,5.58797509765625,0.002478337613865733,-0.0035806200467050076,-0.007136206608265638
1772639262364021000,5.59802099609375,0.002237055217847228,-0.004505802411586046,-0.007492537144571543
1772639262374066200,5.608066162109375,0.00230789533816278,-0.003716174978762865,-0.005517004523426294
1772639262384110800,5.61811083984375,0.0025888588279485703,-0.004191815387457609,-0.006939664948731661
1772639262394156000,5.628156005859375,0.0023574302904307842,-0.004226969089359045,-0.005633118096739054
1772639262404201000,5.638200927734375,0.0015574166318401694,-0.0027574370615184307,-0.006727943662554026
1772639262414247000,5.648246826171875,0.001386441639624536,-0.00452684098854661,-0.005318066570907831
1772639262424292000,5.6582919921875,0.001517735538072884,-0.0035332157276570797,-0.005793174263089895
1772639262434337000,5.6683369140625,0.00017683389887679368,-0.004780107643455267,-0.006906908005475998
1772639262444382000,5.6783818359375,0.0010673949727788568,-0.003653324441984296,-0.007881891913712025
1772639262454427000,5.688427001953125,0.0006679208017885685,-0.0041555967181921005,-0.007585481740534306
1772639262464473000,5.69847314453125,0.00219524372369051,-0.0026045716367661953,-0.00600462919101119
1772639262474518000,5.70851806640625,0.001287904684431851,-0.004519117996096611,-0.006561496295034885
1772639262484563200,5.718563232421875,0.0019944412633776665,-0.004219778813421726,-0.006813963875174522
1772639262494608000,5.72860791015625,0.002150502521544695,-0.003486077766865492,-0.006647782865911722
1772639262504653000,5.738653076171875,0.0019417107105255127,-0.0034940673504024744,-0.006922354456037283
1772639262514699000,5.748698974609375,0.0004524710529949516,-0.003379018744453788,-0.006443518213927746
1772639262524744000,5.758743896484375,0.0013459615875035524,-0.002749713836237788,-0.006586529780179262
1772639262534789000,5.7687890625,0.0015518239233642817,-0.0038077877834439278,-0.008334895595908165
1772639262544834000,5.778833984375,0.0010777813149616122,-0.004446413833647966,-0.005380117800086737
1772639262554879000,5.78887890625,0.0014466290595009923,-0.004460262134671211,-0.008021174930036068
1772639262564925000,5.798925048828125,0.0038839541375637054,-0.002418416552245617,-0.007610781583935022
1772639262574970000,5.80897021484375,0.0014679343439638615,-0.0041159153915941715,-0.005723665934056044
1772639262585015000,5.81901513671875,0.0016761935548856854,-0.005050684791058302,-0.007646468002349138
1772639262595060200,5.829060302734375,0.0025124261155724525,-0.0041097900830209255,-0.006368150934576988
1772639262605105000,5.83910498046875,0.0034354778472334146,-0.004234692547470331,-0.007537811063230038
1772639262615150000,5.849150146484375,0.003061569994315505,-0.0028764803428202868,-0.005216067191213369
1772639262625196000,5.859196044921875,0.0013137373607605696,-0.00341603672131896,-0.007269897032529116
1772639262635241000,5.869240966796875,0.00044528054422698915,-0.0026932547334581614,-0.005681587848812342
1772639262645286100,5.8792861328125,0.0016128103015944362,-0.0038120488170534372,-0.00663473317399621
1772639262655331000,5.8893310546875,0.0004828310920856893,-0.004193413536995649,-0.007169495802372694
1772639262665376000,5.8993759765625,0.00021252025908324867,-0.004070375580340624,-0.007911186665296555
1772639262675422000,5.909421875,0.0030330740846693516,-0.0027055053506046534,-0.00768907880410552
1772639262685467000,5.919466796875,0.0008333030855283141,-0.004120708908885717,-0.007286142557859421
1772639262695512000,5.929511962890625,0.002572879893705249,-0.003165433183312416,-0.005644835997372866
1772639262705557000,5.939556884765625,0.0008751147543080151,-0.0036450685001909733,-0.006305300164967775
1772639262715602000,5.949601806640625,0.002034122357144952,-0.0029984530992805958,-0.00726350536569953
1772639262725648000,5.95964794921875,0.0018719359068199992,-0.001398159540258348,-0.0065108961425721645
1772639262735693000,5.969693115234375,0.0012474246323108673,-0.004295146092772484,-0.006544984877109528
1772639262745738000,5.979738037109375,0.0015883093001320958,-0.003296460723504424,-0.0068001155741512775
1772639262755783200,5.989783203125,0.001728657865896821,-0.004477039910852909,-0.005371595732867718
1772639262765828000,5.999828125,0.0019377160351723433,-0.004163319710642099,-0.006892260629683733
1772639262775874000,6.0098740234375,0.0015134743880480528,-0.004436293616890907,-0.006502640433609486
1772639262785919000,6.0199189453125,0.0029672940727323294,-0.0043718451634049416,-0.006579872220754623
1772639262795964000,6.0299638671875,0.002986468840390444,-0.003930026665329933,-0.00669278996065259
1772639262806009000,6.040009033203125,0.0030631679110229015,-0.0037862160243093967,-0.005182245280593634
1772639262816054500,6.050054443359375,0.0024913870729506016,-0.00381417921744287,-0.006253900937736034
1772639262826099500,6.060099365234375,0.0009235842735506594,-0.004550809506326914,-0.005600893869996071
1772639262836145400,6.0701455078125,0.002828276949003339,-0.004677842371165752,-0.006403570994734764
1772639262846190300,6.0801904296875,0.001330249011516571,-0.0031135017052292824,-0.008385228924453259
1772639262856235500,6.090235595703125,0.0011369034182280302,-0.003915379289537668,-0.006713562645018101
1772639262866280400,6.100280517578125,0.0006543386843986809,-0.003995540551841259,-0.006460029631853104
1772639262876326700,6.11032666015625,0.001106809708289802,-0.0065439194440841675,-0.006902647204697132
1772639262886371300,6.120371337890625,0.002112152986228466,-0.0038666436448693275,-0.005921006202697754
1772639262896416500,6.13041650390625,0.0015227955300360918,-0.002865294925868511,-0.004691690672188997
1772639262906461400,6.14046142578125,0.0016892430139705539,-0.004186755511909723,-0.006981743033975363
1772639262916506600,6.150506591796875,0.001725728390738368,-0.004510063212364912,-0.00615270109847188
1772639262926551600,6.160551513671875,0.0018072210950776935,-0.004520183429121971,-0.007050719112157822
1772639262936597500,6.170597412109375,0.00038056570338085294,-0.0038242992013692856,-0.006430734880268574
1772639262946642400,6.180642333984375,0.0018634138396009803,-0.0031380027066916227,-0.007273891940712929
1772639262956687400,6.190687255859375,0.0015313175972551107,-0.002880475018173456,-0.005100485868752003
1772639262966732500,6.200732666015625,0.0012258529895916581,-0.0029529130551964045,-0.0060147494077682495
1772639262976777500,6.210777587890625,0.0016905746888369322,-0.00384453940205276,-0.00669252360239625
1772639262986823700,6.22082373046875,0.0023513049818575382,-0.0036735644098371267,-0.007475493010133505
1772639262996868400,6.230868408203125,0.0006884271278977394,-0.003973170183598995,-0.006845655385404825
1772639263006913500,6.24091357421875,0.0014290522085502744,-0.0035481294617056847,-0.006113286130130291
1772639263016958500,6.25095849609375,0.0014857775531709194,-0.003349723992869258,-0.0057678744196891785
1772639263027003600,6.261003662109375,0.0012815131340175867,-0.0046299053356051445,-0.005892776418477297
1772639263037049600,6.271049560546875,0.0007906925166025758,-0.003897536313161254,-0.00660570478066802
1772639263047094500,6.281094482421875,0.0022034994326531887,-0.004700479097664356,-0.006935936864465475
1772639263057139500,6.291139404296875,0.0009723200928419828,-0.0043830303475260735,-0.00567040266469121
1772639263067184400,6.301184326171875,0.0018844527658075094,-0.003299922915175557,-0.006855242885649204
1772639263077229600,6.3112294921875,0.0022426480427384377,-0.003946804907172918,-0.006256830412894487
1772639263087275500,6.321275634765625,0.001085504423826933,-0.004536694847047329,-0.006414756178855896
1772639263097320400,6.331320556640625,0.0027289411518722773,-0.002871420234441757,-0.004907673224806786
1772639263107365400,6.341365478515625,0.002123870886862278,-0.005112203769385815,-0.004757470916956663
1772639263117410300,6.351410400390625,0.0017307883827015758,-0.0035143073182553053,-0.006857106927782297
1772639263127455500,6.36145556640625,-0.000005326322025211994,-0.004078631289303303,-0.005339371506124735
1772639263137501400,6.37150146484375,0.0020652813836932182,-0.0038301581516861916,-0.006610764656215906
1772639263147546600,6.381546630859375,0.0013012205017730594,-0.0029236183036118746,-0.007378820329904556
1772639263157591600,6.391591552734375,0.0032748891972005367,-0.004050135146826506,-0.007103449665009975
1772639263167636500,6.401636474609375,0.0014237258583307266,-0.004038683604449034,-0.005868275184184313
1772639263177681400,6.411681396484375,0.001103880233131349,-0.002424275502562523,-0.00723580876365304
1772639263187727400,6.421727294921875,0.000734766130335629,-0.003403786104172468,-0.005635248962789774
1772639263197772500,6.4317724609375,0.0021638183388859034,-0.0021555626299232244,-0.006776413414627314
1772639263207817500,6.4418173828125,0.0006466155173256993,-0.003946538548916578,-0.007406251039355993
1772639263217862700,6.451862548828125,0.0018453042721375823,-0.004448810592293739,-0.006066680885851383
1772639263227907300,6.4619072265625,0.002772616920992732,-0.003481284249573946,-0.007699731271713972
1772639263237953500,6.47195361328125,0.0023752732668071985,-0.005243764258921146,-0.007151119876652956
1772639263247998500,6.48199853515625,0.0010892328573390841,-0.004756139125674963,-0.007186274044215679
1772639263258043600,6.492043701171875,0.002695119008421898,-0.004445881117135286,-0.00780652416869998
1772639263268088600,6.502088623046875,0.0017355820164084435,-0.003005377249792218,-0.0065167550928890705
1772639263278133500,6.512133544921875,0.000595216522924602,-0.003896737238392234,-0.006052033510059118
1772639263288178400,6.522178466796875,0.0009145294898189604,-0.003692739177495241,-0.004862665664404631
1772639263298224400,6.532224365234375,0.0006527407676912844,-0.003793406533077359,-0.005832855589687824
1772639263308269600,6.54226953125,0.0027087011840194464,-0.0036815537605434656,-0.006393450777977705
1772639263318314500,6.552314453125,0.0015731292078271508,-0.0032447953708469868,-0.0075758942402899265
1772639263328359700,6.562359619140625,0.00012916330888401717,-0.00472577940672636,-0.005059473216533661
1772639263338404400,6.572404296875,0.00008468852320220321,-0.004874916281551123,-0.007388407830148935
1772639263348450300,6.5824501953125,0.002436259761452675,-0.004130030050873756,-0.005981992464512587
1772639263358495500,6.59249560546875,0.0014122743159532547,-0.0029830066487193108,-0.006851780693978071
1772639263368540400,6.60254052734375,0.0020690099336206913,-0.004314321093261242,-0.007133277133107185
1772639263378585600,6.612585693359375,0.0004996090428903699,-0.005016330163925886,-0.006736465729773045
1772639263388630300,6.62263037109375,0.002127066720277071,-0.0030386666767299175,-0.006631803698837757
1772639263398676500,6.632676513671875,0.002027997048571706,-0.004077299498021603,-0.007960987277328968
1772639263408721400,6.642721435546875,0.002385659608989954,-0.003867708845064044,-0.006946589332073927
1772639263418766600,6.6527666015625,0.0010282464791089296,-0.0031366711482405663,-0.00532419141381979
1772639263428811500,6.6628115234375,0.0014152037911117077,-0.003715642262250185,-0.005909554194658995
1772639263438856700,6.672856689453125,0.0028929917607456446,-0.003706853836774826,-0.006331665441393852
1772639263448902700,6.682902587890625,0.0026458504144102335,-0.005078115500509739,-0.006256830412894487
1772639263458947300,6.692947265625,0.0020690099336206913,-0.0035566515289247036,-0.006623281631618738
1772639263468992500,6.702992431640625,0.002924417145550251,-0.004461327567696571,-0.005593703594058752
1772639263479037400,6.713037353515625,0.0006287723081186414,-0.003634415799751878,-0.005918342620134354
1772639263489082600,6.72308251953125,0.0011824434623122215,-0.0028631645254790783,-0.005468268413096666
1772639263499128600,6.733128662109375,0.0013398362789303064,-0.004610730800777674,-0.007859254255890846
1772639263509173500,6.743173583984375,0.0019371833186596632,-0.0035151063930243254,-0.006646983791142702
1772639263519218400,6.753218505859375,0.0006013417732901871,-0.0031758195254951715,-0.006338589824736118
1772639263529263600,6.763263671875,0.0032471923623234034,-0.0028943235520273447,-0.005831790156662464
1772639263539308500,6.77330859375,0.001190433045849204,-0.002650377806276083,-0.005254416726529598
1772639263549354500,6.7833544921875,0.0035156388767063618,-0.0030599720776081085,-0.006126868538558483
1772639263559399700,6.793399658203125,0.0004013383586425334,-0.004639759194105864,-0.007269097957760096
1772639263569444400,6.8034443359375,0.001567802974022925,-0.003849865635856986,-0.005561213009059429
1772639263579489500,6.813489501953125,0.0007166566210798919,-0.00421418622136116,-0.007199056912213564
1772639263589534500,6.823534423828125,0.0026559706311672926,-0.003867442486807704,-0.005800098646432161
1772639263599580400,6.833580322265625,0.0009941579774022102,-0.0035031221341341734,-0.005513275973498821
1772639263609625600,6.84362548828125,0.00138084904756397,-0.003346261801198125,-0.006030461750924587
1772639263619670300,6.853670166015625,0.002201901515945792,-0.0029784792568534613,-0.00570023013278842
1772639263629715500,6.863715576171875,0.0032029838766902685,-0.0039116512052714825,-0.007186274044215679
1772639263639760400,6.873760498046875,0.002698048483580351,-0.0033390712924301624,-0.0063031697645783424
1772639263649806600,6.883806640625,0.0010572749888524413,-0.0046568033285439014,-0.005658152047544718
1772639263659851500,6.8938515625,0.002665291540324688,-0.003934820648282766,-0.005873868241906166
1772639263669896700,6.903896728515625,0.001960885478183627,-0.003909786697477102,-0.007510380353778601
1772639263679941400,6.91394140625,0.0032613070216029882,-0.004649613052606583,-0.007034739945083857
1772639263689986600,6.923986572265625,0.0016160061350092292,-0.003406981937587261,-0.008213721215724945
1772639263700032500,6.934032470703125,0.002016279147937894,-0.0030131004750728607,-0.007050186395645142
1772639263710077400,6.944077392578125,0.00043569316039793193,-0.0032178976107388735,-0.006336192600429058
1772639263720122600,6.95412255859375,0.0012218583142384887,-0.004538558889180422,-0.0065135592594742775
1772639263730167300,6.964167236328125,0.0013571468880400062,-0.004490888677537441,-0.007899735122919083
1772639263740212500,6.97421240234375,0.0009265137487091124,-0.0038394792936742306,-0.00586747657507658
1772639263750258400,6.984258544921875,0.002560629276558757,-0.0029971215408295393,-0.0067961206659674644
1772639263760303600,6.9943037109375,0.00044900894863530993,-0.0036754286848008633,-0.007430219557136297
1772639263770348500,7.0043486328125,0.002826679265126586,-0.003088467987254262,-0.006835269276052713
1772639263780393700,7.014393798828125,0.0024868599139153957,-0.0030426615849137306,-0.0064895907416939735
1772639263790438400,7.0244384765625,0.003239735495299101,-0.0041617220267653465,-0.005087436642497778
1772639263800484400,7.034484375,0.0022796657867729664,-0.002975017298012972,-0.004005394410341978
1772639263810529500,7.044529541015625,0.0007099987124092877,0.0023406522814184427,-0.003388606244698167
1772639263820574200,7.05457421875,0.0003802994033321738,-0.0009824400767683983,-0.007158044259995222
1772639263830619400,7.064619384765625,0.0012452941155061126,-0.0005747101386077702,-0.005253884010016918
1772639263840664300,7.074664306640625,0.0013438310706987977,-0.006125004030764103,-0.007790278643369675
1772639263850709500,7.08470947265625,0.0015313175972551107,-0.00703766942024231,-0.008958075195550919
1772639263860755500,7.09475537109375,0.002531334524974227,-0.0073593794368207455,-0.006854976527392864
1772639263870800400,7.10480029296875,0.0011108045000582933,-0.006359628401696682,-0.00782596506178379
1772639263880845300,7.11484521484375,0.00039015308720991015,-0.003044259501621127,-0.005653890781104565
1772639263890890200,7.12489013671875,0.002695651724934578,-0.00686136819422245,-0.006856308318674564
