time,seconds_elapsed,z,y,x
1772639256825364700,0.05936474609375,-0.0002357492921873927,-0.0019294428639113903,-0.0027011968195438385
1772639256835409700,0.06940966796875,0.00058130850084126,0.0013363913167268038,-0.00044922810047864914
1772639256845455600,0.07945556640625,-0.0002126393374055624,-0.0008312193676829338,-0.0025751101784408092
1772639256855500800,0.089500732421875,-0.00027762039098888636,0.00024895905517041683,0.0004731435328722
1772639256865545700,0.099545654296875,-0.0005962299183011055,0.00004060612991452217,-0.001981365494430065
1772639256875591000,0.1095908203125,0.00013667193707078695,0.0007008037064224482,0.001425882801413536
1772639256885635800,0.1196357421875,-0.00033087958581745625,0.0010692221112549305,0.0011241785250604153
1772639256895680800,0.1296806640625,0.00033863901626318693,0.00043086218647658825,0.00019766483455896378
1772639256905725700,0.1397255859375,-0.0008474070345982909,-0.0005442625842988491,-0.00014606770128011703
1772639256915771600,0.149771728515625,-0.001502012019045651,-0.0011629150249063969,0.0006888336502015591
1772639256925816800,0.15981689453125,0.0001223006984218955,-0.000981773715466261,-0.0003244052641093731
1772639256935861800,0.16986181640625,-0.0009157995227724314,0.00048749218694865704,-0.0005265390500426292
1772639256945906700,0.17990673828125,-0.0006300671957433224,-0.0030092622619122267,-0.00033403700217604637
1772639256955951600,0.18995166015625,0.00018432748038321733,-0.00030135991983115673,0.0015187240205705166
1772639256965996800,0.199996826171875,-0.0005322889192029834,0.0006188016850501299,-0.0002212347462773323
1772639256976041700,0.210041748046875,0.0008823822718113661,0.0005285206716507673,0.0013324529863893986
1772639256986087700,0.220087646484375,0.001011801534332335,0.00042198668234050274,0.00018415367230772972
1772639256996132900,0.2301328125,-0.00003535347059369087,-0.0015578074380755424,0.0003058603033423424
1772639257006177500,0.240177490234375,0.0003816417884081602,0.00008983607403934002,0.0010347780771553516
1772639257016222700,0.25022265625,-0.0007483374211005867,0.0002522887662053108,0.00009414972737431526
1772639257026267600,0.260267578125,-0.001330966828390956,0.0008936489466577768,0.0005118260160088539
1772639257036312800,0.270312744140625,0.00012951076496392488,0.0006044297479093075,-0.000585662666708231
1772639257046357500,0.280357421875,0.0002916621742770076,0.0003668363206088543,-0.00003236113116145134
1772639257056403700,0.29040380859375,0.0017465470591560006,-0.0011048265732824802,-0.000710668507963419
1772639257066448600,0.30044873046875,-0.0007133651524782181,0.0002624965272843838,-0.0008076694793999195
1772639257076493800,0.310493896484375,0.0004640183178707957,0.0006654327735304832,-0.0005642562173306942
1772639257086538800,0.320538818359375,-0.000044493237510323524,-0.000004472211003303528,-0.000449873972684145
1772639257096584000,0.330583984375,0.0012167798122391105,0.000022958265617489815,-0.0018392452038824558
1772639257106628600,0.340628662109375,0.0016121434746310115,-0.0006163176149129868,0.001652552280575037
1772639257116673800,0.350673828125,-0.0012712611351162195,-0.0010086013935506344,-0.0005413596518337727
1772639257126719700,0.3607197265625,-0.0011221790919080377,-0.0011556623503565788,0.00028955936431884766
1772639257136764700,0.3707646484375,-0.0018332430627197027,0.0005580817814916372,0.0018429812043905258
1772639257146809900,0.380809814453125,-0.00012081547174602747,-0.0007018446922302246,-0.0002560182474553585
1772639257156854500,0.3908544921875,-0.00015650189016014338,0.00022333767265081406,0.00035091582685709
1772639257166899700,0.400899658203125,0.0001179293030872941,0.0011755430605262518,-0.0009270543232560158
1772639257176944600,0.410944580078125,-0.0009249645518139005,-0.0009922701865434647,0.00009986059740185738
1772639257186989800,0.42098974609375,0.001130659133195877,-0.00004345620982348919,0.0007138936780393124
1772639257197035800,0.431035888671875,-0.00016656657680869102,-0.0011627827771008015,0.00009657256305217743
1772639257207081000,0.4410810546875,-0.000812907237559557,0.0012162288185209036,0.0016464688815176487
1772639257217125600,0.451125732421875,-0.00032395089510828257,-0.0007393304258584976,0.0017519299872219563
1772639257227170800,0.4611708984375,-0.0009100660681724548,-0.001209599431604147,0.000981795135885477
1772639257237215700,0.4712158203125,0.000497148372232914,0.00046526268124580383,0.0017293444834649563
1772639257247261000,0.481260986328125,0.00016852933913469315,-0.00012354692444205284,0.0007462096400558949
1772639257257305600,0.4913056640625,0.0006164731457829475,-0.0015667141415178776,0.0009249080903828144
1772639257267351600,0.5013515625,0.0000639928039163351,-0.0006898758001625538,0.0006922292523086071
1772639257277396700,0.511396728515625,-0.0004207025049254298,-0.0012587266974151134,0.0013654762879014015
1772639257287441700,0.521441650390625,-0.0016260567354038358,-0.00027016550302505493,-0.0005215448327362537
1772639257297486800,0.53148681640625,0.0007862345082685351,0.0007301177829504013,-0.002206526231020689
1772639257307531800,0.54153173828125,-0.0014633375685662031,-0.00015644868835806847,-0.0000741337426006794
1772639257317576700,0.55157666015625,-0.002194907981902361,-0.00020039081573486328,-0.0008768104016780853
1772639257327621600,0.56162158203125,-0.00017133611254394054,-0.0006903135217726231,0.00086547015234828
1772639257337667600,0.57166748046875,-0.0006472429959103465,0.0004705584142357111,0.0006055454723536968
1772639257347712800,0.581712646484375,0.00044678349513560534,-0.00027592573314905167,0.0011581513099372387
1772639257357757700,0.5917578125,0.0007937935879454017,0.0001589686144143343,0.0002856999635696411
1772639257367802600,0.601802734375,-0.00006670050788670778,-0.00014437339268624783,-0.0007080459035933018
1772639257377847600,0.61184765625,-0.000001985696144402027,-0.00004370580427348614,-0.00004252186045050621
1772639257387892700,0.621892822265625,0.001599982613697648,0.0004794485867023468,0.0005512307398021221
1772639257397938700,0.631938720703125,0.0003016917034983635,-0.000001251930370926857,0.00018717627972364426
1772639257407983900,0.64198388671875,0.00017543474677950144,0.0009148665703833103,-0.00016474630683660507
1772639257418028800,0.65202880859375,-0.00046399026177823544,-0.0009296385105699301,0.0014627110213041306
1772639257428073700,0.66207373046875,0.000635290052741766,-0.0012898510321974754,0.0010797344148159027
1772639257438118700,0.67211865234375,0.0008856272324919701,-0.0007095481269061565,-0.0009647742845118046
1772639257448163800,0.682163818359375,-0.00042948219925165176,-0.0007459141779690981,0.00039899395778775215
1772639257458208800,0.692208740234375,-0.000754654232878238,-0.00039517576806247234,0.000037336722016334534
1772639257468254700,0.702254638671875,0.0007384581258520484,0.0013341803569346666,0.0006651999428868294
1772639257478300000,0.7122998046875,0.00019304268062114716,0.0011970275081694126,0.00010487111285328865
1772639257488344600,0.722344482421875,0.0012435091193765402,0.00022394000552594662,0.002216372173279524
1772639257498389800,0.7323896484375,0.00018836476374417543,0.0002713443245738745,-0.00014718342572450638
1772639257508434700,0.7424345703125,-0.00008126604370772839,-0.00041209394112229347,-0.0007281121797859669
1772639257518480000,0.75247998046875,0.0005190105875954032,0.0004805978387594223,-0.0006082695908844471
1772639257528524500,0.762524658203125,-0.0003043040633201599,0.002343463711440563,0.0009829336777329445
1772639257538570800,0.77257080078125,0.0014243538025766611,0.0005018878728151321,0.000040974002331495285
1772639257548615700,0.78261572265625,-0.0005105250747874379,-0.00015615858137607574,0.0007890299893915653
1772639257558660900,0.792660888671875,0.0005084003787487745,-0.00037906505167484283,0.00018875347450375557
1772639257568705800,0.802705810546875,-0.0008218348957598209,0.0004941348452121019,-0.0005144882015883923
1772639257578751000,0.8127509765625,0.0022679646499454975,-0.000703754834830761,0.0011470578610897064
1772639257588795600,0.822795654296875,0.0001104904804378748,0.00038614985533058643,-0.00017350586131215096
1772639257598841600,0.832841552734375,0.0007174249039962888,0.0005406131967902184,-0.0008776453323662281
1772639257608886800,0.84288671875,-0.00041905161924660206,0.00006825895980000496,-0.0003261249512434006
1772639257618931700,0.852931640625,0.0001516637858003378,0.0008914419449865818,-0.0010249381884932518
1772639257628977000,0.862976806640625,0.00046987493988126516,-0.00019057095050811768,-0.0003471123054623604
1772639257639021600,0.873021484375,0.0008203467587009072,-0.0016007148660719395,0.0011762157082557678
1772639257649066800,0.883066650390625,-0.00022658647503703833,0.0008046028669923544,-0.0005115712992846966
1772639257659112700,0.89311279296875,-0.0006825196323916316,0.0008930198382586241,-0.000406110193580389
1772639257669157600,0.90315771484375,-0.001385807292535901,0.0009239283390343189,0.001280803233385086
1772639257679202800,0.913202880859375,0.0004517737543210387,-0.0005914103239774704,-0.000561038963496685
1772639257689247700,0.923247802734375,0.0007966773118823767,-0.0006062998436391354,-0.00035923998802900314
1772639257699292700,0.933292724609375,-0.0006784476572647691,0.0013308834750205278,-0.002182173542678356
1772639257709337600,0.943337646484375,0.00011538644321262836,-0.0009136330336332321,-0.0007412615232169628
1772639257719382800,0.9533828125,0.000607538502663374,-0.00003399094566702843,0.0009373286738991737
1772639257729428700,0.9634287109375,0.0002619875594973564,-0.0009213890880346298,-0.0007719108834862709
1772639257739474000,0.973473876953125,0.001030575716868043,-0.000011653639376163483,-0.0002912105992436409
1772639257749518600,0.9835185546875,0.001022003241814673,-0.0006857509724795818,-0.0006589805707335472
1772639257759563800,0.993563720703125,-0.00014978752005845308,0.00047805020585656166,-0.0008898768573999405
1772639257769608700,1.003608642578125,0.00015131966210901737,0.0006188459228724241,0.0001527685672044754
1772639257779654000,1.01365380859375,-0.0005376400658860803,0.0005613216198980808,-0.0005255388095974922
1772639257789698800,1.02369873046875,-0.00027836894150823355,0.00015375204384326935,0.000260685570538044
1772639257799744800,1.033744873046875,-0.000017911777831614017,-0.00003746291622519493,0.00036002136766910553
1772639257809790200,1.043790283203125,-0.00045917078386992216,-0.0006956742145121098,-0.001116674393415451
1772639257819835100,1.053835205078125,-0.0007156332721933722,0.0008292519487440586,-0.000848760362714529
1772639257829880000,1.063880126953125,0.0005639787996187806,-0.000021962448954582214,-0.0005456930957734585
1772639257839925000,1.073925048828125,-0.00035294739063829184,-0.0003346172161400318,-0.0007158690132200718
1772639257849970200,1.08397021484375,0.0011092466302216053,-0.0010382863692939281,-0.0012184097431600094
1772639257860016000,1.09401611328125,-0.0001783918123692274,0.0006384397856891155,-0.0003773835487663746
1772639257870061000,1.10406103515625,-0.0003479842562228441,-0.0008265804499387741,0.0011591361835598946
1772639257880106200,1.114106201171875,-0.0007599753444083035,-0.000296078622341156,-0.001325859222561121
1772639257890151000,1.12415087890625,0.0002194029511883855,-0.00013734353706240654,0.0004987521097064018
1772639257900196000,1.134196044921875,0.0008021027315407991,-0.0010175183415412903,0.0018319305963814259
1772639257910241000,1.144240966796875,0.0008968852926045656,0.0005204337649047375,0.000757352914661169
1772639257920286200,1.1542861328125,0.0013403017073869705,-0.0011656135320663452,-0.00003120908513665199
1772639257930332200,1.164332275390625,0.0002161951269954443,-0.00022724224254488945,-0.00019711721688508987
1772639257940377000,1.174377197265625,-0.0001760885352268815,0.0001679707784205675,0.0013645603321492672
1772639257950422000,1.184422119140625,-0.0002537932014092803,-0.00013911304995417595,0.0003090095706284046
1772639257960467200,1.19446728515625,-0.00013048877008259296,0.0012214959133416414,0.0013926494866609573
1772639257970512100,1.20451220703125,-0.0011175714898854494,-0.00008725794032216072,0.0008025164715945721
1772639257980557300,1.214557373046875,-0.0005623024189844728,0.00008691311813890934,0.00023659458383917809
1772639257990603300,1.224603271484375,-0.00040447828359901905,-0.00008109305053949356,0.0008568991906940937
1772639258000648000,1.23464794921875,-0.0005155320977792144,-0.000507731456309557,0.00034317513927817345
1772639258010693000,1.244693115234375,-0.00023570028133690357,-0.0000811857171356678,0.0008255932480096817
1772639258020738000,1.254738037109375,0.0003027908969670534,-0.00045216409489512444,0.0001789778470993042
1772639258030783200,1.264783203125,0.0001973346807062626,0.0008211755193769932,-0.0009749685414135456
1772639258040828200,1.274828125,0.0015230563003569841,0.0011045357678085566,0.0005193310789763927
1772639258050873000,1.284873046875,-0.00034183915704488754,0.0006795583758503199,-0.0017723655328154564
1772639258060919000,1.2949189453125,-0.0012457161210477352,-0.0014866567216813564,0.0014228951185941696
1772639258070964200,1.304964111328125,0.001334641594439745,0.0013479413464665413,0.00020291516557335854
1772639258081009200,1.315009033203125,0.00023608747869729996,0.000035801902413368225,-0.00014010025188326836
1772639258091054000,1.32505419921875,0.0005500920815393329,0.000842066016048193,0.00009817350655794144
1772639258101099000,1.33509912109375,-0.0005916050868108869,0.0005326066166162491,-0.0006072977557778358
1772639258111144200,1.345144287109375,0.00038651726208627224,-0.0011382391676306725,0.00024110032245516777
1772639258121190100,1.355190185546875,0.0008613590616732836,0.0007182501722127199,-0.0005019218660891056
1772639258131235000,1.365235107421875,-0.000014444696716964245,0.000014739111065864563,0.0016731061041355133
1772639258141280300,1.3752802734375,-0.0010424249339848757,-0.0002822033129632473,-0.0005759331397712231
1772639258151325200,1.3853251953125,-0.0006097469013184309,0.0003065557684749365,0.0016950746066868305
1772639258161370000,1.3953701171875,-0.0009716705535538495,-0.0003240806981921196,-0.0027393545024096966
1772639258171415000,1.4054150390625,-0.001872261636890471,0.0011945010628551245,0.00042177876457571983
1772639258181461000,1.4154609375,0.0008963606087490916,0.0007297794800251722,0.000030027702450752258
1772639258191506200,1.425506103515625,-0.001147961593233049,-0.0001399102620780468,0.001258856151252985
1772639258201551000,1.435551025390625,0.00014127464964985847,0.001103519694879651,0.0012636496685445309
1772639258211596000,1.445595947265625,-0.00006572646088898182,0.0006071259267628193,0.0004600333049893379
1772639258221641000,1.455640869140625,-0.0016154198674485087,-0.00170476408675313,0.0001196814700961113
1772639258231686100,1.46568603515625,-0.00021194119472056627,-0.0006867838092148304,0.0010178731754422188
1772639258241731000,1.47573095703125,0.0008834169711917639,0.0002868678420782089,0.0007694005034863949
1772639258251777300,1.48577734375,0.00037153775338083506,0.0001899732742458582,-0.0000191396102309227
1772639258261822200,1.495822265625,-0.0009616406750865281,0.0007835919968783855,0.0009406632743775845
1772639258271867100,1.5058671875,-0.0007120987866073847,-0.00011324579827487469,0.0011225957423448563
1772639258281912000,1.515912109375,-0.0015501956222578883,-0.0006200454663485289,0.00042511383071541786
1772639258291957200,1.525957275390625,-0.0009713835315778852,0.00034684455022215843,-0.0010090433061122894
1772639258302002200,1.536002197265625,-0.0012163943611085415,0.0010318097192794085,-0.0005456535145640373
1772639258312048000,1.546048095703125,-0.00031052366830408573,0.0015165202785283327,0.00045643700286746025
1772639258322093000,1.556093017578125,-0.002034121425822377,0.0005503254942595959,-0.0007339958101511002
1772639258332138000,1.566137939453125,-0.000044844578951597214,-0.0008413719478994608,-0.001259759534150362
1772639258342183200,1.57618310546875,0.0008638260187581182,0.001491024624556303,-0.000471730250865221
1772639258352228000,1.58622802734375,0.00046661694068461657,0.0010694635566323996,0.000054288189858198166
1772639258362273300,1.596273193359375,0.0009318712400272489,-0.000057852594181895256,0.00008571380749344826
1772639258372319200,1.6063193359375,-0.000663427053950727,-0.000033089425414800644,-0.001443491317331791
1772639258382364200,1.6163642578125,-0.0011470571625977755,0.00008169282227754593,-0.0010357615537941456
1772639258392409000,1.6264091796875,-0.0003357987152412534,0.00003785802982747555,-0.000532577745616436
1772639258402454000,1.6364541015625,-0.0004497820045799017,-0.0006151492707431316,0.0006972700357437134
1772639258412499200,1.646499267578125,0.0008921024855226278,0.00006248173303902149,0.00045851850882172585
1772639258422544100,1.656544189453125,-0.0013577359495684505,-0.0005500453989952803,-0.0005465587601065636
1772639258432589000,1.666589111328125,-0.0013404510682448745,-0.0011842648964375257,0.0003802469000220299
1772639258442635000,1.676635009765625,-0.0004946311237290502,-0.000053220661357045174,0.00041273748502135277
1772639258452680200,1.68668017578125,-0.0015769541496410966,0.0009971302933990955,-0.0010566343553364277
1772639258462725000,1.69672509765625,-0.0012587064411491156,0.0009217627812176943,-0.00007446063682436943
1772639258472770300,1.706770263671875,-0.0010192298796027899,-0.00017195334658026695,0.0012108278460800648
1772639258482815000,1.71681494140625,-0.00014810985885560513,-0.00033706938847899437,0.0004747300408780575
1772639258492860200,1.726860107421875,-0.0004711783258244395,0.0013774298131465912,0.000753392931073904
1772639258502906000,1.736906005859375,0.00020473194308578968,0.0015478723216801882,-0.0017214827239513397
1772639258512951000,1.746950927734375,-0.0003730017924681306,-0.00040450156666338444,-0.00034655071794986725
1772639258522996200,1.756996337890625,-0.00009017414413392544,0.00009031407535076141,0.0010593319311738014
1772639258533041000,1.767041015625,-0.00033081648871302605,-0.0003019056748598814,-0.0003586127422749996
1772639258543086000,1.777086181640625,0.0007805207278579473,-0.000413758447393775,-0.000514407642185688
1772639258553131000,1.787131103515625,0.0007729005301371217,-0.0004421344492584467,-0.0001676236279308796
1772639258563177200,1.79717724609375,0.0008165762992575765,-0.00004985113628208637,-0.0010177046060562134
1772639258573222100,1.80722216796875,0.0010166347492486238,0.0014590166974812746,-0.00011732662096619606
1772639258583267300,1.817267333984375,0.001469105714932084,0.0005873639602214098,-0.00010694051161408424
1772639258593312000,1.82731201171875,0.0001402322668582201,0.0006698726210743189,-0.00012296857312321663
1772639258603357200,1.837357177734375,0.001386591698974371,-0.0010755632538348436,0.0024919891729950905
1772639258613402000,1.847402099609375,0.0019026536028832197,0.0005958585534244776,-0.0009719738736748695
1772639258623447300,1.857447265625,-0.00027048587799072266,-0.0006342553533613682,0.00018064258620142937
1772639258633493200,1.8674931640625,0.0006276556523516774,-0.00017139757983386517,0.001623998861759901
1772639258643538000,1.877537841796875,0.0010657456004992127,0.00028666621074080467,0.00005220109596848488
1772639258653583000,1.8875830078125,0.0006106528453528881,-0.0002750079147517681,-0.0008349036797881126
1772639258663628000,1.8976279296875,-0.000052740564569830894,-0.0010156328789889812,0.0004189126193523407
1772639258673673200,1.907673095703125,-0.0003235439071431756,-0.0006825171876698732,-0.00010412652045488358
1772639258683718100,1.91771826171875,-0.000019677216187119484,-0.0006947678048163652,-0.00045912573114037514
1772639258693764000,1.92776416015625,0.0009817908285185695,-0.00040491437539458275,0.000005736947059631348
1772639258703809000,1.93780908203125,-0.001296010916121304,-0.00022488506510853767,0.00032052258029580116
1772639258713854000,1.94785400390625,0.001526109641417861,0.0005097026005387306,-0.00012786360457539558
1772639258723899100,1.957899169921875,0.001389755867421627,-0.0006264017429202795,0.0017041247338056564
1772639258733944000,1.967944091796875,-0.0003616032190620899,-0.0008412990719079971,0.00018432969227433205
1772639258743989200,1.9779892578125,0.0002194985281676054,-0.00041199708357453346,0.0005877986550331116
1772639258754035000,1.988034912109375,0.0007715461542829871,-0.00013154814951121807,0.00005801394581794739
1772639258764080000,1.998080078125,0.0007425177609547973,0.00019895005971193314,0.001751784235239029
1772639258774125000,2.008125,0.0006946598878130317,-0.00018159858882427216,0.00048730848357081413
1772639258784170200,2.018170166015625,-0.0007900524651631713,0.0008053691126406193,0.0002556135877966881
1772639258794215200,2.028215087890625,0.0015452316729351878,-0.0009715498890727758,0.0003994232974946499
1772639258804260600,2.038260498046875,0.002264019101858139,-0.0004740713629871607,0.00047052977606654167
1772639258814306600,2.048306640625,0.0006331144832074642,-0.00010925065726041794,-0.001327507197856903
1772639258824351200,2.058351318359375,0.000959884375333786,0.0017187432385981083,-0.0012084641493856907
1772639258834396400,2.068396484375,-0.0002027270384132862,0.0002267181407660246,0.00024366378784179688
1772639258844441300,2.07844140625,-0.0002477344824001193,0.0001758516300469637,-0.00031480100005865097
1772639258854486500,2.088486572265625,0.002505458891391754,0.00009038369171321392,-0.0009933891706168652
1772639258864531500,2.098531494140625,-0.0001558380899950862,-0.0005860591772943735,-0.00018698442727327347
1772639258874576400,2.108576416015625,0.001188563066534698,-0.0013247723691165447,-0.0011813580058515072
1772639258884622300,2.118622314453125,0.0007150530582293868,0.0004819161258637905,-0.0010383464395999908
1772639258894667300,2.128667236328125,0.0008445177227258682,-0.00021743657998740673,0.0003038528375327587
1772639258904712400,2.13871240234375,-0.00039465108420699835,-0.0008462087716907263,0.0010215751826763153
1772639258914757400,2.14875732421875,-0.0004378266166895628,0.00002138223499059677,-0.0005758167244493961
1772639258924802300,2.15880224609375,-0.00007244094740599394,-0.001498483819887042,-0.000656510703265667
1772639258934847200,2.16884716796875,-0.0005203570472076535,0.0010117304045706987,-0.0018045036122202873
1772639258944893400,2.1788935546875,0.0007891192799434066,-0.0007408959791064262,-0.0006865086033940315
1772639258954938400,2.1889384765625,0.00006351817864924669,-0.00014377152547240257,-0.0014420878142118454
1772639258964983600,2.198983642578125,0.0014486282598227262,-0.00034803617745637894,0.0017776740714907646
1772639258975028500,2.209028564453125,-0.0011284392094239593,0.00023020245134830475,0.0012746304273605347
1772639258985073400,2.219073486328125,0.0010601464891806245,-0.0001271937508136034,0.0004208213649690151
1772639258995118300,2.229118408203125,-0.00014655385166406631,0.002091530943289399,-0.00032292166724801064
1772639259005164300,2.239164306640625,0.0008289619581773877,0.0004448983818292618,0.00012182630598545074
1772639259015209500,2.24920947265625,0.00020922929979860783,-0.0001053407322615385,-0.0002930103801190853
1772639259025254400,2.25925439453125,0.000015883822925388813,-0.0010741984006017447,-0.0002594548277556896
1772639259035299300,2.26929931640625,0.0008702566847205162,0.000873953802511096,0.00047969119623303413
1772639259045344300,2.27934423828125,-0.00010126444976776838,0.0006326714064925909,0.0008994056843221188
1772639259055389400,2.289389404296875,-0.0006135674193501472,-0.001018971437588334,0.00012119021266698837
1772639259065435400,2.299435302734375,-0.0014007978606969118,-0.000528150936588645,0.002063167281448841
1772639259075480600,2.30948046875,0.00003888679202646017,-0.001807849621400237,0.0015069120563566685
1772639259085525500,2.319525390625,0.0005454199854284525,0.0004217487294226885,0.0005010361783206463
1772639259095570400,2.3295703125,-0.001585095771588385,-0.00012474623508751392,0.0010008341632783413
1772639259105615400,2.339615478515625,0.00022079364862293005,0.00025901547633111477,-0.00008919788524508476
1772639259115660500,2.34966064453125,-0.0010878057219088078,-0.0014039785601198673,0.0000911015085875988
1772639259125706500,2.35970654296875,-0.0006531777326017618,0.00036116456612944603,-0.0009805546142160892
1772639259135751400,2.36975146484375,0.00017079967074096203,0.001231831731274724,-0.0010766023769974709
1772639259145796400,2.37979638671875,0.001507173990830779,-0.00021026981994509697,0.0020861676894128323
1772639259155841300,2.38984130859375,0.0004400546895340085,-0.00008106045424938202,-0.00044037122279405594
1772639259165886500,2.399886474609375,-0.0006489118095487356,0.00033865380100905895,0.0016438188031315804
1772639259175931400,2.409931396484375,0.0010768373031169176,0.0000010756775736808777,-0.0011865505948662758
1772639259185977300,2.419977294921875,-0.00010374200064688921,-0.0005169091746211052,-0.0002712220884859562
1772639259196022500,2.4300224609375,-0.0010843214113265276,0.00023073749616742134,0.0025281370617449284
1772639259206067200,2.440067138671875,0.00017908227164298296,-0.0004435749724507332,0.0016974969767034054
1772639259216112400,2.4501123046875,0.0003325589932501316,-0.0010491525754332542,-0.002200090792030096
1772639259226157300,2.4601572265625,0.00029580737464129925,-0.00026218825951218605,0.0008702678605914116
1772639259236202500,2.470202392578125,0.0006243626121431589,0.0003987464588135481,0.0003655301406979561
1772639259246248400,2.48024853515625,-0.0004440976772457361,-0.0017453646287322044,0.00017697876319289207
1772639259256293400,2.49029345703125,-0.0010009296238422394,0.0007843261118978262,-0.0007658889517188072
1772639259266338300,2.50033837890625,0.0003785877488553524,0.00023464951664209366,-0.0012244852259755135
1772639259276383500,2.510383544921875,0.0012899187859147787,-0.001075205858796835,-0.0008648047223687172
1772639259286428400,2.520428466796875,-0.00017189036589115858,-0.00003204541280865669,0.00028301775455474854
1772639259296473600,2.5304736328125,-0.0005708032986149192,0.00003720307722687721,-0.0005648918449878693
1772639259306518300,2.540518310546875,-0.0001553501933813095,0.001033758046105504,-0.0005643591284751892
1772639259316564200,2.550564208984375,-0.00013411103282123804,0.000014290213584899902,-0.000036607496440410614
1772639259326609400,2.560609375,0.0007268888875842094,0.0004941916558891535,-0.0001830817200243473
1772639259336654300,2.570654296875,-0.001061940798535943,0.0009902562014758587,0.00006017042323946953
1772639259346699500,2.580699462890625,-0.001293635810725391,-0.0005937921814620495,-0.0001427624374628067
1772639259356744200,2.590744140625,-0.0004963052924722433,0.00006754836067557335,0.00035760924220085144
1772639259366789400,2.600789306640625,0.000563632813282311,0.00025157281197607517,-0.0007912786677479744
1772639259376835300,2.61083544921875,-0.0028697410598397255,0.00011534220539033413,-0.00034318771213293076
1772639259386880500,2.620880615234375,-0.000584216439165175,0.000018402934074401855,-0.001342671923339367
1772639259396925400,2.630925537109375,-0.001597968745045364,0.0007124480325728655,0.00022830860689282417
1772639259406970600,2.640970703125,-0.002122078789398074,0.0007555913180112839,-0.00038262084126472473
1772639259417015300,2.651015380859375,-0.0002921702107414603,-0.0005009607411921024,-0.00036464957520365715
1772639259427060500,2.661060546875,-0.0006029611686244607,-0.00022532371804118156,-0.00028928183019161224
1772639259437106400,2.6711064453125,0.0012874528765678406,-0.0011106450110673904,-0.0009588617831468582
1772639259447151400,2.6811513671875,0.0005372404120862484,-0.000980949029326439,-0.0008600587025284767
1772639259457196500,2.691196533203125,0.00037216884084045887,0.00032817479223012924,-0.0010384260676801205
1772639259467241200,2.7012412109375,0.0002310213167220354,0.0002464158460497856,0.000989038497209549
1772639259477286400,2.711286376953125,0.0003441832959651947,0.0009723340626806021,-0.0005016224458813667
1772639259487331300,2.721331298828125,0.00038359803147614,0.0009451697114855051,-0.000710680615156889
1772639259497377300,2.731377197265625,-0.0004986413987353444,-0.00018440838903188705,-0.0006207441911101341
1772639259507422500,2.74142236328125,0.00029870891012251377,-0.0002429978922009468,-0.0011033089831471443
1772639259517467400,2.75146728515625,-0.0002652710536494851,0.0003670246805995703,-0.00002272939309477806
1772639259527512300,2.76151220703125,-0.00021280685905367136,0.0014842208474874496,-0.00036574434489011765
1772639259537557200,2.77155712890625,-0.0012480298755690455,0.00008842768147587776,-0.000790896825492382
1772639259547602400,2.7816025390625,-0.001070396974682808,-0.0001414031721651554,-0.0022449824027717113
1772639259557648400,2.7916484375,-0.0010262681171298027,-0.001171702053397894,-0.0005636359564960003
1772639259567693600,2.801693603515625,0.001661660266108811,0.0001926356926560402,0.00023291585966944695
1772639259577738500,2.811738525390625,-0.0008191762026399374,0.00035874289460480213,-0.00018159998580813408
1772639259587783400,2.821783447265625,-0.0003041208256036043,0.00013317307457327843,0.001419758889824152
1772639259597828400,2.831828369140625,-0.0017689045052975416,0.00023371214047074318,-0.00002827029675245285
1772639259607873500,2.84187353515625,-0.0009971203980967402,-0.0000685565173625946,-0.0008674319833517075
1772639259617919500,2.85191943359375,-0.0006062950706109405,-0.00045936601236462593,0.0012320573441684246
1772639259627964400,2.86196435546875,0.000653113704174757,0.00007885880768299103,0.000377715565264225
1772639259638009300,2.87200927734375,0.0015295586781576276,-0.0010517933405935764,0.001072719693183899
1772639259648054300,2.88205419921875,-0.0007168176816776395,-0.000375616829842329,-0.000005327630788087845
1772639259658099500,2.892099365234375,-0.0010836183791980147,-0.00013011693954467773,-0.0007837740704417229
1772639259668144400,2.902144287109375,0.001257566618733108,0.0010696370154619217,0.00004659965634346008
1772639259678190600,2.912190673828125,-0.00033154943957924843,0.0008696806617081165,-0.0011068531312048435
1772639259688235500,2.922235595703125,-0.0014048033626750112,0.00036234850995242596,-0.000517762266099453
1772639259698280400,2.932280517578125,0.0002271940466016531,0.0010406393557786942,-0.00006514554843306541
1772639259708325400,2.942325439453125,0.0004245343152433634,-0.0003833528608083725,-0.0015509231016039848
1772639259718370600,2.95237060546875,0.0002987984335049987,-0.0005847197026014328,-0.0000979425385594368
1772639259728415500,2.96241552734375,0.00021411001216620207,0.00016203080303967,-0.0008926298469305038
1772639259738461400,2.97246142578125,-0.001198481535539031,0.0012306550052016973,-0.0010780165903270245
1772639259748506400,2.98250634765625,0.0005405626725405455,-0.0009677843190729618,0.0004953788593411446
1772639259758551300,2.99255126953125,-0.0019679490942507982,-0.00008785584941506386,-0.0003854227252304554
1772639259768596500,3.002596435546875,0.0009178522741422057,0.00017553078942000866,-0.00007436564192175865
1772639259778641400,3.012641357421875,0.00045507506001740694,0.0008030023891478777,0.001096960622817278
1772639259788686600,3.0226865234375,-0.0014285787474364042,0.0002442712429910898,-0.0006721774116158485
1772639259798732500,3.032732666015625,-0.0022025054786354303,-0.0006379126571118832,-0.0007134540937840939
1772639259808777500,3.042777587890625,-0.0012482947204262018,0.0008300216868519783,0.000008262228220701218
1772639259818822400,3.052822509765625,-0.0012701160740107298,-0.0007407590746879578,0.00020582228899002075
1772639259828867300,3.062867431640625,0.0002665278734639287,0.0005279707256704569,-0.0005007144063711166
1772639259838912500,3.07291259765625,-0.0007496969774365425,-0.0006155869923532009,-0.0014352346770465374
1772639259848957400,3.08295751953125,0.0015328982844948769,-0.00023076031357049942,0.0010143411345779896
1772639259859003600,3.093003662109375,-0.001111543970182538,-0.00047778571024537086,-0.0009141871705651283
1772639259869048600,3.103048583984375,0.00033002521377056837,-0.0008807219564914703,0.0006882366724312305
1772639259879093500,3.113093505859375,-0.00002979184500873089,0.000038768863305449486,0.00019972026348114014
1772639259889138400,3.123138427734375,-0.0006796031957492232,-0.0014691129326820374,-0.0014272048138082027
1772639259899183600,3.13318359375,-0.00006385229062289,0.0010437443852424622,-0.00012634741142392159
1772639259909228500,3.143228515625,-0.0006955540738999844,0.00131591921672225,0.00102706765756011
1772639259919274500,3.1532744140625,-0.00028842140454798937,-0.0018248227424919605,0.00021330267190933228
1772639259929319400,3.1633193359375,0.0004902868531644344,0.00043540215119719505,0.0003834790550172329
1772639259939364400,3.1733642578125,-0.0007277579279616475,-0.00044976314529776573,-0.00047469139099121094
1772639259949409500,3.183409423828125,-0.0009655781905166805,-0.000981863122433424,0.000040363986045122147
1772639259959454500,3.193454345703125,-0.0001500715734437108,-0.0007181731052696705,0.0011044307611882687
1772639259969500400,3.20350048828125,-0.0001439462648704648,0.00024269544519484043,0.0005566184408962727
1772639259979545600,3.213545654296875,0.0008306277450174093,0.00038976664654910564,-0.0001723296009004116
1772639259989590500,3.223590576171875,0.001160060754045844,0.0004371709655970335,0.00014272239059209824
1772639259999635500,3.233635498046875,-0.0005409362493082881,-0.00027647148817777634,-0.0002733343280851841
1772639260009680400,3.243680419921875,0.0004713312955573201,0.00009850156493484974,-0.0010898592881858349
1772639260019725600,3.2537255859375,0.0012090492527931929,-0.00153815234079957,0.0010851523838937283
1772639260029771500,3.263771484375,0.0003800070844590664,-0.0007594441995024681,-0.0004922379739582539
1772639260039816400,3.27381640625,0.00010186282452195883,-0.000007348367944359779,0.002040389459580183
1772639260049861400,3.283861328125,0.0007601963588967919,0.000022745458409190178,0.0000688512809574604
1772639260059906600,3.293906494140625,-0.0002081512939184904,0.00007748045027256012,0.0005915304645895958
1772639260069951500,3.303951416015625,-0.0002824534894898534,-0.0010812608525156975,-0.0009935828857123852
1772639260079996700,3.31399658203125,0.0021738724317401648,0.00009081047028303146,-0.0017322958447039127
1772639260090042600,3.324042724609375,0.0002662499900907278,-0.00026312354020774364,0.0013606995344161987
1772639260100087300,3.33408740234375,0.00010366039350628853,-0.0016393125988543034,-0.000658856239169836
1772639260110132500,3.344132568359375,-0.00045373919419944286,0.00042516994290053844,0.0005379687063395977
1772639260120177400,3.354177490234375,-0.001698991167359054,-0.00022019329480826855,-0.0007744403555989265
1772639260130222600,3.36422265625,-0.00039830326568335295,-0.000054544536396861076,-0.0006854911334812641
1772639260140267300,3.374267333984375,-0.0003059490118175745,-0.0007354870904237032,-0.0008175657130777836
1772639260150313500,3.3843134765625,-0.0008524295990355313,0.00023976247757673264,-0.0006125024519860744
1772639260160358400,3.3943583984375,0.0011713957646861672,0.0003944840282201767,0.00045939208939671516
1772639260170403600,3.404403564453125,-0.001623059157282114,0.0007548097055405378,0.0013680625706911087
1772639260180448500,3.414448486328125,0.00017313077114522457,-0.0008174451068043709,-0.001170069444924593
1772639260190493700,3.42449365234375,0.0006692777387797832,0.0016265378799289465,-0.00014954572543501854
1772639260200538400,3.434538330078125,-0.0013037172611802816,0.00022353907115757465,0.0004200311377644539
1772639260210584300,3.444584228515625,-0.0009625663515180349,0.0011577759869396687,-0.0006830501370131969
1772639260220629500,3.45462939453125,-0.0008652757969684899,0.00040776864625513554,0.00038468698039650917
1772639260230674400,3.46467431640625,0.0006577861495316029,-0.0010708183981478214,-0.0014273272827267647
1772639260240719600,3.4747197265625,-0.000203922507353127,-0.00034935586154460907,0.0002246215008199215
1772639260250764300,3.484764404296875,0.00018809479661285877,-0.00021965987980365753,0.001936767715960741
1772639260260810500,3.494810546875,0.0006766306469216943,-0.00021027284674346447,0.0004545622505247593
1772639260270855400,3.50485546875,0.00003773835487663746,-0.00046780030243098736,-0.00021149450913071632
1772639260280900400,3.514900390625,0.0008197285933420062,0.0003135360311716795,0.00026309024542570114
1772639260290945500,3.524945556640625,-0.00046311598271131516,-0.000027082161977887154,0.0013038539327681065
1772639260300990500,3.534990478515625,-0.000999778974801302,-0.000048600370064377785,-0.00033956021070480347
1772639260311035400,3.545035400390625,-0.0012692909222096205,0.0004842979833483696,-0.00038030650466680527
1772639260321081300,3.555081298828125,-0.0006901328451931477,-0.00007260707207024097,-0.0005333032459020615
1772639260331126500,3.56512646484375,-0.0006845402531325817,0.0003652165178209543,-0.00009761005640029907
1772639260341171500,3.57517138671875,-0.0005388858262449503,-0.000028368784114718437,-0.00005616573616862297
1772639260351216600,3.585216552734375,-0.0007165187271311879,0.00010399031452834606,-0.0005310075357556343
1772639260361261600,3.595261474609375,-0.0002661441685631871,0.00024470151402056217,-0.0005418169312179089
1772639260371306500,3.605306396484375,0.0003493124386295676,0.0013291407376527786,0.00008136266842484474
1772639260381352400,3.6153525390625,-0.0001005824888125062,-0.0001019348856061697,-0.0010983329266309738
1772639260391397400,3.6253974609375,0.000337773934006691,0.00023948238231241703,-0.00035850703716278076
1772639260401442600,3.635442626953125,-0.00006635661702603102,0.0002850450109690428,0.0002945153973996639
1772639260411487500,3.645487548828125,-0.0013643812853842974,-0.0006603773217648268,0.0008385991677641869
1772639260421532400,3.655532470703125,-0.00017739448230713606,0.0005552959628403187,0.000030003953725099564
1772639260431578400,3.665578369140625,-0.0012969874078407884,0.0010636933147907257,-0.0007985057309269905
1772639260441623600,3.67562353515625,-0.00037548865657299757,-0.000013266224414110184,-0.00023544160649180412
1772639260451668500,3.68566845703125,0.0006341157713904977,-0.0011352559085935354,0.00024685682728886604
1772639260461713700,3.695713623046875,0.001360996626317501,0.000025945017114281654,-0.0003824220038950443
1772639260471758600,3.705758544921875,-0.00009282305836677551,-0.00034157116897404194,0.001698305830359459
1772639260481803500,3.715803466796875,-0.001588850631378591,0.0004671262577176094,-0.0002848147414624691
1772639260491849500,3.725849365234375,0.00008867459837347269,-0.00023648072965443134,0.0009069498628377914
1772639260501894400,3.735894287109375,-0.0004240956623107195,0.0010995999909937382,0.001035498920828104
1772639260511939600,3.745939697265625,-0.001068580662831664,0.0003427297342568636,-0.0005117976106703281
1772639260521984500,3.755984619140625,-0.0005870977183803916,-0.00024993205443024635,0.0008212700486183167
1772639260532029400,3.766029541015625,-0.0002584636677056551,0.0003364959266036749,0.00028357794508337975
1772639260542074400,3.776074462890625,0.00017197930719703436,-0.001087338663637638,-0.0008274395950138569
1772639260552120300,3.786120361328125,-0.00017556315287947655,-0.0013440675102174282,0.00040613673627376556
1772639260562165500,3.79616552734375,0.0001956019550561905,0.0007979250513017178,-0.0006036171689629555
1772639260572210400,3.80621044921875,-0.0012411734787747264,-0.0002407075371593237,0.0002525891177356243
1772639260582255600,3.816255615234375,-0.0005083895521238446,0.0016014731954783201,0.0008255704306066036
1772639260592300300,3.82630029296875,-0.0019507575780153275,-0.00007951399311423302,-0.0005709915421903133
1772639260602346500,3.836346435546875,0.00018610386177897453,0.0013748107012361288,-0.0000017075799405574799
1772639260612391400,3.846391357421875,0.0008934395154938102,0.0001793175470083952,-0.000006234738975763321
1772639260622436600,3.8564365234375,-0.001298105577006936,-0.0015003976877778769,-0.0001077861525118351
1772639260632481500,3.8664814453125,-0.000040028360672295094,0.00028152321465313435,-0.0005714423023164272
1772639260642526500,3.8765263671875,-0.0010151468450203538,-0.0001967698335647583,-0.00025266315788030624
1772639260652571400,3.8865712890625,-0.00010487833060324192,-0.001299052033573389,0.0007063411176204681
1772639260662617300,3.896617431640625,0.001194905024021864,0.000424996018409729,-0.0004073767922818661
1772639260672662500,3.90666259765625,-0.00026397453621029854,-0.0010373457334935665,0.001124473288655281
1772639260682707500,3.91670751953125,0.0009425878524780273,-0.00008405535481870174,-0.0006988761015236378
1772639260692752600,3.926752685546875,0.0010014437139034271,-0.00030802725814282894,0.0006356341764330864
1772639260702797300,3.93679736328125,0.0002602919703349471,-0.0011396738700568676,0.0003130524419248104
1772639260712843500,3.946843505859375,-0.00041188986506313086,-0.00038253748789429665,-0.0011173314414918423
1772639260722888400,3.956888427734375,-0.0015361253172159195,0.0008978457190096378,-0.00040664197877049446
1772639260732933600,3.96693359375,-0.00031613127794116735,-0.0001319986768066883,-0.0003978535532951355
1772639260742978600,3.976978515625,-0.001203357009217143,0.00022151903249323368,0.0007528746500611305
1772639260753023500,3.9870234375,-0.0010789873776957393,-0.0013398921582847834,-0.0018977699801325798
1772639260763068400,3.997068359375,-0.0006403300212696195,-0.0005037914961576462,-0.001032121479511261
1772639260773114400,4.0071142578125,-0.002866466296836734,-0.00023374659940600395,-0.00043690530583262444
1772639260783159600,4.01715966796875,-0.00023281143512576818,0.0004853492137044668,-0.00003783637657761574
1772639260793204500,4.02720458984375,0.0011898491065949202,-0.0006893712561577559,0.0001041102223098278
1772639260803249700,4.037249755859375,0.0000288133742287755,-0.0011531631462275982,-0.0007684826850891113
1772639260813293800,4.0472939453125,0.00008394080214202404,0.0009712404571473598,0.000485067255795002
1772639260823339000,4.057339111328125,-0.000023405766114592552,0.0009980183094739914,-0.0011315252631902695
1772639260833385000,4.067385009765625,0.0008056362858042121,0.0015247915871441364,0.0010437448509037495
1772639260843430100,4.07743017578125,-0.0006593805155716836,0.0008650280069559813,0.0009600487537682056
1772639260853475000,4.08747509765625,-0.00032009382266551256,-0.0006503106560558081,0.0012583225034177303
1772639260863520000,4.09752001953125,-0.0005504671717062593,0.000037799589335918427,-0.0005896203219890594
1772639260873565000,4.10756494140625,-0.00028894480783492327,-0.0007936391048133373,0.0002324976958334446
1772639260883611000,4.11761083984375,0.0008447254076600075,-0.0003395788371562958,-0.0000853552483022213
1772639260893656000,4.127656005859375,-0.0006479762378148735,0.0015049264766275883,0.00007736403495073318
1772639260903701000,4.137700927734375,0.0018854010850191116,0.0011556737590581179,-0.0019919262267649174
1772639260913746000,4.147745849609375,0.0011495696380734444,0.00024913367815315723,-0.0008158739656209946
1772639260923790800,4.157790771484375,0.00016937160398811102,0.0007176254875957966,-0.0016163266263902187
1772639260933836000,4.1678359375,-0.0008982897270470858,-0.000212883111089468,-0.00022056419402360916
1772639260943882000,4.177882080078125,0.00003698293585330248,-0.0012570777907967567,-0.0011612684465944767
1772639260953927200,4.18792724609375,-0.000862632819917053,0.000919523648917675,0.0007458212785422802
1772639260963972000,4.19797216796875,0.00034262461122125387,-0.000029250048100948334,-0.001337085384875536
1772639260974017000,4.20801708984375,-0.0011679204180836678,-0.00028171762824058533,-0.0012579895555973053
1772639260984062000,4.21806201171875,0.0013388656079769135,0.0007890027482062578,0.00020749540999531746
1772639260994108000,4.22810791015625,0.0034992217551916838,-0.0011199512518942356,-0.0008745468221604824
1772639261004153000,4.238153076171875,-0.0007256881217472255,0.000978950411081314,0.0005861483514308929
1772639261014198000,4.248197998046875,0.0012256099143996835,-0.000006152782589197159,0.0004948019050061703
1772639261024243000,4.258242919921875,-0.0007868068059906363,0.001083560986444354,-0.0016291476786136627
1772639261034287900,4.268287841796875,0.00007951946463435888,-0.0007201982662081718,-0.00008611194789409637
1772639261044333000,4.2783330078125,-0.00015845766756683588,0.000686759827658534,0.001581527292728424
1772639261054379000,4.28837890625,0.0011217237915843725,0.0004769028164446354,-0.00040732137858867645
1772639261064424000,4.298423828125,-0.0004321289015933871,-0.0002501881681382656,-0.0009333938360214233
1772639261074469000,4.30846923828125,0.0007085029501467943,0.00040548224933445454,-0.00008704140782356262
1772639261084513800,4.318513671875,0.0016885710647329688,-0.0005202773027122021,-0.00044238194823265076
1772639261094559000,4.32855908203125,0.0003615180030465126,-0.0011120317503809929,0.0010982565581798553
1772639261104605000,4.33860498046875,-0.0001476395409554243,0.0009705144912004471,-0.0001595490612089634
1772639261114650000,4.348650146484375,0.00017886399291455746,0.0003814231604337692,-0.00004103872925043106
1772639261124695000,4.358695068359375,0.0002718457253649831,0.0011102952994406223,0.0014032530598342419
1772639261134740000,4.368739990234375,0.00041485740803182125,0.00024663214571774006,-0.0006023738533258438
1772639261144785000,4.378784912109375,-0.00048092874931171536,-0.0006048092618584633,-0.0016857613809406757
1772639261154830000,4.388830078125,0.002417922019958496,0.0014673962723463774,-0.000029808375984430313
1772639261164876000,4.3988759765625,-0.00039337435737252235,-0.0005850186571478844,0.0003272825852036476
1772639261174921000,4.4089208984375,-0.0008759392076171935,0.000480511924251914,0.00003193831071257591
1772639261184966100,4.418966064453125,0.000645627616904676,0.0008468753658235073,-0.0013128644786775112
1772639261195010800,4.4290107421875,0.0011223334586247802,0.0003952032420784235,-0.0013727853074669838
1772639261205056000,4.439055908203125,-0.000998156494461,-0.00033655110746622086,0.0009316829964518547
1772639261215102000,4.44910205078125,0.001673260354436934,-0.0008478779345750809,-0.00022945506498217583
1772639261225147100,4.459147216796875,0.0013693923829123378,-0.0002739713527262211,0.001249099150300026
1772639261235192000,4.469192138671875,-0.0002772401785477996,0.0009159292094409466,0.0013076886534690857
1772639261245237000,4.479237060546875,-0.0005979195702821016,-0.00044051092118024826,0.001008056104183197
1772639261255282000,4.489281982421875,0.0003397794207558036,-0.0005302592180669308,-0.0012279339134693146
1772639261265327000,4.4993271484375,0.00034926924854516983,-0.0005872584879398346,-0.00020412029698491096
1772639261275373000,4.509373046875,0.000858732033520937,0.0015707009006291628,0.0008126748725771904
1772639261285418000,4.51941796875,0.00010764459148049355,0.000050770118832588196,0.00024532899260520935
1772639261295463200,4.529463134765625,-0.00010780512820929289,-0.0008549708873033524,-0.0004718601703643799
1772639261305507800,4.5395078125,0.00013162894174456596,0.0007720817811787128,-0.0012040040455758572
1772639261315553000,4.549552978515625,-0.0012412306386977434,-0.00034671230241656303,-0.0014748470857739449
1772639261325599000,4.559598876953125,-0.000869565352331847,-0.0001225755549967289,-0.0006013251841068268
1772639261335644000,4.569643798828125,0.0007440439658239484,0.0004289650823920965,-0.0009294264018535614
1772639261345689000,4.579689208984375,0.0003477921709418297,-0.0017193029634654522,0.0005744979716837406
1772639261355733800,4.589733642578125,-0.0004261223366484046,-0.0003949129022657871,-0.0006934329867362976
1772639261365779000,4.599779052734375,0.0015377318486571312,0.00024934252724051476,-0.00026787398383021355
1772639261375825000,4.609824951171875,0.0005821895319968462,0.00027517531998455524,0.00019924482330679893
1772639261385870000,4.6198701171875,0.00006450898945331573,0.0002603204920887947,-0.0001412695273756981
1772639261395915000,4.6299150390625,0.0012200544588267803,0.0006627240218222141,0.00016632536426186562
1772639261405960200,4.639960205078125,0.0001435274025425315,0.0007441604975610971,-0.0009300620295107365
1772639261416004900,4.6500048828125,0.0015877597033977509,0.0001817008014768362,0.0005152355879545212
1772639261426050000,4.660050048828125,-0.0002975165843963623,0.000013628043234348297,-0.0004734750837087631
1772639261436096000,4.670095947265625,0.0002513608196750283,0.00043627177365124226,-0.0011656307615339756
1772639261446141000,4.680140869140625,-0.0014091010671108961,-0.00035393983125686646,0.00005236733704805374
1772639261456186000,4.69018603515625,0.001280957949347794,-0.0001597953960299492,-0.00012739608064293861
1772639261466230800,4.700230712890625,-0.0008384573739022017,-0.0002487683668732643,0.0007252371869981289
1772639261476276000,4.71027587890625,-0.0006818634574301541,0.0005011777393519878,0.0002956693060696125
1772639261486322000,4.720322021484375,0.0007815854623913765,0.00005853199400007725,0.00032244110479950905
1772639261496367000,4.7303671875,-0.00043201702646911144,0.0003597354516386986,0.0004561319947242737
1772639261506412000,4.740412109375,-0.0015859703999012709,0.0008561692666262388,0.00036653177812695503
1772639261516457000,4.75045703125,0.0009251241572201252,0.00021647801622748375,-0.00031630275771021843
1772639261526502000,4.760501953125,0.0015043788589537144,0.000038461294025182724,0.0008007250726222992
1772639261536547000,4.770547119140625,-0.00047648034524172544,0.0007489926647394896,-0.0009673475287854671
1772639261546593000,4.780593017578125,-0.0008818235364742577,-0.0001638729590922594,0.0009784731082618237
1772639261556638000,4.790637939453125,0.0009951724205166101,-0.0005380471702665091,-0.00007027992978692055
1772639261566683100,4.80068310546875,-0.0009668123093433678,0.0011512513738125563,0.0009982767514884472
1772639261576728000,4.81072802734375,0.002132041845470667,-0.0009593039285391569,0.000464046373963356
1772639261586773000,4.82077294921875,-0.000002108863554894924,0.00008678925223648548,0.00048712408170104027
1772639261596819000,4.83081884765625,0.0009590259287506342,-0.0006772717460989952,-0.00004923669621348381
1772639261606864000,4.84086376953125,0.0005817729979753494,0.00004932028241455555,0.00017793569713830948
1772639261616909000,4.850908935546875,0.0008507522288709879,-0.00021566427312791348,0.00013399310410022736
1772639261626954000,4.8609541015625,-0.00010111276060342789,0.0004147742874920368,0.0021710614673793316
1772639261636999000,4.8709990234375,-0.000613238662481308,0.000056845368817448616,-0.00006040139123797417
1772639261647044900,4.881044921875,-0.0005688973469659686,-0.0005480032414197922,-0.00007369183003902435
1772639261657090000,4.891090087890625,-0.0019345663022249937,-0.0007767686620354652,-0.000690746121108532
1772639261667135000,4.901135009765625,0.00011669541709125042,0.00038359989412128925,0.0008497606031596661
1772639261677180200,4.91118017578125,-0.0011837261263281107,0.0004166231956332922,0.0005387035198509693
1772639261687225000,4.92122509765625,-0.0002454291097819805,-0.0002834834158420563,0.0002150004729628563
1772639261697270800,4.931270751953125,0.0006246257107704878,0.0009948338847607374,0.0006757276132702827
1772639261707316000,4.94131591796875,-0.0015116826398298144,-0.00004117214120924473,0.00013100821524858475
1772639261717361000,4.95136083984375,0.0006409503985196352,-0.00048245792277157307,-0.0010250699706375599
1772639261727406000,4.961406005859375,-0.0002268725074827671,0.0007140033412724733,0.00022776518017053604
1772639261737451000,4.971450927734375,0.0005100241396576166,-0.00010278797708451748,0.000007788185030221939
1772639261747496000,4.981495849609375,0.00020503939595073462,-0.00012461724691092968,-0.0009459950961172581
1772639261757542000,4.9915419921875,-0.0005678099114447832,0.000258878106251359,-0.0008157663978636265
1772639261767587000,5.001587158203125,0.0011438063811510801,0.0001610834151506424,-0.0004942980594933033
1772639261777632000,5.011632080078125,-0.0006426421459764242,-0.00009298231452703476,-0.0004207948222756386
1772639261787677000,5.021677001953125,0.0005764822708442807,0.000502417329698801,0.0007641282863914967
1772639261797722000,5.03172216796875,-0.0014158285921439528,-0.0006193059962242842,0.000005393754690885544
1772639261807768000,5.04176806640625,0.00012142839841544628,0.0010420214384794235,-0.00039668940007686615
1772639261817813000,5.05181298828125,-0.0004937618505209684,-0.00011751893907785416,0.00015698187053203583
1772639261827858000,5.06185791015625,0.00006258278153836727,-0.0006619743071496487,-0.0012749084271490574
1772639261837903000,5.071903076171875,-0.0011006859131157398,0.0012163531500846148,-0.0007587880827486515
1772639261847948000,5.081947998046875,-0.0005795948673039675,0.0015188511461019516,-0.00038114190101623535
1772639261857994000,5.091993896484375,-0.00015215761959552765,0.0009723706170916557,-0.00034865131601691246
1772639261868039200,5.1020390625,0.00020242331083863974,0.0005330122075974941,-0.000916388351470232
1772639261878083800,5.112083740234375,0.0005784617969766259,0.00047495518811047077,-0.0003358190879225731
1772639261888129000,5.12212890625,0.00015813310164958239,0.0014217640273272991,-0.0009398679248988628
1772639261898174000,5.132174072265625,0.00022018479648977518,-0.001387338386848569,-0.0005403938703238964
1772639261908219100,5.14221923828125,0.0007803121116012335,-0.0009967423975467682,-0.0000825878232717514
1772639261918265000,5.15226513671875,-0.0005763020599260926,0.00002830824814736843,-0.0003470396623015404
1772639261928310000,5.16231005859375,0.0002193874679505825,0.001135828671976924,-0.0008780863136053085
1772639261938355000,5.17235498046875,-0.0008408169378526509,0.0004316887352615595,-0.00035797106102108955
1772639261948400000,5.182400146484375,0.000787228113040328,0.00011082715354859829,-0.0003969920799136162
1772639261958445000,5.192445068359375,-0.00018029846251010895,0.0012778243981301785,-0.0011514658108353615
1772639261968491000,5.202490966796875,0.0021371557377278805,0.000672162277624011,0.0007248125039041042
1772639261978536200,5.2125361328125,-0.0009260118822567165,0.0007461979985237122,0.0012401342391967773
1772639261988580900,5.222580810546875,-0.0011256725993007421,-0.0003046540077775717,0.0005836691707372665
1772639261998626000,5.2326259765625,-0.00030035909730941057,0.0015475747641175985,0.0008979220874607563
1772639262008671000,5.2426708984375,-0.0019480010960251093,-0.00047569163143634796,-0.0010765106417238712
1772639262018717000,5.252717041015625,0.0006555052241310477,-0.0004711644724011421,0.0014817221090197563
1772639262028762000,5.26276220703125,0.0007944664685055614,-0.00006599375046789646,-0.00032166391611099243
1772639262038807000,5.27280712890625,-0.0015224836533889174,0.0003649056889116764,-0.00004576053470373154
1772639262048852000,5.28285205078125,0.0008443893166258931,-0.0008571255020797253,-0.0009454013779759407
1772639262058897000,5.29289697265625,0.0008542429422959685,0.0006478265859186649,0.0000647353008389473
1772639262068942000,5.302942138671875,-0.0004582897527143359,0.0006213609594851732,0.0008483221754431725
1772639262078988000,5.312988037109375,-0.0008313985890708864,-0.000363475875928998,0.00017241202294826508
1772639262089033200,5.323033203125,-0.0010859912727028131,-0.000060592079535126686,-0.00044913263991475105
1772639262099078000,5.333077880859375,0.00006129848770797253,0.00031038629822432995,-0.00039906520396471024
1772639262109123000,5.343123046875,-0.0013692004140466452,-0.00048112194053828716,-0.0004056347534060478
1772639262119168000,5.35316796875,-0.0012397707905620337,-0.00001879734918475151,-0.0008895308710634708
1772639262129214000,5.3632138671875,-0.00039860443212091923,-0.00042992737144231796,-0.0005164002068340778
1772639262139259100,5.373259033203125,-0.00019993260502815247,-0.00024031056091189384,0.0008380836807191372
1772639262149303800,5.3833037109375,-0.0011794466990977526,0.0010835605207830667,0.0015208539552986622
1772639262159349000,5.393348876953125,0.0011409653816372156,-0.0006895719561725855,-0.00004055723547935486
1772639262169394000,5.403393798828125,-0.0009709328296594322,-0.000336129916831851,0.000650377944111824
1772639262179440000,5.413440185546875,0.0001699653221294284,0.00003191875293850899,-0.001488673035055399
1772639262189485000,5.423485107421875,-0.0009271760936826468,-0.000888527138158679,-0.00013054441660642624
1772639262199530200,5.4335302734375,-0.0002195741981267929,-0.0003255351912230253,-0.00011882651597261429
1772639262209575000,5.443574951171875,-0.000255444785580039,-0.0005133308004587889,0.0013065082021057606
1772639262219620000,5.4536201171875,-0.0009819550905376673,-0.0007796466816216707,0.0009065014310181141
1772639262229666000,5.463666015625,0.0005619602743536234,0.00043592811562120914,0.0013567348942160606
1772639262239711000,5.4737109375,0.0004463791847229004,0.00027400790713727474,-0.0006214608438313007
1772639262249756200,5.483756103515625,-0.00019028037786483765,0.0011869037989526987,0.00023461272940039635
1772639262259800800,5.49380078125,0.00047258043196052313,0.000678506214171648,0.0006042597815394402
1772639262269846000,5.503845947265625,0.0009510908275842667,-0.00028881244361400604,-0.00043283356353640556
1772639262279891000,5.513890869140625,-0.0010004735086113214,0.0005562084261327982,-0.00042750686407089233
1772639262289937000,5.52393701171875,-0.000018172897398471832,-0.0006696782074868679,-0.00033609941601753235
1772639262299982000,5.533982177734375,-0.0007561348029412329,0.001924240728840232,-0.00047378474846482277
1772639262310027000,5.544027099609375,-0.00003680749796330929,-0.0010430223774164915,0.0007315417751669884
1772639262320072000,5.554072021484375,0.0008415031479671597,0.00034448481164872646,0.00027694040909409523
1772639262330116900,5.564116943359375,-0.0005118545377627015,0.000512389000505209,0.001844292040914297
1772639262340163000,5.5741630859375,-0.0010868309764191508,0.000509193167090416,-0.00013603456318378448
1772639262350208000,5.5842080078125,-0.0003549231914803386,0.0011126212775707245,0.0003829626366496086
1772639262360253200,5.594253173828125,0.0003494829870760441,-0.0016125915572047234,-0.0017126784659922123
1772639262370298000,5.604298095703125,0.00022289296612143517,0.0003559847828000784,0.0011395863257348537
1772639262380343000,5.614343017578125,-0.0006490260129794478,0.00039380183443427086,0.0012868591584265232
1772639262390389000,5.624388916015625,-0.0006802059942856431,-0.0012851255014538765,0.0011260532774031162
1772639262400434000,5.634433837890625,0.0001576244831085205,-0.001447045709937811,0.000642689410597086
1772639262410479000,5.64447900390625,-0.00024100067093968391,0.0007948963902890682,0.0012897090055048466
1772639262420524000,5.65452392578125,-0.0014620600268244743,-0.0014727853704243898,-0.0006504040211439133
1772639262430569000,5.66456884765625,-0.00021101604215800762,0.00008933874778449535,-0.0009426083415746689
1772639262440615000,5.674614990234375,-0.0007833294221200049,0.0014321045018732548,-0.00039639417082071304
1772639262450660000,5.68466015625,0.0005007702857255936,-0.0005618336144834757,-0.0006888355128467083
1772639262460705000,5.694705078125,0.0004608228337019682,0.0001202018465846777,0.0006818934343755245
1772639262470750200,5.704750244140625,0.0012440329883247614,-0.0008750243578106165,-0.00031536538153886795
1772639262480795100,5.714795166015625,0.0016445722430944443,0.00035509001463651657,0.0007062233053147793
1772639262490840800,5.7248408203125,0.0005021250108256936,-0.00027520046569406986,-0.001122156623750925
1772639262500886000,5.734885986328125,-0.00003556732553988695,-0.00014550494961440563,-0.0008800751529633999
1772639262510931000,5.744930908203125,-0.0011559908743947744,0.0012781680561602116,-0.0002702372148633003
1772639262520976100,5.75497607421875,-0.000277147744782269,-0.00012984522618353367,0.0008797156624495983
1772639262531021000,5.76502099609375,-0.0007209120667539537,0.0005619165021926165,-0.0022154352627694607
1772639262541066000,5.77506591796875,0.0006809759652242064,0.0008340915665030479,-0.0008401786908507347
1772639262551112000,5.78511181640625,0.0015496157575398684,-0.0006538932211697102,-0.00020820600911974907
1772639262561156900,5.795156982421875,0.0003554543945938349,0.0010750312358140945,-0.0009512277320027351
1772639262571202000,5.8052021484375,-0.00036059331614524126,-0.0014641962479799986,-0.0006953715346753597
1772639262581247000,5.8152470703125,0.0009600681951269507,-0.0007571268361061811,-0.00005807727575302124
1772639262591292200,5.825292236328125,0.0014189841458573937,-0.0004649003967642784,0.0022687148302793503
1772639262601338000,5.835338134765625,0.00018780480604618788,0.0004871799610555172,-0.0006229453720152378
1772639262611383000,5.845383056640625,0.0009464886970818043,0.0016291197389364243,0.001034498680382967
1772639262621428000,5.855427978515625,-0.00011717772576957941,-0.00020499923266470432,-0.001083246897906065
1772639262631473200,5.86547314453125,-0.0006457651033997536,0.000758857699111104,0.0008697616867721081
1772639262641518000,5.87551806640625,-0.0010002318304032087,-0.0012563562486320734,0.00024019042029976845
1772639262651564000,5.88556396484375,-0.0002107120817527175,-0.000452372245490551,0.000519671943038702
1772639262661609000,5.89560888671875,-0.0007321590092033148,-0.0010553118772804737,0.00008637551218271255
1772639262671654000,5.90565380859375,0.0015848340699449182,-0.0009663510136306286,-0.0014525442384183407
1772639262681699000,5.915698974609375,0.0003525892971083522,0.0002350006252527237,0.000710741151124239
1772639262691744000,5.925743896484375,-0.0002454600762575865,-0.00003788038156926632,0.0009714020416140556
1772639262701790200,5.935790283203125,-0.001148537965491414,0.00016744923777878284,0.0009700702503323555
1772639262711835100,5.945835205078125,0.0009158957982435822,0.0003809100016951561,0.0017127171158790588
1772639262721880000,5.955880126953125,-0.0006071660900488496,-0.0004449361003935337,0.00045224279165267944
1772639262731925000,5.965925048828125,-0.00034254800993949175,0.0003073718398809433,-0.0004263785667717457
1772639262741970200,5.97597021484375,-0.0003044648328796029,0.00004824623465538025,0.0002852180041372776
1772639262752016100,5.98601611328125,-0.0006519581656903028,-0.001967799151316285,0.0006790240295231342
1772639262762061000,5.99606103515625,0.0012607242679223418,-0.00014353380538523197,-0.001314085442572832
1772639262772106000,6.00610595703125,-0.0008280846523120999,0.00009485939517617226,-0.0002560354769229889
1772639262782151000,6.01615087890625,-0.0002704187063500285,-0.0003142021596431732,0.0006291992031037807
1772639262792196000,6.026196044921875,0.000655099400319159,-0.0009986769873648882,0.0007090754806995392
1772639262802242000,6.036241943359375,0.0013102371012791991,-0.0006431450601667166,0.001336782705038786
1772639262812287500,6.04628759765625,-0.0008988684858195484,-0.0005691677797585726,0.00080837681889534
1772639262822332400,6.05633251953125,-0.000015231664292514324,0.0009874498937278986,0.0005966555327177048
1772639262832377300,6.06637744140625,0.0005010543391108513,0.00022266781888902187,-0.00017973873764276505
1772639262842422500,6.076422607421875,-0.0008166776970028877,-0.0005611006636172533,0.0016293465159833431
1772639262852468500,6.086468505859375,0.00014224485494196415,0.0002590459771454334,0.00007605180144309998
1772639262862513700,6.096513671875,-0.00047427695244550705,-0.000335371820256114,-0.0004997234791517258
1772639262872558600,6.10655859375,-0.000987016363069415,-0.0012476753909140825,0.00045283883810043335
1772639262882603500,6.116603515625,-0.00039419683162122965,-0.0011869550216943026,0.00046695349738001823
1772639262892648400,6.1266484375,0.00036090484354645014,0.000733441673219204,-0.0005827620625495911
1772639262902693600,6.136693603515625,0.0006288188742473722,-0.0007984084077179432,0.002088654786348343
1772639262912739600,6.146739501953125,-0.0002859911182895303,0.001007182290777564,0.0007204008288681507
1772639262922784500,6.156784423828125,-0.0020298289600759745,-0.00046075228601694107,-0.0013153189793229103
1772639262932829400,6.166829345703125,0.0008298406610265374,0.0009840582497417927,-0.00031575514003634453
1772639262942874400,6.176874267578125,-0.00006977515295147896,-0.0010244979057461023,-0.0002891235053539276
1772639262952919600,6.18691943359375,0.0006242868257686496,-0.00009780982509255409,-0.0006792754866182804
1772639262962965500,6.196965576171875,0.000016287202015519142,0.001084101153537631,0.0004903846420347691
1772639262973010400,6.207010498046875,0.0009078350849449635,0.00041887257248163223,-0.0010257135145366192
1772639262983055600,6.2170556640625,-0.0010727578774094582,-0.0006455928087234497,-0.0012102704495191574
1772639262993100300,6.227100341796875,0.000726917409338057,0.0014953589998185635,0.0003520003519952297
1772639263003145500,6.2371455078125,-0.00008428143337368965,-0.0000849610660225153,-0.0003883587196469307
1772639263013191400,6.24719140625,-0.0007733688107691705,0.00032496778294444084,-0.000730935949832201
1772639263023236600,6.257236572265625,0.0009614144219085574,-0.0004638608079403639,-0.0005461126565933228
1772639263033281500,6.267281494140625,-0.0005511456402018666,0.0016260792035609484,-0.00008212728425860405
1772639263043326500,6.277326416015625,0.0005948125617578626,-0.0002197579015046358,0.002610062249004841
1772639263053371400,6.287371337890625,-0.00027206132654100657,0.000632045092061162,0.0010850895196199417
1772639263063417300,6.297417236328125,0.0017596641555428505,0.0015505694318562746,0.0002579116262495518
1772639263073462500,6.307462646484375,-0.0018003699369728565,-0.00042289867997169495,0.0029321603942662477
1772639263083507500,6.317507568359375,0.0003828895278275013,-0.0015962878242135048,0.0023598470725119114
1772639263093552600,6.327552734375,-0.0009135434520430863,0.0005918410606682301,0.0003191404975950718
1772639263103597300,6.337597412109375,-0.00007704459130764008,-0.0005711615085601807,0.0017798840999603271
1772639263113643500,6.3476435546875,-0.00008003890980035067,0.0005630133673548698,-0.00043324846774339676
1772639263123688400,6.3576884765625,-0.00027018855325877666,-0.0005608405917882919,-0.0015855981037020683
1772639263133733600,6.367733642578125,0.00024648779071867466,-0.00029253168031573296,0.0007261107675731182
1772639263143778600,6.377778564453125,0.0018989791860803962,0.0007016260642558336,0.00042996741831302643
1772639263153823500,6.387823486328125,0.000030924100428819656,-0.00021800422109663486,-0.0007526269182562828
1772639263163869400,6.397869384765625,0.00028632115572690964,-0.00007445947267115116,0.0005749589763581753
1772639263173914400,6.407914306640625,0.00120717310346663,-0.00022412603721022606,0.00015283189713954926
1772639263183959600,6.41795947265625,0.0005847923457622528,-0.0003346474841237068,0.0006034388206899166
1772639263194004500,6.42800439453125,0.0011841850355267525,0.00031810649670660496,0.0007125032134354115
1772639263204049700,6.438049560546875,0.0009386416058987379,0.00042995926924049854,0.00048347143456339836
1772639263214095600,6.448095703125,0.0015452909283339977,0.0008433072362095118,0.00129317631945014
1772639263224140300,6.458140380859375,0.001072846120223403,0.0009903137106448412,-0.0007388154044747353
1772639263234185500,6.468185546875,-0.0004449494881555438,-0.00026296963915228844,0.0012318156659603119
1772639263244230400,6.47823046875,0.00042776833288371563,0.0007596844807267189,0.0005207518115639687
1772639263254275600,6.488275634765625,0.000537956366315484,0.0008180488366633654,-0.00026133935898542404
1772639263264320300,6.4983203125,-0.00047297950368374586,-0.000286896713078022,-0.00012258859351277351
1772639263274366500,6.508366455078125,0.0005828454159200191,0.00017173890955746174,-0.0008785184472799301
1772639263284411400,6.518411376953125,0.0006230589933693409,0.0013323447201400995,0.0003547915257513523
1772639263294456600,6.52845654296875,0.0002918235259130597,-0.0003283880650997162,0.0008853212930262089
1772639263304501500,6.53850146484375,-0.001792898983694613,-0.0006631473079323769,0.0011300654150545597
1772639263314546700,6.548546630859375,0.0017403987003490329,0.0009389203041791916,0.0002044467255473137
1772639263324592600,6.558592529296875,-0.00024472165387123823,0.0009202780202031136,-0.0006586839444935322
1772639263334637300,6.56863720703125,0.0010149170411750674,-0.0019272523932158947,-0.0009424327872693539
1772639263344682500,6.5786826171875,0.0015576692530885339,0.0011777272447943687,-0.00036798929795622826
1772639263354727400,6.5887275390625,-0.0004774193512275815,0.0005262827035039663,0.000015784986317157745
1772639263364772600,6.598772705078125,0.0002184646436944604,0.0001537064090371132,0.00036732200533151627
1772639263374818600,6.608818603515625,0.00027049658820033073,0.0002901435364037752,-0.0010005016811192036
1772639263384863500,6.618863525390625,0.0003858113195747137,-0.0014228015206754208,0.0007963334210216999
1772639263394908400,6.628908447265625,0.00008932000491768122,-0.0008114185184240341,0.00040128733962774277
1772639263404953600,6.63895361328125,0.00001954520121216774,0.0007774231489747763,0.0001746523194015026
1772639263414998500,6.64899853515625,-0.00008220458403229713,0.00003413367085158825,-0.0005857916548848152
1772639263425044500,6.65904443359375,-0.0006523873889818788,-0.0002164696343243122,0.0006491160020232201
1772639263435089700,6.669089599609375,0.0007312676170840859,0.0009572373237460852,-0.0008475026115775108
1772639263445134300,6.67913427734375,0.0005754727171733975,0.0004179470706731081,-0.0006432384252548218
1772639263455179500,6.689179443359375,0.00012972799595445395,0.0008243732154369354,0.000383513979613781
1772639263465224400,6.699224365234375,0.0003190787974745035,0.0005524642765522003,0.000687913503497839
1772639263475270400,6.7092705078125,-0.0010626786388456821,0.0006183297373354435,-0.00030957022681832314
1772639263485315600,6.719315673828125,0.00019699661061167717,0.00006252806633710861,-0.0008294191211462021
1772639263495360300,6.7293603515625,-0.0008149099303409457,-0.0010422365739941597,-0.0006105913780629635
1772639263505405400,6.739405517578125,0.00009296170901507139,0.0012603325303643942,0.0007446915842592716
1772639263515450400,6.749450439453125,-0.0012705576373264194,0.00013806787319481373,-0.0003832806833088398
1772639263525496600,6.75949658203125,-0.000017540412954986095,0.0008517950773239136,0.000012997537851333618
1772639263535541500,6.76954150390625,-0.00022640475071966648,0.0011395609471946955,-0.0008774334564805031
1772639263545586700,6.779586669921875,0.001176814897917211,0.0005041307304054499,-0.002667610067874193
1772639263555631400,6.78963134765625,-0.00005679670721292496,-0.0006932797841727734,0.0009458912536501884
1772639263565676500,6.799676513671875,-0.0009303135448135436,0.00040101329796016216,-0.0012046112678945065
1772639263575722500,6.809722412109375,-0.0012399771949276328,-0.00009066215716302395,0.0005780104547739029
1772639263585767400,6.819767333984375,0.001312396489083767,0.0001460930798202753,0.0007638991810381413
1772639263595812600,6.8298125,-0.00020768470130860806,0.0005655279383063316,-0.00034559378400444984
1772639263605857300,6.839857177734375,-0.0002329847775399685,0.0009740567766129971,0.0008621495217084885
1772639263615902500,6.84990234375,0.00012180907651782036,-0.00017757248133420944,0.0005067186430096626
1772639263625948400,6.859948486328125,0.00016761559527367353,-0.000283299945294857,-0.0002216561697423458
1772639263635993600,6.86999365234375,-0.00011570320930331945,-0.00023429119028151035,-0.00005797808989882469
1772639263646038500,6.88003857421875,-0.001244883518666029,0.0002874222118407488,-0.000021758954972028732
1772639263656083500,6.89008349609375,-0.0013424885692074895,0.00048177409917116165,0.001423920039087534
1772639263666128400,6.90012841796875,-0.0004426063969731331,0.0003209190908819437,-0.0006405627354979515
1772639263676174300,6.91017431640625,-0.0005522083956748247,0.0006355955265462399,-0.00030114222317934036
1772639263686219500,6.920219482421875,-0.0004443504149094224,-0.0003732098266482353,-0.00013283034786581993
1772639263696264400,6.930264404296875,0.0007163285044953227,-0.00034935888834297657,-0.0003726561553776264
1772639263706309600,6.9403095703125,-0.0003958074375987053,-0.00046733696945011616,0.00042629195377230644
1772639263716354300,6.950354248046875,-0.0004578884690999985,-0.0010928451083600521,-0.00032338546589016914
1772639263726400300,6.960400146484375,-0.0011955840745940804,-0.0001357048749923706,-0.000845631118863821
1772639263736445400,6.970445556640625,-0.00003215007018297911,-0.0013964548707008362,0.0005846568383276463
1772639263746490400,6.980490478515625,0.0006504181073978543,-0.000017736339941620827,-0.0005945907905697823
1772639263756535600,6.99053564453125,-0.0009477609419263899,0.0002608499489724636,0.0006390819326043129
1772639263766580500,7.00058056640625,-0.0008798502967692912,0.0006504703778773546,-0.0005673300474882126
1772639263776626700,7.010626708984375,-0.0014072447083890438,0.0005112148355692625,-0.00008855201303958893
1772639263786671400,7.02067138671875,0.0003720133099704981,-0.0002113007940351963,0.0025847291108220816
1772639263796716500,7.030716552734375,0.0010391059331595898,0.00040780799463391304,0.0012230239808559418
1772639263806761500,7.040761474609375,-0.00025945145171135664,0.007333891000598669,0.005076351575553417
1772639263816806400,7.050806396484375,-0.0010629775933921337,0.0024176384322345257,0.0029529498424381018
1772639263826852400,7.060852294921875,0.0014984506415203214,0.0009515681304037571,0.0003795372322201729
1772639263836897300,7.070897216796875,0.00023018009960651398,0.0008318163454532623,0.0003288295120000839
1772639263846942500,7.0809423828125,-0.001765592722222209,-0.004923274274915457,-0.0033729644492268562
1772639263856987400,7.0909873046875,0.002380094025284052,-0.0031366494949907064,-0.002573736011981964
1772639263867032300,7.1010322265625,0.000011744559742510319,-0.0048229629173874855,-0.002891717478632927
1772639263877078300,7.111078369140625,-0.0012965635396540165,0.0017053417395800352,-0.0002272580750286579
1772639263887123500,7.12112353515625,-0.00004487775731831789,-0.002521627815440297,-0.0004765298217535019
1772639263897168400,7.13116845703125,-0.0010093168821185827,0.0012906771153211594,0.0003264318220317364
