time,seconds_elapsed,z,y,x
1772642729644251600,0.060251708984375,-0.028765491235256194,0.21626988431364297,0.2506179249215871
1772642729654296600,0.070296630859375,0.12134031455814838,0.18513532585948705,0.28547048098556693
1772642729664341800,0.080341796875,0.23695699077248572,0.03430792779326439,0.37062268002703785
1772642729674386700,0.09038671875,0.33562545479536054,-0.16259645405411718,0.41921135436818
1772642729684431600,0.100431640625,0.3698006961196661,-0.2930238920398056,0.3706623544503003
1772642729694476500,0.1104765625,0.3042974195957184,-0.35743776589185,0.2963651652917266
1772642729704521700,0.120521728515625,0.15479484039247035,-0.374624609144777,0.2814120724402368
1772642729714566700,0.130566650390625,-0.04284779260158539,-0.4818509120240807,0.41189715889729556
1772642729724611800,0.14061181640625,-0.17277064206600187,-0.3455393844358623,0.31238720254898067
1772642729734656500,0.150656494140625,-0.226674666211009,-0.25114625964462756,0.1433348868863657
1772642729744701700,0.16070166015625,-0.24875439607203007,-0.2421889000765979,0.1316740405132994
1772642729754747600,0.17074755859375,-0.1863467474758625,-0.24280235579982398,0.20153576797507702
1772642729764792600,0.18079248046875,-0.04504793299436569,-0.26234073061496016,0.28929825911279766
1772642729774837800,0.190837646484375,0.2251104856342077,-0.2613957048498094,0.40102022944353516
1772642729784882400,0.20088232421875,0.5510106652289629,-0.27500980418249965,0.48107550720479336
1772642729794927600,0.210927734375,0.8369757247984408,-0.25359073018729683,0.4946268800321966
1772642729804972500,0.22097265625,1.0388672474086285,-0.24401041641533375,0.4925585127929225
1772642729815017700,0.231017822265625,1.25662269410491,-0.24004852704703805,0.4985020774977281
1772642729825062700,0.241062744140625,1.4360165537029503,-0.20252645951285958,0.49744971890058365
1772642729835107600,0.251107666015625,1.580124580386281,-0.12990370637252927,0.49204164931196714
1772642729845152500,0.261152587890625,1.7746704164087772,-0.05118000600859522,0.47170649809595194
1772642729855197700,0.27119775390625,1.9334698162674904,0.02490180154442787,0.4314201169475913
1772642729865243600,0.28124365234375,2.019264185670018,0.13318316643461584,0.3403715898765251
1772642729875288800,0.291288818359375,2.0284803423047064,0.28847002812772987,0.21693196495156733
1772642729885333500,0.30133349609375,1.988577370983362,0.46090661593377585,0.1236931612946093
1772642729895378700,0.311378662109375,1.981766521924734,0.6638787733875214,-0.05980435249628499
1772642729905423600,0.321423583984375,2.001567200937867,0.9127638101018964,-0.4153436460893601
1772642729915468800,0.33146875,2.108398513150215,1.1114905850708483,-0.6317759544230998
1772642729925513700,0.341513671875,2.2385674463301894,1.3089774429813026,-0.8625781488928943
1772642729935558700,0.35155859375,2.411946575683355,1.5783153390072284,-1.162951746108383
1772642729945603600,0.361603515625,2.5125205810666085,1.7892460542500017,-1.3450241772659122
1772642729955648800,0.371648681640625,2.5209739366352557,1.833718525443971,-1.3627556487895547
1772642729965693700,0.381693603515625,2.509820089936256,1.6938614342033862,-1.1678832842264324
1772642729975739000,0.39173876953125,2.5268039579629895,1.5162654178075492,-0.943544367486611
1772642729985784600,0.40178466796875,2.621460263735056,1.3790794454723596,-0.7968311998061836
1772642729995829500,0.41182958984375,2.641028887557983,1.1946627892762423,-0.6596192162469029
1772642730005874700,0.421874755859375,2.318570372849703,0.9656222707167267,-0.4896872316729277
1772642730015919600,0.431919677734375,1.5619260758727789,0.7835062926784158,-0.2729534744408913
1772642730025964800,0.44196484375,0.7899234662443398,0.6900362740814685,-0.11585925279855727
1772642730036009500,0.452009521484375,0.12271277195513247,0.5074304666996002,-0.009008687896467745
1772642730046054700,0.4620546875,-0.6244400585770606,0.24560762247890233,0.09683907490493729
1772642730056099600,0.472099609375,-1.8041835111409426,0.37290918352901936,0.17862293002447113
1772642730066144800,0.482144775390625,-3.3298610465466973,0.8305594280153512,0.34253662242330607
1772642730076189700,0.492189697265625,-4.574444927811622,0.8870455776080489,0.7103191105883568
1772642730086234600,0.502234619140625,-5.31476469745338,0.5809256187602877,0.8367096942733973
1772642730096279600,0.512279541015625,-5.762008114215731,-0.06155366211533546,0.7421431856766343
1772642730106325500,0.522325439453125,-5.869847142165899,-0.9562690436989069,0.43826574505865573
1772642730116370700,0.53237060546875,-5.681036634925007,-1.4581629190593957,-0.546561101941578
1772642730126415600,0.54241552734375,-5.51036559548676,-2.804536611238122,-0.4130577271092683
1772642730136460500,0.55246044921875,-5.280296610662341,-4.049061163531244,0.6217210819419473
1772642730146505500,0.56250537109375,-5.051778362411261,-4.476597424782812,1.264507602135837
1772642730156549600,0.572549560546875,-5.872174123808741,-4.26822472345978,1.2758432351425288
1772642730166594800,0.5825947265625,-7.255799980539083,-3.9251498294413087,1.0448268134001641
1772642730176639700,0.5926396484375,-7.90741972246468,-3.7707524639338255,0.8101561799991875
1772642730186685000,0.602684814453125,-7.754886397263407,-3.7874008163958788,0.6245088860295712
1772642730196729900,0.612729736328125,-7.148765254709124,-3.858347160756588,0.47118017266690726
1772642730206774800,0.62277490234375,-6.275063435059786,-3.8518554606497286,0.3148202018495649
1772642730216820700,0.63282080078125,-5.292373417425155,-3.830953542396426,0.2569813955388963
1772642730226865700,0.64286572265625,-4.370953568789362,-3.7758725834265348,0.2919995174281299
1772642730236910800,0.652910888671875,-3.4692589958429334,-3.349802595335245,0.10648206038326025
1772642730246955800,0.662955810546875,-2.594350138491392,-3.19857918368876,0.22285181998722253
1772642730257001000,0.6730009765625,-1.618217287415266,-3.0959952997878193,0.6787406077589839
1772642730267045600,0.683045654296875,-0.43303544318974013,-2.665141876812279,0.8613200385905802
1772642730277090800,0.6930908203125,0.6698533177524805,-2.0832254934489725,0.7997540284503251
1772642730287135700,0.7031357421875,1.5015058017015457,-1.4087392551988362,0.5283128765348345
1772642730297181000,0.713180908203125,2.0743542047291994,-0.809548788690567,0.3006274989113211
1772642730307225600,0.7232255859375,2.368869065979123,-0.2876014285996556,0.20633798062503336
1772642730317270800,0.733270751953125,2.547127784067392,0.16225976944565773,0.12512173279300332
1772642730327315700,0.743315673828125,2.808801282945275,0.575907352206856,-0.09937317822612822
1772642730337362000,0.75336181640625,3.0102170047372576,0.9020850335687398,-0.4095825252793729
1772642730347406800,0.76340673828125,3.235490571978688,1.2192258603855968,-0.5930608777120709
1772642730357452000,0.7734521484375,3.604537819382548,1.515592340851575,-0.5003263337828219
1772642730367496700,0.78349658203125,4.047309059166908,1.653022789467126,-0.1635942329198122
1772642730377542000,0.7935419921875,4.382604259094595,1.7455059889838098,0.24449651943184433
1772642730387586800,0.8035869140625,4.7869297406286,1.91552908590734,0.44568318170830606
1772642730397632000,0.813632080078125,5.185626276364922,2.309123622329533,0.5104030527696013
1772642730407676700,0.8236767578125,5.426349341672658,2.810910530184209,0.46595418164692814
1772642730417721900,0.833721923828125,5.402687311056256,3.186496531707048,0.3540422051694244
1772642730427766800,0.843766845703125,5.20230268587768,3.4013618099197744,0.20945085194855928
1772642730437812000,0.85381201171875,5.152554612368345,3.5548639801532027,0.167420659340173
1772642730447857000,0.86385693359375,5.392897153925896,3.8155157347679136,0.12112367613278328
1772642730457902800,0.87390283203125,5.74587881719172,4.217365766099095,0.061409285208582874
1772642730467947800,0.88394775390625,5.999418693974614,4.539647170674801,0.029440248691663146
1772642730477992700,0.89399267578125,6.152883162546157,4.659374497078359,-0.1332571084536612
1772642730488038000,0.904037841796875,6.380749668890237,4.655564875662327,-0.41469241563901305
1772642730498082800,0.914082763671875,6.48759091797471,4.542226373513043,-0.6987522261090576
1772642730508128000,0.9241279296875,6.458227460846304,4.416344031611085,-0.947785731383413
1772642730518172700,0.934172607421875,6.126333593794703,4.419735719875991,-1.088346440848708
1772642730528217900,0.9442177734375,5.569119397750496,4.484137757159769,-1.025912561832741
1772642730538262800,0.9542626953125,5.042749837303162,4.518944282124936,-0.814206697499007
1772642730548308000,0.964307861328125,4.557479764485359,4.467278684556484,-0.5231633848171681
1772642730558352600,0.9743525390625,4.239155573102831,4.207054799965023,-0.14627101340349763
1772642730568397800,0.984397705078125,4.15321858035922,3.7270199974521994,0.16781791502945123
1772642730578443800,0.99444384765625,4.312054805096984,3.1649940172120927,0.2533112373924814
1772642730588488700,1.00448876953125,4.333507927492261,2.633641699916124,0.18176172124054282
1772642730598534000,1.014533935546875,3.8257062893927096,2.002538968579471,0.0405497539254371
1772642730608578800,1.024578857421875,2.8500720354884863,1.365962482006848,-0.15714067286625505
1772642730618623700,1.034623779296875,1.9134324058890342,0.7892860451236366,-0.36535000032112
1772642730628668700,1.044668701171875,1.1824550496101378,0.19676906502991914,-0.3872019493082538
1772642730638713900,1.0547138671875,0.6110919167041778,-0.3389204046875238,-0.31812519821170715
1772642730648758800,1.0647587890625,0.24371523286104202,-0.6181634625256062,-0.3732836428645998
1772642730658803700,1.0748037109375,-0.05154430927634239,-0.6448652992293238,-0.48350028666630385
1772642730668848600,1.0848486328125,-0.9910779067516327,-0.4079734826475382,-0.5507576403159647
1772642730678893800,1.094893798828125,-3.1625194437921045,-0.1543146556600928,-0.2637704528908245
1772642730688938800,1.104938720703125,-5.807183472982048,0.24283581967800855,-0.14336384811936878
1772642730698985000,1.11498486328125,-7.179428688520193,0.7171127893164754,-0.6736265526808798
1772642730709030000,1.12502978515625,-7.488656550255417,0.11220891359746456,-0.8728514864303171
1772642730719074800,1.13507470703125,-7.444217689070105,-1.3796028848245738,-0.7494019246332347
1772642730729119700,1.14511962890625,-7.117732987585663,-2.69816064157784,-0.44978652537390584
1772642730739165000,1.1551650390625,-7.15759504237473,-3.771913032145798,0.23441782768368719
1772642730749209900,1.1652099609375,-7.842756403896212,-4.594537867769598,0.5719665421592072
1772642730759254800,1.1752548828125,-9.12351751395762,-4.976375038641691,0.3799358307627961
1772642730769299700,1.1852998046875,-10.902587626630067,-4.844468614144623,-0.21874211964607237
1772642730779345000,1.195344970703125,-13.020441365867853,-4.729658578138054,-0.6769016288287937
1772642730789389800,1.205389892578125,-14.425380644261836,-4.462406986866891,-0.8828468107439577
1772642730799435000,1.21543505859375,-14.254177689903974,-3.8597517668575048,-0.8751004344008863
1772642730809479700,1.225479736328125,-12.97281218420863,-3.3597280692830678,-0.6489997686855494
1772642730819525600,1.235525634765625,-11.539432408750056,-3.250030553984642,-0.23507256526537237
1772642730829570800,1.24557080078125,-10.195436551618576,-3.296632730683684,0.06639284577481448
1772642730839615700,1.25561572265625,-9.008943624794483,-3.4622014785468576,0.24349625634811817
1772642730849661000,1.265660888671875,-7.91318369281888,-3.6189836933642625,0.331728082030639
1772642730859705900,1.275705810546875,-6.686929248970746,-3.5607094913110133,0.3487704022463411
1772642730869750800,1.285750732421875,-5.294746576297283,-3.3956977928087113,0.4197386661779135
1772642730879795700,1.295795654296875,-3.817515968674421,-3.2446263568535447,0.635808059483394
1772642730889841000,1.3058408203125,-2.3496359577208756,-3.213095200297236,1.119715977102518
1772642730899885800,1.3158857421875,-0.8014531605184078,-3.2132159040674564,1.7051763166829943
1772642730909930800,1.3259306640625,0.7263140406429767,-3.3248049322009083,2.185611078298837
1772642730919975700,1.3359755859375,1.966106011456251,-3.493967905163765,2.4010671620115636
1772642730930020900,1.346020751953125,2.727918650981784,-3.515661266055703,2.3982585343316196
1772642730940066800,1.35606689453125,3.2180969541072844,-3.1798619159981607,2.25267575892061
1772642730950111700,1.36611181640625,3.634968028959632,-2.561501761856675,2.0518845987677574
1772642730960157000,1.376156982421875,4.189236234679818,-1.915861094340682,1.6628316512979566
1772642730970201900,1.386201904296875,4.652923421242833,-1.3927990510061383,0.9911609088599681
1772642730980246800,1.396246826171875,4.92124819470346,-0.8648620951116085,0.22702859421521424
1772642730990291700,1.406291748046875,5.104081381100416,-0.1415957516014576,-0.4984862588740885
1772642731000337000,1.4163369140625,5.029620891138911,0.6667696725234389,-1.0227987406611443
1772642731010381800,1.4263818359375,4.593927042394876,1.417903973907232,-1.1720799321986735
1772642731020426800,1.4364267578125,3.9226755482822653,2.013842745143175,-0.9609832127392292
1772642731030471700,1.4464716796875,3.300061536088586,2.476624215038121,-0.5278633061364293
1772642731040516900,1.456516845703125,3.4484026702970265,2.9201150012686847,-0.28147578532621265
1772642731050561800,1.466561767578125,3.7928462223201986,3.078476009710133,0.22131123948171733
1772642731060606700,1.476606689453125,4.133309764796495,2.8296871268466113,1.2273321560822426
1772642731070652700,1.486652587890625,4.488125657752156,2.797274219019711,2.0072490459665655
1772642731080697900,1.49669775390625,5.017829915580153,2.77566941319406,2.2496502736195922
1772642731090742800,1.50674267578125,5.522249510025977,2.727180984356999,2.285239327264577
1772642731100788000,1.5167880859375,5.973367137873172,2.5943568604931233,2.148912602107227
1772642731110833000,1.5268330078125,6.265094998753071,2.321292783550918,1.8657465256065129
1772642731120877800,1.5368779296875,6.628888563412428,2.097471753205359,1.3227230597391724
1772642731130922800,1.5469228515625,6.849973446792363,1.8717586255028842,0.8302594221554697
1772642731140968000,1.556968017578125,6.771178727018833,1.6237696608453989,0.31430750308707356
1772642731151012900,1.567012939453125,6.626922231775522,1.5565516893580555,-0.2174097019985318
1772642731161058300,1.577058349609375,6.4226207254141565,1.6302859108716248,-0.4837545536883175
1772642731171103500,1.587103515625,6.117571026146411,1.780879207921028,-0.48420156680345533
1772642731181148400,1.5971484375,5.662984260883927,2.0109607599660753,-0.2033233089789748
1772642731191194600,1.607194580078125,5.228865114110708,2.240525302399695,0.22656901387944817
1772642731201239600,1.617239501953125,4.996019650310278,2.4401208230271934,0.6729454385489225
1772642731211284700,1.62728466796875,4.739063243082166,2.6750799179807303,1.0567204456157981
1772642731221329400,1.637329345703125,4.53267207096517,2.9779826683476567,1.3219042907021938
1772642731231374600,1.64737451171875,4.387513658446073,3.4154739219024774,1.333787182328105
1772642731241419500,1.65741943359375,4.191080401241779,3.861459447558224,1.1180568117186427
1772642731251464700,1.667464599609375,3.9950434498786924,4.1776627012640235,0.7951550832875073
1772642731261509400,1.67750927734375,3.7354648774534462,4.046168364699184,0.763942418095842
1772642731271554600,1.687554443359375,3.3160242443740366,3.399721056975424,1.16918837547563
1772642731281599500,1.697599609375,3.31262349601984,2.533547587004304,1.6423659325048325
1772642731291644700,1.707644775390625,3.991715182238817,1.9797066667854786,1.586899042957276
1772642731301689600,1.717689697265625,4.9961388927757735,1.6001754347681998,1.1938029575765132
1772642731311734500,1.727734619140625,5.917876136797666,1.437030114659667,0.6391343543618917
1772642731321780500,1.737780517578125,6.074943598297238,1.307924719057977,0.20368406858276575
1772642731331825400,1.747825439453125,4.185265577483177,0.9221326730802655,0.28417488821707665
1772642731341870600,1.75787060546875,1.2364198640316724,0.753128397810459,0.5159114409275353
1772642731351915500,1.76791552734375,-1.0342202983856201,0.9885273454859852,0.6689746352218091
1772642731361960400,1.77796044921875,-2.701188464966416,1.359830262862146,0.8120504693131894
1772642731372005400,1.78800537109375,-4.254723144590854,1.5035747169300913,0.9419517645329236
1772642731382050600,1.798050537109375,-5.457334847044945,1.2119675598204136,1.2219310276910662
1772642731392095500,1.808095458984375,-5.661031373250484,0.700065500664711,1.2349823785744607
1772642731402140700,1.818140625,-5.331468579494953,-0.04106529309898615,0.9433835509017109
1772642731412185300,1.828185302734375,-5.113941096335649,-1.4082994024768472,0.8099331848982722
1772642731422230500,1.83823046875,-4.939105338433385,-2.879343430419266,0.5572885764546692
1772642731432275500,1.848275390625,-5.252364063119888,-3.7915877466917034,-0.02802793420832604
1772642731442321700,1.85832177734375,-6.355740315318108,-4.048530417655408,-0.7410266027368605
1772642731452366600,1.86836669921875,-7.808868162819743,-3.988777667482197,-0.9482901007089763
1772642731462411500,1.87841162109375,-9.443442710795997,-3.9773748144581913,-0.47202155539449303
1772642731472456400,1.88845654296875,-11.37584577461481,-3.952915495984256,0.015589710254594684
1772642731482501600,1.898501708984375,-13.081793952453136,-3.99159769333899,0.27780637609846887
1772642731492546600,1.908546630859375,-13.956382491809128,-4.045771182075143,-0.022847499363124368
1772642731502591500,1.918591552734375,-14.017003256988525,-4.007426546111703,-0.7955706052858382
1772642731512636400,1.928636474609375,-13.733089284729957,-3.8429572839230297,-1.744459694801271
1772642731522681600,1.938681640625,-12.970938207030295,-3.3649262224480507,-2.4367814494714137
1772642731532726500,1.9487265625,-11.560131497907637,-2.740935661204159,-2.5125074293240903
1772642731542771500,1.958771484375,-9.615724692562221,-2.2051129204958677,-1.8165294902339577
1772642731552816600,1.968816650390625,-7.399749601790308,-1.6071104947283863,-0.8216204078216105
1772642731562861600,1.978861572265625,-5.3468707312881945,-1.3516376040562987,0.47755869472287593
1772642731572907500,1.988907470703125,-3.2854268615365028,-1.2800699129268527,1.6358073046416044
1772642731582952400,1.998952392578125,-1.2819225550562143,-1.2419924034669994,2.4433920997828245
1772642731592997600,2.00899755859375,0.4046609970986843,-1.3653119091436265,2.8666046526163815
1772642731603042600,2.01904248046875,1.5419710830807685,-1.5706374978557227,2.951036209233105
1772642731613087500,2.02908740234375,2.2237533235579727,-1.414834941725433,2.5576070925056933
1772642731623132400,2.03913232421875,2.7560008361279964,-0.8132666401699185,1.833027766700834
1772642731633177600,2.049177490234375,3.088009269469976,-0.04064692155644297,1.2954897465072572
1772642731643222500,2.059222412109375,2.9793536644399166,0.41801724921278655,1.2706295921474695
1772642731653267700,2.069267822265625,2.4907395418912173,0.6294359671682119,1.2762377874180675
1772642731663312400,2.0793125,1.7798825980991124,0.7480247910611331,1.0167553688436746
1772642731673357600,2.089357666015625,0.9586796119719743,0.6998842988789081,0.3822538619142026
1772642731683402500,2.099402587890625,0.3281102568596601,0.3759081461492926,-0.39503815935924647
1772642731693447700,2.10944775390625,0.15276362682580946,-0.07811619945745915,-1.023009022410959
1772642731703493600,2.11949365234375,0.5862561661332846,-0.48835130689404904,-1.3070853456243872
1772642731713538300,2.129538330078125,1.3511924906373023,-0.8782750458490103,-1.0948228703211993
1772642731723583500,2.13958349609375,2.465416300064325,-0.925745529815182,-0.6283523366499691
1772642731733628400,2.14962841796875,3.256960645508766,-0.793717086373642,-0.6371641502674669
1772642731743673600,2.159673583984375,3.693057229834795,-0.8579992236047983,-0.9206082399919628
1772642731753718500,2.169718505859375,4.358794344440103,-0.8566670251529663,-0.8238350151311605
1772642731763763500,2.179763427734375,5.366361029177904,-0.5705670871574431,-0.7170125438123941
1772642731773808400,2.189808349609375,5.812652259781957,-0.4429238365301862,-0.9352667338110506
1772642731783853600,2.199853515625,5.928641276440024,-0.6627599254254252,-1.260333092930168
1772642731793898500,2.2098984375,6.334533861160278,-0.8294015632171183,-1.6374971574246882
1772642731803943700,2.219943603515625,6.201324829632044,-0.9883375220023095,-1.7870567275121807
1772642731813988400,2.22998828125,5.994144552963972,-0.9279254311375319,-1.7300249267354606
1772642731824034600,2.24003466796875,5.896240643572807,-0.7046054821819067,-1.5684339964620768
1772642731834079500,2.25007958984375,5.79466593671441,-0.49265134217552836,-1.2441104185342788
1772642731844124700,2.260124755859375,5.813865142703056,-0.2975857017963193,-0.850460498663038
1772642731854169600,2.270169677734375,5.939599892827868,-0.06402198845762759,-0.5690912059186026
1772642731864214500,2.280214599609375,6.005210136857628,0.26248174652084705,-0.4598365755494684
1772642731874259500,2.290259521484375,6.039238663187622,0.6900836934197694,-0.4924778853047639
1772642731884304600,2.3003046875,6.305692966601252,1.0601496163468807,-0.5398894786905497
1772642731894349600,2.310349609375,6.68830229088962,1.4690841260463,-0.7659698322702199
1772642731904394800,2.320394775390625,7.038762326723337,1.8589787850372492,-0.9493677398778497
1772642731914439400,2.330439453125,7.05968119611144,1.9085947565995156,-0.7037265804555267
1772642731924484600,2.340484619140625,6.550877102971077,1.3961287799507378,-0.10373268860988319
1772642731934529500,2.350529541015625,6.628916035941243,1.005441363146901,-0.025981924931332466
1772642731944574700,2.36057470703125,7.519948929619789,0.9928659592121839,-0.5009915196932851
1772642731954619400,2.370619384765625,8.346961478808522,0.885474967290461,-0.744991560845077
1772642731964665300,2.380665283203125,8.45830530000925,0.2124769217714667,-0.49422903982102867
1772642731974710500,2.39071044921875,7.475833309039473,-0.5780187914028764,-0.08770371015518903
1772642731984755500,2.40075537109375,4.968945180901884,-0.9328776467174291,0.12230711376368998
1772642731994800600,2.410800537109375,2.177568495488167,-0.8887595419190824,0.06320427886657416
1772642732004845600,2.420845458984375,0.28569910210967064,-0.5739531493991613,-0.3210148917712271
1772642732014890500,2.430890380859375,-0.8268722639352083,-0.21702464820370077,-0.9114638334192335
1772642732024935400,2.440935302734375,-0.7338496968448162,0.13327829737216235,-1.7880027761906385
1772642732034980600,2.450980712890625,-0.5183990199595689,0.4308126525737345,-2.1656363578930495
1772642732045025500,2.461025634765625,-1.473196237540245,0.5691726371243596,-1.8968683707095682
1772642732055070700,2.47107080078125,-3.5957658993840216,0.40234804398119445,-0.9459511363673955
1772642732065115400,2.481115478515625,-5.465422876432537,0.2410290625169873,0.3857735604729503
1772642732075160600,2.49116064453125,-6.139964644262195,0.32458646664768454,1.531914091707766
1772642732085205500,2.50120556640625,-6.173242644485831,-0.3852595465362072,2.704767784757912
1772642732095251500,2.51125146484375,-6.30111031498611,-0.796591545831412,3.0772938141882418
1772642732105296600,2.521296630859375,-6.995411845296621,-0.3448373736463487,2.780403455978632
1772642732115341300,2.53134130859375,-8.093219357451796,0.2925247103460133,2.7743396258950233
1772642732125386500,2.541386474609375,-9.372211704275012,0.579370644403249,3.3468849543228743
1772642732135431400,2.551431396484375,-10.867849490725993,0.3778780579827726,3.97904683932364
1772642732145476600,2.5614765625,-12.142876441049575,-0.03607318390011787,3.965360551537573
1772642732155521500,2.571521484375,-12.205825941437482,-0.5601476191475987,3.302695976245403
1772642732165566000,2.58156591796875,-11.466956370604038,-0.8245446977704763,2.690516556565463
1772642732175611100,2.591611083984375,-10.175895984846353,-0.8951208936445415,1.887550361135602
1772642732185655800,2.60165576171875,-9.012097704911232,-0.21839812851399182,0.12574782880209387
1772642732195701000,2.611700927734375,-8.968487695765495,-0.6914793124966323,-0.486385194452852
1772642732205746000,2.621745849609375,-8.415105040708184,-1.431812818402797,-0.27040954384543
1772642732215791000,2.631791015625,-7.678786323401331,-1.4250230121321976,0.2928154551872052
1772642732225837000,2.641837158203125,-7.253649524506926,-1.1090372005693614,1.0785621289372445
1772642732235882000,2.651882080078125,-5.449703913775086,-1.2297796953648328,1.7931613279975949
1772642732245927000,2.661927001953125,-3.0226907018631697,-1.8427502654224632,2.2143903057985006
1772642732255971800,2.671971923828125,-0.7942477591842413,-1.9038491695076225,1.904787765531987
1772642732266017000,2.68201708984375,0.6499830806344747,-1.6900873224921524,1.652686250989139
1772642732276062000,2.69206201171875,1.3677782992571592,-1.7952943945035338,1.6648098195031285
1772642732286107000,2.70210693359375,0.9313573052823543,-1.55533120765239,1.5573574527829885
1772642732296151800,2.71215185546875,0.7469494169145822,-1.2826663591608405,0.5091765066493302
1772642732306197000,2.722197021484375,0.8724474356740712,-0.9229155670862644,-0.15533599806446582
1772642732316242000,2.732241943359375,0.43103462476134297,-0.7424964560937136,0.27049144997522234
1772642732326287000,2.742287109375,-0.24871990928053855,-0.8307922138579189,0.7994095258615911
1772642732336331800,2.752331787109375,-0.36095571088492867,-0.41217502599060535,0.6695543348059058
1772642732346377700,2.762377685546875,0.2616536251336336,0.3633428982824087,0.03828643950279802
1772642732356423000,2.7724228515625,1.358578509235382,0.9162392311275005,-0.6335631301008164
1772642732366467800,2.7824677734375,2.5363795955598354,0.8254789098806679,-1.2621473027452825
1772642732376513000,2.792512939453125,3.2379958327978846,0.8546051972523331,-1.7007704829394816
1772642732386557700,2.8025576171875,3.141425217837095,0.7774176934797317,-1.5005217591002582
1772642732396603000,2.812602783203125,3.3691847566753625,1.232021775203198,-0.6772119368869811
1772642732406647800,2.822647705078125,3.5193916847556825,1.3195555356189608,0.008747077818214892
1772642732416693000,2.83269287109375,4.051712847083807,1.0984751092184335,0.45729025206752116
1772642732426738000,2.842738037109375,4.647151267582178,0.9019572424706072,0.5657637054637075
1772642732436782800,2.852782958984375,5.426040129593014,0.9496259524226188,0.37967305164076387
1772642732446827800,2.862827880859375,4.751041265645623,0.28434779709856955,0.22728761047758161
1772642732456873000,2.872873046875,4.521960122814774,-0.1993453269924037,0.3694336894381791
1772642732466918000,2.88291796875,5.01423627500236,-0.02087608055914752,-0.15162943516410887
1772642732476963000,2.892963134765625,5.808405123731494,-0.2999557188632898,-0.4244031508576125
1772642732487009000,2.903009033203125,6.513683975130319,-0.48052857737913723,-0.3008910817509517
1772642732497054000,2.913053955078125,6.74423402146995,-0.4854368076868355,-0.14593480371907352
1772642732507099000,2.923098876953125,6.538807310470938,-0.3935121553683653,-0.04857124828230589
1772642732517144000,2.93314404296875,6.489435084536671,-0.21305431980062275,-0.13488916663490236
1772642732527189000,2.94318896484375,6.550295503690839,0.15375965212583542,-0.22354188461061567
1772642732537234000,2.95323388671875,6.320488969194889,0.4638342303508892,-0.12932886562664062
1772642732547278800,2.96327880859375,5.86229161221981,0.741112746650353,0.027735928991809485
1772642732557324000,2.973323974609375,5.918568795236945,1.0194280951842665,-0.01157594456858933
1772642732567369000,2.983368896484375,5.662359406983852,1.3457479614958165,0.10941650639995933
1772642732577414100,2.9934140625,5.171329455465078,1.7470695850387215,0.1332791193560697
1772642732587458800,3.003458740234375,5.1015007169574496,1.9121213232904672,-0.06260748201720416
1772642732597504000,3.01350390625,5.240605236265063,1.747957035397738,-0.2014421166085638
1772642732607549000,3.023548828125,5.136400180903077,1.112964018624276,-0.17700385918896644
1772642732617595000,3.033594970703125,5.719549028670787,0.745869074331969,-0.3073421575864777
1772642732627640000,3.04364013671875,6.376732249942422,0.5075558466449379,-0.3101336149359122
1772642732637684700,3.053684814453125,6.528523232343793,0.017616466841846704,0.17071292408490552
1772642732647730000,3.06372998046875,6.710710522052645,-0.34235914696455,0.3541218462768942
1772642732657774800,3.07377490234375,6.780002084943652,-0.5694255889721215,0.11424975350899622
1772642732667820000,3.083820068359375,6.667986648091674,-1.1262624761365354,-0.031217286567855624
1772642732677865000,3.093864990234375,6.430400711765885,-1.6099992019072173,-0.2853831862946041
1772642732687910000,3.103909912109375,5.421116117194295,-1.8994272614121437,-0.5535274338228627
1772642732697954800,3.113954833984375,4.459999633464217,-1.972454503700137,-0.8218119118057191
1772642732708000000,3.124,3.58243412412405,-1.7645571648038922,-1.2441074959248304
1772642732718045000,3.134044921875,2.1461925294935704,-1.3231823478139937,-1.4547224232167004
1772642732728090000,3.144090087890625,0.8752969798862934,-1.020875225252658,-1.3019416991256176
1772642732738134800,3.154134765625,-0.33277649510502816,-1.0773591828882694,-1.3194390696324407
1772642732748181000,3.164180908203125,-2.3401526745826002,-1.266098378458619,-1.7686342049844561
1772642732758226000,3.174225830078125,-4.910525725159049,-1.2287024215221405,-2.2222204149022695
1772642732768270800,3.184270751953125,-7.459331087049842,-0.9612859950780868,-2.0364099662601944
1772642732778316000,3.19431591796875,-9.576671616068483,-0.5956878652147949,-1.6464765826940535
1772642732788361000,3.20436083984375,-11.201258438515662,-0.4317719260599464,-1.4423599313803017
1772642732798406000,3.214406005859375,-12.487085015273093,-0.7403681388281286,-1.173842850217968
1772642732808450800,3.224450927734375,-12.941452584826946,-0.9574351648688316,-0.39484212533049284
1772642732818496000,3.23449609375,-12.471748329931497,-0.8851544300992041,-0.0407473679899238
1772642732828541000,3.244541015625,-11.755362978106737,-0.1616289972614497,0.0000961812503170222
1772642732838585900,3.2545859375,-12.278335881853103,0.7516164588775486,0.37355343624930826
1772642732848630800,3.264630859375,-13.79254217517376,2.0554647953420875,1.0316931179955602
1772642732858676000,3.274676025390625,-14.944155511796474,3.246874720302224,1.638034625302255
1772642732868721000,3.284720947265625,-14.879411529207228,4.077094541099667,2.061904619131237
1772642732878767000,3.29476708984375,-13.842068714886903,4.386840873751044,2.5497718688353896
1772642732888811800,3.304811767578125,-11.830388700735568,3.6381352608188986,2.233389897561818
1772642732898857000,3.31485693359375,-9.531869766789674,2.1679991415016353,1.8650905459158122
1772642732908902000,3.32490185546875,-7.2690727190881965,1.0170409808520227,1.2578585195101797
1772642732918947000,3.334947021484375,-5.7451662850081915,-0.2428773207321763,0.6533677546367049
1772642732928992000,3.344991943359375,-4.86671405596137,-1.1200316189229487,0.3959422320595011
1772642732939037000,3.355036865234375,-3.991642117002606,-1.647368416967243,0.5916243421029299
1772642732949081900,3.365081787109375,-2.798206239172816,-1.8768547795981168,0.9398578609935939
1772642732959127000,3.375126953125,-1.0335860921353102,-1.7843354858547449,1.105927982507646
1772642732969172000,3.385171875,0.31323826642036434,-1.4357222469314932,0.5558117088351399
1772642732979217200,3.395217041015625,-0.8092799086213112,-0.9682853524461388,0.25031163545139135
1772642732989261800,3.40526171875,-1.8131898244172333,-0.6562376840498299,0.6273807151388376
1772642732999307000,3.41530712890625,-1.749012243539095,-0.24426256454549727,0.8506096978753804
1772642733009352000,3.42535205078125,-1.2704530665367841,0.11652608267683535,0.8318628387641162
1772642733019398000,3.43539794921875,-0.5533411540031433,0.36143374019283797,0.6495844367057084
1772642733029443000,3.445443115234375,0.02413841595649719,0.4103432439861819,0.441732252125442
1772642733039487700,3.45548779296875,0.8436831134825944,0.41721934030074626,0.5382742620462552
1772642733049533000,3.465532958984375,2.173904712283611,0.3583403042221442,0.6595726006262004
1772642733059577900,3.475577880859375,3.6232144628018137,0.22850224696435034,0.5180367990510538
1772642733069623000,3.485623046875,4.551619348019361,0.38898430268038064,0.2196411325787194
1772642733079668000,3.49566796875,4.68179821807146,0.6114480731980875,0.2965986817866564
1772642733089713000,3.505712890625,4.667775537937879,0.8039004075400531,0.4958685506563633
1772642733099757800,3.5157578125,4.83562392117083,1.039168276181817,0.5939994737364351
1772642733109803000,3.525802978515625,5.2292941531777375,0.9653427231229841,0.5566451274519786
1772642733119848000,3.535847900390625,5.844449081537127,0.7179562544032931,0.22239638610361143
1772642733129892900,3.545892822265625,6.567544744655489,0.4620048960318789,-0.3564402062218636
1772642733139937800,3.555937744140625,7.216365211251378,0.10788273922773077,-0.8409367373839021
1772642733149983000,3.56598291015625,7.88030375200212,-0.0983966065452434,-1.173055060841143
1772642733160028700,3.576028564453125,8.474957159602642,-0.36857860697880385,-1.4583343301035463
1772642733170073900,3.586073974609375,8.939225360924006,-0.5224383950108662,-1.5705506963551044
1772642733180118800,3.596118896484375,9.01776815176308,-0.5258207674581558,-1.4430729019552468
1772642733190163700,3.606163818359375,8.651657542333007,-0.36606958329994227,-1.1205350384004413
1772642733200208600,3.616208740234375,8.050697728064655,-0.15797726982086896,-0.6898701967995613
1772642733210253800,3.62625390625,7.589564317637682,0.12438596586436032,-0.5179419603744522
1772642733220298800,3.636298828125,7.311825234621763,0.07322060943562538,-0.6619537236090749
1772642733230343700,3.64634375,7.387319743806123,0.3619718656575307,-1.0333713534060864
1772642733240388600,3.656388671875,7.307825935852527,0.5822529218412935,-1.1763740491960197
1772642733250433800,3.666433837890625,7.031462232843041,0.9866996186021715,-0.9553361467629671
1772642733260478700,3.676478759765625,6.670860742223263,1.3189444179832934,-0.5786773283768445
1772642733270524000,3.68652392578125,6.428895567899942,1.517102307023108,-0.2396701221887022
1772642733280568600,3.696568603515625,6.4429661788284776,1.5587586978830397,-0.10843111209180205
1772642733290614500,3.706614501953125,6.5274605715483425,1.383730193887651,-0.02872954313904047
1772642733300659700,3.71665966796875,6.4734799750357865,0.4335521605402231,0.1912525300981477
1772642733310704600,3.72670458984375,6.766358759516478,-0.20664492768235504,-0.4005340533617884
1772642733320749800,3.736749755859375,6.85632018547058,-0.8464123923160135,-0.8878466648578643
1772642733330794500,3.74679443359375,6.330197293260693,-1.3366848034657537,-0.8830540237538516
1772642733340839700,3.756839599609375,5.5800920426636935,-1.3521017144367098,-0.9324313642546534
1772642733350884600,3.766884521484375,4.366473793026804,-1.138970420409739,-0.8109457229416817
1772642733360929800,3.7769296875,2.6619027487605806,-1.1081909590035677,-0.42917610088046637
1772642733370974700,3.786974609375,0.6385498324722051,-1.0635828056659549,-0.24068565590679644
1772642733381019600,3.79701953125,-1.084793716803193,-0.9155241416607052,-0.38846754879727957
1772642733391064600,3.807064697265625,-2.2304098588377235,-0.8586085876747965,-0.5389904474915936
1772642733401109800,3.81710986328125,-2.4264602542042732,-0.8623625333808362,-0.5417189591400325
1772642733411154700,3.82715478515625,-2.1408657815128564,-0.7091391800887882,-0.39480292583126575
1772642733421200600,3.83720068359375,-2.1430963170439004,-0.11214154744967818,0.01796659545376897
1772642733431245800,3.847245849609375,-3.007902882575989,0.3984451182585209,0.6193180393882095
1772642733441290500,3.85729052734375,-4.448749925175309,0.3589972702935338,1.5233948312960564
1772642733451335700,3.867335693359375,-5.536238872411847,0.07009359998889267,1.9585731317333877
1772642733461380600,3.877380615234375,-5.538697371479868,-0.06358516794294118,1.5569383505880832
1772642733471425800,3.88742578125,-5.667340118005871,0.05638016846757382,1.0144804096490143
1772642733481470500,3.897470458984375,-6.653387629374861,0.1457469529967755,0.8406300825875253
1772642733491515600,3.907515625,-8.646952725642919,-0.19164394056852907,1.1308194818537682
1772642733501560600,3.917560546875,-10.382139857447147,-0.5856254304816946,1.4172177452087402
1772642733511605800,3.927605712890625,-11.379513064950704,-0.5856530491409823,1.2895637174591421
1772642733521650700,3.937650634765625,-11.894695460951327,-0.5690031623089685,1.249736733983457
1772642733531695600,3.947695556640625,-11.61020398106575,-0.23626288929479194,1.2408357807777821
1772642733541740500,3.957740478515625,-11.111424438333511,0.4359402247205376,1.281229312095046
1772642733551785700,3.96778564453125,-10.688957735431194,1.327354226671159,1.5061867991246283
1772642733561831700,3.977831787109375,-10.262934801352024,1.9978473036319015,1.7131413042128085
1772642733571876900,3.987876953125,-9.542407527416945,2.089056683820486,1.9989765999227762
1772642733581921500,3.997921630859375,-8.72977713932395,1.4453250647962093,2.0607669934034347
1772642733591966700,4.007966796875,-7.770596592092514,0.3741302862891927,1.7625426101110875
1772642733602011600,4.01801171875,-6.703395230603218,-0.7053659451603889,1.1483695323958991
1772642733612056800,4.028056884765625,-5.828179499259591,-1.5196407394595444,0.4992867616020143
1772642733622101800,4.038101806640625,-5.1038388045161955,-2.071771348629147,-0.03584173149811104
1772642733632146700,4.048146728515625,-4.470482449033856,-2.3380057256817817,-0.46391266588196156
1772642733642191600,4.058191650390625,-3.9681268013805147,-2.334701277308911,-0.6615782413601875
1772642733652236800,4.06823681640625,-3.547326570385694,-2.28394212706089,-0.49427821272499856
1772642733662281700,4.07828173828125,-2.79256735650301,-1.9808676733888684,-0.39448308275975286
1772642733672327000,4.088326904296875,-1.8590537499696016,-1.5875941856145859,-0.26954098084997385
1772642733682371600,4.09837158203125,-0.9722416888564824,-1.2396478861674665,-0.1127070175790228
1772642733692416800,4.108416748046875,-0.24417583611011504,-0.9778491534747182,-0.09839680747464298
1772642733702462700,4.118462646484375,0.602848404493928,-0.8062112417656928,-0.1260524743044749
1772642733712507600,4.128507568359375,1.5417191541463136,-0.6219122205998748,-0.06524279895685613
1772642733722552800,4.138552734375,2.2342723794847728,-0.4829814869565889,0.12991546987555921
1772642733732597500,4.148597412109375,2.7473785537332294,-0.3062560793828219,0.34600239883773026
1772642733742642700,4.158642578125,3.0637732383579013,-0.18644911187179386,0.30326573846042154
1772642733752687600,4.1686875,3.548168281906843,-0.10899228963851929,-0.38664939345940946
1772642733762732800,4.17873291015625,3.9202655645310878,0.14587492675799876,-1.0821194560926406
1772642733772777700,4.18877783203125,3.7832577252417803,0.6359343892768025,-1.0266326197355986
1772642733782822700,4.19882275390625,3.6068443427592514,1.2174565856907515,-0.524753795813769
1772642733792867600,4.20886767578125,3.1754981678307055,1.8134867615371941,0.14905710045807063
1772642733802912800,4.218912841796875,2.657150585797429,2.098069719098508,1.0863903383448719
1772642733812957700,4.228957763671875,2.5909230866521598,2.022483147716522,1.6182503129020331
1772642733823002600,4.239002685546875,3.1911510795146225,1.6441285582631826,1.763439705081284
1772642733833047600,4.249047607421875,4.129762301447987,0.8651726223655044,1.7820787929691373
1772642733843093800,4.25909375,5.354621491545439,-0.05876406792942434,1.5848318812943993
1772642733853138700,4.269138671875,6.82791651328504,-0.7689787317626178,1.2119572576221078
1772642733863183600,4.27918359375,8.174367362353205,-1.0421402777299285,0.6375266999695449
1772642733873228800,4.289228759765625,8.505010937082767,-1.1134413538124412,0.1938490128647536
1772642733883273700,4.299273681640625,7.475459215030074,-0.9076130762752145,0.1974439686167985
1772642733893318700,4.309318603515625,5.852307978343963,-0.6304604148451238,0.5511679016172886
1772642733903363600,4.319363525390625,4.9136757136225695,-0.27867563321366906,0.8974534282453358
1772642733913408800,4.32940869140625,4.839581718885898,-0.11713677105423993,1.0953826961610467
1772642733923453700,4.33945361328125,5.2776510645896195,0.07548453577961772,0.828505929551646
1772642733933498600,4.34949853515625,5.898325048631429,0.1808103753324598,0.36374497627727687
1772642733943543600,4.35954345703125,6.4620613399207585,0.31763514967244116,0.12918942062333225
1772642733953588700,4.369588623046875,6.828144476822018,0.7763402735065669,0.004608882034942507
1772642733963633700,4.379633544921875,6.820235311132669,1.3219523676276206,0.26360212885290385
1772642733973678600,4.3896787109375,6.46366234537661,1.8580092093527316,0.6936844213254749
1772642733983724500,4.399724609375,6.041501347422599,2.376940728753805,0.9986408893518149
1772642733993769700,4.409769775390625,5.6749897559762,2.6358985389322043,1.1527862528596073
1772642734003814700,4.419814697265625,5.366090395542979,2.356499998271465,1.1218950747072696
1772642734013859800,4.42985986328125,5.282416671556234,1.0092390018641948,1.1718589098591357
1772642734023904800,4.43990478515625,6.407028019484877,-0.031258184833824636,0.45659741096515205
1772642734033949700,4.44994970703125,8.280379759398102,-0.2973826717711985,-0.66960708790645
1772642734043994600,4.45999462890625,8.774607630175352,-0.7952166042163967,-0.854083219204843
1772642734054039800,4.470039794921875,6.527886103484034,-1.3008803535044193,-0.22115203033201394
1772642734064084700,4.480084716796875,3.6478958995938298,-1.5651982294112443,0.3204747204799205
1772642734074129700,4.490129638671875,1.597651469248533,-0.6736768215633928,-0.23635920754242687
1772642734084174600,4.500174560546875,-0.6459861199527979,0.8188374260395764,-0.46989181335680186
1772642734094219800,4.5102197265625,-3.646786477047205,1.6248963267877696,0.476658677143231
1772642734104264700,4.5202646484375,-6.232281108909845,1.9166396774977446,1.3058188328199087
1772642734114310000,4.530309814453125,-7.173099485498667,1.7326060292698442,1.176149958116561
1772642734124355800,4.54035595703125,-6.515407145661115,1.5457549855336545,0.25905058476207776
1772642734134400500,4.550400390625,-5.345025395682454,0.9005800358332693,-0.22399222219400106
1772642734144445700,4.56044580078125,-3.861353356835246,-0.07538812620043754,-0.4241139951853081
1772642734154490600,4.57049072265625,-2.914069583624601,-1.4203608655400572,-0.3807259216945618
1772642734164536600,4.58053662109375,-2.8409266060024496,-1.8302315601110457,-0.8617232856292277
1772642734174581500,4.59058154296875,-4.074765221369266,-1.5050418668732046,-1.705746663916856
1772642734184626700,4.600626708984375,-6.059007778018713,-1.2029757134608923,-1.8522613133504986
1772642734194671600,4.610671630859375,-7.544473130023479,-0.8735887146636843,-1.5056445089414714
1772642734204716500,4.620716552734375,-8.735617097523807,-0.6793221339739859,-0.991237115901336
1772642734214761500,4.630761474609375,-9.528935466903448,-0.820839413511753,-0.3985996512331068
1772642734224806700,4.640806640625,-9.69096201211512,-0.9471683301374315,-0.08982279380154795
1772642734234851600,4.6508515625,-9.402420380055904,-0.9416200483605265,-0.33240258375871923
1772642734244896500,4.660896484375,-9.068116529253125,-1.1108813671313225,-0.5705569310896098
1772642734254941400,4.67094140625,-8.677084244534372,-1.314250999470055,-0.5795586412560194
1772642734264986600,4.680986572265625,-8.01102272028029,-1.4458891284197568,-0.4774938493257388
1772642734275032600,4.691032470703125,-7.041902962836623,-1.5706111943706869,-0.5147533934662119
1772642734285077500,4.701077392578125,-6.125629829439521,-1.4789036554016173,-0.201850788741
1772642734295122700,4.711122802734375,-5.5624985183060165,-1.1645838773548602,0.48703587691392747
1772642734305167400,4.72116748046875,-5.4504141078710555,-1.0259762016534806,0.8710093656949699
1772642734315212500,4.731212646484375,-5.498192342612147,-1.1440903937719762,0.8240044534139335
1772642734325257500,4.741257568359375,-5.471175740870833,-1.4228361696124077,0.2914457742691971
1772642734335302700,4.751302734375,-4.988896082040667,-1.7460558779515325,-0.07237433133721351
1772642734345347300,4.761347412109375,-4.087386218011379,-1.837266719444841,-0.15220674186171962
1772642734355392500,4.771392578125,-3.2563246856927868,-1.6979441734723746,-0.010917151866294442
1772642734365437400,4.7814375,-2.4964164184838533,-1.4413210898518563,0.49812882373854517
1772642734375482600,4.791482666015625,-1.7825275596499441,-1.0760865326039493,1.2613120209649205
1772642734385527600,4.801527587890625,-1.3508371013283729,-0.730932201962918,1.7808640103518962
1772642734395572500,4.811572509765625,-0.8587713770210742,-0.5103519071042537,2.1565027649752793
1772642734405617400,4.821617431640625,-0.0703530546426773,-0.25414777954816814,2.2931499542586504
1772642734415663400,4.831663330078125,0.7263467738687992,-0.03902721140012145,2.1880476577959955
1772642734425708500,4.84170849609375,1.3465075476914643,0.10578004959374665,2.0393609250202775
1772642734435753500,4.85175341796875,2.0456325526356696,0.20693214712589977,1.7435617230482399
1772642734445798700,4.861798583984375,2.8796909286826846,0.22041619033813475,1.1705468774124979
1772642734455843300,4.87184326171875,3.6070249600231645,0.1403051272690296,0.3830349658219144
1772642734465888500,4.881888427734375,3.729629595428705,0.11529957308918237,-0.3674777695974335
1772642734475933400,4.891933349609375,3.2837364242315292,0.19895430011451243,-0.831907481623441
1772642734485978600,4.901978515625,2.527267483821511,0.20164850763455033,-0.6863765825301409
1772642734496023300,4.912023193359375,1.9378730196624994,0.1612942854143679,-0.29216395074222234
1772642734506068500,4.922068359375,1.708373359158635,0.09780366388708353,-0.08096660218620673
1772642734516113400,4.932113525390625,1.9128759410500524,0.20079364437088368,-0.14476278253132477
1772642734526158600,4.94215869140625,2.3615648804455995,0.3614431290756911,-0.3173146490138024
1772642734536203500,4.95220361328125,3.2441046710669994,0.6194906194761395,-0.5995370514562353
1772642734546248400,4.96224853515625,4.206212503921986,1.232189094594121,-0.8203879434172063
1772642734556293400,4.97229345703125,4.848021630451083,1.7038794087402522,-0.5523102035202085
1772642734566339600,4.982339599609375,5.147362888944149,2.0227584575265647,-0.025613128151558338
1772642734576384500,4.992384521484375,5.4986909397840495,2.117012904499471,0.3594408493425697
1772642734586429700,5.0024296875,6.056904083737731,2.069330531348288,0.291948956284672
1772642734596474400,5.012474365234375,6.669273765292763,1.9426427182823418,-0.09650805285228416
1772642734606519600,5.02251953125,7.254186700123548,1.6514657692834733,-0.5840685198958963
1772642734616564500,5.032564453125,7.865327716666459,1.4080582871973513,-1.0995454418636859
1772642734626609700,5.042609619140625,8.419525195237993,1.4407123103037476,-1.576551105813682
1772642734636654600,5.052654541015625,8.701140827426315,1.6759192425385117,-1.7193598864667117
1772642734646699500,5.062699462890625,8.523706869724393,2.0490188340730966,-1.4051152194827794
1772642734656744400,5.072744384765625,7.965507169774174,2.377482434415072,-0.558482097088173
1772642734666789600,5.08278955078125,7.537435486471653,2.7058672704324125,0.2975375518056564
1772642734676834600,5.09283447265625,7.46280373159647,2.842776617783308,0.8587588828656822
1772642734686879700,5.102879638671875,7.6361770157307385,2.829044445028901,1.0381072228215633
1772642734696924400,5.11292431640625,7.829545040145516,2.68839649567157,1.0523481488157063
1772642734706969600,5.122969482421875,7.961106304466724,2.5515233886778352,0.747646313137561
1772642734717015600,5.133015625,7.771404401344061,2.4644717126905915,0.10939949133307672
1772642734727060500,5.143060546875,7.00069124700427,2.548301504021883,-0.5601980341605842
1772642734737105700,5.153105712890625,5.722796632289886,2.3204029951043426,-0.43256957924365996
1772642734747150300,5.163150390625,4.675833172187209,1.2583080168433487,0.4802918094811961
1772642734757195500,5.173195556640625,4.643331417033076,-0.02320902615189552,1.3027258352406321
1772642734767240400,5.183240478515625,5.944734333106875,-0.4762047228306532,1.166622032118961
1772642734777285600,5.19328564453125,6.831157687163352,-0.46721594521105286,0.4202521321253851
1772642734787330600,5.20333056640625,6.03889028814137,-0.42894700483232734,-0.25785934741720556
1772642734797375500,5.21337548828125,3.9300533835738896,-0.40875586519688367,-0.3829990177256986
1772642734807420400,5.22342041015625,1.77229667301476,-0.4496200827658176,-0.33810528891235586
1772642734817465600,5.233465576171875,-0.4903162502914667,-0.4722280742846429,-0.2517062316149473
1772642734827510500,5.243510498046875,-2.5149089375078675,-0.7018259344659745,0.05180546269686892
1772642734837555500,5.253555419921875,-2.8946535200148817,-0.35523528741151095,-0.20988180897803976
1772642734847600400,5.263600341796875,-2.810086062058806,0.24938173419013618,-0.3797480165731162
1772642734857645600,5.2736455078125,-4.242859103795886,-0.0651940644443035,0.6543157030113042
1772642734867691500,5.28369140625,-5.733600350376963,-0.9362801486372947,1.5603119186744092
1772642734877736400,5.293736328125,-6.853118759080767,-1.5281893720962105,1.3270092126257718
1772642734887781600,5.30378173828125,-6.864134074091911,-2.2957700736291704,0.7214530104778707
1772642734897826600,5.31382666015625,-6.269414615517855,-2.912122541210055,-0.11976692776158451
1772642734907871500,5.32387158203125,-6.917580417597294,-3.166998050510883,-0.0603698226256296
1772642734917916400,5.33391650390625,-8.475572076630591,-2.9459195968717333,0.3061481985615566
1772642734927961600,5.343961669921875,-10.434421833348274,-2.4439424271419643,0.16654526474513112
1772642734938006500,5.354006591796875,-12.658209643697738,-1.9570970678314565,-0.07142294889651238
1772642734948051500,5.364051513671875,-14.517054719352721,-1.3403037246152758,-0.5887577006254345
1772642734958096400,5.374096435546875,-15.921732131940125,-0.525788984080404,-0.9105554133374243
1772642734968141600,5.3841416015625,-16.985189046204088,0.3092049923162907,-0.8136455564849078
1772642734978186500,5.3941865234375,-17.50682807099819,0.957558352857083,-0.6617590778198092
1772642734988231400,5.4042314453125,-17.277141363489626,1.5461097903206944,-0.5745783686254173
1772642734998276400,5.4142763671875,-15.938466993641853,1.513868439668417,-0.6676821111932396
1772642735008321500,5.424321533203125,-13.440765211522578,1.2573092150643468,-0.5359863337721675
1772642735018367500,5.434367431640625,-10.529219593417643,0.8764692385360598,0.09507299681417644
1772642735028412700,5.44441259765625,-7.72576843932867,0.4219216362401843,1.0581759051211177
1772642735038457600,5.45445751953125,-5.2513294593751425,0.26230478251874445,1.9945760268762707
1772642735048502500,5.46450244140625,-3.4120763884186744,-0.004681435814499855,2.7998931693464515
1772642735058547500,5.47454736328125,-2.0304104335844517,-0.182543994192034,3.11068959557265
1772642735068592600,5.484592529296875,-0.8529308342993259,-0.4894070264920592,2.7079431999236343
1772642735078637600,5.494637451171875,0.13275602706372738,-0.948476782387495,1.914753133098781
1772642735088682500,5.5046826171875,1.2877286109864712,-1.1408964200362564,1.2650830639362334
1772642735098727400,5.5147275390625,1.9810458064347505,-0.9968960915111005,0.672402856104821
1772642735108772600,5.524772705078125,1.3192717502415179,-0.7364756614342332,0.21214454801194368
1772642735118817500,5.534817626953125,0.556040476089716,-0.6563993774175644,0.2666344092208892
1772642735128862700,5.54486279296875,0.5564303521901369,-0.623739070700854,0.6213453804973512
1772642735138907400,5.554907470703125,0.8107757001370192,-0.6145553550310433,0.8690991481594741
1772642735148952600,5.56495263671875,0.9952905560106039,-0.5853421200282871,0.5370092836117372
1772642735158997500,5.57499755859375,1.0661690958321093,-0.5785785441774874,-0.04976246736086905
1772642735169043200,5.585043212890625,1.0571651206433772,-0.33843108680061995,-0.7243008011244237
1772642735179088400,5.59508837890625,0.6990519397079944,0.11735234090052545,-1.1509210435096173
1772642735189133000,5.605133056640625,0.20775310811996459,0.5139547539018094,-1.2007641018260269
1772642735199178200,5.61517822265625,0.3337929786711931,1.0172305120747536,-1.358684161566943
1772642735209223200,5.62522314453125,1.0192805034071206,1.418978617401421,-1.2635418258436024
1772642735219268400,5.635268310546875,1.9770845015883445,1.6245383071303368,-0.6835046803556383
1772642735229313300,5.645313232421875,3.160948248952627,1.8799097832545637,-0.03620711247809231
1772642735239358200,5.655358154296875,4.56551518690288,1.9465404563732445,0.43396855932138856
1772642735249403100,5.665403076171875,5.971224280625582,1.8726605427786707,0.6400702469725161
1772642735259448300,5.6754482421875,7.087211008071899,1.72834311112836,0.32874256341382857
1772642735269493200,5.6854931640625,7.768337999510765,1.5619722531020641,-0.34722083471678195
1772642735279538200,5.6955380859375,8.173195980486273,1.4564052617371082,-1.0641119441065936
1772642735289583000,5.7055830078125,8.55810072223544,1.4907292638823388,-1.7626185979567468
1772642735299628300,5.715628173828125,8.858720330101251,1.769251021708548,-2.283483569638431
1772642735309673200,5.725673095703125,8.80846079993844,2.3065834363274273,-2.217243795533478
1772642735319719400,5.735719482421875,8.1663594124645,2.8359584622010585,-1.50326930424273
1772642735329764400,5.745764404296875,7.641184030237794,3.3080361682295796,-0.833845171687752
1772642735339809300,5.755809326171875,7.601822910708188,3.599071955192089,-0.37611590714845805
1772642735349854200,5.765854248046875,7.865579645600914,3.636571664763987,-0.1986756841025315
1772642735359899400,5.7758994140625,8.256215039956569,3.8370118195220826,-0.49204760412871834
1772642735369944300,5.7859443359375,8.528722067537903,4.137238044156134,-0.8325194760419428
1772642735379989500,5.795989501953125,8.408861177882551,4.702746898075938,-0.9702462772555649
1772642735390034200,5.8060341796875,7.683814965218305,5.095525149679184,-0.5853219174904748
1772642735400079400,5.816079345703125,6.779528622213006,5.221096233674883,0.036990180014027284
1772642735410124300,5.826124267578125,6.278685132688284,4.787624152633548,0.6462139373593032
1772642735420169500,5.83616943359375,6.377329631313681,3.997110027019679,0.9157830848578363
1772642735430214100,5.846214111328125,6.815140618342161,2.9059917833700775,0.8023930717170238
1772642735440259300,5.85625927734375,7.078962235164642,1.4790703902706503,0.8204928650964051
1772642735450304300,5.86630419921875,7.372282333672047,0.3463631219089031,0.9194855926375836
1772642735460349400,5.876349365234375,7.78932759604752,-0.4222647505894303,1.1002865425545723
1772642735470394400,5.886394287109375,8.070320127901434,-0.6580863075911998,1.0293397598024456
1772642735480440300,5.8964404296875,7.415421802696585,-0.8066820010825991,0.887325636658445
1772642735490485200,5.9064853515625,5.6833694617867465,-1.096004262125492,1.0328634038839488
1772642735500530200,5.9165302734375,3.8592859029114246,-0.9910732305765151,1.0479848390396684
1772642735510575400,5.926575439453125,1.9936779089927672,-0.5868880342960358,1.089142851923406
1772642735520620300,5.936620361328125,0.10539221931993961,-0.04457008634954691,1.1104660643287003
1772642735530665200,5.946665283203125,-1.4665736045300959,0.1585892642393708,1.0704132362078875
1772642735540710100,5.956710205078125,-2.2500901263415813,0.21671792034208773,0.8109731224052608
1772642735550755300,5.96675537109375,-2.073549318087101,-0.12540537203997373,0.7480622004620731
1772642735560800300,5.97680029296875,-1.5512936226993799,-1.778887741842866,1.621145157560706
1772642735570845400,5.986845458984375,-0.4165302985906601,-3.1466724708408114,2.0936665157034993
1772642735580890000,5.99689013671875,0.6979004315853119,-3.996127445723116,1.7171137149751186
1772642735590935300,6.006935302734375,-0.3770937757372856,-4.267906743551791,0.8181324195753783
1772642735600980200,6.016980224609375,-3.5577257993251084,-3.8409970897659655,-0.05080578413503244
1772642735611025400,6.027025390625,-7.531124988150596,-3.324757001405954,-0.3130000006850809
1772642735621070300,6.0370703125,-10.951588096642494,-2.8494302304536103,0.05006744622339029
1772642735631115300,6.047115234375,-13.27677175015211,-2.650653040471673,0.3301616364315152
1772642735641161200,6.0571611328125,-14.488242466366291,-2.8365076205164192,0.08904913341477513
1772642735651206100,6.0672060546875,-14.4788620590806,-2.7542124914065003,-0.4245277270853519
1772642735661251300,6.077251220703125,-13.783622371137142,-2.453767947846651,-0.801377684129402
1772642735671296300,6.087296142578125,-13.360334999501704,-2.005682673432678,-0.9582956541556864
1772642735681341200,6.097341064453125,-13.162113105314969,-1.405015558500588,-1.1490311381097882
1772642735691386000,6.10738623046875,-13.148251753222942,-0.7564806308478117,-0.9909686742234974
1772642735701431300,6.117431396484375,-13.260326811307667,-0.1510166370280087,-0.35570871360953893
1772642735711476200,6.127476318359375,-13.102273261380194,0.11138678355962037,0.22559916420029474
1772642735721521400,6.137521484375,-12.28658699284792,-0.06030088557526469,0.2921936152281239
1772642735731566000,6.147566162109375,-10.97152964543104,-0.5802081181406974,0.05107409794870764
1772642735741611300,6.157611328125,-9.588539163994788,-1.2015610243573784,-0.2809444914611056
1772642735751656200,6.16765625,-8.506382225435972,-1.709032115328312,-0.5612175134014338
1772642735761701400,6.177701416015625,-7.552719564843177,-1.8271844475001096,-0.7278921766798943
1772642735771746000,6.18774609375,-7.304716279399394,-1.821614538413286,-0.5867074170321226
1772642735781791200,6.197791259765625,-7.354822664827108,-1.2162623344048857,0.06721691660799552
1772642735791836200,6.207836181640625,-7.450243525230884,-0.37916488292291756,0.8745574866306036
1772642735801882400,6.21788232421875,-6.9632152105689045,0.4447483850762248,1.512623261912912
1772642735811927300,6.22792724609375,-6.0088224821358915,0.8817845883399248,1.8273570275880395
1772642735821972500,6.237972412109375,-4.593910091260075,0.8388575930222868,1.9207623103857039
1772642735832017200,6.24801708984375,-2.896007272711396,0.6191524735629558,1.8148169872276483
1772642735842062300,6.258062255859375,-1.122107256153226,0.34496056163460015,1.6821103522635996
1772642735852107300,6.268107177734375,0.6535644462525845,0.20487375329136848,1.3516484177112578
1772642735862152400,6.27815234375,2.259786175447702,0.18381693673729896,1.032346394272521
1772642735872197000,6.288197021484375,3.556965336346626,0.2693514861598611,0.8184706385537982
1772642735882242300,6.2982421875,4.522818785470724,0.2739630716085434,0.582326206273213
1772642735892287200,6.308287353515625,5.275806313505768,0.41919279579818247,0.2649121520055458
1772642735902332400,6.31833251953125,5.781233623689412,0.7036784304648638,-0.18895908539872616
1772642735912377300,6.32837744140625,6.120796417933702,1.0092112370744346,-0.6545442510701716
1772642735922422300,6.33842236328125,6.359431571051478,1.4775021180406211,-0.9051390143118798
1772642735932467200,6.34846728515625,6.083133919015526,2.0272548921629787,-0.8346848373822867
1772642735942512400,6.358512451171875,5.512511959865689,2.4479276973858473,-0.4870760262612253
1772642735952557300,6.368557373046875,5.463648267975449,2.6096789327874776,-0.09127232588957995
1772642735962603300,6.378603271484375,6.559397678557038,2.646870014801621,0.2849193133762106
1772642735972648400,6.3886484375,8.108228126013278,2.3831670559227467,0.5092861775688827
1772642735982693000,6.398693115234375,9.45804114499092,2.0749968865469097,0.3736978131560609
1772642735992738300,6.40873828125,10.596717843151092,1.6875377841398118,-0.08280939877498894
1772642736002783200,6.418783203125,11.14374499170184,1.3072861288934945,-0.5909970405174418
1772642736012828400,6.428828369140625,11.204560987192393,1.191442365925014,-1.1032890123061836
1772642736022873000,6.438873046875,10.794711773800849,1.2792302472323178,-1.3105261337280272
1772642736032918300,6.448918212890625,10.235516048550606,1.5046712799951434,-1.2086514210097492
1772642736042963200,6.458963134765625,9.677692196175455,1.889995123939216,-1.0527423357650636
1772642736053008400,6.46900830078125,9.216175923910736,2.2333117177590727,-0.6923096258409321
1772642736063053300,6.47905322265625,9.029999272304773,2.4120374688372013,-0.5069793619312346
1772642736073098200,6.48909814453125,8.973946545693277,2.6023496128126977,-0.5670841404125094
1772642736083143200,6.49914306640625,8.8864547247231,2.7801778305292126,-0.5074710179056972
1772642736093188400,6.509188232421875,8.724375572541355,3.0691984782770274,-0.3905146175201982
1772642736103233300,6.5192333984375,8.514663731569051,3.468549094007909,-0.29877604409204794
1772642736113278200,6.5292783203125,8.137696797081828,3.7784769207060336,-0.10451362812081351
1772642736123323100,6.5393232421875,7.705790650182962,3.9396228836908933,0.19384230912933126
1772642736133369000,6.549369140625,6.934612216418981,3.8214825342178345,0.26337208295669406
1772642736143414300,6.559414306640625,5.97189940340817,3.4859710611909627,0.03581658792369999
1772642736153459200,6.569459228515625,4.910540338206291,2.9959079088777303,-0.1653967157645151
1772642736163504600,6.579504638671875,4.053214483818412,2.7491312426194545,-0.2837532652715221
1772642736173549600,6.589549560546875,3.482751514622569,2.024881733290851,-0.15568777064420283
1772642736183594800,6.5995947265625,3.5308974136322733,0.7757365354597568,0.0858073293488007
1772642736193639700,6.6096396484375,4.792435352307558,-0.2102098536223173,0.05180198296499438
1772642736203684600,6.6196845703125,6.055097911098599,-0.9977183676794171,-0.435651653570123
1772642736213729500,6.6297294921875,6.285290230041742,-1.944136171710491,-0.6946494669653475
1772642736223774700,6.639774658203125,5.141444604811072,-2.5473916957005858,-0.6218119750957936
1772642736233819600,6.649819580078125,3.446683591419458,-2.401538286654651,-0.48295489121060814
1772642736243864600,6.659864501953125,1.9097160157144069,-1.355448979038,-0.14862552237408236
1772642736253909500,6.669909423828125,0.5567588534921407,-0.23819734622240066,0.2659804753568023
1772642736263954700,6.67995458984375,-0.612809242016077,0.4271510613262653,0.7434168588742613
1772642736273999600,6.68999951171875,-1.237854865270853,0.10663199024796485,0.9533042756091803
1772642736284044800,6.700044921875,-1.4150889164865017,-0.8915960805192589,0.27031543582119044
1772642736294090800,6.7100908203125,-2.1676865684211255,-1.7988721068598328,-0.4716296334674582
1772642736304135700,6.7201357421875,-3.720681149819493,-2.3183713431462643,-0.8011017167322337
1772642736314180600,6.7301806640625,-5.319273699310422,-2.324503562290966,-1.0267466745693237
1772642736324225800,6.740225830078125,-6.7447501542985435,-1.987313342396915,-1.0060772498976438
1772642736334270700,6.750270751953125,-8.70269624017477,-1.5550953530699014,-0.4709866593888029
1772642736344315600,6.760315673828125,-10.927264971768855,-1.3583479153499007,0.38759025450609624
1772642736354360600,6.770360595703125,-12.254507262498139,-1.434911222809553,0.9513087909430264
1772642736364405800,6.78040576171875,-12.661371907120943,-1.548105932573974,0.835599175748229
1772642736374450700,6.79045068359375,-12.81227324720621,-1.3912211341649292,0.5175555548727512
1772642736384495600,6.80049560546875,-12.530302225708962,-1.2500896390743552,0.3277449672112241
1772642736394540500,6.81054052734375,-11.942269697552918,-1.3316757431320845,0.4540072848740965
1772642736404585500,6.82058544921875,-11.453054101979731,-1.549140097927302,0.3429649308379739
1772642736414630700,6.830630615234375,-11.06435172151327,-1.7066833602450786,0.15683825585357844
1772642736424675600,6.840675537109375,-10.956467685377596,-1.6229589289844035,0.19298835918111726
1772642736434720800,6.850720703125,-10.731976208424568,-1.291531218139827,0.31407128317840394
1772642736444765400,6.860765380859375,-9.988361488890646,-0.84408774876073,0.5989407660635188
1772642736454810600,6.870810546875,-8.772303444886207,-0.7579749610587954,1.1261708523303269
1772642736464855600,6.88085546875,-7.1335472273111336,-1.3740570872657,1.570075772319734
1772642736474901800,6.89090185546875,-5.361128389221429,-2.3927277882114053,1.404661776626855
1772642736484946700,6.90094677734375,-4.079845885634422,-3.3926053797513243,0.8503819535341113
1772642736494991600,6.91099169921875,-3.73605407551825,-4.034787431246042,0.30194336728286
1772642736505036500,6.92103662109375,-4.078550000604987,-4.044929178293049,-0.012755655872449279
1772642736515081700,6.931081787109375,-4.4875762071758505,-3.5757004319548606,-0.1584959964653477
1772642736525126700,6.941126708984375,-4.997149531123042,-2.7972341792702675,0.027167554519325492
1772642736535171800,6.951171875,-5.426841509103775,-1.8732573396280408,0.08898352083265781
1772642736545216500,6.961216552734375,-5.68692510844171,-0.9166270614013076,-0.0104956019859761
1772642736555261700,6.97126171875,-5.694961699903011,-0.08071706613823772,-0.10146876226589083
1772642736565306600,6.981306640625,-5.690329363927245,0.5041156430631876,-0.24431202971041202
1772642736575351800,6.991351806640625,-5.374942395040392,0.8974358925886452,-0.1292854283437133
1772642736585396500,7.001396484375,-4.332050714421272,1.0349429135717452,0.3354615694705397
1772642736595441700,7.011441650390625,-2.6283745731681583,1.0498539208471775,0.6771206784069538
1772642736605486600,7.021486572265625,-0.5572305626571178,0.9868911225862801,0.82677581782341
1772642736615531800,7.03153173828125,1.5402718779474496,0.8716532165564597,0.890962897182256
1772642736625576700,7.04157666015625,3.4061399841070172,0.915503318068385,0.8100980931363999
1772642736635621600,7.05162158203125,4.743429037076234,0.9691501525819302,0.7714228369791061
1772642736645667600,7.06166748046875,5.438374710509181,1.005190457125753,0.3577706145754084
1772642736655712500,7.07171240234375,5.609362560811639,1.0809156332608312,-0.16131288051698356
1772642736665757700,7.0817578125,5.245324081480502,1.1464178138062358,-0.21510398233942687
1772642736675802600,7.091802734375,4.713967964792252,1.0568483828444033,0.4231889162296429
1772642736685847800,7.101847900390625,4.485485372376441,1.1677901260502637,0.9973840942237525
1772642736695892500,7.111892578125,4.634126366314292,1.1551992322854696,1.350792093142867
1772642736705937700,7.121937744140625,5.2307724090367556,1.0126207532569766,1.5447325106181204
1772642736715982600,7.131982666015625,6.281980082580447,0.8053378929972648,1.4469411216907202
1772642736726027800,7.14202783203125,7.4308461663216345,0.48502062810137864,0.9448664829358457
1772642736736072400,7.152072509765625,8.731930517965555,0.2167054992519319,0.15480642123240976
1772642736746117600,7.16211767578125,10.014530533891916,0.10432795108929276,-0.5763303999245166
1772642736756162600,7.17216259765625,10.99812656045556,0.19239844873026013,-1.0176828589521347
1772642736766207700,7.182207763671875,11.393290245890617,0.30918022320121524,-1.0411993436180054
1772642736776252700,7.192252685546875,11.275144343459605,0.5272232546672224,-0.8998615853656082
1772642736786297600,7.202297607421875,10.68383615463376,0.8740012409873307,-0.7780275690063834
1772642736796342500,7.212342529296875,9.622503977438807,1.2886010099068284,-0.6272636646304279
1772642736806387700,7.2223876953125,8.408481238654256,1.6884820792526005,-0.5055230987083167
1772642736816433700,7.23243359375,7.446123814952373,2.207082028611749,-0.597577113027498
1772642736826478600,7.242478515625,6.69669602522552,2.744041518265009,-0.6369602982584387
1772642736836523500,7.2525234375,6.054553136697411,3.102772831098735,-0.5655870702551677
1772642736846568700,7.262568603515625,5.5074903323113915,3.3746848153963684,-0.4473818388523534
1772642736856613600,7.272613525390625,5.261758498930931,3.576359772646427,-0.43557661557253446
1772642736866658600,7.282658447265625,5.0847348755955695,3.912044264152646,-0.2600793615542352
1772642736876703700,7.292703857421875,5.156873644611239,3.927421281504631,-0.1139395367823541
1772642736886748700,7.302748779296875,5.521805857911706,3.9480081424593925,0.10642479550438001
1772642736896793600,7.312793701171875,5.7635302092164755,3.902530585876107,0.04511387437004596
1772642736906838500,7.322838623046875,5.6350061206340785,3.9149277106344695,0.09519139902945607
1772642736916883700,7.3328837890625,5.179682857790589,3.521636541073024,0.781427294447273
1772642736926928600,7.3429287109375,4.903452425771952,2.4517680062010885,1.4233023258194326
1772642736936973600,7.3529736328125,4.635553768768906,1.2023904609188436,1.619159975092858
1772642736947018500,7.3630185546875,4.442060072147846,-0.04808510873317718,1.5974182450145482
1772642736957063700,7.373063720703125,4.736075167182087,-1.170938214817643,1.5507972174845635
1772642736967108600,7.383108642578125,4.531686567059159,-1.9006670323401689,1.1652758051417766
1772642736977153500,7.393153564453125,3.034372371828556,-2.3918285012841225,0.7660550994008779
1772642736987198500,7.403198486328125,1.1158978801190853,-2.418617431749403,0.16880842390414327
1772642736997244700,7.41324462890625,-0.3576911561310291,-1.9554019543513654,-0.7580244992889463
1772642737007289600,7.42328955078125,-1.6755846037566662,-1.658339162184298,-1.480822202374041
1772642737017334800,7.433334716796875,-3.0008067868351933,-0.9980053679272531,-2.0333118541143835
1772642737027379700,7.443379638671875,-4.524341464993357,-0.013737141190469265,-1.9541434787228702
1772642737037424600,7.453424560546875,-6.713653589767217,0.19413272517696023,-0.17950294599570332
1772642737047469600,7.463469482421875,-8.246526005113124,-0.10364347595646976,1.741329872342944
1772642737057514800,7.4735146484375,-8.044373201218248,0.1664579517878592,2.3532000799432398
1772642737067559700,7.4835595703125,-6.862920606648921,0.13230755264386534,1.801550824549794
1772642737077604600,7.4936044921875,-5.7153030616641045,-0.43536622422486543,0.8897349628224969
1772642737087649500,7.5036494140625,-5.7618327576488255,-0.9236899855248629,0.3152952720154077
1772642737097694700,7.51369482421875,-7.070846733248233,-1.4592378548145293,0.01647526091746986
1772642737107739600,7.52373974609375,-7.903873428159952,-1.8526193330079317,-0.25096871112063524
1772642737117784800,7.533784912109375,-7.758904985255002,-1.7978693595580755,-0.5496700642749667
1772642737127829500,7.54382958984375,-7.5898536559730765,-1.5714920688584446,-0.8433875646021216
1772642737137874700,7.553874755859375,-7.598491135936975,-1.3330375330045818,-1.3180471768826245
1772642737147919600,7.563919677734375,-7.586967286881804,-1.1551046858698129,-1.419897047420591
1772642737157964800,7.57396484375,-7.305148241075873,-0.5506177934538573,-1.5295134603068232
1772642737168008400,7.584008544921875,-7.026107427811622,-0.15644399583898483,-1.4913276681669057
1772642737178054700,7.5940546875,-6.583448416230082,-0.12773354099290446,-1.15854379347302
1772642737188099600,7.604099609375,-5.622007522851228,-0.06715165565232746,-0.968001932394877
1772642737198144800,7.614144775390625,-4.623552365329862,-0.06769242059867829,-0.8005855108384042
1772642737208189700,7.624189697265625,-4.067127273836732,-0.26702043113010004,-0.7262287004470824
1772642737218234600,7.634234619140625,-3.996799353635311,-0.3085638083359226,-0.9312140243541449
1772642737228279600,7.644279541015625,-4.225809184795618,-0.19177596945036202,-1.1676518866233527
1772642737238324700,7.65432470703125,-4.3553105939775705,0.027117815359774974,-1.1231246165022253
1772642737248369700,7.66436962890625,-4.881181557253003,0.018003858724236488,-0.6769844848066568
1772642737258414800,7.674414794921875,-4.485536810302734,0.6677287998791783,-0.5750578227054327
1772642737268459500,7.68445947265625,-3.3145693693906066,1.238954497075826,-0.5233396912321449
1772642737278504700,7.694504638671875,-2.682540463119745,0.8859911001190542,-0.07205971243008971
1772642737288549600,7.704549560546875,-1.990337950915098,0.49974228681717064,0.3736514532636851
1772642737298594800,7.7145947265625,-1.14377080642879,0.41691991896275427,0.644905558174476
1772642737308639500,7.724639404296875,-0.23589608354270458,0.5677035509524867,0.7278432960368693
1772642737318684700,7.7346845703125,0.20863164452016353,0.5054460148841142,0.8246152787886559
1772642737328729600,7.7447294921875,0.1286281334787607,0.10350117227579467,0.7860890757132322
1772642737338774800,7.75477490234375,0.2087976487368345,-0.22699186066770924,0.38241135403085497
1772642737348819700,7.76481982421875,0.2827595415264368,-0.25156998321572316,-0.10662676608357578
1772642737358865700,7.77486572265625,0.06807575736045837,-0.2592517881562933,-0.34245402217376975
1772642737368910600,7.78491064453125,-0.16778057869374752,-0.15881043270938097,-0.5560679486185311
1772642737378955500,7.79495556640625,-0.2952951979726553,-0.06358107628971338,-0.688567662833631
1772642737389000700,7.805000732421875,-0.22467793943583964,-0.01731934705879539,-0.5637826877143234
1772642737399045600,7.815045654296875,0.008617606219649314,-0.08447674746531993,-0.32874223462026564
1772642737409090800,7.8250908203125,0.34971535494625566,-0.1442297351005487,-0.22850489557916298
1772642737419135500,7.835135498046875,0.5954454347610473,-0.2184865009171888,-0.1719580835741013
1772642737429180700,7.8451806640625,0.7359884624391794,-0.28156006607618184,-0.15989899513106792
1772642737439225600,7.8552255859375,0.780064920052886,-0.2814172966046259,-0.16394127452550455
1772642737449270800,7.865270751953125,0.7266290979415178,-0.2571349603991024,-0.13785333193643018
1772642737459315500,7.8753154296875,0.5895996313422918,-0.1394184258286841,-0.047924990834598426
1772642737469360600,7.885360595703125,0.6095464408278465,-0.0052899961668998,0.09195367748355493
1772642737479405600,7.895405517578125,0.6791594907581806,0.011514606302790343,0.2546082549330778
1772642737489450800,7.90545068359375,0.6950052946656942,-0.008999299013614653,0.3713988885639235
1772642737499495700,7.91549560546875,0.7140706451416016,0.016753310673870144,0.3102350660163909
1772642737509540600,7.92554052734375,0.7145797637075185,0.03254990514479578,0.09554931822218932
1772642737519585500,7.93558544921875,0.7150473812192678,-0.05901296465657651,-0.1123108578682877
1772642737529630700,7.945630615234375,0.9800018014639615,-0.05670826791077852,-0.15804313813131302
1772642737539675600,7.955675537109375,1.6733084755182266,0.1485013662714511,0.008105711174756287
1772642737549721600,7.9657216796875,1.6619710889458654,0.32228695753365755,0.16388227434726432
1772642737559766500,7.9757666015625,0.9233066852957009,0.2793593046288937,0.1107982796145603
1772642737569811500,7.9858115234375,0.5509148036390543,0.32846623069047926,-0.11135668068230152
1772642737579856600,7.995856689453125,0.4178565787583589,0.455803739836812,-0.07477202186239883
1772642737589901600,8.005901611328126,0.4894172556251287,0.49580257274806494,-0.11453958503473549
1772642737599946800,8.01594677734375,0.33146015180945393,0.4991173963844776,-0.20200879231430588
1772642737609991400,8.025991455078126,0.20565642810165882,0.5136747679166496,-0.3470648404374718
1772642737620036600,8.03603662109375,0.1930874539077282,0.5251502477854489,-0.34626441077478226
