time,seconds_elapsed,z,y,x
1772735066695199200,0.06819921875,0.03521042959094047,-0.04416475695166736,-0.15963048038799316
1772735066705226200,0.078226318359375,0.03670329849720001,-0.004746062015928328,-0.12237318300353363
1772735066715252200,0.088252197265625,0.07471241889595985,0.017516951990127563,-0.05455943758012727
1772735066725279000,0.098279052734375,0.05106617037057876,-0.016105952681042254,0.0477591647144407
1772735066735306200,0.10830615234375,0.0355056131452322,-0.06306194778643548,0.10355645526014268
1772735066745333200,0.118333251953125,0.04209083675444126,-0.14241916028093546,0.10354796142643317
1772735066755360000,0.128360107421875,0.04823065468370914,-0.15290475232955067,0.10552823025714606
1772735066765386000,0.138385986328125,0.04299216950833797,-0.08236505254097283,0.0805806533422321
1772735066775413800,0.148413818359375,0.05435585956573486,-0.017769173185527325,0.04712475753473118
1772735066785440800,0.158440673828125,0.052554363101720805,-0.004038753996789455,0.014421561524365096
1772735066795467800,0.1684677734375,0.04072656266391277,-0.03120375123284757,-0.04346508424971252
1772735066805494800,0.178494873046875,0.054794250982999795,-0.04098861113358289,-0.09229058128772302
1772735066815520800,0.188520751953125,0.034897125858068465,-0.07514302886556834,-0.09756779103828593
1772735066825547800,0.1985478515625,0.040292847421765324,-0.09552344399541617,-0.10511798722213134
1772735066835574500,0.208574462890625,0.041647769162058826,-0.07532894335910678,-0.08038956948323175
1772735066845601800,0.218601806640625,0.048230070161819454,-0.05508665805831551,-0.03505408825175836
1772735066855628800,0.22862890625,0.030873277169466015,-0.03083959409557283,-0.004563837316818535
1772735066865654800,0.23865478515625,0.059901218733191486,0.0009458294827491044,0.01779169554458931
1772735066875681500,0.248681640625,0.05855623386502266,0.021446509991399944,0.047493426450341936
1772735066885708800,0.258708740234375,0.04210252719223499,0.029350524581596253,0.0509874060459435
1772735066895735800,0.26873583984375,0.043758477705717086,0.011658325622417032,0.030808669234346598
1772735066905762600,0.278762451171875,0.050343701314926145,-0.013262984340079128,-0.0023451931529678404
1772735066915788500,0.28878857421875,0.02310848838686943,-0.04901526572275906,-0.021126447724178432
1772735066925815800,0.29881591796875,0.034037878680229186,-0.06425207088645547,-0.06372346216877922
1772735066935842800,0.3088427734375,0.04242109162211418,-0.06702153559979052,-0.07093408766733482
1772735066945869600,0.31886962890625,0.03883388078510761,-0.06187876588385552,-0.08359380888463928
1772735066955896800,0.328896728515625,0.049307928526401514,-0.04418269446715712,-0.08588423964306711
1772735066965922800,0.3389228515625,0.04616612336933613,0.011639840117655694,-0.06120439201993867
1772735066975949800,0.34894970703125,0.03928279359638691,0.039142179549299175,-0.03838677633842453
1772735066985976600,0.3589765625,0.05066226574480533,0.05201747974604368,-0.01688418877823278
1772735066996003600,0.369003662109375,0.05200432800352573,0.02039564923159778,-0.0031299503224901854
1772735067006030800,0.37903076171875,0.044829906329512594,-0.024997224742919204,-0.012782251618430017
1772735067016056800,0.389056884765625,0.0493260487049818,-0.06564253886416554,-0.018733908298145977
1772735067026083600,0.39908349609375,0.048885903722047805,-0.10357537915632128,-0.024568660599924623
1772735067036110600,0.409110595703125,0.03377542835175991,-0.09640073828659951,-0.03206327240532264
1772735067046137900,0.419137939453125,0.039164720174670216,-0.04945654321685433,-0.06069779420467093
1772735067056164900,0.429164794921875,0.03572247076630592,0.020581746388226747,-0.07665310463495552
1772735067066190600,0.439190673828125,0.04500175576508045,0.0649199602106586,-0.08879347815327346
1772735067076217600,0.449217529296875,0.03572597789764404,0.05136917190514505,-0.09384022188251838
1772735067086244900,0.459244873046875,0.0524894811719656,0.005320062511600554,-0.08649658112144097
1772735067096272000,0.46927197265625,0.03558510812222957,-0.05273983920384198,-0.06338706982126459
1772735067106298600,0.479298583984375,0.042921442359685896,-0.09898764950726181,-0.03669043901562691
1772735067116324600,0.48932470703125,0.04397299723923206,-0.10142010081857442,-0.026937837416678666
1772735067126352000,0.499351806640625,0.061633741614222526,-0.07900207891389727,-0.037813780489750204
1772735067136379000,0.50937890625,0.04367898272871971,-0.02268522147350013,-0.013717139582056552
1772735067146405600,0.519405517578125,0.04427870218753814,-0.009880904153734445,-0.006855674581043422
1772735067156432600,0.5294326171875,0.030213351956009864,0.003904606223106384,-0.02839740684153512
1772735067166459000,0.539458984375,0.042186113822460174,0.010847301500476896,-0.041405594436638056
1772735067176486000,0.54948583984375,0.047128246399760244,0.009238222336024046,-0.029115875575505195
1772735067186512600,0.5595126953125,0.03471124789714813,-0.011907405012659729,-0.055389111603610215
1772735067196539600,0.56953955078125,0.03950374287068844,-0.03963365286067128,-0.04358021679567173
1772735067206567000,0.57956689453125,0.05805763669312,-0.08560231742914766,-0.049106286740768695
1772735067216593000,0.589593017578125,0.04773322655558586,-0.0909979293949902,-0.048996908082161096
1772735067226619600,0.59961962890625,0.04578910675048828,-0.09548040857128798,-0.05010433960109949
1772735067236646700,0.609646728515625,0.07422258955240249,-0.07436656460035591,-0.04511796602327376
1772735067246674000,0.619673828125,0.0417447997957468,-0.03578559913039207,-0.023566022896021603
1772735067256700700,0.62970068359375,0.05222060110270977,-0.02272025625426322,-0.00319006474558264
1772735067266726700,0.6397265625,0.031575872480869294,-0.034837139299139376,-0.007955872641596943
1772735067276753700,0.649753662109375,0.04025777610838413,-0.008127375017292797,0.0010382752728648483
1772735067286781000,0.659781005859375,0.05193243181109428,0.01895385292544961,0.008352415944822132
1772735067296807700,0.6698076171875,0.030534838995337484,-0.13742613776661455,-0.022527491894830016
1772735067306834700,0.679834716796875,0.04176175093054771,-0.04379482766073197,0.004415313957910985
1772735067316861700,0.68986181640625,0.04940203655064106,-0.008695712957158683,-0.006069401307869702
1772735067326888000,0.699887939453125,0.03519055584669113,-0.0006448372421786188,-0.03205344513105229
1772735067336914700,0.709914794921875,0.06093465343415737,-0.17897599951215087,-0.10057762211244553
1772735067346941700,0.719941650390625,0.03609481121003628,-0.22792185326050965,-0.0871292895344086
1772735067356968700,0.72996875,0.05958966856598854,0.03906692235600203,-0.013367339763697236
1772735067366995700,0.73999560546875,0.07066051315665245,-0.014803674443438648,-0.08058173105446621
1772735067377021700,0.750021728515625,0.027271453285217285,-0.26031043036375195,-0.1288326430749148
1772735067387048700,0.760048583984375,0.05569909086823463,0.07324103116914629,-0.014618819395825267
1772735067397075700,0.77007568359375,0.04536415933668613,0.15043065383359788,-0.017121504665445535
1772735067407102700,0.780102783203125,0.03369476433098316,-0.10133582006860524,-0.06467225079359486
1772735067417129700,0.790129638671875,0.05016016144156456,-0.017943360708653926,-0.016699772122036664
1772735067427155700,0.80015576171875,0.03699322135448455,0.013708718813583255,-0.010762874620035291
1772735067437182700,0.8101826171875,0.03669043901562691,-0.06317629488110542,-0.013959570035804062
1772735067447209700,0.820209716796875,0.06033025780022144,-0.17219477840680628,-0.009324548912607132
1772735067457236700,0.83023681640625,0.047753100299835205,-0.20798647848442195,-0.024998448585625735
1772735067467263700,0.840263671875,0.04429857593178749,-0.1559071490159258,0.005452200991287827
1772735067477289700,0.850289794921875,0.05057751007080078,-0.06540014494303613,0.016801771191786975
1772735067487316700,0.860316650390625,0.06674363197386264,0.020944844079576433,0.008452022128086536
1772735067497343700,0.87034375,0.07003332116901874,0.05760156348869204,0.017520934045501053
1772735067507370800,0.880370849609375,0.051175475963950154,0.06476294301804154,-0.013739753272663802
1772735067517397800,0.890397705078125,0.04354512721598148,0.02792282986603677,-0.041111123268399385
1772735067527424800,0.9004248046875,0.04580079718828201,-0.011440225892327726,-0.05052714985674247
1772735067537450800,0.91045068359375,0.054632338419556614,-0.037676344780437646,-0.08146594827678054
1772735067547477800,0.920477783203125,0.05688274769484997,-0.029442769442312416,-0.08355716666867956
1772735067557504800,0.9305048828125,0.052390696972608564,-0.03874145326130092,-0.09886968568339943
1772735067567531800,0.94053173828125,0.04624912547767162,-0.06880805369038134,-0.11195691159777342
1772735067577558800,0.950558837890625,0.05147942734658718,-0.06715820412412285,-0.08062915039276704
1772735067587584800,0.960584716796875,0.04743570491373539,-0.07007876774594188,-0.057083987621683624
1772735067597611800,0.97061181640625,0.04593465270102024,-0.05234349683001637,-0.03320643282476812
1772735067607638800,0.980638671875,0.051019993141293525,-0.027531090602092443,-0.021022969083394853
1772735067617665800,0.990665771484375,0.042941900625824925,-0.04497742504142224,0.006357588865794241
1772735067627692800,1.00069287109375,0.056258478316664695,-0.03715414753723889,0.028059498390369114
1772735067637718800,1.01071875,0.05161620546877384,-0.06349924322515725,0.014476707511395214
1772735067647745800,1.020745849609375,0.04757248303592205,-0.08717756738923489,0.0075483878192491825
1772735067657772800,1.030772705078125,0.04906944359540939,-0.06218191354889422,0.005860087672434747
1772735067667799800,1.0407998046875,0.04951601831912994,-0.05838445749469101,-0.024870310427621004
1772735067677826600,1.05082666015625,0.043833881029486654,-0.036083413033187385,-0.015636654668860137
1772735067687852500,1.0608525390625,0.04787701894044876,-0.03570635988172143,-0.0383993800916709
1772735067697879800,1.0708798828125,0.0381546663492918,-0.03147138919308781,-0.06799565959526226
1772735067707906800,1.08090673828125,0.037416415202617646,-0.028571904891915616,-0.052078635348752136
1772735067717933600,1.09093359375,0.04894610947668552,-0.018385624583438037,-0.07236686041681095
1772735067727960800,1.1009609375,0.047907998600602145,-0.004216960107907653,-0.057246429908089334
1772735067737987800,1.11098779296875,0.04717033197581768,-0.010649879232235253,-0.05897111654253676
1772735067748013800,1.121013916015625,0.04058452384471893,-0.02542768858205527,-0.06137604052610695
1772735067758040600,1.13104052734375,0.034302667096257206,-0.03187748577594757,-0.05541778970882296
1772735067768067800,1.14106787109375,0.04657353512644768,-0.05350446690078824,-0.09091408703643829
1772735067778094300,1.15109423828125,0.05031155261099338,-0.056018824341893196,-0.07754212589655071
1772735067788121300,1.161121337890625,0.04102992952466011,-0.048994624793529507,-0.03711198889594525
1772735067798147300,1.171147216796875,0.046263154003024096,-0.05006046392675489,-0.036918859210330994
1772735067808174300,1.18117431640625,0.049098085168004034,-0.036870946681685744,-0.028671949466597287
1772735067818201300,1.191201416015625,0.046999651584029196,-0.038662287077866495,0.004579162750113755
1772735067828228400,1.201228271484375,0.048046530288457866,-0.027250995019078253,-0.003846501094009727
1772735067838255400,1.21125537109375,0.05388765753209591,-0.014507358377985655,0.010755421965941786
1772735067848281300,1.22128125,0.059276949355006214,-0.027037388801015912,0.019367475227639076
1772735067858308400,1.231308349609375,0.045516135028004646,-0.040533889636024834,-0.0008903181695379316
1772735067868335400,1.24133544921875,0.04581891736686229,-0.04366648857332766,-0.017976240064948797
1772735067878362400,1.2513623046875,0.03759118724763393,-0.06733732355069369,-0.04001192985484376
1772735067888389400,1.261389404296875,0.0524064790636301,-0.05112688758186996,-0.04235021834298968
1772735067898416400,1.27141650390625,0.05270984592437744,-0.04015712874550372,-0.05639547563455999
1772735067908442400,1.2814423828125,0.05465688833892345,-0.01886164459735155,-0.06222566135907545
1772735067918469400,1.291469482421875,0.05151917483508586,-0.003293561652675271,-0.08312312263296917
1772735067928496400,1.301496337890625,0.051527358141541475,0.0006217851601541042,-0.06928770869979635
1772735067938523400,1.3115234375,0.04749824875593185,0.005957008708268404,-0.05965442263158038
1772735067948550400,1.32155029296875,0.04810790508687496,0.007134564587660134,-0.06505412625065073
1772735067958576400,1.331576416015625,0.0313531696408987,-0.01275236793681979,-0.043130865592975166
1772735067968603400,1.341603271484375,0.03539630755186081,-0.06753434396013618,-0.03672359236655757
1772735067978630400,1.35163037109375,0.051852936834096905,-0.07878189682457595,-0.02119165844749659
1772735067988657400,1.361657470703125,0.05888239707946777,-0.08656948196087032,-0.008298694729898125
1772735067998684400,1.371684326171875,0.05977905365824699,-0.07707867310326547,-0.0075119100000709295
1772735068008710400,1.38171044921875,0.055582771012187,-0.06368095646761357,0.004040818089712411
1772735068018737400,1.3917373046875,0.052441550377011294,-0.028088724484853445,0.0019983342103660107
1772735068028764200,1.40176416015625,0.05184124639630317,-0.022813633626140653,0.002457585752569139
1772735068038791400,1.41179150390625,0.048852585974335665,-0.007845050944574177,-0.01931247537108138
1772735068048818400,1.421818359375,0.049156537356972695,-0.0019303835406899452,-0.01716872307434678
1772735068058845200,1.43184521484375,0.040785599374771116,-0.022470921135693787,-0.04193741802470758
1772735068068871200,1.44187109375,0.04214052111506462,-0.039160920782387254,-0.05781063966210931
1772735068078898400,1.4518984375,0.050232642155885694,-0.04136223021894693,-0.06597191694900394
1772735068088925400,1.461925537109375,0.04755027120411396,-0.02108187793008983,-0.0680512987726368
1772735068098952200,1.4719521484375,0.046211131554841994,-0.033629553607665,-0.06796206785291432
1772735068108979500,1.4819794921875,0.05294599276781082,-0.042319384813308714,-0.054718792860303074
1772735068119005400,1.49200537109375,0.05264730208218097,-0.03891041662003845,-0.05913944058045745
1772735068129032400,1.502032470703125,0.046508068674802776,-0.03363119757547974,-0.04686051710797474
1772735068139059200,1.51205908203125,0.05967208615243434,-0.030476861730404196,-0.027055052321869878
1772735068149086500,1.52208642578125,0.036323943790793414,-0.011422653703019023,-0.0002351239301264286
1772735068159113500,1.532113525390625,0.03467676110565662,-0.0013600363068282603,0.022195867053978142
1772735068169140200,1.54214013671875,0.047236967471241946,-0.005372742546908557,0.005532024761848151
1772735068179166200,1.552166259765625,0.05426993484795093,-0.03425692825838923,0.010909151222929358
1772735068189193200,1.562193115234375,0.058012628507614135,-0.06382463925462216,0.013915584763605146
1772735068199220500,1.572220458984375,0.048885319200158116,-0.05088672215044498,0.0062487399301491674
1772735068209247200,1.582247314453125,0.04290215313732624,-0.04671392997782677,0.0002539564947597682
1772735068219274200,1.592274169921875,0.0405073669552803,-0.04039027991425246,-0.03286160144247115
1772735068229300200,1.60230029296875,0.04948445413708687,-0.028370938959717748,-0.04812717604292557
1772735068239327500,1.612327392578125,0.047242812690138816,-0.015857823138870297,-0.06456236067833379
1772735068249354200,1.622354248046875,0.04754208789765835,-0.021092655052430926,-0.07921301825083792
1772735068259381200,1.63238134765625,0.054428340280056,-0.03850176275391132,-0.07723640268193557
1772735068269408500,1.642408447265625,0.051288873210549354,-0.02465162617564201,-0.06241332941828295
1772735068279434500,1.6524345703125,0.03333703693449497,-0.02127959245927632,-0.054415352934319525
1772735068289461200,1.662461181640625,0.03423953873217106,-0.02025280669480562,-0.03330967400353402
1772735068299488300,1.67248828125,0.06162555830776691,-0.028461247591674326,-0.036683552617114035
1772735068309515500,1.682515625,0.05309270776212215,-0.04050590565055608,-0.034255266024265436
1772735068319542500,1.69254248046875,0.048750294643640515,-0.030350093545578417,-0.029791948206163942
1772735068329569300,1.7025693359375,0.052637949731945986,-0.03336063700579107,-0.006793514331337064
1772735068339595300,1.71259521484375,0.05308393993377685,-0.03372114088125527,-0.006183711869921535
1772735068349622300,1.722622314453125,0.046645431318879126,-0.02389404927399009,-0.0003923603184521198
1772735068359649500,1.7326494140625,0.05757072995901107,-0.0525408460330218,0.0007515307533554732
1772735068369676300,1.74267626953125,0.05801730468273163,-0.0313963511954993,-0.010888674690481274
1772735068379703300,1.752703369140625,0.04589548973441124,-0.040303368815779686,0.009956179613340645
1772735068389729300,1.762729248046875,0.06445522877573967,-0.007572042689472437,0.0016941818983294069
1772735068399756500,1.772756591796875,0.03707739250659942,-0.004122413692250848,-0.028065361875575033
1772735068409783300,1.782783203125,0.03707914607226848,-0.004089059411920607,-0.028103593260422347
1772735068419810300,1.792810302734375,0.04740823238492012,-0.016228081223368645,-0.022055545267835257
1772735068429837600,1.802837646484375,0.048911038163304325,-0.0409279669875279,-0.046959958894457664
1772735068439864300,1.8128642578125,0.045779169878363606,-0.054333757331781085,-0.08151948682861403
1772735068449890300,1.822890380859375,0.04338438369631767,-0.047790948092192406,-0.06589052227586507
1772735068459917300,1.832917236328125,0.040992520123720164,-0.022154840923845766,-0.08281292417263611
1772735068469944600,1.842944580078125,0.035304537615180015,0.0014388736966997385,-0.07487928162915632
1772735068479971300,1.852971435546875,0.03634498657882213,-0.016613573409616948,-0.06155077603850513
1772735068489998300,1.862998291015625,0.03679273034632206,-0.026658362888172266,-0.03522451291522011
1772735068500024300,1.8730244140625,0.03993336645960808,-0.0389188556548208,-0.03062923928052187
1772735068510051300,1.88305126953125,0.03769172501266002,-0.03612823855560273,0.0012815642431378365
1772735068520078300,1.893078369140625,0.04487725260257721,-0.05060786867644638,0.008832545878272502
1772735068530105300,1.903105224609375,0.05056815772056579,-0.05100519743096083,0.010774108400102704
1772735068540132400,1.91313232421875,0.05894610996544361,-0.04733271946329623,0.01922099769534543
1772735068550159400,1.923159423828125,0.04741641569137573,-0.05955130931697786,-0.004812332185171545
1772735068560185300,1.933185302734375,0.03544657643437386,-0.0411959702739492,-0.010232621934544295
1772735068570212400,1.94321240234375,0.035302784049510955,-0.030531003070436415,-0.025571097374428062
1772735068580239400,1.9532392578125,0.051314007651805875,-0.03142261814791709,-0.021521712385769932
1772735068590266400,1.963266357421875,0.04398118054568767,-0.02366853342242539,-0.04308963853344321
1772735068600293400,1.97329345703125,0.03904313962161541,-0.01556680430304259,-0.036918694813549514
1772735068610320400,1.9833203125,0.060142626273632045,-0.012632650547288357,-0.03213403608659282
1772735068620346400,1.993346435546875,0.043244682964682576,-0.014606106044724582,-0.06000573855359107
1772735068630373400,2.003373291015625,0.04624503382444382,-0.019977277689054607,-0.07953706257343292
1772735068640400400,2.013400390625,0.05656885944008827,-0.013992686854116618,-0.05135886970683932
1772735068650427400,2.023427490234375,0.04654606259763241,-0.007776990677043795,-0.021563670097664
1772735068660454400,2.033454345703125,0.047452071526646614,0.00848188754338771,-0.03244684662912041
1772735068670480100,2.043480224609375,0.04955225867629051,-0.016674911675415932,-0.031252047353982924
1772735068680507400,2.05350732421875,0.04282032007277012,-0.042067784672416744,-0.02137594723952934
1772735068690534400,2.063534423828125,0.0546416907697916,-0.036438144754990937,-0.005349891394283622
1772735068700561400,2.0735615234375,0.05883095915317535,-0.052201421478204425,-0.02129237887561321
1772735068710588400,2.08358837890625,0.0580792640030384,-0.043243513920903205,-0.010110913517326115
1772735068720614400,2.093614501953125,0.0405728334069252,-0.015911526087485254,-0.014026516058482229
1772735068730641400,2.103641357421875,0.06077332539260387,-0.02106649769786745,-0.017305592528078704
1772735068740668400,2.11366845703125,0.050593876683712,-0.034247137516736983,-0.015921006301883606
1772735068750695400,2.1236953125,0.052986909300088876,-0.03750131700709462,-0.012511636249814181
1772735068760722400,2.133722412109375,0.038927404287457466,-0.027877346756495534,-0.011703717400413005
1772735068770749700,2.143749755859375,0.05194996746778488,-0.024750483440235255,-0.011810429177898913
1772735068780775400,2.153775390625,0.05480944855213165,-0.016696319789625703,-0.022754797844681887
1772735068790802400,2.163802490234375,0.058414779567718504,-0.008543664200603962,-0.02860337774241343
1772735068800829400,2.173829345703125,0.044049569606781004,-0.003227876005321741,-0.039073918352369216
1772735068810856700,2.183856689453125,0.04270809186995029,-0.02964077623244375,-0.03953784606968984
1772735068820883500,2.193883544921875,0.05334522121846676,-0.04524184813126921,-0.06110790937552228
1772735068830910500,2.203910400390625,0.042731472745537756,-0.046538646476157006,-0.046781990245357154
1772735068840936400,2.2139365234375,0.03884264861345291,-0.023142463721707463,-0.014015775468759237
1772735068850963700,2.223963623046875,0.048425300472974775,-0.018117913557961583,-0.020752609443105755
1772735068860990500,2.233990478515625,0.034809447574615474,-0.001255151160247624,-0.012237075358442961
1772735068871017500,2.244017578125,0.04618073641657829,-0.029602490048669276,-0.025191760934330523
1772735068881044500,2.25404443359375,0.035551205852627756,-0.042329979272559284,-0.010876545861270279
1772735068891070700,2.26407080078125,0.04363046741187572,-0.05861512444540858,-0.01798051438126713
1772735068901097500,2.274097412109375,0.04423135591447353,-0.04501688026897609,0.004540346843376755
1772735068911124500,2.28412451171875,0.052311201995611185,-0.022395883138105272,0.006228190332464873
1772735068921151500,2.2941513671875,0.048726329246163366,-0.017884104802086947,0.014461656072735786
1772735068931178500,2.304178466796875,0.04124912523329258,-0.024351949109323322,-0.023261523524113
1772735068941205500,2.31420556640625,0.04633446567356586,-0.015128011026978493,-0.02834764941567555
1772735068951231500,2.3242314453125,0.027485388296842574,-0.02132774244993925,-0.03202418250394985
1772735068961258500,2.334258544921875,0.044696050816774364,-0.008412329438515007,-0.04747411896167323
1772735068971285500,2.344285400390625,0.04484802650809288,-0.004693491578474641,-0.03643509428137913
1772735068981312500,2.3543125,0.037221184891462325,-0.02221435255873948,-0.04509626564811915
1772735068991339500,2.364339599609375,0.04380348589122295,-0.02572352972347289,-0.033746750246547164
1772735069001366300,2.3743662109375,0.040210429835319514,-0.032180816104076804,-0.03521715159267187
1772735069011392500,2.384392578125,0.038564416193962094,-0.016594320719875395,-0.013184512276388704
1772735069021419500,2.39441943359375,0.03871288475394249,-0.024952654948830602,-0.0046957383344881235
1772735069031446500,2.404446533203125,0.054423664104938506,-0.02224748764336109,-0.015088683663588016
1772735069041473300,2.414473388671875,0.04663958609998226,-0.0218924636606127,-0.008419215837027877
1772735069051500500,2.42450048828125,0.052172670307755464,-0.024585757865197955,-0.016166779490187765
1772735069061527600,2.434527587890625,0.0463327121078968,-0.03475274895131588,-0.0063981583382003
1772735069071553500,2.444553466796875,0.031221652215719223,-0.027131533357873557,-0.0168849924958311
1772735069081580300,2.454580322265625,0.05187339510023593,-0.019073095390945673,-0.01152295400602743
1772735069091607600,2.464607666015625,0.0509773230433464,-0.009811346048861741,-0.016475315716397015
1772735069101634600,2.474634521484375,0.046797407010197634,-0.013906141081824898,-0.025176599897816777
1772735069111661300,2.484661376953125,0.044858547902107235,-0.02233491019848734,-0.018771920487284658
1772735069121687300,2.494687255859375,0.04770809211432934,-0.028715405015833674,0.0013283077280037104
1772735069131714600,2.504714599609375,0.047557869988679884,-0.013808964317664504,-0.012397307421453296
1772735069141741600,2.514741455078125,0.033496026888489724,-0.03158244835212826,-0.021388404862303284
1772735069151768300,2.524768310546875,0.05535013130009174,-0.04555102367829531,-0.032513664787635205
1772735069161795300,2.53479541015625,0.03754851714968681,-0.01912135497946292,-0.02183823098903522
1772735069171822600,2.544822509765625,0.049370472368597984,-0.031509967637807126,-0.014174747156444937
1772735069181848600,2.5548486328125,0.04293605540692806,-0.02975837473012507,-0.026418160924129186
1772735069191875600,2.56487548828125,0.048478491964936254,-0.02160718044582754,-0.01598831765074283
1772735069201902300,2.57490234375,0.032925533524155615,-0.016870909171551464,-0.013306038030516356
1772735069211929600,2.5849296875,0.05387129091918468,-0.0011720759866759181,-0.003725779057480395
1772735069221956600,2.59495654296875,0.05132978974282741,-0.0012463102666661144,-0.015570238369144498
1772735069231983400,2.6049833984375,0.057169747942686075,-0.015753376383706927,-0.014627002702280878
1772735069242009300,2.61500927734375,0.05268295791745185,-0.03597056377585977,-0.007025405124761163
1772735069252036600,2.62503662109375,0.05942015721797943,-0.03670304276887327,0.011807159508578479
1772735069262063600,2.635063720703125,0.0734901836246252,-0.03294785495381802,-0.00020991642363369463
1772735069272090400,2.64509033203125,0.05359072041213512,-0.02726462168563157,-0.005004603354260325
1772735069282117600,2.65511767578125,0.037433366337418554,-0.013743972790054976,-0.01635194506505504
1772735069292143600,2.6651435546875,0.04850654901564121,-0.013426687001809478,-0.02904056358328089
1772735069302170600,2.675170654296875,0.049099254211783405,-0.008887582267448306,-0.02504955771835521
1772735069312197400,2.685197265625,0.04236497752070427,-0.006137187580764293,-0.028641901388205587
1772735069322224400,2.695224365234375,0.05479074385166168,-0.008816087933816016,-0.025796887220628558
1772735069332251600,2.705251708984375,0.04282850337922573,-0.014532931210659444,-0.029802926257904618
1772735069342278400,2.7152783203125,0.04822305589914322,-0.034057058304734524,-0.02317689571427181
1772735069352304400,2.725304443359375,0.045834699457883835,-0.026307503623887896,-0.018351265656109898
1772735069362331400,2.735331298828125,0.0377536843329668,-0.013644713666662573,0.002488382749632001
1772735069372358700,2.745358642578125,0.05076280350983142,0.0012175590962171553,-0.018345438703522086
1772735069382385400,2.755385498046875,0.045373511686921116,-0.006366247096285224,-0.010534180430695414
1772735069392412400,2.765412353515625,0.03610007190704345,0.004898293435573578,0.005487199239432811
1772735069402439700,2.775439697265625,0.04104103544056415,0.0052119990272447465,-0.021449925791192797
1772735069412465700,2.785465576171875,0.05346329464018344,0.004320237819291651,-0.008283259698748588
1772735069422492400,2.795492431640625,0.03267068198025226,0.03525003094896674,-0.013110880784597247
1772735069432519400,2.80551953125,0.04688976146876812,0.06441913454905152,0.004322228846978396
1772735069442546700,2.815546630859375,0.06216156488060951,0.035829876663535834,-0.000053118426725268364
1772735069452573400,2.825573486328125,0.05377952098250389,-0.024074593472667036,-0.0091531926673837
1772735069462600400,2.835600341796875,0.04525193113386631,-0.04665935024637729,-0.030308957817591724
1772735069472626400,2.84562646484375,0.05109364289939403,-0.018872494784928858,-0.04075516770388931
1772735069482653400,2.8556533203125,0.044966684451699254,0.027148776753619312,-0.07678383660884573
1772735069492680400,2.865680419921875,0.04257598992288113,0.0421809261906892,-0.06635980202173813
1772735069502707500,2.87570751953125,0.04871054715514183,0.018946181075647474,-0.032744222140498457
1772735069512734500,2.885734375,0.04437339473366737,-0.02528835317660123,-0.07882898736931383
1772735069522761500,2.895761474609375,0.04257657444477081,-0.06642484834827482,-0.06560531212631612
1772735069532787500,2.905787353515625,0.03704465928077698,-0.05530808225665241,-0.04897686994113028
1772735069542814500,2.915814453125,0.052903907191753384,-0.007646203904226422,0.018934983828198165
1772735069552841500,2.925841552734375,0.05469780487120151,-0.017292970508523284,0.07457712034480646
1772735069562868500,2.935868408203125,0.04168167143166065,-0.10141228283829987,0.03411207642760128
1772735069572895500,2.9458955078125,0.03868365865945816,-0.16001385368239135,-0.05497627475271001
1772735069582922500,2.955922607421875,0.049152445703744885,-0.1556113444071263,-0.1052659260591492
1772735069592948500,2.965948486328125,0.04047580277323723,-0.0780443397976458,-0.025234796358458697
1772735069602975500,2.9759755859375,0.040625440376996995,0.03359572440329939,0.1236826946995221
1772735069613002500,2.98600244140625,0.0464636450111866,-0.008376673603244126,0.1850321029470302
1772735069623029500,2.996029541015625,0.04392857357561588,-0.14558127757366746,0.14479913248633966
1772735069633056500,3.006056396484375,0.0448252301543951,-0.2044831100059673,0.05281648463662714
1772735069643082500,3.01608251953125,0.05724456674456596,-0.12224818665068596,0.017424268737994134
1772735069653109500,3.026109619140625,0.044531800165772434,0.03741382138673216,-0.007306742816790938
1772735069663136500,3.036136474609375,0.06114508131444454,0.16300262370221316,-0.021366467025130984
1772735069673163500,3.04616357421875,0.060849897760152816,0.1747162597084418,-0.08947546906806528
1772735069683190500,3.0561904296875,0.04933364748954773,0.08781838604342192,-0.17320726165128872
1772735069693217500,3.066217529296875,0.04035889839529991,-0.01764642358869314,-0.1911311687408015
1772735069703243500,3.076243408203125,0.04933657009899616,-0.06582666325941681,-0.1620473140050657
1772735069713270500,3.0862705078125,0.04005786962211132,-0.04915233610589057,-0.0768386538023129
1772735069723297500,3.096297607421875,0.03855740193128586,-0.02188482834342867,-0.025523294443637132
1772735069733324500,3.106324462890625,0.053068742364645004,0.017801504552550612,0.008718819838110356
1772735069743351600,3.1163515625,0.06518646565973758,0.021990371077135203,0.021725546128489075
1772735069753378300,3.12637841796875,0.05127016851007938,0.01357968560643494,0.03962815470164641
1772735069763404500,3.136404541015625,0.05576163471043109,0.002767345821484923,0.017269827094953505
1772735069773431600,3.146431640625,0.054716509571671484,0.008673099266551434,0.016383618844952434
1772735069783458600,3.15645849609375,0.044538814428448675,0.021389336444064974,0.012300094124674796
1772735069793485600,3.166485595703125,0.045291094100475306,-0.012314013052172957,-0.012254939808696508
1772735069803512600,3.1765126953125,0.054573886230587954,-0.03507445518635213,-0.016761311317235232
1772735069813539600,3.18653955078125,0.037217677760124204,-0.0646113691855222,-0.03253868963103741
1772735069823565600,3.196565673828125,0.051582887721061704,-0.05248093253932893,-0.028786150430794803
1772735069833592600,3.206592529296875,0.037818566262722016,-0.014226093751192092,-0.005629822580516338
1772735069843619600,3.21661962890625,0.035872692891955375,0.007454005800373852,0.005584120275266468
1772735069853646600,3.226646484375,0.02809329106211662,0.005033317992091179,0.017527765645086766
1772735069863673600,3.236673583984375,0.040515550261735915,-0.004648702588677406,0.028267423786316064
1772735069873700600,3.24670068359375,0.04036883526742458,-0.033875454660132524,0.007664707675296813
1772735069883726600,3.2567265625,0.04141688301563263,-0.04146620205007493,-0.0014215024367906152
1772735069893753600,3.266753662109375,0.05279284803271293,-0.02633461082652211,-0.027784316444490104
1772735069903780400,3.2767802734375,0.0343903453797102,-0.00985116660259664,-0.07642941541429608
1772735069913807600,3.2868076171875,0.032742578172683716,-0.03063512103203684,-0.08679815788390115
1772735069923834600,3.296834716796875,0.052640287819504736,-0.04108761452864855,-0.07874083416182548
1772735069933861400,3.306861328125,0.058472647234797476,-0.03179283969979733,-0.06054410148030147
1772735069943887400,3.316887451171875,0.056528527429699896,-0.03539444438833743,-0.0373995919319801
1772735069953914600,3.32691455078125,0.04965221191942692,-0.023617826148495075,0.0007492839973419905
1772735069963941600,3.336941650390625,0.046961657661199564,-0.01684811281785369,0.024908158219978212
1772735069973968400,3.346968505859375,0.05743921253383159,-0.01311049719210714,0.04671179281966761
1772735069983995600,3.35699560546875,0.04247895928919315,0.017215302162431178,0.07126125552877784
1772735069994022700,3.367022705078125,0.05954407585859298,0.01908321492616087,0.06952418433679268
1772735070004048600,3.377048583984375,0.06268997266888618,0.009285897402651608,0.04467060584826395
1772735070014075400,3.387075439453125,0.04667991811037063,-0.03550550354737788,0.003318623028695583
1772735070024102700,3.3971025390625,0.03904723127484321,-0.05292863977421075,-0.02967838656278327
1772735070034129700,3.407129638671875,0.03949848217368126,-0.06993760570958256,-0.05410544673493132
1772735070044156700,3.41715673828125,0.052525721529126164,-0.060458889148570595,-0.07678182731484993
1772735070054183400,3.427183349609375,0.04803776246011257,-0.024562121261283754,-0.0979675492119044
1772735070064209400,3.43720947265625,0.04639174881875515,-0.013777984657511115,-0.09700296022975817
1772735070074236700,3.447236572265625,0.060014031457901,-0.0028606866607442496,-0.062079786614980544
1772735070084263700,3.457263671875,0.04430325210690498,-0.0023721724914386867,-0.054244709075149146
1772735070094290400,3.46729052734375,0.035626609176397324,0.0005150368500500917,-0.010605400769691914
1772735070104317700,3.477317626953125,0.04550327554643154,-0.0021265271672978995,0.014612243524566292
1772735070114344700,3.4873447265625,0.05388941109776497,-0.004381174226291478,0.02170733461836353
1772735070124370700,3.49737060546875,0.05239478862583637,0.004158507918938994,0.029593155964743344
1772735070134397400,3.5073974609375,0.05284194787144661,0.006854213276319205,0.03789773244615644
1772735070144424700,3.5174248046875,0.03652794193029404,0.025594350385852158,0.0164799188262783
1772735070154451700,3.52745166015625,0.039675007784366605,0.013405863409489393,0.006228299930319189
1772735070164478500,3.537478515625,0.05583645351231098,-0.014067176862433552,-0.012576518179569392
1772735070174505500,3.54750537109375,0.0506026445120573,-0.029860227669402956,0.005340703440830112
1772735070184531700,3.55753173828125,0.036089550513029096,-0.02877108072582632,-0.021763393920846284
1772735070194558700,3.567558837890625,0.030250761356949804,-0.02256024338696152,-0.020400270607788113
1772735070204585500,3.57758544921875,0.04057575601637363,0.000010375263541936875,-0.031048999062553047
1772735070214612500,3.587612548828125,0.06242109259963035,0.010099990264512597,-0.03560226018643006
1772735070224639700,3.5976396484375,0.053288522595167157,-0.001971227007731795,-0.03587245542993769
1772735070234666500,3.60766650390625,0.04431318897902965,-0.007270685122720897,-0.043795211253222076
1772735070244693500,3.617693603515625,0.053742696103453634,-0.03805924315080046,-0.042030996325984595
1772735070254719500,3.627719482421875,0.050906011372804635,-0.04677245523203164,-0.0276266599310562
1772735070264746800,3.637746826171875,0.045970893058180806,-0.03339556218869984,-0.0406758005910553
1772735070274773500,3.6477734375,0.05165829104483127,-0.012956110347993672,-0.023684973100572822
1772735070284800500,3.657800537109375,0.04522445860505104,-0.020950725831091404,-0.009635989481955766
1772735070294827500,3.66782763671875,0.051803252473473546,-0.011832367015071213,-0.001915679161902517
1772735070304854500,3.6778544921875,0.052093759852647775,-0.011836312537826597,-0.0014617613819427788
1772735070314880500,3.687880615234375,0.04819675241410732,-0.00652344695199281,0.0033498766834847626
1772735070324907500,3.697907470703125,0.05058744694292545,-0.004577865842171013,0.018475403492432086
1772735070334934500,3.7079345703125,0.0526852960050106,-0.004832132864184677,0.014030187586601822
1772735070344961500,3.71796142578125,0.04400982211828232,-0.018963241808302698,0.01874066683249548
1772735070354988500,3.727988525390625,0.04715454988479614,-0.013853351448662577,0.005798292748909443
1772735070365015600,3.738015625,0.04296352793574333,-0.017502996530011295,-0.00401097094072029
1772735070375041500,3.74804150390625,0.03788286367058754,-0.011494221101887523,-0.014069770678319037
1772735070385068500,3.758068603515625,0.03803542388379574,-0.009685052788071333,-0.030190025879349557
1772735070395095600,3.768095458984375,0.05285889900624752,-0.009039923284947871,-0.03435377622898668
1772735070405122600,3.77812255859375,0.03685059801340103,-0.009080839817225933,-0.04117914700331166
1772735070415149600,3.788149658203125,0.03161503544747829,-0.01877199355252087,-0.035668073697946966
1772735070425176600,3.798176513671875,0.044483869370818135,-0.027621691494993862,-0.03526146565843373
1772735070435202600,3.80820263671875,0.03445873444080352,-0.018774587368406353,-0.038997711311001326
1772735070445229600,3.8182294921875,0.04239128100574016,-0.016743739127926528,-0.01933631290439516
1772735070455256600,3.828256591796875,0.04583820658922195,-0.020142733916454016,-0.008735259516257792
1772735070465283600,3.83828369140625,0.03910159181058406,-0.02242996807079762,0.011546974202431738
1772735070475310600,3.848310546875,0.04463701410591602,-0.03773395671918988,0.014060272197611629
1772735070485337600,3.858337646484375,0.04628419679105281,-0.017089081966876984,0.011019826789479702
1772735070495363600,3.868363525390625,0.04538578664660454,-0.01017791433893144,0.008252371370140463
1772735070505390600,3.878390625,0.0395534272313118,-0.01015920963846147,-0.0030095570795238016
1772735070515417600,3.88841748046875,0.04104688065946102,0.004812076456844806,-0.015142350079584865
1772735070525444600,3.898444580078125,0.050023967841267586,0.012687412941828369,-0.0024424795149825514
1772735070535471600,3.9084716796875,0.04329027567207813,-0.0031061493217945098,-0.01566399933351204
1772735070545498600,3.91849853515625,0.04569090707302093,-0.014793737571313977,-0.013197901480924337
1772735070555524600,3.928524658203125,0.03252805863916874,-0.01185604015160352,-0.028683639904391017
1772735070565551600,3.938551513671875,0.03283376358747482,-0.01288096275255084,-0.033305162225198
1772735070575578600,3.94857861328125,0.04136836769878864,-0.005959164132736623,-0.05118154037855565
1772735070585605600,3.958605712890625,0.040622517767548556,-0.003741159289702773,-0.05580054194871336
1772735070595632600,3.968632568359375,0.052448564639687535,-0.015250687558576463,-0.03646638446878642
1772735070605659400,3.978659423828125,0.04810848960876465,-0.012226444366574286,-0.030343864734191445
1772735070615686700,3.988686767578125,0.029850363862514495,-0.015362513902597128,-0.033326205013226716
1772735070625712600,3.998712646484375,0.042724458482861515,-0.0008154811013489961,-0.016618286117352544
1772735070635739600,4.00873974609375,0.03838730606138706,-0.025532098804600535,0.010019636770989744
1772735070645766400,4.018766357421875,0.04616495432555675,-0.021865685251541433,0.004984693077392876
1772735070655793700,4.028793701171875,0.05678337897360324,-0.023431034872122107,-0.011467643622215836
1772735070665820700,4.038820556640625,0.04989361945986748,-0.0312795564154163,0.0014082228301092981
1772735070675847400,4.048847412109375,0.04301496586203575,-0.01501910729240626,0.015290106253512202
1772735070685873400,4.058873291015625,0.06231646318137645,-0.017862075633369386,-0.01903676370223984
1772735070695900700,4.068900634765625,0.05019406371116638,-0.023812325807288287,-0.025612507097050548
1772735070705927700,4.078927734375,0.04151800530254841,-0.009531725389882922,-0.02072111832629889
1772735070715954400,4.088954345703125,0.053497781431674954,-0.012452033283375203,-0.00863930659480393
1772735070725981400,4.0989814453125,0.035094109734892846,-0.016638159861601887,-0.027117906691320238
1772735070736008700,4.1090087890625,0.05992986030578613,-0.03149612177554518,-0.03790914888931438
1772735070746034700,4.11903466796875,0.04002279830873012,-0.007238901744969189,-0.02263288849806413
1772735070756061400,4.1290615234375,0.04122399079203606,-0.025709829991683364,-0.026738332789205014
1772735070766088400,4.13908837890625,0.03434358362853527,-0.0037611791644245386,-0.027147315448895096
1772735070776115000,4.149114990234375,0.04946224230527878,-0.00975307652298361,-0.030146844324748963
1772735070786142000,4.159141845703125,0.043479076242446894,-0.01500716112628579,-0.018505031445715574
1772735070796168700,4.169168701171875,0.04632277523577213,-0.020370368659868836,-0.014301204814016819
1772735070806194700,4.179194580078125,0.048423546907305715,-0.005806348191201687,-0.007069499994814396
1772735070816221700,4.1892216796875,0.05291325954198837,-0.014511523096449673,-0.004621412722952664
1772735070826249000,4.1992490234375,0.05335808070003986,-0.007242847267724574,-0.008440112494584172
1772735070836275700,4.209275634765625,0.04932429513931274,-0.004845759530737996,-0.0020406572484411296
1772735070846302700,4.219302734375,0.049320203486084936,-0.013727204318344592,-0.01810162001028657
1772735070856330000,4.229330078125,0.046323944279551506,-0.013090696513094007,-0.0069387497546151275
1772735070866356700,4.239356689453125,0.04527765009701252,-0.02796703433394432,-0.0070160345082171255
1772735070876382700,4.2493828125,0.03525426873266697,-0.009611476095207036,-0.01533308687871322
1772735070886409700,4.25940966796875,0.04752747485041618,0.0021190745132043955,0.015007234191522001
1772735070896437000,4.26943701171875,0.05246434673070907,-0.008935695725493133,0.0001302205172367394
1772735070906463700,4.279463623046875,0.05351590161025524,0.0048287353307008745,-0.014024817291740327
1772735070916490800,4.28949072265625,0.06818506295382976,-0.00830616565030068,-0.019190639089699833
1772735070926517800,4.299517822265625,0.0502279659807682,-0.012705825381353496,-0.01600338735571131
1772735070936544000,4.3095439453125,0.031823709762096405,-0.007415902279689908,-0.029295086333621292
1772735070946570800,4.31957080078125,0.05845920323133468,-0.022260018331371246,-0.018178210644144564
1772735070956597800,4.32959765625,0.04618775067925453,-0.022174678135477004,-0.010501958661526442
1772735070966624800,4.339624755859375,0.052470776471495624,0.004212978052534163,-0.019708909076452254
1772735070976652000,4.349652099609375,0.05861000987887382,-0.010340119163319467,-0.009490571395587176
1772735070986678800,4.3596787109375,0.047832595276832576,0.0020543387139216065,0.0006770772776566445
1772735070996705800,4.369705810546875,0.06444295381605625,0.005895049387961626,0.0025885369221679863
1772735071006731800,4.379731689453125,0.04633797280490398,-0.007043561835959554,-0.014680522987805306
1772735071016759000,4.389759033203125,0.04514204101860523,-0.022198972326517102,-0.028631343461573124
1772735071026785800,4.399785888671875,0.05067337166070938,-0.025970234493538736,-0.015700531951617448
1772735071036812800,4.409812744140625,0.02897650363743305,-0.0335863720530644,-0.029781426812149583
1772735071046839800,4.41983984375,0.04363865071833133,-0.03122055623717606,-0.03972798008061945
1772735071056866800,4.42986669921875,0.04379004188776016,-0.035212329287081956,-0.043916536077950145
1772735071066892800,4.439892822265625,0.05022270528376102,0.012942702877148986,-0.04044257635707035
1772735071076919800,4.449919921875,0.04558043243587017,0.011941526477970182,-0.017414240534324197
1772735071086946800,4.45994677734375,0.05306348166763782,0.04019157900437712,0.00866787510216236
1772735071096973800,4.469973876953125,0.05486731621921062,0.051194984382018444,-0.011976451660878955
1772735071107000800,4.480000732421875,0.04813479309380054,0.026160788629576562,-0.006129588796198368
1772735071117027800,4.49002783203125,0.05112871421277523,0.0009686623690649866,0.016626104097627104
1772735071127053800,4.5000537109375,0.05097907660901546,-0.025061010694131254,0.02081252293679863
1772735071137080800,4.510080810546875,0.052020694616436956,-0.03426058152019977,0.013488920316752046
1772735071147107800,4.52010791015625,0.04064472959935665,-0.0455590608542785,0.007389416131563484
1772735071157134800,4.530134765625,0.03914835356175899,-0.05439750675037503,0.00438983245678246
1772735071167161900,4.540161865234375,0.05485737934708595,-0.017806399923376737,0.0199650757946074
1772735071177188900,4.55018896484375,0.041081951972842215,-0.0038268648117780685,-0.010987203161511569
1772735071187216000,4.5602158203125,0.049013914015889164,0.0030824031200259922,-0.011141443875152616
1772735071197241900,4.570241943359375,0.06517068356871604,-0.0034383404182270166,-0.01425051580639556
1772735071207268600,4.5802685546875,0.05394786328673362,-0.014201178505644202,-0.006596256459876894
1772735071217296000,4.5902958984375,0.056496963247656816,-0.0266741084465757,-0.011160660032276063
1772735071227323000,4.600322998046875,0.057547933605313295,-0.03630249914396554,0.006643091276288032
1772735071237349600,4.610349609375,0.0410913043230772,-0.0305275324717164,0.01050188559629023
1772735071247377000,4.620376953125,0.04304185386896133,-0.029615093801915644,-0.008907620408479124
1772735071257403000,4.63040283203125,0.04917699562311172,-0.0013270473526790737,-0.018473978720325974
1772735071267430000,4.640429931640625,0.04334112907648086,-0.015603446519002317,-0.025601638643164185
1772735071277456600,4.65045654296875,0.054715925049781795,-0.000040551206097006796,-0.0180981311452575
1772735071287484000,4.66048388671875,0.04544599240124225,-0.010063019254989921,-0.021334391386434434
1772735071297511000,4.670510986328125,0.051882162928581235,-0.018410284100659192,-0.03362445730743929
1772735071307538000,4.680537841796875,0.038270401683449744,-0.02629084475003183,-0.026004666486103088
1772735071317564700,4.690564697265625,0.04755436285734176,-0.03193933549840003,-0.017418039926607162
1772735071327591000,4.7005908203125,0.04994973356127739,-0.03132197078503668,-0.023871563447546214
1772735071337618000,4.710617919921875,0.04096446307301521,-0.025865166683867572,-0.016361151284817604
1772735071347645000,4.72064501953125,0.047699324285984036,-0.018455036557838318,-0.012530578412301837
1772735071357671700,4.730671630859375,0.04081716355681419,-0.0006796893598511814,0.008845661088172346
1772735071367699000,4.740698974609375,0.05668167216479778,-0.003886303381435573,0.004529387057945132
1772735071377726000,4.750725830078125,0.04111877685189247,0.005899542899988591,0.010792685236409305
1772735071387752000,4.760751953125,0.045757542568445206,-0.0033125220814719794,-0.018581092356611043
1772735071397778700,4.77077880859375,0.04217208529710769,-0.014637633694149553,-0.026899021509941667
1772735071407806000,4.780805908203125,0.05175532167851925,-0.006588840338401496,-0.006274166632350534
1772735071417833000,4.7908330078125,0.049667409488558766,-0.02602258573528379,-0.047676546198595314
1772735071427859700,4.800859619140625,0.06118833593428134,-0.015691380530782045,-0.04476162686627358
1772735071437886700,4.81088671875,0.04038753996789455,-0.009445325748063624,-0.013950272484496234
1772735071447914000,4.8209140625,0.04951075762212276,-0.009733421974442899,-0.015002959875203668
1772735071457940000,4.83093994140625,0.048611762955784794,-0.007531308820284903,0.0005347461975179612
1772735071467966700,4.840966796875,0.05085808057785034,-0.010192819647118448,-0.0009809007961302995
1772735071477993700,4.85099365234375,0.0520581040173769,-0.024597777096554637,-0.005432217649184167
1772735071488021000,4.86102099609375,0.05370587122440338,-0.019741861497983335,0.008235602898430078
1772735071498047700,4.8710478515625,0.04323299252688884,-0.010949629363790153,0.001595525563135743
1772735071508074800,4.88107470703125,0.06209259129762649,-0.005243892002850771,0.0026782427659258244
1772735071518102000,4.89110205078125,0.058203767165541646,-0.015953867391869426,-0.009117500299494713
1772735071528128000,4.9011279296875,0.037706338059902186,-0.021116876178234815,-0.03756811689930036
1772735071538154800,4.91115478515625,0.0375578694999218,-0.017504567432589827,-0.010799297640286386
1772735071548181800,4.921181640625,0.054469841334223744,-0.018820654999837278,-0.008336341592855751
1772735071558209000,4.931208984375,0.06135492467284202,-0.020914448941312728,-0.01604072369141504
1772735071568235800,4.94123583984375,0.04444762901365757,-0.00023253011424094437,-0.007555950071197003
1772735071578262800,4.9512626953125,0.050881461453437804,0.0005505100222304463,-0.018681082132365554
1772735071588288800,4.961288818359375,0.04908873281776905,-0.015588760406523941,-0.03345757630793378
1772735071598315800,4.971315673828125,0.04759411034584045,-0.0031533859970048067,-0.02198520171167329
1772735071608342800,4.9813427734375,0.046694531157612795,-0.0032177930027246474,-0.04016690122084692
1772735071618369800,4.991369873046875,0.05522329005002975,-0.022805486852303145,-0.03486967159556225
1772735071628396800,5.001396728515625,0.03756722185015678,-0.0031595600094646214,-0.02275225882772356
1772735071638423800,5.011423828125,0.037573651590943336,-0.011046185073442757,-0.020022413738723842
1772735071648450800,5.021450927734375,0.04176408901810646,-0.021219788563437758,-0.011814356434345245
1772735071658476800,5.031476806640625,0.046696869245171545,-0.011262494705244899,-0.012877620017994194
1772735071668503800,5.04150390625,0.035925884383916855,-0.009163549664616584,0.006538918515760451
1772735071678530800,5.05153076171875,0.03921557357907295,-0.0036514351796358823,-0.0019334157479926942
1772735071688557800,5.061557861328125,0.0523760839253664,-0.008562953422963619,-0.0031357590087689458
1772735071698584800,5.071584716796875,0.04578910675048828,-0.015231142607890068,-0.0009237272487953304
1772735071708611800,5.08161181640625,0.03815525087118148,-0.026615911985933778,-0.01940488462857902
1772735071718638800,5.091638916015625,0.050424365335702895,-0.03564257393050939,-0.011040705180726945
1772735071728664800,5.101664794921875,0.060899582120776174,-0.016714220772497356,0.002379771276004612
1772735071738691800,5.11169189453125,0.052366731575131414,-0.009653598203882575,-0.02017948573026806
1772735071748718800,5.12171875,0.050721302455663676,0.04108677427843213,-0.00835678159268573
1772735071758745900,5.131745849609375,0.04249532590210438,0.10313161744419484,-0.018251184548810123
1772735071768772900,5.14177294921875,0.04309387631714344,0.049760202338546514,-0.03988784681744873
1772735071778800000,5.151800048828125,0.048481999096274375,-0.0684594229158014,-0.042776700126752255
1772735071788826400,5.161826416015625,0.05222469275593757,-0.14625640035625545,-0.019198146542720496
1772735071798853400,5.171853271484375,0.03501812188923359,-0.15373696536999196,-0.010888492027390747
1772735071808880400,5.18188037109375,0.05192892467975616,-0.08947590745948254,0.012183134947810322
1772735071818907100,5.1919072265625,0.03786357444822788,-0.003269778918288648,0.024130926769785583
1772735071828934400,5.201934326171875,0.05148527256548405,0.0650197673233226,0.02221838941304013
1772735071838961400,5.21196142578125,0.04744505726397037,0.09419734649080783,0.009795655289385467
1772735071848988400,5.221988525390625,0.0386164386421442,0.08615852653980255,-0.0076405778810381885
1772735071859014400,5.232014404296875,0.04295709819495678,0.027274302829429505,-0.002647719763498753
1772735071869041400,5.24204150390625,0.052093759852647775,-0.04675203349851072,-0.028171069006063042
1772735071879068400,5.252068359375,0.05569499921500683,-0.10518073199372738,-0.034678971329052
1772735071889095400,5.262095458984375,0.06123977386057376,-0.11250194172728806,-0.028360125304758548
1772735071899122400,5.272122314453125,0.04911620534658432,-0.07042337993253021,-0.01856372109670192
1772735071909149400,5.2821494140625,0.03834405144155025,-0.008227803184464573,-0.003303735986817628
1772735071919176400,5.292176513671875,0.04163549420237541,0.058930145211331546,-0.010212309798877686
1772735071929202400,5.302202392578125,0.0407382531017065,0.0963331894757226,0.020863175411801785
1772735071939229200,5.312229248046875,0.05884323411285877,0.07683332004006951,0.00034903263337910176
1772735071949256400,5.32225634765625,0.054956748068332666,0.0009103563105687498,-0.0005790602632798254
1772735071959283500,5.332283447265625,0.04254442574083805,-0.049907940246164795,-0.022297464264929293
1772735071969310200,5.342310302734375,0.05496785398423672,-0.0842443634815514,-0.023389771279972046
1772735071979337500,5.35233740234375,0.05302724131047725,-0.09185158708225935,-0.031703809709474444
1772735071989364500,5.362364501953125,0.04240940118432045,-0.05560374073497951,-0.027803715264704078
1772735071999390500,5.372390380859375,0.05662380449771881,0.022759090427309274,-0.02183357308022678
1772735072009417200,5.382417236328125,0.057069210177659986,0.07230879182033241,-0.005875193910021334
1772735072019444500,5.392444580078125,0.04613806631863117,0.07992408912964165,0.009323763461317866
1772735072029471500,5.402471435546875,0.04943243168890476,0.03624492373783141,0.0035560667800717052
1772735072039498200,5.412498291015625,0.03312193287909031,-0.016749547814205287,-0.00246279165064916
1772735072049525200,5.422525146484375,0.04734101236760616,-0.05888268934041262,0.010645732780080288
1772735072059552500,5.432552490234375,0.06216156488060951,-0.07936320384386926,-0.009437178974226117
1772735072069578500,5.44257861328125,0.03956161053776741,-0.06188592627700418,-0.01734510255455971
1772735072079605200,5.452605224609375,0.042999183771014214,-0.0173821831619367,-0.009826634949538856
1772735072089632300,5.46263232421875,0.0395534272313118,0.0536810290440917,-0.02831714467955753
1772735072099659500,5.472659423828125,0.0440408017784357,0.06944879927933216,-0.024644082190003243
1772735072109686300,5.482686279296875,0.05331541060209274,0.04305204646941274,-0.0370269592273049
1772735072119713300,5.49271337890625,0.041647184640169144,-0.0053747518409043545,-0.03830077855540439
1772735072129740500,5.502740478515625,0.05586626412868499,-0.05586582573726773,-0.027832119375281034
1772735072139766500,5.5127666015625,0.0452478394806385,-0.06906213804930449,-0.016687606760207564
1772735072149793300,5.522793212890625,0.05364098929464817,-0.06632832917124032,0.003584543955884874
1772735072159820300,5.5328203125,0.06112637661397457,-0.02237202733848244,0.017681166108511386
1772735072169847300,5.542847412109375,0.05783318028748035,0.026838797488994894,0.00993177582444623
1772735072179874300,5.552874267578125,0.055582186490297315,0.034265513423644006,0.0009192702693864703
1772735072189901300,5.5629013671875,0.04600304176211357,0.043832894648797804,0.003685410514473915
1772735072199927300,5.57292724609375,0.04570610464215279,0.029766448438726365,-0.013688424944225699
1772735072209954300,5.582954345703125,0.05558978527486324,-0.00021795359961688517,-0.011393391075916588
1772735072219981300,5.592981201171875,0.03928396264016628,-0.05286229653973132,-0.017139405648317188
1772735072230008300,5.60300830078125,0.03973813614845276,-0.0604900149391964,-0.01805383534580469
1772735072240035300,5.613035400390625,0.03585106558203697,-0.04127922811061144,-0.026499172004777936
1772735072250062600,5.6230625,0.030919454398751257,-0.002444726270996034,-0.017994926499109713
1772735072260089300,5.63308935546875,0.04992343007624149,0.03582381224893033,-0.019549864323530345
1772735072270116400,5.643116455078125,0.04498129749894142,0.04529365138374269,-0.008013685509748757
1772735072280142300,5.653142333984375,0.04558218600153923,0.04044482311308384,-0.02098762377537787
1772735072290169600,5.663169677734375,0.03720657184422016,0.01573280851971358,-0.01303414402026683
1772735072300196400,5.6731962890625,0.06489478923678398,-0.033817879253998394,-0.010515201735589653
1772735072310223400,5.683223388671875,0.05172901819348335,-0.06712718793135136,-0.014882256104983388
1772735072320250400,5.69325048828125,0.044697804382443425,-0.059132901241816575,-0.016809735302533952
1772735072330277400,5.70327734375,0.04844342065155506,-0.02942179971951991,-0.008658942877035588
1772735072340304400,5.713304443359375,0.036921325162053105,0.012770195854455232,-0.020933738163672385
1772735072350330400,5.723330322265625,0.038863691401481625,0.041756782494485375,-0.00599796177316457
1772735072360357400,5.733357421875,0.03826280289888382,0.04691522470358759,-0.008870229273848234
1772735072370384400,5.74338427734375,0.05157996511161327,0.029114669999107716,0.0077860872989520425
1772735072380411400,5.753411376953125,0.04754325694143772,-0.021700813546031712,-0.009040690469928085
1772735072390438400,5.7634384765625,0.0464981318026781,-0.04468428731374442,0.006213394622132181
1772735072400465200,5.773465087890625,0.05219020596444607,-0.05863989356048405,-0.017517189452145247
1772735072410491400,5.783491455078125,0.04546002092659473,-0.035510325852967796,-0.015905315542407334
1772735072420518400,5.793518310546875,0.04829962826669216,-0.003912095409817994,-0.02461050871396437
1772735072430545400,5.80354541015625,0.049638183394074435,0.02493921094536781,-0.017802180405985562
1772735072440572200,5.813572265625,0.037970541954040524,0.03863349937479943,-0.0006515592439100146
1772735072450599400,5.823599365234375,0.06191431212127208,0.018986513086035845,-0.026101203929446638
1772735072460626400,5.83362646484375,0.04830430444180965,0.006946750397980213,-0.0351295829070732
1772735072470653200,5.843653076171875,0.04950082074999809,-0.024091581140086055,-0.014087580329645424
1772735072480680400,5.853680419921875,0.04246902241706848,-0.06104001350477337,-0.014274992660526186
1772735072490706400,5.86370654296875,0.04501812237799167,-0.051240138697996734,-0.017255250580329447
1772735072500733400,5.8737333984375,0.05264847112596035,-0.01859188774526119,-0.004080218518339097
1772735072510760200,5.88376025390625,0.059386254948377605,0.007453750072047114,-0.0074091620116494596
1772735072520787500,5.893787353515625,0.050556467282772063,0.032216143145784734,-0.009568659866787493
1772735072530814500,5.903814453125,0.05010521638393402,0.0415645113253966,-0.011538315971940756
1772735072540841200,5.91384130859375,0.05967734684944152,0.020874591854959726,-0.019911226715520022
1772735072550868200,5.9238681640625,0.053090369674563404,-0.026947080169059334,-0.011241945107560604
1772735072560894200,5.933894287109375,0.0616173750013113,-0.02991305383518338,-0.014837613245658576
1772735072570921500,5.94392138671875,0.057578328743577,-0.05178699545841664,-0.02710866393893957
1772735072580948500,5.953948486328125,0.059525371158123015,-0.03438084689900279,-0.046702203007414934
1772735072590975200,5.963975341796875,0.046505146065354344,-0.015117928024381399,-0.023055790085252374
1772735072601002500,5.97400244140625,0.03318506124317646,0.016697598431259394,-0.018252481456752866
1772735072611029500,5.984029541015625,0.03812310216724872,0.04141436226498335,-0.0227015332874842
1772735072621056300,5.99405615234375,0.04665069201588631,0.03719911919012665,-0.017419610829185694
1772735072631082200,6.004082275390625,0.05667991859912872,0.007800298487395048,-0.013556852720119058
1772735072641109500,6.014109619140625,0.06027180561125278,-0.023589805630408228,-0.01038205860890448
1772735072651136500,6.024136474609375,0.05548749394416809,-0.030661935973726212,-0.02369702886454761
1772735072661163300,6.034163330078125,0.044860301467776295,-0.05291300381366163,-0.01765248800329864
1772735072671190300,6.044190185546875,0.04201835604012012,-0.040740554656647145,-0.009687098614685237
1772735072681217500,6.054217529296875,0.039327217260003086,0.009105974258482455,-0.01665801533954218
1772735072691244300,6.064244384765625,0.04860416417121887,0.027893019249662754,-0.0001989749045111239
1772735072701270300,6.074270263671875,0.055931730580329894,0.03600030132699757,-0.01110189731605351
1772735072711297300,6.08429736328125,0.05578150845468044,0.024177798118814823,-0.008826189202722162
1772735072721324500,6.094324462890625,0.06027706630825996,-0.0023978914545848963,-0.002298285271320492
1772735072731351300,6.104351318359375,0.03634440205693245,-0.017160868561454115,-0.01782875788565725
1772735072741378300,6.11437841796875,0.04787760346233844,-0.030144086112082004,0.005708532106224447
1772735072751405600,6.124405517578125,0.03770049284100532,-0.032840887448005375,-0.0006440517908893526
1772735072761432300,6.134432373046875,0.05116787717938423,-0.016119798543304205,-0.021515063449274747
1772735072771458300,6.144458251953125,0.055503276035189626,0.010107369853369892,-0.03316860329871997
1772735072781485600,6.154485595703125,0.048614685565233226,0.020329379062354564,-0.01455485078152269
1772735072791512800,6.164512939453125,0.04876256960332393,0.01561656172890216,-0.010531677946355194
1772735072801539600,6.17453955078125,0.050855742490291594,0.00464413601141423,-0.023398027651663867
1772735072811566600,6.184566650390625,0.041135143464803695,-0.016827581486478446,-0.0232723371790722
1772735072821593600,6.194593505859375,0.051612113815546035,-0.025685133941844105,-0.010540135247446595
1772735072831620600,6.20462060546875,0.04861994626224041,-0.02614624864757061,-0.0026779687712900338
1772735072841646600,6.214646484375,0.048017304193973535,-0.011243059352412819,0.001321001204382628
1772735072851673600,6.224673583984375,0.047716275420784944,-0.00023808307219296693,-0.0036482751081697642
1772735072861700600,6.23470068359375,0.05130757791101932,0.016418598826788366,-0.007913019880559294
1772735072871727600,6.2447275390625,0.054151861426234245,0.01290061730109155,0.013839779581036419
1772735072881754600,6.254754638671875,0.0478664975464344,0.012415391067415476,-0.011616313111595809
1772735072891781600,6.26478173828125,0.04832242462038994,0.004661635135486722,-0.024668522511515766
1772735072901808400,6.274808349609375,0.03724748837649822,-0.0063236865961924195,-0.01931408280627802
1772735072911834600,6.284834716796875,0.04533201063275337,-0.03259593624360859,-0.02507650052420795
1772735072921861600,6.294861572265625,0.0601490560144186,-0.021520926934480666,-0.017877200137265025
1772735072931888600,6.304888671875,0.051017070531845087,-0.007684343957528471,-0.00778634302727878
1772735072941915400,6.314915283203125,0.05370879383385181,0.008094276465289294,-0.03030062838066369
1772735072951942700,6.324942626953125,0.04922258833050728,0.013466909414343534,-0.029552714356500653
1772735072961969700,6.3349697265625,0.04458323809206485,0.03304349734801799,-0.01222065394660458
1772735072971996700,6.34499658203125,0.05191197354495525,0.0250349994700402,-0.019527506361249832
1772735072982023700,6.355023681640625,0.038889410364627834,-0.002032346077822149,-0.02194017525985837
1772735072992049700,6.365049560546875,0.05310498272180557,-0.03076035484690219,-0.008012370335496961
1772735073002076700,6.37507666015625,0.048768999344110484,-0.027788170635700223,-0.01799989493517205
1772735073012103700,6.385103759765625,0.04008884928226471,-0.02228515277262777,-0.021428974334709344
1772735073022130700,6.395130615234375,0.059089317828416824,-0.006621244770660996,-0.016722093551699072
1772735073032157700,6.40515771484375,0.054451136633753776,-0.0002847717581316829,-0.018306494932621716
1772735073042184700,6.415184814453125,0.04935819740891456,0.015573745500482617,-0.00454557100776583
1772735073052211500,6.42521142578125,0.052799277773499485,-0.0033021102853119373,-0.009624244245234876
1772735073062237400,6.435237548828125,0.04920622171759605,-0.012683357821218669,-0.0008053615661337972
1772735073072264700,6.4452646484375,0.06762041480839252,-0.018572525457665322,-0.014126323171146213
1772735073082291700,6.455291748046875,0.06148878018558025,-0.02322184910085052,-0.030073267631884663
1772735073092318500,6.465318359375,0.051615036424994466,-0.025196035250648854,-0.018167908445838838
1772735073102345700,6.475345703125,0.04997019182741642,-0.0179796375984326,-0.01784273161208257
1772735073112372700,6.485372802734375,0.038000937092304225,0.010394443166442216,-0.007619096701592207
1772735073122399500,6.4953994140625,0.051770519247651095,0.009258790200017393,-0.01840535219721496
1772735073132425500,6.505425537109375,0.05834989763796329,0.006312471082434058,-0.0026634653219021853
1772735073142452700,6.51545263671875,0.04233867403566837,-0.001625080451183021,-0.01987942507145926
1772735073152479700,6.525479736328125,0.03366086206138134,-0.016396788853779435,-0.026735172717738894
1772735073162506500,6.535506591796875,0.05251753822267055,-0.026796821510791775,-0.008185260950680822
1772735073172533500,6.545533447265625,0.040403906580805775,-0.027963161876425145,-0.004763506341073662
1772735073182560800,6.555560791015625,0.047288989919424054,-0.02354392066206783,-0.018480664189439267
1772735073192587500,6.56558740234375,0.042945992279052735,-0.0017942630056291817,-0.014439590371400118
1772735073202614500,6.575614501953125,0.05057049580812454,0.0064461073994636535,-0.01898032080726698
1772735073212640500,6.585640625,0.046375382205843925,0.012756532655283807,-0.002463284840993583
1772735073222667800,6.595667724609375,0.05356032527387142,-0.004469911955669522,-0.02587641873024404
1772735073232694500,6.605694580078125,0.0447293685644865,-0.0019140169277787208,-0.026931206746492534
1772735073242721500,6.615721435546875,0.036055063721537585,-0.027059162241406736,-0.015236567701678722
1772735073252748800,6.625748779296875,0.058953124228119845,-0.022161270664632318,-0.008040938842855394
1772735073262775600,6.635775634765625,0.05641279209554195,-0.0194155521530658,-0.02247682115351781
1772735073272802600,6.645802490234375,0.037111879298090934,-0.012188742704689502,-0.020871267386712133
1772735073282828500,6.65582861328125,0.051019993141293525,0.005077485927380621,-0.021783450328186155
1772735073292855600,6.66585546875,0.032605800050497055,0.010862864395789802,-0.01631256290273741
1772735073302882600,6.675882568359375,0.05040799872279167,0.005891724919714033,-0.016299557290691883
1772735073312909600,6.68590966796875,0.047268531653285026,0.006317110724933445,-0.03014695392260328
1772735073322936600,6.6959365234375,0.04502981281578541,-0.011827910035662352,-0.009659461689088492
1772735073332963600,6.705963623046875,0.054763855844736094,-0.017022483004070818,-0.0037069282265380023
1772735073342990600,6.715990478515625,0.04668868593871593,-0.020730105350352822,-0.004857943158876151
1772735073353017600,6.726017578125,0.046539048334956166,-0.01931395494211465,-0.017142090795747935
1772735073363043600,6.736043701171875,0.029776129582524298,-0.007071509288810193,-0.004754756779037416
1772735073373070600,6.746070556640625,0.0403939697086811,0.0007809212446212769,-0.0008467347561381756
1772735073383097600,6.75609765625,0.05221300231814384,0.018729981041699647,-0.02049233280541375
1772735073393124600,6.76612451171875,0.0305079509884119,0.005033975579217076,-0.004716068736463785
1772735073403151600,6.776151611328125,0.04427285696864128,0.0016059008266776798,-0.009402071128226816
1772735073413178600,6.7861787109375,0.03634498657882213,-0.018365604708716274,-0.012261186886392533
1772735073423205600,6.79620556640625,0.05758768109381199,-0.03108224374502897,-0.00028789529697969554
1772735073433231600,6.806231689453125,0.04935702836513519,-0.016368768335692584,-0.019496873760968446
1772735073443258600,6.816258544921875,0.051608022162318225,-0.007679777380265295,-0.02341390107423067
1772735073453285600,6.82628564453125,0.04352876060307025,0.011651786283776163,-0.009221198135986923
1772735073463312600,6.836312744140625,0.04547112684249878,0.01188048047311604,-0.019382380535826086
1772735073473339600,6.846339599609375,0.05610182645022869,0.009617394379340111,-0.014373758593574166
1772735073483366700,6.85636669921875,0.05280979916751385,0.0033682708567008375,-0.005335187015496194
1772735073493393700,6.8663935546875,0.06074760642945766,-0.013823175506107508,-0.013470160817354917
1772735073503420700,6.876420654296875,0.044586745223402974,-0.020082893487997352,0.008714728184882552
1772735073513446700,6.88644677734375,0.05386310761272907,-0.013711203031614423,-0.010474650529492646
1772735073523473400,6.896473388671875,0.05850128880739212,-0.017176431456767022,-0.00928679245179519
1772735073533500700,6.906500732421875,0.03875380128622055,0.007300824532657861,0.0025888839820399877
1772735073543527700,6.916527587890625,0.04039981492757797,-0.0016484613267704843,-0.003485759756527841
1772735073553554400,6.926554443359375,0.05131693026125431,0.0031508652463555333,-0.01404036192074418
1772735073563581700,6.936581787109375,0.05311141246259212,-0.0059243485476821655,0.0009743979901075362
1772735073573608700,6.946608642578125,0.05505728583335876,-0.012547894873283803,-0.006208846311178058
1772735073583634700,6.956634765625,0.05550678316652775,-0.0231258413804695,-0.014086922742519527
1772735073593661400,6.966661376953125,0.05191781876385212,-0.02469758420921862,-0.01453020953061059
1772735073603688700,6.976688720703125,0.04698328497111797,0.0002412248773500323,-0.012878569866064934
1772735073613715700,6.9867158203125,0.0519184032857418,-0.00445511624533683,-0.005955620468780398
1772735073623742500,6.996742431640625,0.045483401802182195,0.002283069435879588,-0.02103990195188671
1772735073633769500,7.00676953125,0.05161678999066353,0.020053338599950073,0.0008213628528639673
1772735073643796700,7.016796630859375,0.04368950412273407,0.0023436770493164656,0.0015628471362404525
1772735073653823500,7.026823486328125,0.053265141719579696,-0.005884637591801583,-0.007339128982741385
1772735073663849500,7.036849365234375,0.05685819777548313,-0.008444405077211559,0.0037054851881228386
1772735073673876500,7.04687646484375,0.0558095655053854,-0.020686996860988436,-0.012061846655700354
1772735073683903700,7.05690380859375,0.04667991811037063,-0.023071517377346754,-0.017802947590965776
1772735073693930800,7.0669306640625,0.06508651241660118,-0.022416779795661566,-0.010585106900334358
1772735073703956500,7.07695654296875,0.04682780214846134,0.0043623233953490855,-0.018392291786242274
1772735073713983500,7.0869833984375,0.042186698344349856,0.018272263869456944,-0.02726597339250147
1772735073724010800,7.0970107421875,0.0532604655444622,-0.0048263607105240225,-0.0009454641565680503
1772735073734037800,7.107037841796875,0.04263268854618072,-0.005909772033058106,-0.013271332043316214
1772735073744064500,7.117064453125,0.04412672649621963,-0.007196743103675544,-0.01687843489088118
1772735073754091500,7.127091552734375,0.04382511320114135,-0.017899338903836905,-0.008536723003163934
1772735073764117800,7.13711767578125,0.052204234489798544,-0.01577978946659714,-0.014148808997590094
1772735073774144800,7.147144775390625,0.04712064761519432,-0.011626724907755851,-0.00038426834354177115
1772735073784170800,7.157170654296875,0.030512627163529395,-0.006358830974809825,-0.003118296417314559
1772735073794197800,7.16719775390625,0.05205576592981815,0.015276296923868357,0.005842259754799306
1772735073804224800,7.177224853515625,0.06268237388432026,-0.008036920254863798,-0.02281301257163286
1772735073814251800,7.187251708984375,0.05430383711755275,0.004901471773348748,0.0010492167919874192
1772735073824278800,7.19727880859375,0.04981529352664947,-0.02026866185106337,-0.0059086395218968385
1772735073834304800,7.2073046875,0.035896073767542835,-0.015258980462886393,-0.014750501217786222
1772735073844331800,7.217331787109375,0.05370411765873432,-0.010299239163659513,-0.01761124267745763
1772735073854358800,7.22735888671875,0.04517302067875862,-0.004363017515093088,0.0049954701997339725
1772735073864385800,7.2373857421875,0.04203063099980354,-0.012738558607175945,-0.0012731252083554862
1772735073874412800,7.247412841796875,0.04786825111210346,-0.004593976726755499,-0.01951088402001187
1772735073884439800,7.257439697265625,0.05565057555139064,-0.005276954022236168,-0.013781729250866919
1772735073894466800,7.267466796875,0.055496261772513385,0.0017733298154547809,0.007020637618098407
1772735073904493800,7.277493896484375,0.04457447026371956,0.003214651197567582,-0.003215893306583166
1772735073914519800,7.287519775390625,0.041433249628543854,-0.0019325389651581645,-0.023793730704672632
1772735073924546800,7.297546875,0.04682020336389541,-0.008924589809589087,-0.011141882266569881
1772735073934573800,7.30757373046875,0.05370236409306526,-0.009098923463188111,-0.007690627567842602
1772735073944600800,7.317600830078125,0.037546763584017755,-0.01603233945555985,-0.020190664711408315
1772735073954627800,7.3276279296875,0.03649696227014065,-0.001842851387709379,-0.017126345237344503
1772735073964654800,7.33765478515625,0.05565349816083908,-0.0018722966779023407,-0.019613796405214816
1772735073974681900,7.347681884765625,0.06193593943119049,0.001641154803149402,-0.007673639900423586
1772735073984708900,7.357708984375,0.033058804515004155,-0.007136172022856772,-0.012523070959281176
1772735073994734800,7.36773486328125,0.04039104709923267,-0.00776182964053005,-0.013898140438459813
1772735074004761900,7.377761962890625,0.04922375737428665,0.002981901887618005,-0.022286340082716197
1772735074014788900,7.387788818359375,0.03666121292114258,-0.006395363592915236,-0.014190255252830684
1772735074024815900,7.39781591796875,0.05610942523479461,-0.006336144218966364,0.008324304095190018
1772735074034842600,7.407842529296875,0.057605216750502584,-0.006623802053928375,-0.006450199052691459
1772735074044870000,7.417869873046875,0.05206278019249439,-0.017766542837023735,-0.023804690490104256
1772735074054897000,7.42789697265625,0.044127895539999004,-0.000904693754762411,-0.012173910461738704
1772735074064923600,7.437923583984375,0.05086509484052658,0.007692088872566819,-0.014910934210196137
1772735074074949600,7.44794970703125,0.04324234487712383,0.01436831523347646,-0.0261492260559462
1772735074084977000,7.457976806640625,0.04787818798422813,-0.0072918009759858245,0.006062551441974938
1772735074095004000,7.46800390625,0.0402460856705904,-0.0270210952533409,-0.0029958390814252196
1772735074105030700,7.47803076171875,0.04832768531739712,-0.02350578060876578,-0.004208868132997304
1772735074115057700,7.4880576171875,0.048182139366865155,-0.02586564160790294,0.01149345391690731
1772735074125085000,7.4980849609375,0.042346857342123984,-0.03100534258391708,-0.01305122301923111
1772735074135112000,7.50811181640625,0.041889761224389074,-0.008635799463465809,-0.013240480247326195
1772735074145138700,7.518138671875,0.04532733445763588,0.011009835118427872,-0.01398724349401891
1772735074155164700,7.52816455078125,0.043380292043089866,0.04196289952583611,-0.019320457748137412
1772735074165192000,7.53819189453125,0.029615386062860488,0.02342957356739789,-0.0015641988431103527
1772735074175219000,7.548218994140625,0.04832476270794868,-0.008622684253565967,0.003803483936190605
1772735074185245700,7.55824560546875,0.04622983625531196,-0.034268289902620014,-0.02337009846512228
1772735074195273000,7.56827294921875,0.049665655922889705,-0.04897358200550079,-0.014727850994560867
1772735074205300000,7.578300048828125,0.040841128954291345,-0.051266076856851577,-0.01027067065630108
1772735074215326700,7.58832666015625,0.03634907823204994,-0.002897584605030715,-0.021226656695641576
1772735074225353700,7.598353759765625,0.04861760817468166,0.045105617998354136,0.014259667227230965
1772735074235380000,7.6083798828125,0.05265840799808502,0.0659163508368656,0.009174619047902524
1772735074245407000,7.618406982421875,0.049517771884799,0.027346052891388535,0.00032121304469183085
1772735074255433700,7.628433837890625,0.0432347460925579,-0.021673925539106128,0.0016621245259419084
1772735074265460700,7.638460693359375,0.054015667825937266,-0.06972882179711014,-0.029034115576185283
1772735074275488000,7.648488037109375,0.04399170193970203,-0.0784602271221578,-0.03823662727801129
1772735074285514800,7.6585146484375,0.055064884617924685,-0.017838585159927606,-0.031305823367834086
1772735074295541800,7.668541748046875,0.038756139373779294,0.03365717226695269,-0.01026533689405769
1772735074305569000,7.678569091796875,0.049531800410151476,0.06808218710124492,-0.00613095876937732
1772735074315595000,7.688594970703125,0.0374140771150589,0.04999342657253146,0.004527998818457126
1772735074325621800,7.698621826171875,0.049987727484107014,0.012830438141711056,-0.009290080387424677
1772735074335648800,7.708648681640625,0.04774667055904865,-0.025720460983552035,0.013703220654558389
1772735074345675800,7.71867578125,0.04400105428993702,-0.057365964634530246,-0.022855719202198088
1772735074355702800,7.728702880859375,0.042059272572398186,-0.04252930123694241,-0.01767006019260734
1772735074365729800,7.738729736328125,0.043263387665152545,-0.014623568636178969,-0.018083116239216178
1772735074375756800,7.7487568359375,0.0459580335766077,0.030376652758941053,-0.0015856069573201238
1772735074385783800,7.75878369140625,0.056280105626583095,0.05598525086585432,0.017641199424304067
1772735074395809800,7.768809814453125,0.039517771396040915,0.03407050230819732,-0.015406901033595204
1772735074405836800,7.7788369140625,0.042510523471236225,0.005946158520691096,-0.025256441934686152
1772735074415863800,7.78886376953125,0.05253565840125084,-0.04626172923091799,-0.024320019601099193
1772735074425890800,7.798890869140625,0.05118891996741295,-0.04988291540276259,-0.008654339767154306
1772735074435917800,7.808917724609375,0.046696869245171545,-0.0150706913491711,-0.0014327179505489766
1772735074445944800,7.81894482421875,0.04520283129513263,-0.0068140639290213585,-0.00553748638825491
1772735074455971800,7.828971923828125,0.049992403659224506,0.012251944134011863,-0.0003884695946238935
1772735074465998800,7.838998779296875,0.044752164918184276,0.014444485742226242,0.009089954705443232
1772735074476024800,7.84902490234375,0.05148351899981499,0.01581917162891477,-0.009104987877793609
1772735074486051800,7.8590517578125,0.04669102402627468,-0.0019799217708408832,-0.02471270871311426
1772735074496078800,7.869078857421875,0.054175826823711394,-0.006450454781018197,-0.027349815751053393
1772735074506105900,7.87910595703125,0.048043023157119745,-0.020473463708162307,-0.013018453260790555
1772735074516132900,7.8891328125,0.0354752180069685,0.012001476504281162,0.008151541344169526
1772735074526160000,7.899159912109375,0.06091361064612865,0.013555501013249158,0.009718644530419259
1772735074536187000,7.909186767578125,0.04400280785560608,-0.004274900840222836,-0.0018903437912464142
1772735074546214000,7.9192138671875,0.04580255075395107,-0.011243899602629243,-0.016506624170113355
1772735074556241000,7.929240966796875,0.05119242709875107,-0.017806107662431896,-0.02750946329217404
1772735074566267000,7.939266845703125,0.04625789330601692,0.008281834926642476,-0.002174311831779778
1772735074576293600,7.949293701171875,0.05404430939853191,0.020891141130961476,0.017635317672789096
1772735074586321000,7.95932080078125,0.05330021303296089,0.00036415713727474213,0.0018066292968578635
1772735074596348000,7.969347900390625,0.04851297875642776,-0.027671010529436168,-0.01958670746888965
1772735074606374700,7.979374755859375,0.0437228218704462,-0.02966441283635795,-0.011358794686570762
1772735074616402000,7.98940185546875,0.05165361486971378,-0.004788366787694395,-0.012637144059315323
1772735074626429000,7.999428955078125,0.06481821686923503,0.02287972113229334,-0.015656564945727584
1772735074636455700,8.00945556640625,0.05449263768792152,0.02798486225157976,-0.01574700144184753
1772735074646481700,8.019481689453125,0.04476502439975738,0.02243314640857279,-0.009721859400812535
1772735074656509000,8.029509033203125,0.05164660060703754,0.000638370968773961,-0.0005291932395659387
1772735074666536000,8.039535888671875,0.044615971317887304,-0.02940674828086048,-0.01570060501685366
1772735074676562700,8.049562744140625,0.04431318897902965,-0.033321802832745016,-0.007034666143450886
1772735074686589700,8.059589599609374,0.05164660060703754,-0.02785739994700998,-0.00489007359649986
1772735074696617000,8.069616943359375,0.06256956115961075,0.008693813261017203,-0.004931264123413712
1772735074706643700,8.079643798828124,0.047906245034933084,0.023186814320087432,-0.009830452608130872
1772735074716670700,8.089670654296874,0.05029577051997185,0.0178507139891386,0.009844736861810088
1772735074726696700,8.09969677734375,0.05044248551428318,-0.006329129956290125,-0.016504213017318397
1772735074736724000,8.109723876953124,0.05642682062089443,-0.006627126522175967,-0.028425536957476287
1772735074746750700,8.119750732421876,0.0478928010314703,-0.029769626776501534,-0.0340342436847277
1772735074756777700,8.12977783203125,0.047296004182100296,-0.014915902646258472,-0.020143245373107493
1772735074766805000,8.139804931640626,0.06031973640620708,-0.011054331847280264,-0.011355908609740435
1772735074776831700,8.149831787109376,0.06121580846309661,-0.00042538580521941184,-0.007172905570361762
1772735074786858800,8.159858642578126,0.048047699332237244,0.01677723953872919,-0.005548373108450323
1772735074796885800,8.1698857421875,0.03218903594315052,0.004273731796443462,-0.008556176622305066
1772735074806911700,8.179911865234375,0.051346740877628326,0.0013054565753787754,-0.011011369488388299
1772735074816938800,8.189938720703125,0.06257248376905918,-0.012833251153305173,-0.00443533383263275
1772735074826965800,8.1999658203125,0.04222235417962074,-0.007755947889015078,-0.022744112053886056
1772735074836992800,8.20999267578125,0.05060556712150573,-0.00394906641934067,-0.02473336790865287
1772735074847019800,8.220019775390625,0.059435939309000964,0.0054378436723724,-0.0011602942173369228
1772735074857046800,8.230046875,0.04447100988924503,-0.004899973936006426,-0.0027576464113779364
1772735074867073800,8.24007373046875,0.04731003270745277,0.0029518355429172514,-0.022597506657429038
1772735074877100800,8.250100830078125,0.05449205316603183,0.01835877310913056,-0.01407351527167484
1772735074887127600,8.26012744140625,0.037435704424977304,0.006780490452982485,-0.02433803018182516
1772735074897153800,8.27015380859375,0.03683481592237949,0.01051741195898503,-0.010034706475958227
1772735074907180800,8.280180908203125,0.047460254833102226,0.0020650793036445974,0.006208170457743108
1772735074917207800,8.290207763671875,0.04656067564487457,-0.004340659552812576,0.007667064029164612
1772735074927234600,8.300234619140625,0.05240297193229198,-0.006831526520475745,-0.005018887607939541
1772735074937261800,8.31026171875,0.050909518504142756,-0.008646174727007747,-0.028070951366145163
1772735074947288800,8.320288818359375,0.04642214395701885,-0.0022077391773462295,-0.021416260983608663
1772735074957315600,8.330315673828125,0.04163257159292698,0.010363573104143143,-0.018059607499465346
1772735074967342800,8.3403427734375,0.04223170652985572,0.02057122499421239,-0.012205511176399887
1772735074977368800,8.350368896484374,0.04477379222810268,0.009025273705087601,-0.014849303683452308
1772735074987395800,8.360395751953124,0.0417751949340105,0.012668927437067032,-0.023430322486069053
1772735074997422600,8.370422607421874,0.03280044583976269,-0.014597119020670651,-0.026689817472361026
1772735075007449600,8.38044970703125,0.039086394241452216,-0.016463022490404544,-0.010165000058431177
1772735075017476900,8.390476806640624,0.055092357146739955,-0.01024305199701339,-0.016152148176636547
1772735075027503600,8.400503662109376,0.0508989971101284,-0.004066080395132303,-0.007940236681047827
1772735075037530600,8.410530517578126,0.06330898135006427,-0.0028264555975794792,0.000056990884244441985
1772735075047558000,8.420557861328126,0.0531342088162899,-0.005815627476200461,-0.00940965164648369
1772735075057584600,8.430584716796876,0.046099487873911854,0.00445551810413599,-0.018526512625161556
1772735075067610600,8.440610595703125,0.040109892070293425,-0.0025792759034782647,-0.0054673072288744145
1772735075077637600,8.4506376953125,0.051180152139067646,-0.006231186007149517,0.016262056558206676
1772735075087665000,8.460664794921875,0.051180736660957335,-0.007365523799322545,0.0006289638196118176
1772735075097691600,8.470691650390625,0.04908113403320312,-0.02699855462796986,-0.015983714540861546
1772735075107718700,8.48071875,0.04369184221029281,-0.016872589671984312,-0.036459425005037335
1772735075117745700,8.49074560546875,0.05296937364339828,-0.003236680366285145,-0.0013945230983197687
1772735075127773000,8.50077294921875,0.04339373604655265,-0.000633658261038363,-0.0024181670576334
1772735075137799700,8.510799560546875,0.055662850511074065,0.007903210872597991,-0.007732092089392245
1772735075147826700,8.52082666015625,0.043244682964682576,0.002090067614428699,-0.006127798697911202
1772735075157852700,8.530852783203125,0.04579086031615734,0.00016845190208405255,-0.012944785236380993
1772735075167880000,8.5408798828125,0.04489771086871624,-0.005397584727220237,-0.013710563710797577
1772735075177906700,8.55090673828125,0.04460135827064514,-0.010302855892851948,-0.020423815880157053
1772735075187933700,8.56093359375,0.05118891996741295,-0.009179660549201071,-0.013359850576985627
1772735075197961000,8.5709609375,0.051337973049283024,-0.006475260428711772,-0.0210810011472553
1772735075207987700,8.58098779296875,0.05164017086625099,0.005378441635333001,-0.013841569679323583
1772735075218014700,8.5910146484375,0.049393853244185444,-0.00207907129637897,-0.009766155200265348
1772735075228041700,8.601041748046875,0.035628362742066384,-0.002371149578131735,0.009356387089286
1772735075238067700,8.611067626953124,0.044453474232554434,-0.003141585961356759,-0.01132914846697822
1772735075248094700,8.6210947265625,0.05702595555782318,0.007542268605716526,-0.005374185585323721
1772735075258121700,8.631121826171874,0.05418108752071857,-0.010273374070040881,-0.0038234490119852123
1772735075268148700,8.641148681640624,0.03188333099484444,-0.01364051241558045,-0.0013097491580061613
1772735075278175700,8.65117578125,0.0404115053653717,-0.00824701934158802,-0.016062150071933866
1772735075288202800,8.66120263671875,0.058814592540264124,0.01061597696263343,-0.016544563294015824
1772735075298229800,8.671229736328126,0.047743747949600214,0.011882234038785099,0.005302271126583219
1772735075308256500,8.681256591796876,0.04400865307450294,0.0025000001221895216,-0.004477711669635028
1772735075318283800,8.69128369140625,0.0459451740950346,-0.004286152886599302,0.0071317881086841225
1772735075328309800,8.701309814453126,0.04490004895627498,-0.020719182097539306,-0.006685925771016627
1772735075338336800,8.711336669921875,0.046999651584029196,0.001812383184209466,-0.012165361829102038
1772735075348363500,8.721363525390625,0.058224225431680675,-0.006974734383448958,-0.001998571672383696
1772735075358390800,8.731390869140625,0.05283259552121162,-0.003253266174905002,-0.006612878801114857
1772735075368417800,8.741417724609375,0.0514829344779253,-0.003727934481948614,0.0003714453945867717
1772735075378444500,8.751444580078125,0.044752164918184276,-0.007167772737517952,0.004432100695930421
1772735075388471800,8.761471923828125,0.045799628144502634,0.004092749206349253,-0.007775584171246737
1772735075398498800,8.771498779296875,0.05133855757117271,0.014295578790828585,-0.016962916570249943
1772735075408524800,8.78152490234375,0.04624795643389225,0.006805223035439848,-0.0047251470920629795
1772735075418551800,8.7915517578125,0.035472295397520066,0.023357750440202652,-0.019562011419050396
1772735075428578800,8.801578857421875,0.04445405875444412,0.008772869846597314,-0.009721220079995692
1772735075438605800,8.811605712890625,0.04161328237056732,-0.005245937829464674,0.01225468408036977
1772735075448632800,8.8216328125,0.03922083427608013,0.0025682795854285356,-0.00304046367444098
1772735075458659600,8.83165966796875,0.04161795854568481,0.002458718263730407,-0.008632675924617797
1772735075468686800,8.841686767578125,0.03877659763991832,-0.006976561014354229,-0.0016259755003266035
1772735075478713900,8.8517138671875,0.04670914420485496,0.005290544156171381,0.008175616339500993
1772735075488740600,8.86174072265625,0.04312076432406902,0.0037059053132310507,-0.00008910305555909872
1772735075498766600,8.8717666015625,0.05149287135004997,-0.011011186825297772,-0.0009696670160628855
1772735075508793900,8.8817939453125,0.03802957866489887,0.0007863280721008778,-0.00902938362462446
1772735075518820900,8.89182080078125,0.05509177262485027,-0.012170074536837636,-0.016725838145054874
1772735075528847600,8.90184765625,0.046560091122984884,-0.01270334116332233,-0.0161585779174231
1772735075538874600,8.91187451171875,0.04955342772006988,-0.011995777415856718,-0.013995572930946946
1772735075548902000,8.92190185546875,0.04746317744255066,-0.010069595126248896,-0.0039767033449374135
1772735075558928600,8.9319287109375,0.05105915610790252,0.004247684039734303,-0.010016622829996049
1772735075568955600,8.94195556640625,0.03863631238639355,0.009864756736531853,-0.0060987552665174
1772735075578983000,8.95198291015625,0.04656768990755081,-0.007769099631533026,-0.003708426063880324
1772735075589009000,8.9620087890625,0.044914662003517146,-0.016047208231128752,-0.0020484934950247406
1772735075599035600,8.97203564453125,0.04282324268221855,-0.005899542899988591,-0.014437928137276321
1772735075609062700,8.982062744140626,0.03579436695873737,-0.0006970058208331466,-0.01293092110780999
1772735075619090000,8.99208984375,0.037895138630270955,-0.014007592162303626,-0.005041026374511421
1772735075629116700,9.00211669921875,0.0582446836978197,-0.01100245552957058,-0.02861221863599494
1772735075639143700,9.012143798828125,0.04627542896270752,0.005794402025081217,-0.0328099808530882
1772735075649170700,9.022170654296875,0.046723757252097126,0.007106909395754337,-0.008754567004926501
1772735075659197700,9.03219775390625,0.04388356539011001,-0.006106902040354907,-0.008873827736731617
1772735075669224700,9.042224609375,0.04133914160430431,0.0006363616747781634,-0.004327836603857577
1772735075679250700,9.052250732421875,0.05689911430776119,-0.007332059921137988,-0.007733169801626354
1772735075689277700,9.062277587890625,0.05989069733917713,-0.011079941212572157,-0.002309318121988326
1772735075699304700,9.0723046875,0.054203299352526664,-0.01265340107437223,-0.01642787811178714
1772735075709331700,9.082331787109375,0.045074236479401585,-0.0021622195351868865,-0.00229989270651713
1772735075719358700,9.092358642578125,0.05120704014599323,0.007314122405648231,-0.009671024262718856
1772735075729385700,9.1023857421875,0.0497094950646162,-0.0006594868220388889,-0.006385572851262986
1772735075739412700,9.112412841796875,0.04417465729117393,0.00013995645996183156,-0.006107066437136381
1772735075749439700,9.122439697265625,0.049859132668375966,-0.0003894377090036869,-0.005096081029996276
1772735075759466800,9.132466796875,0.058688335812091826,-0.009730243636667728,-0.008059661809634416
1772735075769492700,9.14249267578125,0.04597030853629112,0.0016954057410359382,0.0028921047123149036
1772735075779520300,9.152520263671875,0.049261751297116275,-0.002245148578286171,-0.01413622351065278
1772735075789547300,9.16254736328125,0.04925941320955753,-0.0014666019538417457,-0.008440934478491544
1772735075799574000,9.172573974609374,0.0444680872797966,0.023485103146918117,0.0076464048336260014
1772735075809601300,9.182601318359374,0.03923252471387386,-0.009424757884070276,0.004129756748490036
1772735075819628300,9.192628173828124,0.0506026445120573,-0.008345401682145892,-0.015404672543890774
1772735075829655300,9.2026552734375,0.04371989926099777,0.0018078896721825002,-0.01186542903445661
1772735075839682000,9.21268212890625,0.04671674298942089,0.0016347250623628495,-0.012440251514036207
1772735075849709300,9.222709228515624,0.03653904784619808,-0.0012729790778830646,0.006861775528267025
1772735075859735300,9.2327353515625,0.053150575429201125,-0.003626227673143148,-0.0012441183095797895
1772735075869762300,9.24276220703125,0.05180442151725292,-0.005734305868297815,-0.008021814017277211
1772735075879789000,9.2527890625,0.05389408727288246,0.00041855420563369986,0.004444868845958262
1772735075889816300,9.26281640625,0.053447512549161906,-0.008736739087291062,-0.001549165670759976
1772735075899843300,9.27284326171875,0.03953004635572433,0.005057685248367488,-0.016410780846513807
1772735075909870000,9.2828701171875,0.06017828210890293,0.005951674946025013,-0.014412885027565062
1772735075919897000,9.29289697265625,0.04626841470003128,0.008221336911059916,0.0014520071729086338
1772735075929924400,9.30292431640625,0.03729366560578346,0.00921677768919617,-0.004845339405629784
1772735075939951000,9.312951171875,0.061530281239748,0.0026839418543502685,-0.011373444266431033
1772735075949977000,9.32297705078125,0.04552022668123245,-0.006911094562709331,-0.0018005100833252072
1772735075960004000,9.333004150390625,0.055097617843747136,-0.006592164806649089,-0.019451372385118154
1772735075970031400,9.34303125,0.051209378233551976,0.0012880670491605996,0.001708265222609043
1772735075980058000,9.35305810546875,0.0428296724230051,0.003653809799812734,-0.01583926456887275
1772735075990085000,9.363085205078125,0.045672202372550964,0.0043846448250114915,-0.01254457040503621
1772735076000112400,9.3731123046875,0.052553194057941434,0.01373286687415093,-0.015572138065285979
1772735076010139100,9.38313916015625,0.04911328273713588,-0.004476560892164707,-0.006000007599778473
1772735076020166100,9.393166259765625,0.059441200006008145,-0.011191256099939345,-0.002373779926635325
1772735076030193200,9.403193115234375,0.04926993460357189,-0.011564582924358547,-0.019198931994009762
1772735076040219400,9.413219482421875,0.04942717099189758,0.00660202861353755,-0.012621471566148101
1772735076050246100,9.42324609375,0.0643926849335432,0.0035267128214240074,-0.013347940943483263
1772735076060273200,9.433273193359375,0.05301964252591133,-0.006033033086545765,-0.016139233896136283
1772735076070300200,9.443300048828124,0.05181611195504665,-0.0033452187746763227,-0.007101045910548418
1772735076080327200,9.4533271484375,0.056302317458391184,0.0008590279821306466,-0.001552197878062725
1772735076090354200,9.463354248046874,0.045676878547668456,-0.010809782501682639,-0.006584821750409901
1772735076100381200,9.473381103515624,0.04387947373688221,-0.007869454733468591,0.006572236263472586
1772735076110408200,9.483408203125,0.0509206244200468,0.005104154738597572,0.00764430420808494
1772735076120435200,9.493435302734374,0.04404138630032539,0.00999981782566756,-0.011215952149778604
1772735076130462200,9.503462158203124,0.0474830511868,0.0205395877469331,-0.014857633120380341
1772735076140488200,9.51348828125,0.04075052806138992,0.00012256693374365567,-0.009986355555895715
1772735076150515200,9.52351513671875,0.035066637206077576,0.002745499315857887,-0.005491528354678303
1772735076160542200,9.533542236328126,0.04614040440618992,-0.009242350521869957,0.009426694112829863
1772735076170569200,9.5435693359375,0.04928279408514499,-0.007017769807577133,-0.01722854523649439
1772735076180596200,9.55359619140625,0.05092646963894367,0.010118183508329093,-0.014556293819937853
1772735076190623200,9.563623291015626,0.049128480306267736,-0.007634330803342163,-0.00920132439173758
1772735076200650200,9.573650146484376,0.0522673628538847,-0.00036580110508948563,-0.0069140537047758695
1772735076210677200,9.58367724609375,0.04014028720855713,-0.00010247399378567934,-0.01512779183126986
1772735076220704300,9.593704345703125,0.05675239931344986,0.005183101726323366,-0.022051398815680294
1772735076230730200,9.603730224609375,0.060488078710436814,-0.002300312831625342,-0.015170808989088982
1772735076240757200,9.61375732421875,0.04193067775666713,-0.012104717683047056,-0.014140662223752588
1772735076250784300,9.6237841796875,0.053148821863532064,0.0028936025496572254,-0.0001920519733801484
1772735076260811000,9.63381103515625,0.04776303717195987,0.027444289101473986,-0.015181823573447764
1772735076270838300,9.64383837890625,0.0585410362958908,0.005406133359856903,-0.013258618692215531
1772735076280865300,9.653865234375,0.05689326908886432,0.002204122448153794,-0.005784775680210441
1772735076290892000,9.66389208984375,0.05719312881827354,-0.014020232448168099,-0.007614347461238503
1772735076300919300,9.673919189453125,0.05270516974925995,-0.009012925680167972,-0.01610902142096311
1772735076310946300,9.6839462890625,0.0579442394465208,-0.006868387932144105,-0.007411153039336204
1772735076320972300,9.69397216796875,0.04687456389963627,-0.0014021584155038,-0.008199673068523407
1772735076330999000,9.7039990234375,0.024573884764313696,0.0006007423721253872,-0.01114126121206209
1772735076341026300,9.7140263671875,0.034600773259997365,0.006954020388983189,-0.015116941643692552
1772735076351053300,9.72405322265625,0.039837504869699475,0.0024957988711073993,-0.019689765984565018
1772735076361080000,9.734080078125,0.049265842950344085,-0.008702288828417658,-0.025092191283684222
1772735076371107000,9.744107177734374,0.04373392778635025,-0.00861238205526024,-0.007058229682128876
1772735076381134300,9.75413427734375,0.05481003307402134,0.0056030807040631765,-0.009499193093460053
1772735076391161000,9.7641611328125,0.060196402287483214,-0.001087283780053258,-0.012684344201907515
1772735076401188000,9.77418798828125,0.059897711601853365,0.007559694664552807,-0.0050511276434175665
1772735076411214000,9.784214111328126,0.04433656985461712,0.012587350100837648,0.0029779198322445154
1772735076421241300,9.794241455078126,0.04193476940989494,-0.00470543774459511,0.003640475394204259
1772735076431268000,9.80426806640625,0.04133329638540745,-0.0032834055848419666,0.001852295069489628
1772735076441295000,9.814295166015626,0.05734510450959205,-0.0022368556739762423,-0.0056399603820405896
1772735076451322400,9.824322265625,0.046128129446506495,-0.009459098545089363,-0.014570523274689912
1772735076461349400,9.834349365234376,0.05375614010691642,-0.0027391426403075457,-0.002772204659692943
1772735076471376100,9.844376220703126,0.045670448806881904,-0.0009543415827676653,-0.0021658910633064804
1772735076481403100,9.854403076171875,0.044920507222414016,-0.00040481794122606516,-0.0030586569182574747
1772735076491430400,9.864430419921876,0.0474614238768816,-0.008528028240054846,-0.00496399734923616
1772735076501457200,9.87445703125,0.044314358022809024,-0.007892360685020685,-0.012987875459436327
1772735076511483100,9.884483154296875,0.04237257630527019,0.006263736569881439,-0.0040382973390631375
1772735076521510100,9.89451025390625,0.05269640192091465,0.006684701928310096,-0.007312715899851173
1772735076531537400,9.904537353515625,0.04625964687168598,-0.002092661430314183,-0.0233043945514597
1772735076541564200,9.914564208984375,0.053445174461603163,-0.0007522431394085288,0.0012524294801987707
1772735076551591200,9.924591064453125,0.03414659975171089,0.0026886180294677614,0.0038208917287178333
1772735076561618200,9.9346181640625,0.04282441172599792,0.003261814807541668,-0.016209193859808145
1772735076571645200,9.944645263671875,0.03773848676383495,-0.0015010522127151488,-0.027470336858183144
1772735076581672200,9.954672119140625,0.04941021985709667,-0.00046316053234040733,-0.011485928197577594
1772735076591699200,9.96469921875,0.03414659975171089,-0.014294007888250053,-0.006320398660562932
1772735076601726200,9.974726318359375,0.04222586131095886,0.021995997100323437,-0.008024389566853642
1772735076611752200,9.984752197265625,0.047014849153161044,0.015730068573355675,0.006951645768806338
1772735076621779200,9.994779296875,0.045970893058180806,0.007225603871978819,-0.007169946428295225
1772735076631806200,10.00480615234375,0.05076104994416237,0.008608509597741067,-0.003454031177703291
1772735076641833200,10.014833251953124,0.05375146393179893,-0.0029931174013763666,-0.014233528138976543
1772735076651860200,10.024860107421874,0.05869242746531963,0.0035510435450822114,-0.005655669407825917
1772735076661887200,10.03488720703125,0.05629530319571495,0.012340133874118328,-0.00725227268319577
1772735076671914000,10.0449140625,0.05375380201935768,0.014682349618710577,-0.013023385164234786
1772735076681941200,10.054941162109374,0.043726913523674006,0.010324556268006562,-0.03067340721581131
1772735076691968300,10.06496826171875,0.053152328994870185,-0.0189126075996086,-0.02753483519544825
1772735076701994200,10.074994140625,0.06287994228303433,-0.008129457376524806,-0.020089597223419697
1772735076712021000,10.08502099609375,0.04282616529166698,-0.006569916442222893,-0.009782887139357627
1772735076722048300,10.09504833984375,0.03893266498446464,0.004649177512712777,-0.01281737773073837
1772735076732075300,10.1050751953125,0.04760989243686199,-0.0007973243901506066,-0.0002452982642687857
1772735076742102300,10.115102294921876,0.041776363977789874,0.00570281475149095,0.00901688946923241
1772735076752129300,10.12512939453125,0.038328853872418404,-0.0001197904547676444,0.008467201430909335
1772735076762156300,10.13515625,0.03907295023798942,-0.012157032392174005,-0.009087251291703432
1772735076772183300,10.145183349609376,0.054933951714634895,-0.029488508280180393,-0.006784490774665027
1772735076782211800,10.1552119140625,0.057632689279317854,0.004352861447259783,-0.0089898187992163
1772735076792238600,10.165238525390626,0.04341711692214012,0.019069880520552397,-0.016393080793041734
1772735076802264600,10.1752646484375,0.04326455670893192,0.00916048092469573,0.0001454728852957487
1772735076812291600,10.18529150390625,0.03503858015537262,-0.010650208025798202,-0.010521540144830942
1772735076822318800,10.19531884765625,0.04207096301019191,-0.015764043908193706,-0.014868976498302072
1772735076832345600,10.205345703125,0.04282499624788761,-0.0017316826308146117,-0.014655826937966047
1772735076842372600,10.21537255859375,0.04417115015983581,0.006672463501244783,-0.00023917905073612928
1772735076852399600,10.225399658203125,0.04223229105174541,0.00821724525783211,-0.008907364680152387
1772735076862427000,10.235427001953125,0.05151040700674057,0.02530563310496509,0.011017908827029167
1772735076872453600,10.24545361328125,0.048964229655265805,0.010438099645078181,0.01927102911584079
1772735076882480600,10.255480712890625,0.047318216013908385,-0.011056523804366588,0.011425010056886821
1772735076892508000,10.2655078125,0.0607850158303976,-0.0180822577226907,-0.005882098574843258
1772735076902534000,10.275533935546875,0.04492284530997276,0.004969678171351552,-0.029788605471607298
1772735076912560600,10.285560546875,0.059736968082189555,0.0036235607920214533,-0.00465953450994566
1772735076922587600,10.295587646484375,0.053007952088117594,0.025104813303239642,-0.002790251773037016
1772735076932615000,10.305614990234375,0.06153495741486549,0.015863741423003376,-0.020964498628117143
1772735076942641700,10.3156416015625,0.0521060348123312,-0.012330744991265236,-0.012602986061386764
1772735076952668700,10.325668701171875,0.045375849774479865,-0.01758680235594511,-0.021610851973947135
1772735076962695700,10.33569580078125,0.053904608666896815,-0.026736579223535954,-0.01593797570299357
1772735076972722700,10.34572265625,0.051365445578098294,-0.005126366570405661,-0.010220109512843191
1772735076982749700,10.355749755859375,0.05495499450266361,0.01883384327497333,0.010697736961953341
1772735076992776700,10.365776611328124,0.04582476258575916,0.00758968794401735,0.0058129057961516075
1772735077002802700,10.375802734375,0.044326632982492446,-0.0020154314756393433,0.018263569106347858
1772735077012829700,10.38582958984375,0.045077743610739705,-0.007148812308721244,-0.002573065358400345
1772735077022856700,10.395856689453124,0.03909399302601814,-0.02010773566830903,-0.017173508847318587
1772735077032883700,10.4058837890625,0.035653497183322905,-0.01652191307079047,0.0004247282180935144
1772735077042910700,10.41591064453125,0.04179448415637016,0.000705298725143075,0.01958846103455871
1772735077052937700,10.425937744140626,0.043890579652786255,-0.018293197059631346,-0.0032104682127945122
1772735077062964700,10.43596484375,0.04344458945095539,-0.02079725230243057,-0.017187665236834435
1772735077072991500,10.445991455078126,0.05302431870102882,-0.02509670306202024,-0.005587262080423533
1772735077083018800,10.456018798828126,0.054525955435633655,-0.00013170008827000855,0.0034934681389480826
1772735077093045800,10.466045654296876,0.05018588040471077,0.02909505198318511,0.016769385025836525
1772735077103071700,10.47607177734375,0.04449789789617061,0.02937452651169151,0.01875559040699154
1772735077113098500,10.486098388671875,0.06035539224147796,0.012439831388927996,-0.01694101526569575
1772735077123125800,10.496125732421875,0.05407587358057499,0.0033387525012716648,-0.020190244586300105
1772735077133152800,10.50615283203125,0.05437924044132232,-0.022628961241617798,-0.027003596129268406
1772735077143179800,10.5161796875,0.055426119145751,-0.037311164729855954,-0.011614870073180645
1772735077153206500,10.52620654296875,0.05452361734807491,-0.02482376787215471,-0.008975534545537085
1772735077163233800,10.53623388671875,0.06469955892562866,0.00022336042709648608,-0.0027173509336076676
1772735077173260800,10.5462607421875,0.057521045598387714,0.027678938107565044,-0.0017449622374959288
1772735077183287600,10.55628759765625,0.060063131296634674,0.03120221686288714,0.007668762795906513
1772735077193314800,10.566314697265625,0.03851239374577999,0.012407463489286601,0.0000358019657433033
1772735077203340800,10.5763408203125,0.03836450970768928,-0.005285794915817678,-0.0030227088220417496
1772735077213367800,10.586367919921875,0.04764788635969162,-0.02774034943860024,-0.0005332483601756394
1772735077223394600,10.59639453125,0.04525777635276317,-0.026004794350266456,-0.001464227333664894
1772735077233421800,10.606421875,0.0443546900331974,-0.01965290457289666,0.020645203545875845
1772735077243448800,10.61644873046875,0.045849312505126,-0.011741218132898211,-0.013733962852694093
1772735077253475600,10.6264755859375,0.04854278937280178,0.0030588761139661073,-0.016295410838536917
1772735077263502600,10.636502685546875,0.05348316838443279,0.003906359788775444,-0.012955653690267353
1772735077273529900,10.64652978515625,0.03702478553652763,0.011031206700019537,-0.016256174806691705
1772735077283556600,10.656556640625,0.043614685320854184,0.00007200579028576612,-0.010072956127114594
1772735077293583600,10.66658349609375,0.05095043503642082,0.001983282771706581,-0.000018905629869550464
1772735077303609600,10.676609619140624,0.04212298545837402,0.004076528723910451,0.0026300562426447866
1772735077313636900,10.686636962890624,0.04032791873514652,-0.015851941387355326,-0.009265128609258681
1772735077323663600,10.69666357421875,0.04706394899189472,-0.031622268905863164,-0.013722290681209415
1772735077333690600,10.706690673828126,0.04123392766416072,-0.014622472657635808,-0.010252386080939322
1772735077343718000,10.7167177734375,0.060090019303560255,0.00875306916758418,0.0036169666544534265
1772735077353744600,10.72674462890625,0.03898819456398487,0.023055479557998478,0.009057988664600997
1772735077363771600,10.736771728515626,0.057091422009468075,0.032958339815214274,-0.011430088090803474
1772735077373798700,10.746798583984376,0.05080664265155792,0.014495156483538447,-0.01107632448337972
1772735077383825700,10.75682568359375,0.045719548645615574,-0.00826733147725463,-0.038196003006678074
1772735077393852700,10.766852783203126,0.05409983897805214,-0.02913596851546317,-0.031020430555194614
1772735077403879700,10.776879638671875,0.05664543180763721,-0.03434142820406705,-0.011871694378461688
1772735077413905700,10.78690576171875,0.04467500802874565,-0.005119315775111317,-0.009735705263074487
1772735077423932700,10.7969326171875,0.06263502761125564,0.008385733692534267,0.012597524434980004
1772735077433959700,10.806959716796875,0.05186053561866283,0.022544790089502928,0.006389427042473107
1772735077443986700,10.816986572265625,0.039137832167744635,0.007439648481458425,0.0007945296448655426
1772735077454013700,10.827013671875,0.05529693980813026,0.0024954335449263454,-0.0045066455031745134
1772735077464040700,10.837040771484375,0.05694470701515674,0.0015192819891497492,-0.00224905756842345
1772735077474067700,10.847067626953125,0.037491234004497526,-0.008079298091866076,0.0029965332011692223
1772735077484094700,10.8570947265625,0.04063888438045978,-0.014445399057678877,0.011087302535120398
1772735077494121700,10.867121826171875,0.04378536571264267,-0.012051599256321786,-0.018939842666406182
1772735077504148700,10.877148681640625,0.0437882883220911,0.002960968697443604,-0.013750932253804056
1772735077514174700,10.8871748046875,0.04154489330947399,0.007801284868083894,-0.009841394127253442
1772735077524201700,10.89720166015625,0.052474868124723434,0.0075942545212805265,-0.011484558224398643
1772735077534228700,10.907228759765625,0.06669044048190116,0.01942541595995426,-0.0029363822454586625
1772735077544255700,10.917255859375,0.0562146391749382,0.011809241867810487,0.006858889451436698
1772735077554282800,10.92728271484375,0.06055646777153015,0.011413264820165931,0.00609449921650812
1772735077564309500,10.9373095703125,0.05217910004854202,0.003387523546442389,0.006068853318598121
1772735077574336800,10.947336669921874,0.05098375278413295,-0.012806582342088221,-0.009396828697528689
1772735077584363800,10.95736376953125,0.04649053301811218,-0.014322064938955008,0.0016775230244733391
1772735077594390500,10.967390625,0.05831307275891304,-0.002208762090653181,-0.01872623644834384
1772735077604417800,10.977417724609374,0.059957917356491086,0.01976221016626805,-0.019164737463463095
1772735077614443800,10.98744384765625,0.04798574001193046,0.016428718362003564,-0.0019555910471826792
1772735077624470800,10.997470703125,0.04768471123874187,0.012434205365739762,-0.0077982526607811445
1772735077634497500,11.00749755859375,0.03825695767998695,0.0031516689639538523,-0.02872711371993646
1772735077644524800,11.01752490234375,0.04589022903740406,-0.01605078842770308,0.005169529858697205
1772735077654551800,11.0275517578125,0.051875148665904994,-0.03053933250736445,-0.01691266595404595
1772735077664578600,11.03757861328125,0.05487082335054874,-0.02267400595974177,0.0004398709882982075
1772735077674605600,11.04760546875,0.039758009892702104,-0.015035693101026117,0.008649864521436392
1772735077684632800,11.0576328125,0.04559387643933296,0.00920673121921718,-0.008087043006904424
1772735077694659600,11.06765966796875,0.04185235182344913,0.023113602953404186,-0.005542180829681455
1772735077704686600,11.0776865234375,0.05277940402925014,0.006941087842173874,-0.020007672827318308
1772735077714713900,11.0877138671875,0.04335749568939209,0.009232084856182337,-0.008543700733222068
1772735077724739800,11.09773974609375,0.05577858584523201,0.01271941551528871,-0.0065983205527998506
1772735077734766800,11.107766845703125,0.05638239695727825,-0.0244294347923249,-0.017117047686036675
1772735077744793600,11.117793701171875,0.028404256707429885,-0.018212569571472704,-0.009697766139172018
1772735077754820600,11.127820556640625,0.040520810958743096,-0.013909319419600068,0.013607943586539476
1772735077764847900,11.137847900390625,0.05907470478117466,-0.00976765303760767,0.006719937638472766
1772735077774874600,11.14787451171875,0.05144260246753692,0.01837828152719885,-0.014040745513234287
1772735077784900400,11.157900390625,0.04635492393970489,0.02032167067993432,-0.010439743612892925
1772735077794927400,11.16792724609375,0.058176879158616066,0.026477161102369424,-0.017918317598942666
1772735077804954400,11.177954345703125,0.056229252222180365,0.003072904639318585,-0.00848977858889848
1772735077814981000,11.187981201171874,0.041269583499431606,-0.0107278398392722,-0.005638663474097847
1772735077825007400,11.19800732421875,0.055336687296628946,-0.019385485808365046,-0.012416121719777583
1772735077835034400,11.208034423828124,0.05414367811977863,-0.03171966486573219,-0.015601692953333258
1772735077845061400,11.218061279296874,0.061030515024065965,-0.016723682720586656,-0.021688629917893557
1772735077855088000,11.228088134765626,0.05384615647792816,0.008097052944265305,0.010082746868766843
1772735077865115400,11.238115478515626,0.03559036881923675,0.03201009917967021,-0.0014766301575116813
1772735077875142400,11.248142333984376,0.04741700021326541,0.015462795939296482,-0.02213286655405536
1772735077885169200,11.258169189453126,0.049066520985960954,0.00013232114277780056,0.013449300692416727
1772735077895196400,11.268196533203126,0.033953707528114316,-0.003746858378127217,0.012554269815143198
1772735077905223400,11.278223388671876,0.06178513278365135,-0.011429083443805575,0.0008395560966804623
1772735077915250200,11.288250244140626,0.04727145426273346,-0.005503748515434563,-0.012986103627458214
1772735077925277200,11.298277099609376,0.027067455145716665,-0.00253624047935009,-0.01318138873754069
1772735077935303200,11.30830322265625,0.05923603282272815,-0.012499927545711397,-0.03621558804549277
1772735077945330400,11.318330322265625,0.03454875081181526,-0.004313333154469729,-0.030798385302349924
1772735077955357400,11.328357421875,0.05504793348312378,0.011566117294318973,-0.03325440015234053
1772735077965384200,11.33838427734375,0.03723930507004261,-0.010336831227689981,-0.030576997636631128
1772735077975411500,11.348411376953125,0.04441840291917324,0.004383329650759697,-0.004816003713291138
1772735077985438500,11.3584384765625,0.06013444296717643,0.013017777407355605,0.017156758641917257
1772735077995465200,11.36846533203125,0.056092474099993704,0.027011267979070542,0.053186486992798744
1772735078005492200,11.3784921875,0.05878361288011074,0.019613814671523868,0.06844672783100977
1772735078015519500,11.38851953125,0.03468962058722973,0.011453852558881044,0.011731299527082592
1772735078025546200,11.398546142578125,0.05175181454718113,0.018746822578646242,-0.002018810742814094
1772735078035573200,11.4085732421875,0.04981061735153198,0.027285043419152496,-0.003618172230850905
1772735078045599200,11.41859912109375,0.04247837476730346,0.022058139083720743,-0.027239322847593575
1772735078055626500,11.42862646484375,0.046967502880096434,-0.02127867914382368,-0.026240959460008886
1772735078065653200,11.4386533203125,0.02377250525355339,-0.04310231535192579,-0.046072344138659536
1772735078075680300,11.44868017578125,0.04397825793623924,-0.036015352765657004,-0.055029959435015915
1772735078085708300,11.458708251953125,0.03904080153405666,-0.03838927882276475,-0.028069490061420947
1772735078095735300,11.4687353515625,0.04831833296716213,-0.005150258902646601,-0.015028642305731773
1772735078105762300,11.47876220703125,0.034845687931776045,-0.002705386501178145,-0.0016215733198449015
1772735078115789300,11.488789306640625,0.062079731816053384,0.029314795681089162,0.008392747955210507
1772735078125816300,11.49881640625,0.048020226803421974,0.03924074455294758,0.03482020643064752
1772735078135843300,11.50884326171875,0.033655601364374156,0.03175922969114035,0.027459304007515308
1772735078145870300,11.518870361328124,0.05774959365725517,0.022852869657985865,0.026260540943313388
1772735078155897300,11.5288974609375,0.04921908119916916,-0.018117950090579687,0.026659568464569745
1772735078165923300,11.53892333984375,0.049373394978046416,-0.04181063157357275,0.005496569855976849
1772735078175950300,11.548950439453124,0.030074235746264454,-0.023894889524206517,-0.006184661717992275
1772735078185977300,11.558977294921876,0.05835515833497047,-0.028438085911795495,-0.0037006994151510294
1772735078196004400,11.56900439453125,0.0567068066060543,0.029822379877045748,-0.02244061732897535
1772735078206031400,11.57903125,0.046830724757909774,0.03568875115979463,-0.018808489638008175
1772735078216058400,11.589058349609376,0.0414484471976757,0.05659264217447489,0.005081906374171376
1772735078226085400,11.59908544921875,0.0507248095870018,0.018991591119952498,0.014794395158439874
1772735078236112400,11.6091123046875,0.04713642970621586,-0.014182181544229388,0.012640687723271548
1772735078246139400,11.619139404296876,0.03950841904580593,-0.03458911935482174,0.0066343965131789445
1772735078256166100,11.629166259765626,0.0483370376676321,-0.021761201963759958,-0.003141768624447286
1772735078266193400,11.639193359375,0.0363683674544096,-0.016323614019714296,-0.033414833144750446
1772735078276219400,11.649219482421875,0.05791968952715396,-0.008865370435640216,-0.028125037907250225
1772735078286246400,11.659246337890625,0.05268471148312091,0.0208406530527398,-0.04201872136630118
1772735078296273200,11.669273193359375,0.04565349767208099,0.030192382233217355,-0.03405661991331726
1772735078306300400,11.679300537109375,0.03547755609452724,0.02730159269515425,-0.031556546725891525
1772735078316327400,11.689327392578125,0.03801905727088451,0.023632366130501032,-0.015715546857658774
1772735078326354200,11.699354248046875,0.050286418169736856,-0.01488280409425497,-0.002509041945170611
1772735078336381400,11.70938134765625,0.04490004895627498,-0.022666334109939634,0.0007476217632181942
1772735078346408400,11.719408447265625,0.05717091698646545,-0.033141916221193966,0.017639427592325955
1772735078356435200,11.729435302734375,0.051934185376763344,-0.01254942924324423,0.030905444139707833
1772735078366462200,11.739462158203125,0.05597323163449764,0.012999766826629637,0.020885241113137453
1772735078376489500,11.749489501953125,0.04849310501217842,0.030416838638857004,0.0138680192948319
1772735078386515500,11.759515380859375,0.052827334824204444,0.03855601369179785,-0.011937836683541536
1772735078396542200,11.769542236328125,0.06120587159097194,0.014133556629531085,-0.005475490535330027
1772735078406569200,11.7795693359375,0.054175242301821705,-0.007486044906452298,-0.00817850241633132
1772735078416596500,11.789596435546875,0.05448094725012779,-0.013454597922042011,-0.03498889579474926
1772735078426623200,11.799623291015624,0.06346095704138278,-0.02079462195392698,-0.04031104066558182
1772735078436650200,11.809650146484374,0.042702831172943115,-0.01462842747438699,-0.014987689240835607
1772735078446677200,11.81967724609375,0.00566635519862175,0.024978739238157868,-0.014502444740850478
1772735078456704300,11.829704345703124,0.053282092854380604,0.0284212443748489,0.03464428360816091
1772735078466731300,11.839731201171874,0.047153965362906454,0.04179934299457818,0.0359262131774798
1772735078476758300,11.84975830078125,0.04865151044428348,0.021698804252035915,0.032351569561101495
1772735078486785500,11.85978564453125,0.05418693273961544,-0.00403601405043155,0.0017384776977822183
1772735078496812300,11.869812255859374,0.04490297156572342,-0.02410992051437497,-0.021649667880684138
1772735078506838300,11.87983837890625,0.04728022209107875,-0.0380709701212123,-0.049006753622740505
1772735078516865300,11.889865234375,0.06102642337083816,-0.0425765013795346,-0.050036882121767844
1772735078526892500,11.899892578125,0.04544131622612476,-0.019145904898829755,-0.06234744284152984
1772735078536919300,11.909919189453126,0.06575695902407169,-0.010263912121951579,-0.03037506359005347
1772735078546946300,11.9199462890625,0.0489817653119564,0.027916180929541585,0.01610790717611089
1772735078556973300,11.929973388671876,0.0399976638674736,0.043080505378916854,0.04852713514594361
