time,seconds_elapsed,z,y,x
1772735093467139800,0.071139892578125,0.04539513899683952,0.018513196485862134,-0.03118773167980835
1772735093477166600,0.08116650390625,0.056015317210555075,0.027952823145501314,-0.02357559444196522
1772735093487193600,0.091193603515625,0.051821957173943514,0.044587037484347815,0.018888824865221976
1772735093497220900,0.101220947265625,0.04149988512396812,0.036092436589859424,0.04229094417011365
1772735093507247600,0.11124755859375,0.05513444272279739,0.004092237749695778,0.04575266546392813
1772735093517274600,0.121274658203125,0.051581134155392644,-0.0277778684373945,0.05801575204646214
1772735093527301600,0.131301513671875,0.04787701894044876,-0.047745903374068435,0.06079071491882205
1772735093537328600,0.14132861328125,0.06343173094689845,-0.030302564609423276,0.05355093639101833
1772735093547355600,0.151355712890625,0.050529579275846476,-0.0064766852008178825,0.019971469002775848
1772735093557383400,0.161383544921875,0.04331190298199653,0.02038194949980825,-0.0008848017442040144
1772735093567409700,0.17140966796875,0.046424482044577595,0.01844287119600922,-0.026070863590110092
1772735093577437700,0.181437744140625,0.061681672409176824,0.009030753597803413,-0.03599034618856385
1772735093587464400,0.19146435546875,0.05302431870102882,-0.028442798619531095,-0.03591572831608355
1772735093597491700,0.20149169921875,0.05129647199511528,-0.035992848672904074,-0.06908608518047257
1772735093607518700,0.211518798828125,0.06245557939112186,-0.01899827658906579,-0.026149262588564304
1772735093617545700,0.221545654296875,0.04097147733569145,-0.021045637572929262,-0.028759207624942062
1772735093627572500,0.231572509765625,0.04173310935795307,0.01331065940670669,0.00400638609714806
1772735093637599700,0.241599853515625,0.05113689751923084,0.03356584072168916,0.014065386764146386
1772735093647626800,0.251626708984375,0.06367606109678745,0.02581964704170823,0.017062559286132453
1772735093657653500,0.261653564453125,0.048533437022566794,0.02713485782612115,0.0169646336033009
1772735093667680800,0.2716806640625,0.054370472612977026,-0.0005832797806710004,-0.02254398637190461
1772735093677707800,0.281707763671875,0.035058453899621964,-0.029009565656818448,-0.03835809823321178
1772735093687734500,0.291734619140625,0.038650340911746024,-0.043874066909402605,-0.03576441021189093
1772735093697761500,0.301761474609375,0.04268880264759063,-0.029949878714233637,-0.0341010983758606
1772735093707788800,0.311788818359375,0.05270633879303932,-0.015523001693934202,-0.04240646030856296
1772735093717815600,0.321815673828125,0.050453006908297536,0.014920176962576805,-0.029520492587331682
1772735093727842600,0.331842529296875,0.050444239079952234,0.004136551815457642,0.028392383606545626
1772735093737869800,0.341869873046875,0.04894435591101646,-0.01757770573403686,0.04586295743798837
1772735093747896600,0.351896484375,0.06105915659666061,-0.01725114066079259,0.07055560974376275
1772735093757923600,0.361923583984375,0.049537645629048346,0.005661057968996465,0.07819205943895503
1772735093767950600,0.37195068359375,0.0489472785204649,0.020293138705193996,0.08175643738964572
1772735093777977600,0.3819775390625,0.04371113143265247,0.035928405134566126,0.05810878235846757
1772735093788004600,0.392004638671875,0.032930794221162796,0.03797529119439423,0.026522973005473613
1772735093798032400,0.402032470703125,0.04549275415241718,0.050343591717071826,-0.005978215893078595
1772735093808059100,0.41205908203125,0.06091302612423896,0.03221015179641545,-0.028345676654297856
1772735093818086400,0.42208642578125,0.04341711692214012,0.0078769439201802,-0.044191096969321365
1772735093828113400,0.432113525390625,0.03250701585114002,-0.033085217597894366,-0.0710744094534777
1772735093838140200,0.44214013671875,0.04373801943957805,-0.03719572165664285,-0.05254040764160454
1772735093848167200,0.452167236328125,0.05197977808415889,-0.029756401968747376,-0.027995895102247596
1772735093858194400,0.4621943359375,0.03252572055160999,-0.01228127982635051,0.003050327481329441
1772735093868221200,0.47222119140625,0.04254442574083805,0.009003902123495935,0.03047850569821894
1772735093878248200,0.482248291015625,0.04477028509676456,0.009739851715229451,0.03256817145384848
1772735093888275500,0.492275390625,0.04460428088009357,-0.0025604616051539777,0.039082941909041255
1772735093898302200,0.50230224609375,0.05162906495034694,0.025893515995517372,0.05877331068180501
1772735093908329200,0.5123291015625,0.04609072004556656,0.010939327165484427,0.06121867627361789
1772735093918356200,0.522356201171875,0.050879707887768744,-0.01289122841823846,0.026722788160201162
1772735093928383200,0.53238330078125,0.05312777907550335,-0.03242061620932072,0.030883469769917425
1772735093938410200,0.54241015625,0.04595511096715927,-0.035473135647736485,0.03126255048168823
1772735093948437200,0.552437255859375,0.053743865147233005,-0.003420914359390735,0.0045537360479123885
1772735093958464500,0.562464599609375,0.049556934851408004,0.006326791868731379,-0.005962908726092428
1772735093968491300,0.5724912109375,0.05345861846506595,0.03432455013450235,-0.008080503668263555
1772735093978518300,0.582518310546875,0.05870119529366493,0.04533394686151296,-0.003178155112080276
1772735093988545300,0.592545166015625,0.0492868857383728,0.04690773551687598,-0.01833164764018729
1772735093998572300,0.602572265625,0.054091071149706835,0.021371362395957112,-0.04250931789483875
1772735094008599300,0.612599365234375,0.028826866033673286,-0.010811024610698222,-0.036212683702353386
1772735094018626300,0.622626220703125,0.05100011939704418,-0.024861177273094653,-0.051499538552854204
1772735094028653300,0.6326533203125,0.059679100415110584,-0.009226897224411367,-0.060382225449476384
1772735094038680300,0.642680419921875,0.055932315102219576,-0.013271861766278743,-0.06574271130301058
1772735094048707300,0.652707275390625,0.04903086515069008,0.032732385572232306,-0.057734085560869425
1772735094058734000,0.662734130859375,0.038240591067075724,0.040613859537057574,-0.035041046107094735
1772735094068761300,0.67276123046875,0.039865561920404434,0.03126147276945412,-0.01707050513057038
1772735094078788400,0.682788330078125,0.04194178367257118,0.0015543533025309442,-0.006486165415216237
1772735094088815000,0.692815185546875,0.046125206837058064,-0.012999291902594268,-0.0016277838649228213
1772735094098843400,0.702843505859375,0.046419221347570414,-0.012239997967891394,0.042615901808161286
1772735094108870100,0.7128701171875,0.05119827231764793,-0.012437675964459776,0.07349571831626817
1772735094118897200,0.722897216796875,0.04041442797482014,0.00438760396707803,0.059237347996979946
1772735094128924400,0.73292431640625,0.04593932887613773,0.012593743309006094,0.07009741764748469
1772735094138951400,0.742951416015625,0.04712240118086338,0.01996149559803307,0.05058941970430314
1772735094148978200,0.752978271484375,0.05714052184820175,0.01135006339084357,0.007260729984287172
1772735094159005200,0.763005126953125,0.047860652327537535,0.014046024476550519,-0.008048756823129952
1772735094169032400,0.773032470703125,0.06058335577845573,-0.008605586988292634,-0.022892909407429395
1772735094179059200,0.78305908203125,0.05385784691572189,-0.023152400593832133,-0.04207620544089004
1772735094189086200,0.793086181640625,0.03546761922240257,-0.033257724620588125,-0.03724646546319127
1772735094199113500,0.803113525390625,0.0342857159614563,0.05609342394806444,-0.037222244337387383
1772735094209140200,0.81314013671875,0.06482113947868347,0.28469748731907457,0.0271446485677734
1772735094219167200,0.823167236328125,0.060037996855378147,0.003808963828906417,-0.0955122284816578
1772735094229194200,0.8331943359375,0.05345569585561752,-0.22905867527071386,-0.1273784622112289
1772735094239221200,0.84322119140625,0.050611996862292286,-0.3008511881319806,-0.040872492206934834
1772735094249248300,0.853248291015625,0.04387362851798534,-0.2117920813124627,0.05939425559174269
1772735094259275300,0.863275146484375,0.06617080052196979,-0.005654226369410753,0.15403587525133042
1772735094269302300,0.87330224609375,0.05481061759591102,0.1366702413653955,0.16265806631455196
1772735094279329300,0.883329345703125,0.0531605123013258,0.17183084046524016,0.09191325414162128
1772735094289356300,0.893356201171875,0.06406944432854653,0.1493836655313149,0.005530307728797197
1772735094299383000,0.903383056640625,0.0637742607742548,0.14199421286713332,0.007676379846781492
1772735094309410300,0.913410400390625,0.06004325755238533,0.03935980435535311,0.01379186705239117
1772735094319437300,0.923437255859375,0.04689268407821655,-0.09969736867919564,-0.02490740930130705
1772735094329464300,0.93346435546875,0.046609190961718554,-0.19760102234203367,-0.05745632806541398
1772735094339491300,0.9434912109375,0.037785833036899565,-0.18631474490240216,-0.06066710680546239
1772735094349518300,0.953518310546875,0.05648819541931152,-0.07972695912234484,-0.0560256559414789
1772735094359545300,0.96354541015625,0.05273614940941333,0.06448485672902315,-0.042214463134109974
1772735094369572000,0.973572021484375,0.04733750523626804,0.19534951708819717,-0.020568886906653643
1772735094379599400,0.983599365234375,0.035353637453913685,0.22889175773859022,-0.013612528430111705
1772735094389626400,0.99362646484375,0.04822480946481228,0.1266992843080312,0.0035229134291410442
1772735094399653000,1.003653076171875,0.05870587146878242,-0.017579167038761077,-0.005769450246915221
1772735094409680400,1.013680419921875,0.05572948600649833,-0.15300576501861213,0.009204046071786433
1772735094419707400,1.023707275390625,0.044970191583037375,-0.21606515552178024,0.015977631859946995
1772735094429734100,1.033734130859375,0.038982349345088,-0.16662790152728557,-0.0014845577356405555
1772735094439761200,1.04376123046875,0.05603635999858379,-0.06765566878486425,-0.018099720314145088
1772735094449788400,1.053788330078125,0.047339843323826784,0.09336001888383179,0.004819565643556416
1772735094459815200,1.063815185546875,0.0592863017052412,0.18447163778636602,0.042141635359916836
1772735094469842200,1.07384228515625,0.04925415251255035,0.1647385806493461,0.06442978380722925
1772735094479869400,1.083869384765625,0.047612815046310424,0.07897942869067191,0.02985798091338947
1772735094489896200,1.093896240234375,0.05108253698348999,-0.06096329500675201,0.030462504411488768
1772735094499923200,1.103923095703125,0.06637129153013228,-0.1455707561796531,0.042623938984144474
1772735094509950200,1.1139501953125,0.051875148665904994,-0.16501505950316786,0.020789817914646118
1772735094519977200,1.123977294921875,0.0463502477645874,-0.08473338910751044,-0.00975861121462658
1772735094530004200,1.134004150390625,0.06520458583831787,0.04150642446260899,-0.022479762029275298
1772735094540031200,1.14403125,0.05083469970226288,0.12691292705871163,-0.05288786937240511
1772735094550058200,1.154058349609375,0.029579730227589605,0.1812235957758501,-0.07939882314652204
1772735094560085200,1.164085205078125,0.04378653475642204,0.12301033012960105,-0.10313718866845592
1772735094570112300,1.1741123046875,0.0375011708766222,0.013973397631756961,-0.08207242626994848
1772735094580139300,1.18413916015625,0.05755611691176891,-0.1294341160994023,-0.04383813707949594
1772735094590167300,1.194167236328125,0.03780570678114891,-0.1881574866922572,0.008210596321336925
1772735094600194300,1.2041943359375,0.040948680981993675,-0.12597411183863877,0.07311135864118114
1772735094610221300,1.21422119140625,0.03779869251847267,0.013894852502830325,0.10966646257303654
1772735094620248300,1.224248291015625,0.0454220270037651,0.051900027378834784,0.0819770578703843
1772735094630275300,1.234275390625,0.05572773244082927,0.09488076217770576,0.05510866896072402
1772735094640302000,1.244302001953125,0.044944472619891165,0.05298888206146657,0.032579332168679684
1772735094650329300,1.254329345703125,0.046287703922390934,0.04359689393583685,0.019164390403591094
1772735094660356400,1.2643564453125,0.049590837121009826,-0.0006399784039705992,-0.00009372443174943327
1772735094670383000,1.274383056640625,0.04332826959490776,-0.040287038735486565,-0.03575116713782772
1772735094680410400,1.284410400390625,0.04963409174084663,-0.03206135444287211,-0.12550561754405498
1772735094690437400,1.294437255859375,0.053685997480154034,0.011746624960377811,-0.21324105627806855
1772735094700464000,1.304464111328125,0.06535714605152607,0.13884933897014706,-0.18319931629560887
1772735094710491100,1.3144912109375,0.040218028619885444,0.19148641191925853,-0.10208915918655694
1772735094720518400,1.324518310546875,0.037818566262722016,0.07513217867799103,-0.04343193089878186
1772735094730545400,1.33454541015625,0.03766366796195507,-0.07492642697282136,0.013708992808219045
1772735094740572200,1.344572265625,0.036468320697546006,-0.18196582897789776,0.056794704085215926
1772735094750599400,1.354599365234375,0.07059212409555912,-0.20054434578493235,0.09711999247185886
1772735094760626400,1.36462646484375,0.06550093843638896,-0.1383075237110257,0.1303123602386564
1772735094770653200,1.374653076171875,0.04648410327732563,-0.010025317593105137,0.14540354638658462
1772735094780680200,1.38468017578125,0.053204935964941975,0.11005779997818171,0.10397082648100331
1772735094790707500,1.39470751953125,0.05438508566021919,0.1609501116191968,0.05715140856839716
1772735094800734000,1.40473388671875,0.057221185868978494,0.13079418893884867,0.0208474115870893
1772735094810761000,1.414760986328125,0.05558861623108387,0.013665866052545605,0.0006905395474284887
1772735094820788000,1.4247880859375,0.055012862169742584,-0.09545523759741335,-0.016206983636412767
1772735094830815000,1.43481494140625,0.044859132423996924,-0.14447905195280908,0.00005636982973664999
1772735094840842000,1.444842041015625,0.05699965207278728,-0.1480247252030298,0.018248134075198322
1772735094850869000,1.454868896484375,0.04144143293499946,-0.06544307076931,0.007248363693058491
1772735094860896000,1.46489599609375,0.049966684696078296,0.023856749470904468,0.006867931274417787
1772735094870923000,1.474923095703125,0.03948094651699066,0.10817797758094966,-0.015800613058917223
1772735094880950000,1.484949951171875,0.05249123473763465,0.15823033126648514,-0.04228643239177763
1772735094890977000,1.49497705078125,0.05473229166269302,0.13186269495319575,-0.06999008481549099
1772735094901004000,1.505004150390625,0.0484592027425766,0.05446772244237363,-0.1062448540939018
1772735094911031000,1.515031005859375,0.058951955184340474,-0.04314009007904678,-0.12821334213279187
1772735094921058000,1.52505810546875,0.05448094725012779,-0.1085664654418826,-0.16998546832688152
1772735094931085000,1.5350849609375,0.05208966819941997,-0.10485986600890755,-0.14270758530087768
1772735094941112000,1.545112060546875,0.0477443324714899,-0.03262362796813249,-0.09842943110261111
1772735094951139000,1.55513916015625,0.05596154119670391,0.043190687755122775,-0.03958670844640583
1772735094961165800,1.565165771484375,0.0517529835909605,0.10851349314562976,0.034683209112752224
1772735094971193000,1.575193115234375,0.05128068990409374,0.11688026640936731,0.09867007145807147
1772735094981220000,1.58522021484375,0.051717912277579305,0.04365015849303454,0.14227401618920266
1772735094991246800,1.595246826171875,0.059797173836827276,-0.03439516768530011,0.16527000237861647
1772735095001274000,1.605274169921875,0.050669280007481575,-0.09873148278910666,0.15669661889318376
1772735095011301000,1.615301025390625,0.05755611691176891,-0.09705993284769356,0.09905375527972354
1772735095021328000,1.625327880859375,0.03884907835423946,-0.05600136175043881,0.06774376719342544
1772735095031355000,1.63535498046875,0.054255321800708765,0.01215787264239043,0.01345364807397127
1772735095041382100,1.645382080078125,0.04825286651551723,0.04408610222488642,-0.03920439459793269
1772735095051410000,1.655409912109375,0.05288929414451122,0.051414581949450075,-0.0954872767034918
1772735095061437200,1.665437255859375,0.05200315895974636,0.02025328161884099,-0.12053844185704364
1772735095071464000,1.6754638671875,0.04395487706065178,0.014753259430453181,-0.12079462684150785
1772735095081491000,1.685490966796875,0.04325403531491756,-0.0059459027923643585,-0.08865271797571331
1772735095091518000,1.69551806640625,0.047636195921897884,-0.016284304922632872,-0.058481488128378986
1772735095101545200,1.705545166015625,0.05229717347025871,-0.021020064740255473,-0.04382136860778555
1772735095111572000,1.715572021484375,0.04076747919619083,-0.010445990690588951,-0.011166085126064717
1772735095121599000,1.725598876953125,0.057356794947385784,-0.004747450255416333,0.025594094657525417
1772735095131626200,1.735626220703125,0.07588087815344333,0.029438641256466506,0.0276114806282334
1772735095141653000,1.745653076171875,0.049206806239485736,0.04934720109086484,0.048668333714921026
1772735095151680000,1.755679931640625,0.04917524205744266,0.01063022468369454,0.04918316963557154
1772735095161707000,1.76570703125,0.04421849643290043,-0.024038535778596996,0.05353292581029236
1772735095171734000,1.775734130859375,0.05917524254620075,-0.04777184153292328,0.02124316943902522
1772735095181761000,1.785760986328125,0.05542904175519943,-0.03861030116230249,-0.005169109733588993
1772735095191788000,1.7957880859375,0.055284080326557156,-0.036913361051306125,-0.012559493979532271
1772735095201815000,1.80581494140625,0.04361702340841293,0.012660451869666576,-0.01052166800899431
1772735095211842000,1.815842041015625,0.037032384321093556,0.04380070941224694,-0.014391440380737185
1772735095221869000,1.825869140625,0.05498948129415512,0.05003156662583351,-0.006117660896386951
1772735095231895800,1.835895751953125,0.06980769571959972,0.021322627883404492,0.009436101261992007
1772735095241923000,1.845923095703125,0.05411152941584587,-0.018486271946318446,0.028102022357843814
1772735095251950000,1.8559501953125,0.05068330853283405,-0.03518080163765699,0.019666458174213766
1772735095261976800,1.865976806640625,0.050991936090588566,-0.02981036064568907,-0.0006401975996792316
1772735095272004000,1.876004150390625,0.0505459458887577,-0.010719620000198483,-0.015082582716364413
1772735095282031000,1.886031005859375,0.046646015840768815,0.02755819780472666,-0.0216744004631415
1772735095292058000,1.89605810546875,0.051564183020591736,0.032588593187369404,-0.029056327407993375
1772735095302084900,1.9060849609375,0.04765782323181629,0.035120194024220105,-0.03570634161541238
1772735095312112000,1.916112060546875,0.05094926599264145,0.007991181416995823,-0.02048407643372193
1772735095322139100,1.92613916015625,0.053204935964941975,-0.01877652359716594,-0.016377974555455147
1772735095332166000,1.936165771484375,0.04992985981702804,-0.031615181577950714,0.0068708904164843255
1772735095342193200,1.946193115234375,0.04619418042004108,-0.03372399042546749,0.025240586778428404
1772735095352220200,1.95622021484375,0.05696984145641327,-0.013726071807183325,0.04056311573050916
1772735095362247000,1.966246826171875,0.040944589328765865,0.006520378212071955,0.015064517336711287
1772735095372274000,1.97627392578125,0.0544020367950201,0.019891608699597416,0.02128096243245527
1772735095382301200,1.98630126953125,0.049148938572406764,0.03845598738342523,0.017947287965100256
1772735095392328000,1.996327880859375,0.046446693876385683,0.026554244926571845,0.005797342900838703
1772735095402355000,2.00635498046875,0.03747311382591724,0.004042882182635366,-0.0033363413484767076
1772735095412382200,2.01638232421875,0.05738309843242168,-0.02035067757871002,-0.035123829019721595
1772735095422409000,2.026408935546875,0.047071547776460644,-0.03128481711242348,-0.02539846248757094
1772735095432436000,2.03643603515625,0.03720306471288204,-0.021331761037930844,-0.03505052632149309
1772735095442463000,2.046462890625,0.04962123225927353,-0.0050786915037781,-0.04853464259896427
1772735095452491000,2.056490966796875,0.05500467886328697,-0.0024102394795045257,-0.021542042787745595
1772735095462518000,2.06651806640625,0.044374563777446745,0.019319142573885617,-0.005693517200183123
1772735095472545000,2.076544921875,0.04317103320658207,0.02689377907924354,0.010521266150195151
1772735095482572000,2.086572021484375,0.04017594304382801,0.014013620044291018,0.01808881532764062
1772735095492599000,2.09659912109375,0.04511398396790027,0.001802884703502059,0.03965270462101325
1772735095502626000,2.1066259765625,0.05005903915464878,-0.004477985664270818,0.021846633491199464
1772735095512653000,2.116653076171875,0.05334639026224613,-0.011426306964829564,0.006164148652926087
1772735095522680000,2.12668017578125,0.057086161312460894,0.0014154562884941696,-0.024250790289789437
1772735095532707000,2.13670703125,0.04600888698101043,0.022661000347696244,-0.03844632450593635
1772735095542733800,2.14673388671875,0.04046878851056099,0.033097821351140734,-0.026661979617364703
1772735095552761000,2.156760986328125,0.04615092580020427,0.02992985883951187,-0.03139273446630687
1772735095562788000,2.1667880859375,0.04794657704532146,0.00783595432266593,-0.03737014664178714
1772735095572814800,2.17681494140625,0.044216742867231366,-0.012265607333183288,-0.006462419213447719
1772735095582842000,2.186842041015625,0.04706687160134315,-0.02654288328234106,0.00235713931908831
1772735095592869000,2.196869140625,0.04916647422909736,-0.020451799865625796,0.00003841404793784022
1772735095602896000,2.206895751953125,0.04556874199807644,-0.022132409896329044,0.01690126777719706
1772735095612923000,2.2169228515625,0.04092003940939903,-0.015379282374307513,0.026734021940268575
1772735095622950100,2.2269501953125,0.05856383264958858,0.009429945515841245,0.030484460514970124
1772735095632977000,2.236976806640625,0.05256371545195579,0.023562954156100747,0.043062038140464574
1772735095643004000,2.24700390625,0.05210778837800026,0.0036949455277994273,0.03854750159177929
1772735095653031200,2.25703125,0.04163257159292698,-0.014426402096264064,0.02375279590608552
1772735095663058000,2.267057861328125,0.05062193373441696,-0.01920026543457061,0.015188253314234316
1772735095673085000,2.2770849609375,0.0582581277012825,-0.017389708881266414,0.024210677475109695
1772735095683112000,2.28711181640625,0.055421442970633505,-0.009552329786494373,0.0003695822310633957
1772735095693139200,2.29713916015625,0.04659983861148357,0.00862600872181356,-0.006709854635875672
1772735095703166000,2.307166015625,0.0463023169696331,0.029672669208049774,-0.01763981118481606
1772735095713193000,2.31719287109375,0.038377953711152074,0.044419791158661244,-0.000752042210008949
1772735095723220200,2.32722021484375,0.03135200059711933,0.03766823453921824,-0.019106814997456967
1772735095733247000,2.3372470703125,0.03495440900325775,0.01814947774000466,-0.01671235760897398
1772735095743274000,2.34727392578125,0.060545361855626104,-0.000705298725143075,-0.028518055812828243
1772735095753301000,2.357301025390625,0.040646483165025706,-0.002236563413031399,-0.03917686727019026
1772735095763328000,2.367327880859375,0.04184241495132446,0.013179872633889316,-0.03207804984934628
1772735095773355000,2.37735498046875,0.0584539425343275,0.013988010678999125,-0.020100721405632793
1772735095783382000,2.387382080078125,0.037950668209791184,0.0015378770917654036,-0.03258645602921024
1772735095793409000,2.397408935546875,0.04393149618506431,0.001513765563815832,-0.01679236404262483
1772735095803435800,2.407435791015625,0.061574120381474494,0.0074844374712556595,0.00912814955767244
1772735095813463000,2.417463134765625,0.042409985706210136,0.0027966449812054633,0.013796159635018556
1772735095823489800,2.42748974609375,0.05198562330305576,-0.004502608648873865,0.022267288322374224
1772735095833516800,2.437516845703125,0.04644377126693725,-0.01121836330257356,0.027329850675258782
1772735095843545000,2.447545166015625,0.05347089342474937,-0.011524835435859858,0.022634331536479292
1772735095853571800,2.45757177734375,0.06273907250761986,-0.0009344678385183214,0.021728706199955195
1772735095863598800,2.467598876953125,0.046422728478908534,-0.013895948481373488,0.00957134501421824
1772735095873626000,2.477626220703125,0.04837327802479267,-0.015231507934071123,-0.013459840352740138
1772735095883652900,2.48765283203125,0.04387888921499252,-0.04032543451711535,-0.015474997833743691
1772735095893679900,2.497679931640625,0.03355331003367901,-0.04311400578971952,-0.01949400595044717
1772735095903707000,2.507706787109375,0.04239011196196079,-0.022067491433955727,-0.0264263442305848
1772735095913734000,2.51773388671875,0.048533437022566794,-0.017476729577593504,-0.018863690423965452
1772735095923761000,2.527760986328125,0.05377776741683483,-0.002885382710583508,-0.005157455828413367
1772735095933788000,2.537787841796875,0.05407412001490593,0.0005733063759282231,0.007053516974393278
1772735095943815000,2.54781494140625,0.05886603046655654,0.005460165102034807,0.02890027832975611
1772735095953842000,2.557842041015625,0.052585342761874196,0.01985544140767306,0.038266346562840045
1772735095963869000,2.567868896484375,0.053636313119530675,0.021680866736546157,0.052886901258025316
1772735095973895700,2.577895751953125,0.038380876320600506,0.03889269830025732,0.05974960836805403
1772735095983923000,2.5879228515625,0.052749593412876127,0.01833115444984287,0.06106933093080297
1772735095993950000,2.597949951171875,0.06935995195209979,0.0197389023559168,0.05142247299496084
1772735096003976700,2.607976806640625,0.0561971035182476,0.009154087716527282,0.04457867151480168
1772735096014004000,2.61800390625,0.052313540083169935,-0.016238091160729527,0.002216159945819527
1772735096024031000,2.628031005859375,0.03899813143610954,-0.028960794611647724,-0.0270639662806876
1772735096034057700,2.6380576171875,0.04932487966120243,0.009433708375506103,-0.04339901500986889
1772735096044084700,2.648084716796875,0.05351414804458618,0.03458499116897583,-0.06003492811545729
1772735096054112000,2.658112060546875,0.04109773406386375,0.06024268911462277,-0.05178800010541454
1772735096064139000,2.668138916015625,0.042598201754689216,0.09335271236021071,-0.04444026769110933
1772735096074165800,2.678165771484375,0.0494873767465353,0.07939520641732961,-0.02791221714047715
1772735096084193000,2.688193115234375,0.04919219319224357,-0.00005987696107476949,-0.04844532034769654
1772735096094220000,2.698219970703125,0.056227498656511304,-0.07094543104525655,-0.039194421193189916
1772735096104246800,2.708246826171875,0.055630117285251614,-0.1285673797348514,-0.03522230269182473
1772735096114273800,2.718273681640625,0.05861643961966037,-0.186300825974904,-0.02017868201266974
1772735096124301000,2.728301025390625,0.037813305565714835,-0.23242928421497344,-0.03191425585607067
1772735096134327800,2.738327880859375,0.042598201754689216,-0.0042768005363643165,0.017852577152661978
1772735096144354800,2.748354736328125,0.06069558398127556,0.18398078552950173,0.076110540457163
1772735096154382000,2.758382080078125,0.042886955568194385,0.2512638216096908,0.05785754754375666
1772735096164408800,2.768408935546875,0.05052022692561149,0.17951529402062297,0.017345303483959285
1772735096174435800,2.778435791015625,0.04334171359837055,0.07107406239360571,0.03122327791722491
1772735096184462800,2.788462890625,0.060548284465074535,-0.07367372349798679,0.04822018808862194
1772735096194489900,2.79848974609375,0.056367783910036086,-0.17141279771625995,0.04626465184036642
1772735096204518000,2.808517822265625,0.051879824841022486,-0.17949224193859845,0.01860140449227765
1772735096214545000,2.818544921875,0.06085398941338062,-0.11686240195911377,-0.0034594014725647863
1772735096224572000,2.828572021484375,0.05156827467381954,0.011921250874921678,-0.02255006905281916
1772735096234599000,2.838598876953125,0.04945990421772003,0.11223876074645668,-0.04872313264207914
1772735096244626000,2.8486259765625,0.0427162751764059,0.16951262665074318,-0.05674277296857908
1772735096254653000,2.85865283203125,0.04735620993673801,0.15200612298939375,-0.053654415031801905
1772735096264680000,2.868679931640625,0.0493044213950634,0.0918026333739981,-0.03171573760928586
1772735096274707000,2.87870703125,0.04662205044329166,-0.039591713415086265,-0.02247990815974772
1772735096284734000,2.88873388671875,0.04468260681331158,-0.15596077889930457,-0.03412681733900681
1772735096294761000,2.898760986328125,0.049472179177403444,-0.1816428075686097,-0.002656049200426787
1772735096304788000,2.9087880859375,0.04482815276384353,-0.10359656807482243,0.011171966877579688
1772735096314814700,2.918814697265625,0.0478097989231348,0.019776750148274003,0.025833967828005552
1772735096324842000,2.928842041015625,0.054229602837562556,0.12287548823617397,0.06837052078964188
1772735096334869000,2.938868896484375,0.04268997169137001,0.1528744667891413,0.055413771120831366
1772735096344895700,2.948895751953125,0.051661213654279704,0.11978800708223133,0.037056861175224186
1772735096354923000,2.958923095703125,0.052262102156877516,0.024615458883717654,0.03388668844019994
1772735096364950000,2.968949951171875,0.046290626531839366,-0.08931611378788948,0.014492854928597807
1772735096374976800,2.978976806640625,0.04511398396790027,-0.14559618288185447,-0.020258432717993855
1772735096385003800,2.989003662109375,0.05275310054421425,-0.1256455740040168,-0.03316569895558059
1772735096395031000,2.999031005859375,0.06906184578835964,-0.04599639282561838,-0.03547715423572808
1772735096405057800,3.009057861328125,0.04286591278016567,0.07612195690032095,-0.01873708663592115
1772735096415084800,3.019084716796875,0.039867315486073494,0.13929394093248992,-0.007668580132815986
1772735096425112000,3.029112060546875,0.05258125110864639,0.13256832247190176,-0.013419161282479762
1772735096435138800,3.039138916015625,0.03941489554345608,0.046126375880837435,-0.028103629793040454
1772735096445165800,3.049165771484375,0.047204818767309184,-0.038938071811944246,-0.02604700779048726
1772735096455192800,3.05919287109375,0.06846037276387214,-0.09816526374109089,-0.006781312436889857
1772735096465220000,3.06922021484375,0.054850949606299396,-0.08639620775319636,-0.011219879406224936
1772735096475246800,3.079246826171875,0.0518576130092144,-0.04456073399931192,-0.004332293583266437
1772735096485273900,3.08927392578125,0.034790742874145505,0.0021955738155171275,0.011537640118505806
1772735096495301000,3.099301025390625,0.04016951330304146,0.07195442542470991,0.030632417618297037
1772735096505327900,3.109327880859375,0.04449965146183967,0.09740363171882926,0.03287190364077687
1772735096515355000,3.11935498046875,0.04074935901761055,0.07921393156629056,0.024848409123066812
1772735096525382000,3.1293818359375,0.030128011760115623,0.019011355266347528,0.03444209383325651
1772735096535409000,3.139408935546875,0.05243804324567318,-0.05402487404569983,0.028507406554650512
1772735096545437000,3.14943701171875,0.05693827727437019,-0.08252433475591242,0.018567757951002566
1772735096555463700,3.159463623046875,0.04272913465797901,-0.08561572489999233,0.013941194128897041
1772735096565491000,3.169490966796875,0.05964169101417064,-0.026968342152796684,-0.01706045866059139
1772735096575518000,3.17951806640625,0.04332476246356964,0.019834252489171922,-0.02340248463107273
1772735096585544700,3.189544677734375,0.04345803345441818,0.08012721048630773,-0.019434348185081034
1772735096595572000,3.199572021484375,0.0492868857383728,0.08939871403742582,-0.03993703798772767
1772735096605599000,3.209598876953125,0.04465221167504787,0.04881177903991192,-0.02549695442598313
1772735096615626000,3.2196259765625,0.04511807562112808,-0.01269450026974082,-0.01645083886226639
1772735096625652700,3.22965283203125,0.05487023882865905,-0.07456373114027083,0.002891593255661428
1772735096635680000,3.239679931640625,0.0508598341435194,-0.09028075756896287,-0.01285599270807579
1772735096645707000,3.24970703125,0.05221358684003353,-0.053995282625034446,0.0019710626109503207
1772735096655733800,3.259733642578125,0.04158580984175205,0.013752411824837326,0.020921317073516545
1772735096665761000,3.269760986328125,0.05473521427214145,0.058650195758789776,0.03784437655741349
1772735096675788000,3.2797880859375,0.050824178308248515,0.09758213009089231,0.044997901573870326
1772735096685814800,3.289814697265625,0.052610477203130716,0.07927439304925502,0.04045607515946031
1772735096695841800,3.299841796875,0.06503215188086033,0.0232845025409013,0.016185009266622363
1772735096705869000,3.309869140625,0.05861293248832226,-0.04420150876548141,0.007206826106272638
1772735096715895800,3.319895751953125,0.06012801322638988,-0.08234105061087757,-0.0034510537693277
1772735096725922800,3.3299228515625,0.04651683650314808,-0.08588255914263426,-0.016880115391314027
1772735096735950000,3.3399501953125,0.06208265442550182,-0.03903393340185284,-0.03676357731707394
1772735096745976800,3.349976806640625,0.06073182433843612,0.027056714555993674,-0.02071335514495149
1772735096756003800,3.36000390625,0.04501636881232261,0.08750449778866022,-0.02365295226080343
1772735096766030800,3.37003076171875,0.05773322704434394,0.09013912060856819,-0.026098171722143886
1772735096776057900,3.380057861328125,0.0571340921074152,0.04724789072405547,-0.011717070072330533
1772735096786084900,3.3900849609375,0.06552139670252799,-0.0020752353714779018,-0.0017169051867909728
1772735096796112000,3.40011181640625,0.04099018203616142,-0.06796612297352403,0.002440506753604859
1772735096806139000,3.410138916015625,0.05820785881876945,-0.07655797369740903,-0.00478982809241861
1772735096816166000,3.420165771484375,0.05132336000204086,-0.054481202978454525,-0.002676909325364977
1772735096826193000,3.43019287109375,0.053559156230092046,-0.005473645638115704,0.013393442319333553
1772735096836220000,3.440219970703125,0.046807928404211996,0.027967070866562426,0.009560914951749145
1772735096846247000,3.450246826171875,0.05024199450612068,0.07062796259392053,0.012093429104052483
1772735096856274000,3.46027392578125,0.05667231981456279,0.07513338425438851,0.014443280165828763
1772735096866302000,3.470302001953125,0.049046647241711615,0.0336882615249604,0.007388977740146219
1772735096876329000,3.480328857421875,0.041726679617166515,-0.010331497465446591,0.010558310224954038
1772735096886356000,3.49035595703125,0.04397650437057018,-0.04375745479241013,0.007998853266797959
1772735096896382700,3.5003828125,0.03964344360232353,-0.061060325640439984,0.0005340886103920639
1772735096906410000,3.510409912109375,0.053259881022572515,-0.025494799001514912,-0.0014514774499461054
1772735096916437000,3.52043701171875,0.038600072029232976,0.02765022346973419,-0.004007080216892063
1772735096926463700,3.530463623046875,0.04907821142375469,0.04955766550377011,-0.019942151576746253
1772735096936491000,3.540490966796875,0.05251636917889118,0.058221996941976245,-0.015099259856529533
1772735096946518000,3.55051806640625,0.04698094688355922,0.046985549993440505,-0.015628690558113157
1772735096956544800,3.560544677734375,0.05746376245319843,0.010533742039278149,-0.00309177373657003
1772735096966571800,3.57057177734375,0.04070961152911186,-0.03032653000690043,0.0003031293987296521
1772735096976599000,3.58059912109375,0.05268471148312091,-0.0586328427651897,-0.00505317347003147
1772735096986625800,3.590625732421875,0.0579226121366024,-0.047370055798999965,0.011578191324602811
1772735096996652800,3.60065283203125,0.03322948490679264,-0.016295666566863654,0.0035455088534392413
1772735097006680000,3.61068017578125,0.056117608541250225,0.02820398489497602,0.00863189047332853
1772735097016706800,3.620706787109375,0.03696224169433117,0.05814049267098307,0.016821736267581582
1772735097026733800,3.63073388671875,0.0417447997957468,0.05996482202131301,0.020923143704421818
1772735097036760800,3.6407607421875,0.04997603704631328,0.04851601096373051,0.016809004650171846
1772735097046788000,3.6507880859375,0.05102759192585945,-0.015099698247946798,0.0013921484781429171
1772735097056814800,3.66081494140625,0.041460722157359124,-0.03461355967633426,-0.0007801357933320105
1772735097066841900,3.670841796875,0.05807400330603122,-0.05379486468210816,-0.014651534355338662
1772735097076869000,3.680869140625,0.05717091698646545,-0.03801544054169208,-0.005732333106920123
1772735097086895900,3.690895751953125,0.05492576840817928,0.009019538084045053,-0.012059946959558874
1772735097096923000,3.7009228515625,0.042646717071533204,0.034135420770570635,-0.02675269010812044
1772735097106950000,3.710949951171875,0.05880348662436008,0.06387742888778447,-0.01374196349605918
1772735097116977000,3.720976806640625,0.04997019182741642,0.03815243785958737,-0.0035527605781331658
1772735097127004000,3.73100390625,0.055958034065365786,0.015310235726088285,-0.007924235394317657
1772735097137031000,3.741031005859375,0.0345645329028368,-0.015648308574035763,-0.010122439558338373
1772735097147058000,3.751057861328125,0.05207856228351593,-0.025640637212991712,-0.001904993371106684
1772735097157085000,3.7610849609375,0.05507599053382873,-0.034751031918264924,0.01893639033399522
1772735097167112000,3.77111181640625,0.04878887308835983,-0.01299457919485867,0.010063494179025292
1772735097177140000,3.781139892578125,0.04414835380613803,0.022607991518825293,0.01790063581177965
1772735097187167000,3.7911669921875,0.047889878422021866,0.04810582272764295,0.031149500294961035
1772735097197194000,3.801194091796875,0.044593759486079215,0.04310589554850012,0.011330938565265387
1772735097207220700,3.811220703125,0.05627016875445842,0.018850940540246663,-0.0030371209398843348
1772735097217248000,3.821248046875,0.06480068121254444,0.006444244235940277,0.009794139185734093
1772735097227275000,3.83127490234375,0.055225628137588495,-0.0024170710790902376,-0.00028603213345631954
1772735097237301800,3.8413017578125,0.05582417855262756,-0.029610161898471415,-0.004704140836652368
1772735097247329000,3.8513291015625,0.048344051930308336,-0.017803075455129144,-0.005783003848232328
1772735097257356000,3.86135595703125,0.04655015425086021,0.00481993096973747,-0.0011623035113327205
1772735097267382800,3.8713828125,0.0434048419624567,0.033194303995557124,-0.0015635047233663497
1772735097277409800,3.881409912109375,0.05582417855262756,0.04283800185993313,-0.01515305413668975
1772735097287437000,3.89143701171875,0.05477496176064014,0.03340345323421061,-0.006839508897531777
1772735097297463800,3.9014638671875,0.059114452269673344,0.01848298401068896,-0.017413765610288828
1772735097307490800,3.91149072265625,0.04594692766070366,-0.021868571328371764,-0.0011806246193125844
1772735097317518000,3.92151806640625,0.051637832778692244,-0.02158504167925566,-0.0013444003462791442
1772735097327544800,3.931544921875,0.05568038616776466,-0.02185154712833464,0.006517747863568365
1772735097337571800,3.94157177734375,0.06989712756872177,-0.01122713113091886,0.017543986127525567
1772735097347598800,3.951598876953125,0.049840427967906,0.022145452040992678,0.009634509910922497
1772735097357625900,3.9616259765625,0.04698445401489734,0.03667761606667191,0.009177139798551797
1772735097367652900,3.97165283203125,0.05086451031863689,0.035792905654013156,0.011157207699865102
1772735097377680000,3.981679931640625,0.04577274013757705,0.008636712778918445,0.001663750227447599
1772735097387707000,3.991706787109375,0.04982113874554634,0.002038483557663858,0.003364891589526087
1772735097397734000,4.00173388671875,0.06508417432904243,-0.010605930492654443,-0.0015930596114136278
1772735097407761000,4.011760986328125,0.043693011254072184,-0.02790270039346069,-0.020141382209584117
1772735097417788000,4.021787841796875,0.055818333333730694,-0.02360522239524871,0.005843045206088572
1772735097427815000,4.03181494140625,0.055370005044341086,-0.0004030643755570054,-0.008997691578418015
1772735097437842000,4.041842041015625,0.043992286461591715,0.025714031242765483,-0.022253862585220486
1772735097447869000,4.051868896484375,0.04907470429241657,0.03628909167312085,-0.002426898353360593
1772735097457896000,4.06189599609375,0.06463935317099094,0.0293819061005488,-0.018414722813759
1772735097467924000,4.071924072265625,0.059250645869970316,0.013193353169970213,0.0058588455634191626
1772735097477950700,4.08195068359375,0.028426468539237974,-0.004187259089387953,0.01371578787518665
1772735097487978000,4.09197802734375,0.05087210910320282,-0.013755224836431443,0.007874003044422715
1772735097498005000,4.1020048828125,0.05297229625284672,-0.026548034381493925,-0.005856014285515993
1772735097508031700,4.11203173828125,0.05342471619546413,0.001116765602864325,0.010207231764961033
1772735097518058800,4.122058837890625,0.055664604076743125,0.015174188256263732,0.00501415663389489
1772735097528086000,4.1320859375,0.05446107350587844,0.030559754240885376,-0.003960702058207244
1772735097538112800,4.14211279296875,0.05430559068322181,0.03298646993115544,-0.010755823824740945
1772735097548139800,4.152139892578125,0.030073066702485083,0.010132358164153992,0.003208568516653031
1772735097558167000,4.1621669921875,0.04129997863769531,0.009657945585437118,-0.007323018098156899
1772735097568193800,4.17219384765625,0.057014849641919135,-0.016199914574809373,-0.003837258341629058
1772735097578220800,4.182220703125,0.03996317707598209,-0.023184074373729525,-0.01715988218076527
1772735097588247800,4.192247802734375,0.05448386985957622,-0.02186963077429682,-0.011119688701070845
1772735097598275000,4.202275146484375,0.04460837253332138,-0.010381729815341531,-0.012521847116574645
1772735097608301800,4.2123017578125,0.048638650962710375,0.017805778868868947,-0.01664325616182759
1772735097618328800,4.222328857421875,0.051776364466547965,0.029134909069538115,-0.020541834502946586
1772735097628356000,4.232356201171875,0.05042904151082039,0.021058131728321314,-0.004057970153912902
1772735097638382800,4.2423828125,0.07063479419350624,0.014089206031151115,-0.01375370873278007
1772735097648409900,4.252409912109375,0.04714227492511272,-0.0067563423924148075,-0.000977758990973234
1772735097658437000,4.26243701171875,0.048339375755190844,-0.01747278405483812,-0.0010393347187899052
1772735097668463900,4.2724638671875,0.04355038791298866,-0.021765914671495554,0.0026638489143922923
1772735097678491000,4.282490966796875,0.055820086899399754,-0.004959850897081196,-0.0027704876266419886
1772735097688518000,4.292517822265625,0.04115384816527366,0.005686996127851307,0.005098272987082601
1772735097698545000,4.302544921875,0.06000351006388664,0.026653138723783193,0.0016838431674055755
1772735097708572000,4.312572021484375,0.061196519240736956,0.03209532977771014,0.005895451246760785
1772735097718599000,4.322598876953125,0.037404140242934224,0.021769239139743147,0.0009781973823904991
1772735097728626000,4.3326259765625,0.041897360008955,0.003299443404190242,-0.005820942972134799
1772735097738654000,4.342654052734375,0.037109541210532185,-0.025836744306981563,0.0001926912941969931
1772735097748680700,4.3526806640625,0.04818623102009296,-0.027090762956067917,-0.008051862095668912
1772735097758708000,4.3627080078125,0.049230771636962885,-0.019249365273304283,0.005270980939175933
1772735097768735000,4.37273486328125,0.0375578694999218,-0.002389854278601706,-0.006862122588139027
1772735097778762000,4.382761962890625,0.05550853673219681,0.029363420595787462,-0.018322733681369573
1772735097788788700,4.392788818359375,0.047722705161571496,0.019494718336500225,-0.009479776006937026
1772735097798815500,4.4028154296875,0.060740007644891736,0.014594561737403273,-0.0022692235736176372
1772735097808842500,4.412842529296875,0.051615036424994466,0.011303447770141065,-0.0044996129741892215
1772735097818869200,4.422869140625,0.030972645890712736,-0.003177022600919008,0.01579674060139805
1772735097828896500,4.432896484375,0.05133095878660678,-0.010671141215972601,-0.004922697224467992
1772735097838923500,4.442923583984375,0.06225567290484905,-0.01258486588280648,0.010653021037392317
1772735097848950300,4.4529501953125,0.06494388907551765,-0.009189049432054161,-0.00371224372247234
1772735097858977300,4.462977294921875,0.03231646171510219,0.005701609175093472,0.02100141483871266
1772735097869004500,4.473004638671875,0.03755027071535587,0.02130417891126126,-0.0008538768829777836
1772735097879031300,4.48303125,0.04293605540692806,0.03460004260763526,-0.005620141436718404
1772735097889058300,4.493058349609375,0.03964285908043384,0.022376045926474034,-0.014697949046641587
1772735097899085600,4.50308544921875,0.04742284543216228,0.012423135982453822,-0.005186024335771798
1772735097909112600,4.513112548828125,0.05655483091473579,-0.004734188915044069,0.006762406807020306
1772735097919139300,4.523139404296875,0.05446574968099594,-0.011626907570846378,0.0020758198933675883
1772735097929166600,4.53316650390625,0.06554185496866703,-0.0200717510394752,0.0016134448123164473
1772735097939193600,4.543193603515625,0.039356443354487416,-0.0017395371437072752,-0.007363021314982324
1772735097949220400,4.553220458984375,0.05132336000204086,0.02653970494456589,-0.0012878295871429145
1772735097959247400,4.563247314453125,0.043678398206830026,0.025922522894293067,-0.012388904919289052
1772735097969274600,4.573274658203125,0.04382628224492073,0.00898563581444323,-0.006967281729355454
1772735097979301400,4.58330126953125,0.04711480239629745,0.004418948953412473,-0.0016810666884295642
1772735097989328400,4.593328369140625,0.04427344149053097,-0.002878112719580531,0.001569824866298586
1772735097999355600,4.603355712890625,0.04158288723230362,-0.0017590090291574596,-0.009821703046094626
1772735098009382400,4.61338232421875,0.046375382205843925,-0.015302271615341305,-0.01422289714710787
1772735098019410400,4.623410400390625,0.055954526934027665,-0.007055215741135179,-0.00023408275051042436
1772735098029437400,4.6334375,0.05116261648237705,-0.0011628332342952488,0.012050704207178204
1772735098039464400,4.64346435546875,0.037087329378724096,0.017770269164070485,0.005993267331738024
1772735098049491500,4.653491455078125,0.049958501389622684,0.024143567055650055,0.009767817434389144
1772735098059518500,4.6635185546875,0.04307458709478378,0.017387955315597354,-0.0016178287264890967
1772735098069545500,4.67354541015625,0.04546820423305034,-0.007357377025485039,-0.019333828686363994
1772735098079572500,4.683572509765625,0.04651625198125839,-0.006112783791869879,-0.01165089123463258
1772735098089599500,4.693599609375,0.046968671923875806,-0.020769085653871297,-0.015153474261797964
1772735098099626500,4.70362646484375,0.0415834717541933,0.006497983717173338,0.007267817312199622
1772735098109653500,4.713653564453125,0.041885669571161264,0.02288436077479273,-0.00787213988089934
1772735098119680500,4.723680419921875,0.05654957021772861,0.009403459367714822,-0.005477664226107299
1772735098129707300,4.733707275390625,0.043369770649075504,0.03328066710475832,-0.007592208694666623
1772735098139734500,4.743734619140625,0.058334115546941755,0.01738200049884617,0.011614084621891379
1772735098149761500,4.753761474609375,0.054446460458636284,0.007884506172128021,0.006686236298270523
1772735098159788300,4.763788330078125,0.04711304883062839,-0.0065288537794724105,-0.002630914759170264
1772735098169815600,4.773815673828125,0.04756663781702518,-0.013965652716718614,0.007632632036600261
1772735098179842600,4.783842529296875,0.05430032998621463,-0.014100238881818949,0.006452591939177364
1772735098189869300,4.793869384765625,0.03903086466193199,-0.0009283303586766123,0.008484079500474036
1772735098199896300,4.803896240234375,0.04381926798224449,-0.0018448241490870714,0.0002199628936126828
1772735098209923600,4.813923583984375,0.04231763124763965,0.00637877778429538,0.0008059095554053783
1772735098219950300,4.823950439453125,0.03378361165821552,0.00944152635578066,-0.0035056517670862377
1772735098229977300,4.833977294921875,0.04365910898447036,0.011308635401912032,0.003136306998040527
1772735098240004600,4.844004638671875,0.046803252229094504,0.007495324191451072,-0.004014514604676515
1772735098250031400,4.85403125,0.0497965888261795,-0.004175459053739905,-0.005681333572044968
1772735098260058400,4.864058349609375,0.04366320063769817,-0.018208477918244897,0.004467372938711196
1772735098270085400,4.87408544921875,0.05428571693897247,-0.011600640618428587,-0.008818827880173921
1772735098280113400,4.884113525390625,0.041271337065100666,-0.006074862934276461,-0.015224712867103515
1772735098290140400,4.894140380859375,0.04785129997730255,0.007028839190863072,-0.0025838972796685994
1772735098300167400,4.90416748046875,0.05802841059863567,0.02129252500608563,-0.005865951157640666
1772735098310194400,4.9141943359375,0.035435470518469805,0.0002658843945711851,-0.009156060477904975
1772735098320221400,4.924221435546875,0.054290393114089966,-0.002083747471496463,-0.0017778233274817466
1772735098330248400,4.93424853515625,0.050398646372556685,-0.002385872223228216,0.013674980940762907
1772735098340275500,4.944275390625,0.050552375629544254,-0.008763882822543383,0.013270327396318315
1772735098350302500,4.954302490234375,0.06013268940150737,-0.00436188500393182,0.00858759467387572
1772735098360329500,4.96432958984375,0.04023264166712761,0.0076515376664698116,0.010660692887194454
1772735098370356200,4.974356201171875,0.04591770156621933,0.017322013939917086,0.001490676949173212
1772735098380383500,4.984383544921875,0.06940612918138504,0.010277319592796265,0.0004265183163806796
1772735098390410500,4.994410400390625,0.05548340229094028,-0.0018276538185775279,-0.0027818492708727716
1772735098400437200,5.004437255859375,0.05518471160531044,0.004438347773626446,-0.002837086589448154
1772735098410464500,5.014464599609375,0.04441548030972481,0.0014967778963968156,0.004642948701325804
1772735098420491500,5.024491455078125,0.05848433767259121,0.0034205125005915757,-0.008523023271374403
1772735098430518300,5.034518310546875,0.05983341419398784,-0.0030040406541898845,0.00454146108822897
1772735098440545300,5.044545166015625,0.06028583413660526,0.003579538987204432,-0.005342128212936222
1772735098450572500,5.054572509765625,0.059088733306527134,-0.00016008593253791331,0.002293115905858576
1772735098460599300,5.064599365234375,0.04322773182988167,0.015969138026237485,0.003121967945434153
1772735098470626300,5.074626220703125,0.04427344149053097,0.015469225680083035,0.006253635300975293
1772735098480653600,5.084653564453125,0.04756722233891487,0.003937887438200414,-0.003929503202345222
1772735098490680600,5.0946806640625,0.05370294861495495,0.012080861883424221,-0.0004991816937923431
1772735098500707300,5.104707275390625,0.053552726489305494,0.007103256133943796,0.006200571673177183
1772735098510734300,5.114734375,0.05924187804162502,0.0011620295166969298,0.012137578773032873
1772735098520761600,5.12476171875,0.04487608355879783,-0.006908391148969531,0.005875248708948492
1772735098530789400,5.134789306640625,0.04547404945194721,0.002998231967911124,0.004616334689036011
1772735098540816600,5.144816650390625,0.043377369433641434,0.0118795306250453,-0.0006906491452828049
1772735098550843400,5.154843505859375,0.04517126711308956,0.013131393849663435,0.007466682618856429
1772735098560870400,5.164870361328125,0.052801031339168546,0.01593541841972619,-0.004634911525342613
1772735098570897400,5.1748974609375,0.04890870007574558,0.016081402761675415,-0.00022949790693819523
1772735098580924400,5.18492431640625,0.05773264252245426,-0.001986132315918803,-0.021126137196924535
1772735098590951400,5.194951416015625,0.04800912088751793,-0.012269845116883515,-0.019690642767399548
1772735098600978400,5.204978515625,0.03918342487514019,-0.012722191994264722,0.00485922180050984
1772735098611005400,5.21500537109375,0.049207975283265114,-0.014693126741051672,0.001563376859202981
1772735098621032400,5.225032470703125,0.04770400046110153,-0.00916190569680184,0.0001929835551418364
1772735098631059500,5.2350595703125,0.03812368668913841,0.01701714924182743,-0.010237078913953155
1772735098641086500,5.24508642578125,0.04993921216726303,0.02170801047179848,-0.004901526572275906
1772735098651113500,5.255113525390625,0.04843699091076851,0.001535246743261814,0.010741375174280256
1772735098661140500,5.265140380859375,0.056063248005509374,0.000549414043687284,0.00666292848791927
1772735098671167500,5.27516748046875,0.05262216764092445,0.011439202979020773,-0.006200315944850444
1772735098681194500,5.285194580078125,0.04514379458427429,-0.0020799480792134998,-0.0008289981700479984
1772735098691221500,5.295221435546875,0.038410102415084836,-0.0009316548269242048,0.006425411671306938
1772735098701248500,5.30524853515625,0.04439326847791671,0.0014023776112124322,-0.0010348412067629396
1772735098711275300,5.315275146484375,0.04004910179376602,0.0005624196557328105,0.002775730057340115
1772735098721302500,5.325302490234375,0.04184475303888321,0.003595686404407024,0.008221775302477181
1772735098731329500,5.33532958984375,0.047238721036911006,0.008401442718319595,-0.000055858373083174224
1772735098741356300,5.345356201171875,0.04319909025728702,0.00948492710608989,-0.007230590574350207
1772735098751383600,5.355383544921875,0.04873392803072929,0.01257339464072138,-0.0015415120872668922
1772735098761410600,5.36541064453125,0.06474632067680358,0.007815276860818267,-0.010518599269073456
1772735098771438300,5.375438232421875,0.055019291910529136,0.0002724602658301592,-0.004147182807326316
1772735098781465600,5.385465576171875,0.04573649978041649,0.0048934711299836635,-0.0069289590129628775
1772735098791492400,5.395492431640625,0.037056349718570705,0.014030023189820348,0.0034410255656577645
1772735098801520000,5.40552001953125,0.05441372723281383,0.010329049780033529,-0.00042180560864508147
1772735098811547100,5.415547119140625,0.049474517264962194,0.0058517947681248185,-0.0014065057970583438
1772735098821574000,5.425573974609375,0.05845043540298939,0.000472184089012444,-0.003675163115095347
1772735098831601000,5.435600830078125,0.05141512993872165,-0.0017912307983264325,-0.0037716822921298443
1772735098841628200,5.445628173828125,0.05470598817765712,0.005386442278698086,0.01364955423856154
1772735098851655000,5.455655029296875,0.06652502078711986,-0.004519815512001514,0.002465148004516959
1772735098861682000,5.465681884765625,0.055151393857598305,-0.01023293246179819,0.00967760013397783
1772735098871709200,5.475709228515625,0.03974164327979088,-0.00854136264566332,0.004817465018015355
1772735098881736000,5.48573583984375,0.045131519624590874,0.0021547303484752774,-0.0013424641175195575
1772735098891763000,5.495762939453125,0.04722936868667602,0.02350417317356914,0.011395053310040384
1772735098901790000,5.5057900390625,0.052768882635235784,0.019895115830935537,-0.005723802740592509
1772735098911817000,5.51581689453125,0.039299160209298134,-0.008112615839578211,-0.010294179396051912
1772735098921844000,5.525843994140625,0.04662964922785759,0.001980469760112464,-0.004518756066076457
1772735098931871000,5.53587109375,0.04992693720757961,-0.0007220671968534588,-0.009024743982125074
1772735098941898000,5.54589794921875,0.05127659825086593,-0.0010794292671605945,-0.020093086088448762
1772735098951925000,5.555925048828125,0.050527825710177415,0.014163074984960257,0.0029512327547185123
1772735098961952000,5.565951904296875,0.04349252024590969,0.0028826062316074964,-0.0037560280652716754
1772735098971979000,5.57597900390625,0.05306698879897594,0.004741970362700521,0.007268401834089309
1772735098982006000,5.586006103515625,0.05740063408911228,0.009533552020788193,-0.012426149923447519
1772735098992033000,5.596032958984375,0.04782032031714916,0.006659567487053573,0.018795264830254017
1772735099002061000,5.60606103515625,0.036597500035166736,0.008640219910256564,0.014068802563939243
1772735099012088000,5.616088134765625,0.05260521650612354,-0.0146116224700585,0.0030678996706381438
1772735099022115000,5.626114990234375,0.055742345488071436,-0.0018181553378701209,0.01156845538187772
1772735099032141800,5.636141845703125,0.048852585974335665,0.007202624855190515,0.018709741971269248
1772735099042169000,5.646169189453125,0.04735211828351021,0.01151256047617644,-0.006444573029503226
1772735099052196000,5.656196044921875,0.04750117136538028,0.01988441177383065,-0.0022290376937016843
1772735099062222800,5.666222900390625,0.04794716156721115,0.010228073623590172,-0.0001201375146396458
1772735099072250000,5.67625,0.0542366171002388,-0.003255933056026697,-0.013970091429818421
1772735099082277000,5.686277099609375,0.04466273306906223,0.007701623885892331,-0.004635916172340512
1772735099092304000,5.696303955078125,0.026263737547397612,-0.010057283633947372,-0.009708433663658797
1772735099102331000,5.706330810546875,0.0419803621172905,-0.007730557719431817,-0.006781348969507962
1772735099112358100,5.716358154296875,0.0651812049627304,-0.0006572217997163534,-0.016013616488780826
1772735099122385200,5.72638525390625,0.05395020137429237,-0.001355469729565084,-0.0025015710247680545
1772735099132412000,5.736411865234375,0.0500578701108694,-0.006971921371854841,-0.0022450937793590127
1772735099142439200,5.746439208984375,0.056039282608032225,0.010272351156733929,0.003607376842200756
1772735099152466200,5.756466064453125,0.05648936446309089,0.0013269377548247574,-0.006411401412263512
1772735099162493000,5.766492919921875,0.06008125147521495,0.00302048033233732,-0.018499076628964394
1772735099172520000,5.77652001953125,0.058738020172715184,0.009089278852008283,-0.002049790402967483
1772735099182547200,5.786547119140625,0.07579787604510783,-0.006543393761478364,0.0002551438048481941
1772735099192574000,5.796573974609375,0.0470645335137844,0.00046389118470251556,-0.008795958461239933
1772735099202601000,5.80660107421875,0.04916004448831081,-0.002259469364583492,0.01883672935180366
1772735099212628200,5.816628173828125,0.05364858807921409,-0.009887005100958048,0.008826134403795004
1772735099222655000,5.826655029296875,0.048715807852149004,0.0014798998268321156,-0.020354842297174037
1772735099232682000,5.836681884765625,0.04976268655657768,0.0004965513452887535,-0.0013194668344222009
1772735099242709000,5.846708984375,0.04258534227311611,0.006159216749481856,-0.01346674501756206
1772735099252737000,5.856737060546875,0.03794365394711494,0.005638152017444372,-0.016603654803801327
1772735099262764000,5.866763916015625,0.04528174175024032,-0.00031575141828507186,-0.003565218200907111
1772735099272790800,5.876790771484375,0.03840016554296016,-0.0041356019673869015,0.020258304853830487
1772735099282818000,5.886818115234375,0.044836920592188835,0.0015111717479303478,0.010527568026818335
1772735099292845000,5.896844970703125,0.06323883872330188,-0.008203764721751213,-0.0033131979349069296
1772735099302872000,5.9068720703125,0.06098842944800854,-0.004602306163683533,0.009156243140995501
1772735099312899000,5.916899169921875,0.06099018301367759,0.0012861308204010129,-0.00848093769531697
1772735099322926000,5.926926025390625,0.062489481660723684,0.007126783140003681,-0.001273581866081804
1772735099332953000,5.936953125,0.04603051429092884,-0.007725406620278954,0.00962022565724328
1772735099342979800,5.946979736328125,0.05635550895035266,-0.010676292315125464,0.0015820815596729516
1772735099353007000,5.957007080078125,0.043936172360181804,0.005543496003933251,0.0032354199909605083
1772735099363034000,5.9670341796875,0.04693126252293586,-0.011654745425842702,0.01958676226781681
1772735099373060900,5.977060791015625,0.06069909111261367,-0.0068261927582323545,0.0053861317514441905
1772735099383088000,5.987088134765625,0.045289925056695934,0.005611190945282578,0.009746263189706951
1772735099393115100,5.997115234375,0.053069326886534686,0.011273198762349784,-0.00592336216699332
1772735099403142000,6.007141845703125,0.04453998347222805,-0.0021634981768205762,-0.0005014649824239313
1772735099413169000,6.0171689453125,0.05352116230726242,0.009315561888553201,0.009113280782103538
1772735099423196200,6.027196044921875,0.050235564765334126,0.010772811492159962,0.01288987671136856
1772735099433223000,6.037222900390625,0.05337853896617889,-0.0025368250012397764,-0.0020927710281684994
1772735099443250000,6.04725,0.05009235690236091,-0.003834280933253467,-0.004952142514660954
1772735099453277200,6.057277099609375,0.06431202091276646,-0.0032741993650794027,-0.0013791976650245486
1772735099463304000,6.067303955078125,0.05144669412076473,-0.0015741539815440774,0.00482924678735435
1772735099473332000,6.07733203125,0.050991936090588566,0.0020838205367326736,0.001513016645144671
1772735099483359000,6.08735888671875,0.05218728335499763,0.014935776390507817,-0.004562814403511584
1772735099493386000,6.097385986328125,0.03632511283457279,-0.0022543547980487344,-0.0078065090324729676
1772735099503413000,6.1074130859375,0.055775663235783576,0.007520970089361071,-0.008598426595143973
1772735099513440300,6.117440185546875,0.045156654065847394,0.011170542105473578,0.011472904319223015
1772735099523467000,6.127467041015625,0.05488602091968059,0.007804645868949592,0.016996563111525028
1772735099533494000,6.137493896484375,0.048155835881829256,-0.0012177782919257879,0.008896240497939288
1772735099543521000,6.14752099609375,0.05010638542771339,-0.00768817988242954,0.009156005678977817
1772735099553548000,6.157548095703125,0.06507423745691776,-0.001154503797367215,0.011654489697515964
1772735099563575000,6.167574951171875,0.04293137923181057,0.003263129981793463,0.00309993877671659
1772735099573602000,6.17760205078125,0.04144143293499946,0.016875658411905168,0.0003257796219550073
1772735099583629000,6.187629150390625,0.05940086799561977,-0.0027666151691228148,0.003952591816987842
1772735099593656000,6.197656005859375,0.04637947385907173,0.004271612904593348,-0.004655095796845853
1772735099603683000,6.20768310546875,0.04622691364586353,0.015537724339030681,-0.007847955287713556
1772735099613709800,6.217709716796875,0.03904664675295353,0.012405125401727855,0.0022389015005901455
1772735099623737000,6.227737060546875,0.034410803645849225,0.001286861472763121,0.001966514299996197
1772735099633764000,6.23776416015625,0.04832943888306617,-0.0038331118894740935,-0.005963858574163168
1772735099643790800,6.247790771484375,0.040703181788325306,0.004812076456844806,0.006707534814625978
1772735099653818000,6.257818115234375,0.037710429713129996,0.01962112119514495,0.0032539785609580576
1772735099663845000,6.26784521484375,0.053417701932787894,0.0006719809774309397,-0.0014727576999925076
1772735099673872000,6.277871826171875,0.05027063607871532,0.004214183628931641,-0.006059574033599346
1772735099683899000,6.28789892578125,0.03784896140098572,0.011919387711398303,0.0016854506026022136
1772735099693927200,6.29792724609375,0.05011632229983806,0.011970387246273457,0.007505955183319747
1772735099703954000,6.307953857421875,0.04846680152714252,0.0036528964843600986,0.0009538301261141895
1772735099713981000,6.31798095703125,0.059090486872196195,-0.004747779048979282,-0.002948072683252394
1772735099724008200,6.32800830078125,0.055797290545701976,0.006352766560204327,0.005513977648504078
1772735099734035000,6.338034912109375,0.05848842932581901,0.01256320204026997,-0.00525050440672785
1772735099744062000,6.34806201171875,0.04936228906214237,0.001301766780950129,0.010176526099443434
1772735099754089200,6.358089111328125,0.04876373864710331,0.0019978958189487456,-0.0008318294479511678
1772735099764116000,6.368115966796875,0.04158054914474487,0.0004801481997594237,-0.006524798658862709
1772735099774143000,6.37814306640625,0.04487257642745971,-0.009400025301612913,-0.005344374968949705
1772735099784170000,6.388169921875,0.04860942486822605,0.0028460736135020853,-0.004665525859314948
1772735099794197000,6.398197021484375,0.05788461821377277,0.004234240036271512,-0.008317198500968515
1772735099804224300,6.408224365234375,0.050100540208816526,-0.003500884260423481,-0.0004316694155335426
1772735099814251300,6.418251220703125,0.04291209000945091,-0.0003390957612544298,-0.008727258872892708
1772735099824278300,6.4282783203125,0.06265957753062248,0.007851371087506413,-0.007629892090242355
1772735099834305300,6.43830517578125,0.054875499525666234,-0.013034655476920306,-0.013314002141263334
1772735099844332300,6.448332275390625,0.05487608404755592,-0.0001004646997898817,0.010091679093893616
1772735099854359300,6.458359375,0.04200900368988514,-0.007398074362054466,-0.003540558683685958
1772735099864386300,6.46838623046875,0.04649579371511936,0.004198255407437682,-0.004302464700583368
1772735099874413300,6.478413330078125,0.055174774733185765,0.0023738164592534304,-0.02080596533184871
1772735099884440000,6.488440185546875,0.04649345562756061,0.012540771012753247,0.008752722107712179
1772735099894467300,6.49846728515625,0.05651391438245773,-0.002928819993510842,0.00831500654388219
1772735099904494300,6.508494384765625,0.0671335080742836,-0.007298267249390483,-0.005446300973463803
1772735099914522000,6.518522216796875,0.03960486515760422,-0.0006133095927536487,0.0010818404199555516
1772735099924549400,6.52854931640625,0.04453998347222805,0.0004990355633199214,-0.009695848176721483
1772735099934576400,6.538576416015625,0.06039806233942508,0.001619929352030158,0.004132569760084152
1772735099944603100,6.54860302734375,0.03331131797134876,-0.0012825140912085772,0.00010413622790947556
1772735099954629000,6.558629150390625,0.0358498965382576,-0.007830328299477695,0.006290149652771651
1772735099964656400,6.568656494140625,0.051259647116065024,0.012276603651233016,-0.00629911841051653
1772735099974683400,6.578683349609375,0.05440145227313042,-0.0056658802745863796,-0.006687642804067581
1772735099984710100,6.588710205078125,0.04646890570819378,-0.0022202333327382803,-0.007498447730299085
1772735099994738400,6.598738525390625,0.053502457606792446,0.008549071028083562,-0.018599285600427538
1772735100004765200,6.60876513671875,0.047664837494492525,0.008478526542522014,-0.0030883396704681214
1772735100014792200,6.618792236328125,0.04647182831764221,-0.007465951966494321,-0.004796586626768112
1772735100024819500,6.6288193359375,0.04917231944799423,0.0012996844217181204,-0.0002103730813600123
1772735100034846200,6.63884619140625,0.03944762876927852,0.0031262057291343804,-0.01623036451200023
1772735100044873200,6.648873291015625,0.05411328298151493,0.004756327681615948,-0.0027096060185693204
1772735100054900200,6.658900146484375,0.049773792472481725,-0.0033158100171014663,0.008241923041362315
1772735100064927200,6.66892724609375,0.0430389312595129,0.005192527141794562,0.0018326405209489166
1772735100074954200,6.678954345703125,0.06368307535946369,0.0010006649425253272,-0.00263635811926797
1772735100084981200,6.688981201171875,0.04721884729266167,0.014059906871430576,0.011904975593555718
1772735100095008300,6.69900830078125,0.047966450789570805,0.0047875630700960755,0.00280303818937391
1772735100105035300,6.70903515625,0.04587269338071346,0.006591689882613718,0.016070406443625687
1772735100115062300,6.719062255859375,0.05245908603370189,-0.0005135024800896644,-0.008756466701067984
1772735100125089300,6.72908935546875,0.053203182399272915,-0.003945705418474972,-0.009681472591497004
1772735100135116300,6.7391162109375,0.041681086909770966,-0.008293050440400839,-0.012985299909859895
1772735100145143300,6.749143310546875,0.04362988288998604,0.011801350822299718,-0.007996460380312055
1772735100155170300,6.75917041015625,0.04347966076433658,0.0008222761683166027,0.010968352330569177
1772735100165197300,6.769197265625,0.05829202997088432,-0.007458389714546501,-0.01133736830605194
1772735100175224300,6.779224365234375,0.05724398222267627,-0.006593662643991411,-0.009418108947575091
1772735100185251300,6.789251220703125,0.04557108008563518,-0.01648687829002738,0.0024347711325623093
1772735100195278000,6.799278076171875,0.05110942499041557,0.00838913122601807,-0.0010242467475123703
1772735100205306400,6.809306396484375,0.06517652878761292,-0.008481193423643708,-0.0058148968238383525
1772735100215333000,6.8193330078125,0.051716158711910244,0.007183116437122225,-0.006864113615825772
1772735100225360100,6.829360107421875,0.04572890099585056,-0.000912767463363707,0.0015603629182092845
1772735100235387400,6.839387451171875,0.04932078800797462,0.016443842865899203,0.009768438488896936
1772735100245414100,6.8494140625,0.05321311927139759,-0.003147540778107941,0.014880904398113489
1772735100255441200,6.859441162109375,0.041839492341876026,-0.0013802753772586584,0.0041124220211990175
1772735100265468400,6.869468505859375,0.03376315339207649,-0.0020600012697279454,-0.00673347297348082
1772735100275495200,6.8794951171875,0.059497898629307745,0.0011290040299296378,-0.0064594235387630755
1772735100285522200,6.889522216796875,0.057254503616690634,-0.0019449600553140044,0.005999404811579734
1772735100295549200,6.899549072265625,0.04632511332333088,-0.01485843683797866,0.0017770926751196384
1772735100305576400,6.909576416015625,0.03869242648780346,-0.007699651124514639,-0.011070881123282014
1772735100315603200,6.919603271484375,0.049915831291675566,0.0018508885636925696,0.006668390114326029
1772735100325631500,6.929631591796875,0.05051262814104557,0.010682137534022331,0.006152458215132355
1772735100335658200,6.939658203125,0.050666941919922825,0.003541873857937753,-0.0017010865631513297
1772735100345685200,6.949685302734375,0.04303542412817478,0.011833462993614374,0.006337368061672895
1772735100355712300,6.959712158203125,0.04632745141088962,0.005094948518835008,0.00047715252507477994
1772735100365739300,6.9697392578125,0.0458797076433897,0.0005645750802010297,0.007996149853058158
1772735100375766300,6.979766357421875,0.04961947869360447,0.013935440241545438,0.0008779336120001972
1772735100385793300,6.989793212890625,0.060544777333736415,0.0005832432480528951,-0.003518474716041237
1772735100395820300,6.9998203125,0.05500643242895603,-0.010455379573442041,0.004385028417501598
1772735100405847300,7.009847412109375,0.05200608156919479,0.006356602485105395,-0.00006354848919436336
1772735100415874300,7.019874267578125,0.04557108008563518,0.005348009964451193,-0.01659063092544675
1772735100425901000,7.029901123046875,0.03898644099831581,-0.0031138577042147514,0.010545395944453775
1772735100435928300,7.03992822265625,0.05454933631122112,-0.0009716580437496304,0.010374843416828662
1772735100445955300,7.049955322265625,0.04527180487811565,0.0065802186405286185,0.001875073156878352
1772735100455983000,7.059983154296875,0.05170388375222683,0.0032411373456940054,0.009076346305198968
1772735100466010400,7.07001025390625,0.06113046826720237,-0.010884162912145256,0.0018313436130061745
1772735100476037400,7.080037353515625,0.057840779072046274,-0.00517064410354942,0.010746471474505961
1772735100486064000,7.090064208984375,0.0533475593060255,0.0035093598278239367,-0.008299297518096863
1772735100496091400,7.10009130859375,0.05020400058329105,0.0007827844081446528,-0.0036460100858472285
1772735100506118400,7.110118408203125,0.03823182323873043,0.0036108839735388754,-0.006910016850475221
1772735100516145200,7.120145263671875,0.0476572387099266,-0.0010823153439909218,-0.01516249781847
1772735100526172200,7.130172119140625,0.04855272624492645,0.01847874622698873,0.0029969533262774344
1772735100536199400,7.140199462890625,0.04765197801291942,-0.007285444300435483,0.004283960929512978
1772735100546226200,7.15022607421875,0.04959726686179638,0.0013111556638032197,-0.0016124584316276013
1772735100556253200,7.160253173828125,0.041969840723276135,-0.0007339037651196121,-0.0015540245089679956
1772735100566280400,7.170280517578125,0.04795417582988739,0.0037527766622602937,-0.00598574161240831
1772735100576307200,7.18030712890625,0.03253682646751404,-0.0037446664210408925,0.00046825683256611225
1772735100586334200,7.190334228515625,0.04436170429587364,-0.0048777621041983365,0.003708572194352746
1772735100596361200,7.200361328125,0.04660802191793918,0.0053002252999693154,0.0021307649509981273
1772735100606388200,7.21038818359375,0.05333586886823177,-0.0008005392605438828,-0.005270725210849195
1772735100616415200,7.220415283203125,0.03283668619692325,-0.0001721416965126991,-0.010647961269784718
1772735100626442200,7.230442138671875,0.0506464836537838,0.01166088290568441,0.0031471206529997287
1772735100636469200,7.24046923828125,0.049153030225634574,0.005663176860846579,0.003082056060153991
1772735100646497300,7.250497314453125,0.045859833899140355,-0.005644289497286081,-0.010085980005469173
1772735100656524300,7.260524169921875,0.03583060731589794,0.0015031345719471573,-0.006246895032934844
1772735100666551300,7.27055126953125,0.04465747237205505,-0.0028889994397759437,0.006622706075385213
1772735100676578300,7.280578369140625,0.05663198780417442,0.00015456950720399616,-0.004683737369440496
1772735100686605300,7.290605224609375,0.06620645635724068,0.01173310789167881,-0.0050134442478418344
1772735100696632300,7.30063232421875,0.06306231311261654,-0.0095430505014956,0.003254179490357637
1772735100706659300,7.310659423828125,0.05019523275494575,-0.007948803579993545,0.0023364983898587523
1772735100716686300,7.320686279296875,0.03493453525900841,-0.0027513810673728584,0.01609791550505906
1772735100726713000,7.330713134765625,0.051992637565732,0.005164579688943923,-0.0032179756658151744
1772735100736740400,7.340740234375,0.056927171358466144,0.008385404898971318,-0.00015789397545158863
1772735100746767400,7.350767333984375,0.03612929800152778,-0.011048267432674765,0.0011350867108441888
1772735100756794000,7.360794189453125,0.053932665717601774,-0.01362140585631132,-0.00772902334947139
1772735100766821400,7.3708212890625,0.04629764079451561,0.013145678103342651,-0.0011662125014699994
1772735100776848400,7.380848388671875,0.04255670070052146,-0.0021815452901646493,0.0067563423924148075
1772735100786875100,7.390875244140625,0.05437281070053577,0.0022596154950559138,-0.008066730871237814
1772735100796902100,7.400902099609375,0.06380114878118037,0.006469159481488168,0.004699172400590032
1772735100806929000,7.410928955078125,0.06574585310816765,0.0011071940569207072,0.0007449548820964992
1772735100816956000,7.420955810546875,0.06305296076238155,-0.02125694223605096,0.003607413374818861
1772735100826982700,7.430982666015625,0.050182373273372646,0.0013172200784087181,0.002281589864846319
1772735100837011000,7.441010986328125,0.04749240353703499,-0.000861183406598866,0.0014954627221450208
1772735100847037700,7.45103759765625,0.061407531642913814,0.006392915907502174,-0.006658087916020304
1772735100857064700,7.461064697265625,0.05107961437404156,0.01411616710331291,-0.010505027401447296
1772735100867091700,7.471091796875,0.03820961140692234,0.0019876666858792305,-0.0002848082907497883
1772735100877118700,7.48111865234375,0.040456513550877565,0.004803491291590034,-0.0009547434415668249
1772735100887145700,7.491145751953125,0.051533203360438345,0.00727941641844809,-0.007716547460388392
1772735100897172700,7.5011728515625,0.0549772063344717,0.00025941812116652725,-0.004963577224127948
1772735100907199700,7.51119970703125,0.059313189712166786,0.0113448757590726,0.004268708561453968
1772735100917226800,7.521226806640625,0.05542436558008194,0.01231375732384622,-0.0006456592260859907
1772735100927253800,7.531253662109375,0.04226151714622974,0.009715703654661774,-0.010919526486471294
1772735100937280800,7.54128076171875,0.054982467031478875,0.009727978614345193,-0.0024407259493134915
1772735100947307800,7.551307861328125,0.0700964495331049,0.00444397379681468,-0.009270553703047335
1772735100957334800,7.561334716796875,0.048100306302309034,-0.006763941176980734,-0.010778090455476194
1772735100967361800,7.57136181640625,0.05842004026472568,0.00042677404470741745,-0.003432111606840044
1772735100977388800,7.581388916015625,0.05348316838443279,-0.009161028913967311,-0.003356379489507526
1772735100987415800,7.591415771484375,0.04495207140445709,-0.0025694851618260142,-0.00206597435278818
1772735100997442800,7.60144287109375,0.04614566510319709,-0.011153919764235616,0.0029619733444415032
1772735101007469600,7.611469482421875,0.045543607556819916,0.003983260949887335,0.013852200671192258
1772735101017496800,7.621496826171875,0.042999183771014214,0.023966164662130175,0.007922427029721438
1772735101027524600,7.631524658203125,0.05182487978339195,0.005958762273937463,-0.0039850510481745
1772735101037551900,7.6415517578125,0.0519751019090414,-0.009488068911246955,0.007591678971704095
1772735101047579000,7.651578857421875,0.04763502687811851,-0.005186937651224434,-0.005160743764042854
1772735101057605600,7.661605712890625,0.04150631486475467,-0.01265731006450951,-0.0013032646182924508
1772735101067632600,7.671632568359375,0.05377835193872452,0.0012821122324094176,-0.00254846064010635
1772735101077660000,7.681659912109375,0.043157004681229585,-0.000876636704057455,0.005688987155538052
1772735101087686700,7.691686767578125,0.050942836251854896,-0.0027780133459717033,-0.005082764890696853
1772735101097713700,7.701713623046875,0.050343701314926145,-0.0004364917211234569,-0.012757847829535603
1772735101107741000,7.711740966796875,0.05378536620140075,-0.0044854748509824275,-0.007993391640391201
1772735101117768000,7.721767822265625,0.049448213779926295,0.01138685173727572,-0.003880914820265025
1772735101127794700,7.731794677734375,0.0612643237799406,-0.005325871197879314,0.00322267010724172
1772735101137821700,7.74182177734375,0.045404491347074506,-0.011110519013926385,-0.0012710793817415833
1772735101147849000,7.751848876953125,0.06171908181011677,0.005539185154996812,0.005420125352591276
1772735101157875700,7.761875732421875,0.05348901360332965,0.009573226444050668,-0.007460764334723353
1772735101167902700,7.77190283203125,0.05423778614401817,-0.018197189339250325,0.012143807584419845
1772735101177930000,7.781929931640625,0.050803720042109486,0.006048486384004354,-0.003152509214170277
1772735101187956700,7.791956787109375,0.05635083277523517,0.014931136748008429,0.0034337007757276293
1772735101197983700,7.801983642578125,0.05829612162411212,-0.0020111936919391155,-0.0071109827826730905
1772735101208011800,7.81201171875,0.038542788884043694,0.002959872718900442,-0.00618307254910469
1772735101218038800,7.822038818359375,0.04333645290136337,0.008061762435175477,0.01134635533010587
1772735101228065800,7.832065673828125,0.039891865405440326,0.006641301178000867,0.012113558576628564
1772735101238092500,7.842092529296875,0.040489246776700016,0.009280855901353061,-0.009847020150441676
1772735101248119800,7.852119873046875,0.05096738617122173,0.0037870077254250644,0.006825937029905617
1772735101258146800,7.862146728515625,0.03480301783382892,0.008172346670180559,0.005640124778822064
1772735101268173600,7.872173583984375,0.06323007089495658,-0.001201009820215404,0.0028289215493015945
1772735101278200800,7.882200927734375,0.06217851601541042,0.015616342533193528,-0.0032803733775392174
1772735101288227800,7.892227783203125,0.0482540355592966,0.013188275136053562,-0.004665416261460632
1772735101298254800,7.9022548828125,0.044669162809848784,-0.00925155674163252,-0.001435056038107723
1772735101308281600,7.912281494140625,0.031955227187275885,0.005089066767320036,0.001058167283423245
1772735101318308900,7.922308837890625,0.04317687842547893,0.004984875740483403,-0.009061349665466695
1772735101328336000,7.9323359375,0.05993512100279331,-0.004513203108124435,0.007622275039367377
1772735101338362600,7.942362548828125,0.05948854627907276,-0.0025102292552590367,-0.0009150507519952952
1772735101348390000,7.952389892578125,0.06727203976213932,0.0043007294012233615,0.006721910399850458
1772735101358417000,7.9624169921875,0.059039048945903776,0.0023370281128212806,0.004879351273085922
1772735101368443600,7.972443603515625,0.052151042997837065,0.006967866251245141,0.004260598320234566
1772735101378470700,7.982470703125,0.04706161090433597,0.020084391325339675,-0.005471417148411274
1772735101388498000,7.992497802734375,0.0576782819867134,0.0024167057529091832,-0.0014812150010839104
1772735101398525700,8.002525634765625,0.05453998396098613,0.0042477571049705145,0.003994111137464642
1772735101408553000,8.012552978515625,0.053201428833603855,-0.0012577815087512134,0.007348243870958685
1772735101418579700,8.022579833984375,0.048563832160830496,0.011492723264545202,0.011838376630749553
1772735101428606700,8.032606689453125,0.05170563731789589,0.014924780072458087,0.014705511298589408
1772735101438633700,8.0426337890625,0.05888941134214401,0.0013660641888156532,-0.00816074756393209
1772735101448660700,8.05266064453125,0.04557166460752487,-0.0010610533602535724,0.009148023301921784
1772735101458687700,8.062687744140625,0.04975508777201176,0.005541304046846926,-0.00826086520384997
1772735101468714800,8.07271484375,0.046613282614946364,-0.005048698224313557,-0.007954758396744728
1772735101478741800,8.08274169921875,0.04376899909973144,-0.0017615663124248384,-0.006109294926840812
1772735101488768800,8.092768798828125,0.06367489205300808,-0.002096132029034197,0.008999353812541811
1772735101498795800,8.102795654296875,0.06202654032409191,-0.0013609130896627903,0.002513754652906209
1772735101508822800,8.11282275390625,0.056335635206103324,0.0020782310461625454,-0.008291863130312412
1772735101518849800,8.122849853515625,0.0449561630576849,-0.0030098858730867504,-0.0007305792968720198
1772735101528876800,8.132876708984375,0.054987727728486056,0.003535590247623622,0.0027610987437888977
1772735101538903800,8.14290380859375,0.04586275650858879,-0.010860197514668107,0.008587174548767507
1772735101548930800,8.152930908203125,0.06247311504781246,0.00794653855767101,-0.005600633018650114
1772735101558957800,8.162957763671875,0.05124561859071254,-0.007214388358220458,-0.005529284815490245
1772735101568984800,8.17298486328125,0.05229015920758247,0.000008292904309928416,-0.018753179254196582
1772735101579012900,8.183012939453125,0.048097968214750285,0.0012825140912085772,-0.00826903024399653
1772735101589039900,8.193039794921875,0.0373182155251503,0.011461378278210758,0.006123560914210974
1772735101599066600,8.203066650390625,0.041807928159832954,0.008963131721690297,0.0010941884448751806
1772735101609093600,8.21309375,0.05183364761173725,-0.009352861691638827,-0.010755367167014628
1772735101619121000,8.223120849609375,0.043758477705717086,0.007487761939503252,0.01264143664194271
1772735101629147600,8.233147705078125,0.05183657022118568,0.005208674558997154,-0.006013816929422319
1772735101639174700,8.243174560546874,0.04973755211532116,-0.008766805431991815,0.0050005482336506245
1772735101649202000,8.253201904296875,0.04614566510319709,-0.006096490244194865,-0.01923948320010677
1772735101659229000,8.26322900390625,0.0497357985496521,-0.008639087399095297,0.0003968538304790854
1772735101669255700,8.273255615234374,0.06050795245468616,-0.006469926666468381,0.00800681737754494
1772735101679282700,8.28328271484375,0.045989597758650774,-0.006396386506222188,-0.00349277401920408
1772735101689310000,8.29331005859375,0.05586743317246437,-0.008793620373681187,-0.006697323947865516
1772735101699336700,8.303336669921874,0.0470341383755207,-0.0032217019928619263,-0.005766144044976681
1772735101709363700,8.31336376953125,0.0316232187539339,-0.0021256869170814753,0.006048468117695302
1772735101719391000,8.323390869140624,0.04853402154445648,0.0027404578145593405,-0.0024548640725202855
1772735101729417700,8.333417724609374,0.04673837029933929,0.00046560821775346994,-0.004741769433300942
1772735101739444700,8.34344482421875,0.0412000253945589,0.006668992902524769,-0.00823925616024062
1772735101749472800,8.35347265625,0.041648938205838204,0.015207688667066394,0.00959476242242381
1772735101759499800,8.363499755859374,0.05570961226224899,0.0006392112189903855,0.006314078517630696
1772735101769526800,8.37352685546875,0.048525838238000864,0.007895064098760484,0.0006946494669653474
1772735101779553500,8.383553466796876,0.041941199150681494,0.022520605496317146,0.0003808525437489152
1772735101789580800,8.393580810546876,0.058549219602346415,0.011270495348609983,-0.019043485703971234
1772735101799607800,8.40360791015625,0.0643798254519701,-0.003646539808809757,-0.009677764530759305
1772735101809635300,8.41363525390625,0.05689560717642307,-0.002298486200720072,0.023495551475696264
1772735101819662300,8.423662353515626,0.05494914928376674,-0.0022644012680277225,-0.008421553924586623
1772735101829689600,8.433689697265624,0.06377952147126198,-0.00047075931690633295,-0.006710329559911042
1772735101839716400,8.44371630859375,0.04986614693105221,-0.00039089901372790336,0.011232154365908353
1772735101849743400,8.453743408203126,0.04687047224640846,0.002379405949823558,0.0052582310554571444
1772735101859770600,8.4637705078125,0.05659457840323448,0.016671148815751075,-0.010611227722279726
1772735101869797400,8.47379736328125,0.03968319109082222,-0.004568075100518763,-0.012953918390907346
1772735101879824400,8.483824462890626,0.05135667774975299,-0.004250241323001683,0.002853635865449905
1772735101889851400,8.493851318359376,0.06677402711212635,-0.0011962605798617005,-0.003404748675879091
1772735101899878400,8.50387841796875,0.05360299537181854,-0.01350062902085483,0.002803056455682963
1772735101909905400,8.513905517578126,0.05689385361075401,0.011018383751064538,0.0076111691234633325
1772735101919933400,8.523933349609376,0.05195464364290237,-0.0028068375816568732,0.007130052809324115
1772735101929960400,8.53396044921875,0.0540536617487669,-0.010919270758144558,0.006837536136154085
1772735101939987500,8.543987548828126,0.03938859205842018,0.004665982517041266,-0.00448987703146413
1772735101950014500,8.554014404296876,0.04897007487416267,-0.0053896571490913625,-0.005110054756421596
1772735101960041500,8.56404150390625,0.05510287854075432,0.004017345882579684,-0.004216722645889967
1772735101970068500,8.574068359375,0.0483762006342411,0.010890556120313703,0.002273808417189866
1772735101980095500,8.584095458984375,0.04822597850859165,0.0152428330456838,0.009646711805369704
1772735101990122200,8.594122314453125,0.059600774481892584,-0.0023623086845502256,-0.015506196689605713
1772735102000149500,8.6041494140625,0.061545478808879846,-0.0012866422770544887,0.01209151114160195
1772735102010176500,8.614176513671875,0.04403612560331821,0.004026844363287091,-0.009720014503598213
1772735102020203300,8.624203369140625,0.045837622067332266,0.006421484414860606,0.002232526558730751
1772735102030230500,8.63423046875,0.055120414197444914,0.003235255594179034,0.012341010656952858
1772735102040257500,8.644257568359375,0.04584288276433945,0.0004073386918753385,0.006069967563450336
1772735102050284300,8.6542841796875,0.04808218612372875,0.01194170914106071,-0.0022758907764218747
1772735102060311600,8.6643115234375,0.05780395419299602,0.006417794620431959,-0.011121369201503693
1772735102070338600,8.674338623046875,0.05256313093006611,0.0061597282061353325,-0.006932648807391524
1772735102080365300,8.684365234375,0.05660042362213134,0.012207191676832735,-0.0006430471438914537
1772735102090393600,8.6943935546875,0.039541736793518065,-0.004811309271864593,0.010323350691609084
1772735102100420400,8.70442041015625,0.05480594142079353,-0.0039018662767484782,-0.001822246991097927
1772735102110447400,8.714447265625,0.05750350994169712,0.006160130064934492,0.0038967517102137207
1772735102120474400,8.724474365234375,0.04823123920559883,0.014617358091101049,0.013945797238778323
1772735102130501600,8.734501708984375,0.05092179346382618,0.005570932000130415,0.0018379560168832539
1772735102140528400,8.7445283203125,0.04852174658477306,-0.006489727345481515,-0.0013154665127396582
1772735102150555400,8.754555419921875,0.05315758969187736,-0.004897087859176099,-0.0006752871793694793
1772735102160582700,8.764582763671875,0.043587212792038914,-0.014265987370163201,-0.0005685754018835723
1772735102170609400,8.774609375,0.05316518847644329,-0.007985920719988644,-0.006460501250997185
1772735102180636400,8.784636474609375,0.04254091860949993,-0.015172946147248147,-0.023370664720702913
1772735102190663400,8.794663330078125,0.0592950695335865,0.012385945777222513,0.005678922419250011
1772735102200690400,8.8046904296875,0.04568038567900658,0.010590952119231223,0.0031940285346470773
1772735102210717400,8.814717529296875,0.04927461077868938,-0.009820734931714831,0.0036522936961613595
1772735102220744400,8.824744384765625,0.04643208082914352,0.0005610314162448048,-0.007218827071320265
1772735102230771500,8.834771484375,0.05361643937528133,0.0021998481318354604,-0.008804616691730917
1772735102240798500,8.844798583984375,0.0519710102558136,0.005333250786736608,-0.02531304922644049
1772735102250825500,8.854825439453125,0.05211655620634555,-0.0004417889507487416,-0.0016126958936452864
1772735102260853500,8.864853515625,0.05899754789173603,0.001313749479688704,-0.0035238450109027326
1772735102270880500,8.874880615234375,0.04058978454172611,-0.01638528107907623,-0.007071143962629139
1772735102280907500,8.884907470703125,0.04552314929068088,-0.0018941066509112715,-0.000610496581159532
1772735102290934300,8.894934326171875,0.06183364810049533,0.0032081483915448188,0.0036074499074369667
1772735102300961500,8.90496142578125,0.043431145447492596,-0.006514423395320773,-0.0015279402196407318
1772735102310988500,8.914988525390624,0.04597206210196018,0.015755203014612196,0.01681046595489606
1772735102321015300,8.925015380859374,0.050911272069811817,-0.004253419660776853,0.0014367730711586772
1772735102331042600,8.93504248046875,0.05974164425730705,-0.0036998408986255523,0.016684264025650916
1772735102341069600,8.945069580078124,0.056145665591955184,0.009498809500969947,0.005336246461421251
1772735102351096300,8.955096435546874,0.04447743963003158,0.0002157616425305605,-0.01793157893931493
1772735102361123300,8.965123291015624,0.05046294378042221,-0.0031848040485754608,0.003066347034368664
1772735102371150600,8.975150634765624,0.05105740254223346,-0.0008230798859149217,0.0006697342214174568
1772735102381177300,8.98517724609375,0.04836801732778549,0.005264825193025171,-0.003985160646028816
1772735102391204400,8.995204345703126,0.04776888239085674,-0.008218048975430428,0.016941782450675964
1772735102401231600,9.005231689453124,0.04941372698843479,-0.011660444514267145,0.01311002226807177
1772735102411258400,9.01525830078125,0.056446109843254086,-0.002865508966334164,0.007852320935577153
1772735102421285400,9.025285400390626,0.05524900901317596,-0.006589899784326553,-0.005282653110660613
1772735102431313400,9.0353134765625,0.0443242948949337,-0.006138283559307456,0.003589676788728684
1772735102441340400,9.04534033203125,0.04267769673168659,0.005576959882117808,-0.005361472234223038
1772735102451367400,9.055367431640626,0.04312544049918651,-0.001204115092754364,-0.004351454941462725
1772735102461394400,9.06539453125,0.047615153133869166,0.0025110329728573557,-0.002753061567805707
1772735102471421400,9.07542138671875,0.0510603251516819,-0.0010995952723547816,-0.012384429673571139
1772735102481448400,9.085448486328126,0.036844752794504165,0.004692286002077162,-0.003332468890957534
1772735102491475500,9.095475341796876,0.041785131806135176,0.007349814773537218,-0.0024943375663831827
1772735102501502500,9.10550244140625,0.05734861164093017,0.0020958763007074594,0.0015507365733385084
1772735102511529500,9.115529541015626,0.05645663123726844,-0.014074592983908951,-0.00554274708526209
1772735102521556500,9.125556396484376,0.05227028546333313,-0.001633154159784317,0.006153846454620361
1772735102531583500,9.13558349609375,0.056606853362917896,-0.0012684855658560991,0.008992540479265152
1772735102541610500,9.145610595703126,0.0592950695335865,0.004732873740792274,-0.0017474647218361497
1772735102551637500,9.155637451171875,0.046123453271389,-0.004473053760826588,0.0006999101639725267
1772735102561664300,9.165664306640625,0.04252513651847839,0.0010245938073843717,0.002367003125976771
1772735102571691500,9.17569140625,0.053007952088117594,0.005554711517691612,0.004223572511784732
1772735102581718500,9.185718505859375,0.046126375880837435,-0.0032059929670765993,-0.015336173884943127
1772735102591746300,9.195746337890625,0.05824760630726814,0.012245222132280468,0.00922731734951958
1772735102601773600,9.205773681640625,0.057950084665417664,0.0019314064539968966,0.006929799263179302
1772735102611800300,9.21580029296875,0.0479272878229618,-0.00249452022947371,0.004208667203597724
1772735102621827300,9.225827392578125,0.03999357221424579,-0.008256262093968689,0.0025693572976626454
1772735102631854600,9.2358544921875,0.04746726909577846,0.005490779436007142,-0.00286514364015311
1772735102641881300,9.24588134765625,0.05330079755485057,-0.0076224942350760095,-0.013686799242720007
1772735102651908400,9.255908447265625,0.03878419642448425,-0.0027784517373889684,-0.010753796264436096
1772735102661935400,9.265935302734375,0.05299216999709606,0.005751001274771988,0.010305047849938272
1772735102671962600,9.275962646484375,0.05613397515416145,-0.005108940511569381,0.012889292189478874
1772735102681989400,9.2859892578125,0.04176759614944458,-0.008304631280340254,0.005676967924181372
1772735102692016400,9.296016357421875,0.04041793510615825,-0.0013142974689602852,-0.005621694072987884
1772735102702043600,9.306043701171875,0.054634676507115364,-0.006791888629831373,-0.0002075600697658956
1772735102712070400,9.3160703125,0.04790039981603622,0.005556611213833093,-0.004168755318317562
1772735102722097400,9.326097412109375,0.05029167886674404,0.0025293358145281673,-0.0024647644120268522
1772735102732124400,9.33612451171875,0.04475684109330177,-0.004605192240513861,-0.0009543415827676653
1772735102742151400,9.3461513671875,0.06226619429886341,0.002605323660187423,-0.004876757457200438
1772735102752179500,9.356179443359375,0.053884734922647476,0.00446618562862277,-0.008973251256905495
1772735102762206500,9.36620654296875,0.05118950448930263,0.011909450839273632,0.009148553024884314
1772735102772233500,9.3762333984375,0.048796471872925753,-0.00026471535079181194,-0.0021426015192642805
1772735102782260500,9.386260498046875,0.04341010265946388,0.004792166179977357,0.00214145074179396
1772735102792287200,9.396287353515625,0.046103579527139664,0.012881145415641367,0.0055802843503654
1772735102802314500,9.406314453125,0.05178571681678295,-0.001237140579521656,-0.0013439071559347212
1772735102812340500,9.416340576171875,0.05103752879798412,-0.009338285177014767,-0.0018214980724267661
1772735102822367700,9.42636767578125,0.05432897155880928,-0.010113689996302128,0.0029617541487328707
1772735102832394500,9.43639453125,0.043106735798716544,-0.010592559554427861,-0.011096143428701907
1772735102842421500,9.44642138671875,0.052232291540503496,-0.009385777580551802,0.0017459303518757223
1772735102852448500,9.456448486328124,0.04968552966713905,-0.011081913973949848,-0.00016538316216319798
1772735102862475500,9.4664755859375,0.03411912722289562,0.009339125427231192,-0.009232157921418547
1772735102872502500,9.47650244140625,0.047885202246904374,-0.002677840907126665,-0.009873999488912523
1772735102882529500,9.486529541015624,0.039357027876377106,0.0022415683817118403,0.005920677019562572
1772735102892556500,9.496556640625,0.0526765281766653,0.006173683666251599,-0.010255801880732178
1772735102902583600,9.50658349609375,0.05417056612670421,0.001966587365232408,-0.0056843109804205596
1772735102912611600,9.516611572265624,0.051174891442060465,0.00047448564395308494,0.004032214658148586
1772735102922638600,9.526638671875,0.04982756848633289,-0.00997424499299377,-0.0020499913323670624
1772735102932665600,9.53666552734375,0.05955868890583515,-0.007410458919592201,-0.002965955399814993
1772735102942692600,9.546692626953124,0.06150573132038116,-0.008491751350276171,0.010603336676768958
1772735102952719400,9.55671923828125,0.04443886118531227,0.004242861734144389,0.007616338488925248
1772735102962746600,9.56674658203125,0.04413607884645462,-0.005525631553679704,0.002006444451585412
1772735102972773600,9.576773681640624,0.05146773690879344,-0.010181056144088506,0.002461969666741788
1772735102982800400,9.58680029296875,0.054604281368851655,-0.007334288410842418,0.006836056565120816
1772735102992827600,9.59682763671875,0.06642682110965252,0.0035643414180725813,-0.00237421831805259
1772735103002854700,9.606854736328126,0.060147886970639226,-0.004396006469242274,-0.007239468000549823
1772735103012881400,9.61688134765625,0.04293488636314869,0.0012607771834358573,-0.010226246992684901
1772735103022908400,9.626908447265626,0.03680091365277767,0.0028508959190919995,0.0027364026939496397
1772735103032935700,9.636935791015626,0.05266016156375408,0.00383409827016294,-0.0063758734411559995
1772735103042962400,9.64696240234375,0.05415419951379299,-0.011240757797472179,-0.0006105879127047955
1772735103052989400,9.656989501953126,0.04397650437057018,-0.013302329969778657,0.009793993055261671
1772735103063016700,9.6670166015625,0.0435270070374012,-0.00958396703377366,-0.006521839516796172
1772735103073044500,9.67704443359375,0.045322073760628696,-0.004213672172278166,0.0012449220271781086
1772735103083071500,9.687071533203126,0.04831131870448589,0.006182195766270161,0.006662033438775688
1772735103093098800,9.6970986328125,0.04576981752812862,0.00154021517932415,-0.000028184914868324994
1772735103103125500,9.70712548828125,0.0326081381380558,0.0063668316181749104,0.002237805522046983
1772735103113152500,9.717152587890626,0.04427753314375877,0.002988368161022663,0.014012359668966383
1772735103123179800,9.7271796875,0.052207741621136665,-0.004568221230991184,0.003617167583853006
1772735103133206500,9.73720654296875,0.05954115324914455,0.0013087810436263679,-0.008804872420057654
1772735103143233500,9.747233642578125,0.05534954677820205,-0.003437390570156276,0.003838372586481273
1772735103153260500,9.757260498046875,0.05070961201786995,-0.00045329672545194624,-0.013930946729518473
1772735103163287600,9.76728759765625,0.048310149660706514,-0.00483019663542509,-0.006358739643264562
1772735103173314600,9.777314453125,0.048156420403718946,0.001245762277394533,0.009745331607945263
1772735103183341600,9.787341552734375,0.05593757579922676,-0.0009719503046944737,-0.006836476690229028
1772735103193368600,9.79736865234375,0.06207388659715652,0.0008367430850863457,0.003162117292732
1772735103203395600,9.8073955078125,0.04800912088751793,-0.0011767156291753052,0.0008333820842206477
1772735103213422600,9.817422607421875,0.04351707016527653,-0.007520056773908436,0.0017777867948636412
1772735103223449300,9.827449462890625,0.05878244383633136,0.0008713394744321704,0.009332713952753693
1772735103233477600,9.8374775390625,0.05354395866096019,-0.0006988689843565226,0.007009440370649099
1772735103243504600,9.847504638671875,0.057138183760643,-0.008910378621146083,-0.004739869737159461
1772735103253531400,9.857531494140625,0.061033437633514404,0.0006262786721810698,-0.005381656505726277
1772735103263558700,9.86755859375,0.054451136633753776,-0.003533252160064876,-0.02234152260236442
1772735103273585700,9.877585693359375,0.05011749134361743,-0.005683963920548558,-0.008987243249639868
1772735103283612400,9.8876123046875,0.05536006817221641,0.015058270259015261,-0.006693268827255815
1772735103293639700,9.8976396484375,0.044138416934013366,-0.003860584418289363,-0.008030015590041876
1772735103303666700,9.907666748046875,0.040541269224882125,-0.015631978493742645,0.008248042254894972
1772735103313693400,9.917693359375,0.05475450349450111,-0.014475940326415002,0.00004343728292733431
1772735103323720400,9.927720458984375,0.032606969094276426,-0.01568743500802666,0.0114572683586739
1772735103333747700,9.937747802734375,0.04233107525110245,-0.008809548595175147,0.015130951902735978
1772735103343774500,9.9477744140625,0.046215807729959486,0.0015357216672971844,0.007131934239156544
1772735103353801500,9.957801513671875,0.023620529562234878,0.0044128845388069745,-0.0021134302237071096
1772735103363828700,9.967828857421875,0.04306698831021785,0.01851593643222004,0.004444466987159103
1772735103373855500,9.97785546875,0.04949380648732185,0.004038206007517874,-0.00974193407446146
1772735103383883500,9.987883544921875,0.06400748500823975,-0.00297390124425292,0.007998542739544064
1772735103393910500,9.99791064453125,0.06251403158009051,0.013738748625665903,0.004132240966521203
1772735103403937500,10.0079375,0.055932315102219576,0.01677881044130772,-0.013114442714862526
1772735103413964500,10.017964599609375,0.053988195297121996,0.0003618190497159958,-0.009205160316638648
1772735103423991800,10.02799169921875,0.045008185505867,0.0017331804681569338,0.0022776260757818817
1772735103434018600,10.0380185546875,0.04724982695281505,0.009609503333829343,0.006073730423115193
1772735103444045600,10.048045654296875,0.043057051438093186,0.00033292174879461525,0.014278481525555253
1772735103454072600,10.058072509765625,0.0590729512155056,-0.017137926077283917,-0.0032203868186101315
1772735103464099600,10.068099609375,0.07254384268522263,-0.012176686940714717,-0.0065547736720182
1772735103474126600,10.078126708984374,0.04800210662484169,-0.005979841594584286,-0.014272070051077753
1772735103484153600,10.088153564453124,0.05279343255460262,-0.017159041930548846,-0.0058007404343225055
1772735103494180600,10.0981806640625,0.051152679610252376,-0.01042465564161539,-0.0008865918424911796
1772735103504207600,10.10820751953125,0.059380994251370424,-0.0061593628799542785,0.018851543328445405
1772735103514234600,10.118234619140624,0.050853404402732845,-0.010105214428901672,0.002589614634402096
1772735103524261400,10.128261474609374,0.03798515500128269,-0.011239990612491965,-0.0024079013919457793
1772735103534289700,10.13828955078125,0.04965455000698566,0.002142784182354808,0.0018868001272901891
1772735103544316400,10.14831640625,0.04576046517789364,-0.0037528497274965044,0.008538768829777837
1772735103554343400,10.158343505859374,0.030942250752449035,0.004971797063201665,0.00034042920181527733
1772735103564370700,10.16837060546875,0.033035423639416694,-0.014847111726365983,-0.004615896297618747
1772735103574397400,10.1783974609375,0.0397667777210474,-0.013385295545496046,-0.014745825042668729
1772735103584424400,10.188424560546874,0.048747372034192084,-0.002755947644636035,-0.0004772255903109908
1772735103594451700,10.19845166015625,0.04949497553110122,-0.011824439436942339,0.00024538959581404924
1772735103604478700,10.208478759765624,0.04529927740693092,0.0030614699298515914,0.0024662987819872796
1772735103614505500,10.21850537109375,0.0469470446139574,-0.007560754110477864,0.024982374233659354
1772735103624532500,10.228532470703126,0.03796937291026115,-0.002494410631619394,-0.008598791921325028
1772735103634559700,10.238559814453126,0.03931728038787841,-0.007455284442007541,-0.011208061104267836
1772735103644586500,10.24858642578125,0.04859598086476326,-0.007275215167365968,0.0005953720772638916
1772735103654613500,10.258613525390626,0.04350771781504154,0.0014563728207722306,-0.009921364028286188
1772735103664640800,10.268640869140626,0.04096563211679458,-0.004673508236370981,0.01725499485200271
1772735103674667500,10.27866748046875,0.04844985039234161,-0.0007525719329714775,-0.004354140088893473
1772735103684695600,10.288695556640626,0.046205286335945124,-0.006056267831660807,0.0025620142414234577
1772735103694722600,10.29872265625,0.03678513156175613,0.009319763139635324,-0.00010603592405095696
1772735103704749600,10.30874951171875,0.04516834450364113,0.003153312931768596,-0.008479238928575068
1772735103714776600,10.318776611328126,0.040080665975809095,-0.001971373138204217,0.0004465747237205505
1772735103724803300,10.32880322265625,0.0504068296790123,-0.02008786192405969,-0.0035178171289153397
1772735103734830600,10.33883056640625,0.04546645066738128,0.002369542142935097,-0.009966627942118793
1772735103744857600,10.348857666015626,0.06716273416876793,0.015817418063245714,0.008905190989375113
1772735103754884600,10.358884521484375,0.056090720534324644,-0.011847089660167693,0.0015588833471760152
1772735103764911600,10.36891162109375,0.04471592456102371,-0.022550233449600637,0.01648877798616886
1772735103774938600,10.378938720703125,0.05384323386847972,-0.006722768916375935,-0.0040264973034150895
1772735103784965600,10.388965576171875,0.052798108729720114,-0.025978673528321086,-0.0018126571788452564
1772735103794992400,10.398992431640625,0.06147708974778652,-0.005926248243823647,0.004629376833699643
1772735103805020400,10.4090205078125,0.05145370838344097,-0.011144202087819575,0.007391388892941176
1772735103815047200,10.419047119140625,0.05190203667283058,-0.016467479469813407,-0.011563907070923595
1772735103825074200,10.42907421875,0.05788637177944183,-0.0038279242577031252,-0.00819625726873055
1772735103835102200,10.439102294921875,0.051447278642654415,-0.0028776377955451607,-0.0008065854088403284
1772735103845129200,10.449129150390625,0.05638356600105762,-0.004498955387063324,-0.0007673859096132219
1772735103855156200,10.45915625,0.053988779819011685,0.006465615817531943,0.004251739160344005
1772735103865183200,10.469183349609375,0.05234802687466144,-0.012892141733691095,-0.008702745486143975
1772735103875210200,10.479210205078125,0.061623220220208164,-0.016857611298561094,-0.0004835822658613324
1772735103885237200,10.4892373046875,0.04919745388925075,-0.0009756035665050148,-0.013006233100034296
1772735103895264500,10.499264404296875,0.04141103779673576,-0.008059059021435678,-0.012091072750184685
1772735103905291300,10.509291259765625,0.054281040763854975,-0.0037292496562004087,-0.007810271892137825
1772735103915318300,10.519318359375,0.065355392485857,-0.007000562944449484,0.005922521916776895
1772735103925345300,10.52934521484375,0.049943303820490836,-0.007164630932360887,-0.006248265006113797
1772735103935372300,10.539372314453125,0.04350596424937248,-0.014377411855384707,-0.006761493491567671
1772735103945399300,10.5493994140625,0.03721826228201389,0.00787161015793681,-0.0013155578442849219
1772735103955426300,10.55942626953125,0.049638767915964124,-0.005405877631530166,0.009956051749177276
1772735103965453300,10.569453369140625,0.05966273380219936,-0.018964703113026917,-0.004395348882116377
1772735103975480300,10.579480224609375,0.05547346541881561,-0.020365619419515132,0.0017053608794696628
1772735103985507300,10.58950732421875,0.047396541947126385,0.01023874114807695,0.0031634142006747423
1772735103995534000,10.5995341796875,0.03632686640024185,-0.005539294752851128,-0.0007422149357385933
1772735104005561300,10.609561279296875,0.05517945090830326,-0.024465857812575993,-0.013208331543393433
1772735104015588400,10.61958837890625,0.045154315978288645,-0.013722820404171943,-0.01357522862702608
1772735104025615000,10.629614990234375,0.04649520919322967,-0.010683343110419808,0.006146156338509172
1772735104035642400,10.639642333984375,0.06280570800304412,-0.022733846388198434,0.020068664033245295
1772735104045669400,10.64966943359375,0.05024082546234131,-0.016604001863673327,-0.00024900632500648496
1772735104055696100,10.659696044921875,0.04082183973193168,-0.006705890846811235,-0.0032149799911305307
1772735104065723100,10.66972314453125,0.06132277596890926,-0.0009592369535937904,0.002028985076956451
1772735104075750400,10.67975048828125,0.04845686465501785,0.01719952007140964,0.00853981000939384
1772735104085777400,10.68977734375,0.05458908379971981,-0.0012306012408807873,-0.0003280994432047009
1772735104095805200,10.69980517578125,0.06102116267383098,-0.01266837944779545,-0.0010836853171698748
1772735104105832400,10.70983251953125,0.04141512944996357,0.004565042893216013,-0.011292634115181863
1772735104115859200,10.719859130859374,0.04396189132332801,-0.012411116751097143,-0.008287095623649656
1772735104125886200,10.72988623046875,0.046507484152913094,-0.016548289621062577,-0.001118446103297174
1772735104135913500,10.73991357421875,0.045907764694094653,0.005640782365947962,0.00021504925647750496
1772735104145940200,10.749940185546874,0.054281625285744664,-0.017083382878452538,0.005788319344166666
1772735104155967200,10.75996728515625,0.03961304846405983,-0.01013071419633925,0.005275291788112372
1772735104165994200,10.769994140625,0.038865444967150685,0.0025998803000897167,-0.01809973858045414
1772735104176021200,10.780021240234374,0.042461423632502555,-0.008599449508450924,0.012652469492610544
1772735104186048300,10.79004833984375,0.033785949745774264,-0.014972966595739125,-0.009870985547918825
1772735104196075300,10.8000751953125,0.03916822730600834,-0.019240597444958984,-0.0040881095638498665
1772735104206102300,10.810102294921874,0.04425824392139911,-0.015003873190656304,-0.00981876217033714
1772735104216129300,10.82012939453125,0.05607669200897217,-0.01351297704577446,0.0013789419366978107
1772735104226156300,10.83015625,0.05054010066986084,-0.014810323379933833,-0.018594554626382886
1772735104236184300,10.840184326171874,0.06206394972503185,-0.019115692423656582,-0.013216989773884415
1772735104246211300,10.85021142578125,0.04725099599659443,0.005476458649709821,-0.007071819816064089
1772735104256238300,10.86023828125,0.049503743359446524,0.00014499796126037835,0.008760193028114736
1772735104266265000,10.87026513671875,0.04591770156621933,0.00030135756675153967,-0.011599617705121636
1772735104276292400,10.880292236328126,0.05459551354050636,0.002705094240233302,-0.004936068162694573
1772735104286319400,10.8903193359375,0.050851650837063785,0.0026973493251949547,-0.0034873306591063735
1772735104296346000,10.90034619140625,0.05983282967209816,-0.007591222313977778,-0.0020464476684108374
1772735104306373400,10.910373291015626,0.05040098446011543,0.006672573099099099,-0.011734350000694393
1772735104316400400,10.920400390625,0.05294657728970051,-0.005871230120956897,-0.00488386305142194
1772735104326428200,10.93042822265625,0.052346273308992386,0.004699446395225823,0.003338679436035454
1772735104336455400,10.940455322265626,0.036034605455398556,-0.005843209602870047,-0.0037348391467705365
1772735104346482200,10.950482177734376,0.049051907938718796,-0.0024060747610405086,0.012770232387073338
1772735104356509200,10.96050927734375,0.03528466387093067,-0.0014795345006510614,0.009537680206634104
1772735104366536400,10.970536376953126,0.04336392543017864,-0.00024703356362879274,-0.00560337296500802
1772735104376563200,10.980563232421876,0.05638239695727825,0.000829765355028212,-0.003781747028417885
1772735104386590200,10.990590087890626,0.04306231213510036,-0.013740209930390119,-0.014987086452636867
1772735104396617200,11.0006171875,0.03872574423551559,-0.009467026123218238,-0.002399151829909533
1772735104406644200,11.010644287109375,0.0649111558496952,0.00668291183002293,0.009292491540219635
1772735104416672300,11.02067236328125,0.039326048216223715,0.012596519787982105,0.008232625490054487
1772735104426699300,11.03069921875,0.04501344620287418,0.0012112389532849192,0.0020345745675265786
1772735104436726300,11.040726318359376,0.04337035517096519,-0.01418017225023359,-0.01751801143605262
1772735104446753300,11.050753173828125,0.03364391092658043,0.0009030132543295621,0.0033929303739219903
1772735104456780300,11.0607802734375,0.042916766184568404,0.010536664648726582,0.0009089132721535861
1772735104466807300,11.070807373046875,0.05324702154099941,-0.004768785304389894,0.0005331204960122704
1772735104476834300,11.080834228515625,0.05998305179774761,0.001995265470445156,0.026959227264579385
1772735104486861300,11.090861328125,0.04068213900029659,-0.003693411157839,0.011427877867408096
1772735104496888000,11.10088818359375,0.06357435428798199,0.009728818864561617,-0.0009507248535752296
1772735104506915300,11.110915283203125,0.04307458709478378,-0.003833477215655148,0.00524274122538045
1772735104516942300,11.1209423828125,0.05429506928920746,-0.01266757573019713,0.005493154056183993
1772735104526969000,11.130968994140625,0.05339899723231792,0.007430807587876916,-0.014403514411021024
1772735104536996400,11.140996337890625,0.03588730593919754,-0.005851685170270502,-0.01454593682270497
1772735104547023400,11.1510234375,0.048612931999564166,0.011343670182675122,-0.0059482408799231045
1772735104557051100,11.161051025390625,0.05221007970869541,-0.007849836717545985,-0.007831278147548436
1772735104567078400,11.171078369140625,0.05041793559491634,-0.0007730667317286133,-0.00614222908206284
1772735104577105400,11.18110546875,0.04039338518679142,0.0015988500313833356,0.007698701276443899
1772735104587132200,11.191132080078125,0.04697802427411079,-0.009780293323472142,0.00167671930687502
1772735104597159400,11.201159423828125,0.050720133411884305,-0.013458397314324974,-0.012661639179755001
1772735104607186400,11.2111865234375,0.031717326778173446,-0.012250007905252278,-0.014766575569752603
1772735104617213200,11.221213134765625,0.03471300146281719,-0.008879800819791853,-0.004900704588368535
1772735104627240200,11.231240234375,0.051321021914482116,-0.002306413778848946,0.0023364983898587523
1772735104637267500,11.241267333984375,0.050722471499443054,0.00047989247143268585,-0.0167624438283965
1772735104647294200,11.251294189453125,0.05416296734213829,-0.01581504344306886,0.006068524525035172
1772735104657321200,11.2613212890625,0.050722471499443054,-0.022948731247894465,0.0008566716282628476
1772735104667348500,11.271348388671875,0.06538461858034134,-0.011944376022182405,0.005034761030506343
1772735104677375200,11.281375244140625,0.0480278255879879,0.0052351241745054716,0.006594301964808255
1772735104687402200,11.29140234375,0.06015022505819797,-0.0019546411991119383,-0.008158829601481557
1772735104697430300,11.30143017578125,0.05252104535400867,-0.015475509290397167,-0.016816091978084296
1772735104707457300,11.311457275390625,0.047585927039384836,-0.011223002945072948,0.004706643320992588
1772735104717484300,11.321484375,0.041300563159584996,-0.013774806319735943,0.011605535989254713
1772735104727511000,11.331510986328125,0.055220951962471,-0.0025986016584560274,-0.0030827501798979936
1772735104737538300,11.341538330078125,0.05596446380615234,-0.00268759511616081,-0.01633466513669118
1772735104747565300,11.3515654296875,0.03591244038045406,-0.013484919995069502,-0.004528802536055445
1772735104757592300,11.36159228515625,0.044593174964189526,-0.009361300726421176,-0.0073220499837771055
1772735104767619300,11.371619384765625,0.05387070639729499,-0.003242087193764746,-0.011374960370082407
1772735104777646300,11.381646240234375,0.0399585009008646,-0.016314626995660365,-0.01216726152524352
1772735104787673300,11.39167333984375,0.06031272214353084,-0.0015706833828240633,-0.0014244615788571535
1772735104797700000,11.4017001953125,0.04505144012570381,0.006933708253316581,0.002948894667159766
1772735104807727000,11.41172705078125,0.05043897838294506,-0.0033877062095329165,-0.004544840355403721
1772735104817754000,11.421754150390624,0.05343348402380943,-0.015252842983044683,0.0015221132670529185
1772735104827780900,11.43178076171875,0.06166881292760372,0.00020275603048503397,-0.00785816615447402
1772735104837809200,11.44180908203125,0.07558978625237942,-0.016315174984931943,-0.010311568922270089
1772735104847836000,11.4518359375,0.05135083253085613,-0.020129253380373118,-0.003562368656694889
1772735104857863000,11.46186279296875,0.03968260656893253,-0.02290427105166018,-0.0206843847787939
1772735104867890200,11.47189013671875,0.053449266114830966,-0.01610635453984141,-0.0120506676745601
1772735104877917000,11.4819169921875,0.03833645265698433,-0.008626374047994613,-0.019100750582851468
1772735104887944000,11.49194384765625,0.03205108877718448,0.0008738967576995491,-0.02868701917156577
1772735104897971000,11.501970947265624,0.0465682744294405,-0.00884575241971761,0.0039170638458803295
1772735104907998200,11.511998291015624,0.05599719703197479,-0.0028094313975423574,0.0027185930426232513
1772735104918025000,11.52202490234375,0.050611996862292286,-0.00280303818937391,0.008173040789924561
1772735104928052000,11.532052001953126,0.05660276170969009,-0.004917217331752181,0.006190141610708087
1772735104938079200,11.542079345703126,0.044489714589715,-0.0007331731127575039,0.008035897341556847
1772735104948106000,11.55210595703125,0.046433249872922897,-0.0019721403231844304,-0.005267437275219708
1772735104958133000,11.562133056640626,0.044489714589715,-0.003233392430655658,0.007800809944048523
1772735104968160000,11.572159912109376,0.048078094470500946,-0.01108103719111532,-0.012679174836445598
1772735104978188000,11.58218798828125,0.038650340911746024,-0.015463636189512908,0.001342792911082506
1772735104988215000,11.592215087890626,0.041190088522434234,0.0007576864995062351,-0.013861425157263874
1772735104998241800,11.60224169921875,0.04851882397532463,0.00398632968980819,-0.021438290152326223
1772735105008269000,11.61226904296875,0.05271043044626712,-0.018027531860768792,-0.012333010013587772
1772735105018296000,11.622296142578126,0.029523031604290005,-0.02066796336695552,-0.008409571225848048
1772735105028322800,11.63232275390625,0.05586217247545719,-0.002560571203008294,0.007761172053404152
1772735105038350000,11.64235009765625,0.047181437891721724,-0.008238397643715143,-0.006505728632211685
1772735105048377000,11.652377197265626,0.038949031597375866,0.0006886033186689019,-0.012163882258068769
1772735105058404000,11.662404052734376,0.05062427182197571,-0.024355237044952807,-0.01458394901184365
1772735105068431000,11.67243115234375,0.04434007698595523,-0.009251301013305784,-0.01686433330029249
1772735105078458000,11.6824580078125,0.04763035070300102,-0.007153671146929263,-0.014399568888265638
1772735105088485000,11.692485107421875,0.047182606935501095,0.003233903887309134,-0.012988697443343699
1772735105098512000,11.702511962890625,0.05586100343167782,-0.01765128242690116,0.0077848999888636165
1772735105108540200,11.7125400390625,0.05615910959541797,-0.006638378568552434,-0.013648732254654168
1772735105118567000,11.72256689453125,0.050770986816287035,-0.017154000429250298,-0.004993552237283438
1772735105128594000,11.732593994140625,0.05241875402331352,-0.013379742587544024,-0.013237247110623865
1772735105138621200,11.74262109375,0.06768120508491993,-0.01942048405651003,-0.015483528200071305
1772735105148648000,11.75264794921875,0.0588549245506525,-0.006461962555721402,-0.005421878918260336
1772735105158675000,11.762675048828125,0.05063011704087257,-0.01007354064900428,-0.0025964827666059135
1772735105168702200,11.7727021484375,0.04210077362656593,-0.008752959569729863,0.0017032054550014436
1772735105178729000,11.78272900390625,0.047642625662684436,-0.0008946838174015283,-0.004699720389861614
1772735105188756000,11.792755859375,0.06589373714625835,0.008008863204158842,-0.006402980643790215
1772735105198783000,11.802782958984375,0.04539104734361171,0.014066519275307655,0.003005940350331366
1772735105208810000,11.81281005859375,0.044047231519222255,-0.019490992009453475,0.0006507737926207482
1772735105218837000,11.8228369140625,0.04942892455756664,-0.005642535931617021,-0.003719404115621
1772735105228864000,11.832864013671875,0.055114568978548044,-0.0073726111272349945,-0.005525503689516336
1772735105238891000,11.84289111328125,0.03326630978584289,-0.016216135057248175,-0.002063983325101435
1772735105248919000,11.8529189453125,0.0542190814435482,-0.00015888035614043474,-0.010666428508237003
1772735105258946000,11.862946044921875,0.05616729290187358,0.006397811278328299,-0.0010374532889574765
1772735105268973000,11.87297314453125,0.051529696229100225,0.006651895637251436,-0.005794328959845006
1772735105279000000,11.883,0.056017070776224136,-0.0019288491707295178,-0.006099558984115719
1772735105289027000,11.893027099609375,0.033574352821707724,-0.003381824458017945,-0.018423819435667246
1772735105299053800,11.9030537109375,0.05916296758651733,-0.002864997509680688,-0.030175686826743185
1772735105309081000,11.9130810546875,0.054525955435633655,-0.006904080300033092,-0.005784775680210441
1772735105319108000,11.923108154296875,0.049293315479159355,0.0024834508461877704,-0.01853781947046518
1772735105329134800,11.933134765625,0.06635083326399326,0.001873209993354976,-0.010722743539046495
1772735105339162000,11.943162109375,0.05227846876978874,-0.010836232117190956,-0.0061640573213808236
1772735105349189000,11.953189208984375,0.048531683456897734,-0.016983904559351504,-0.010935454707965255
1772735105359215900,11.9632158203125,0.04479191240668297,0.00860123960673809,-0.014129428443685173
1772735105369243000,11.973242919921875,0.04658288747668266,0.007482135916315019,-0.00551304606674239
1772735105379270100,11.983270263671875,0.048825113445520395,-0.005339242136105895,0.010759696282260119
1772735105389298000,11.9932978515625,0.05062310277819633,-0.009309241745620965,0.013602956884168087
1772735105399325200,12.0033251953125,0.05451192691028118,-0.011450272362306713,-0.0016599508351646363
1772735105409352200,12.013352294921875,0.04284370094835758,-0.01207808540444821,-0.006716631436534225
1772735105419379000,12.02337890625,0.04703355385363102,-0.01157904984112829,-0.015178115512710064
