time,seconds_elapsed,z,y,x
1772732277122660400,0.075660400390625,-1.0395336023628712,0.2177025474652648,0.6225685656167567
1772732277132687400,0.085687255859375,-0.8126818260192871,0.3716916244328022,0.45030835729092356
1772732277142715100,0.095715087890625,-0.25320728382766244,0.2772819868981838,0.34742994742281735
1772732277152743400,0.105743408203125,0.47430853382050986,0.155679514272511,0.41536498113833364
1772732277162770200,0.115770263671875,1.1689040786415337,-0.04128273524194956,0.38590551628954706
1772732277172798500,0.125798583984375,1.550284153395891,-0.2262918043732643,0.4478586260512471
1772732277182826200,0.135826171875,1.8124094876945018,-0.2914204023659229,0.5693380568191408
1772732277192853500,0.145853515625,2.018975431856513,-0.39925709222853184,0.7070519254859536
1772732277202881300,0.15588134765625,2.086229351440072,-0.5509907914847135,0.7048753851644695
1772732277212908300,0.165908203125,1.9849469055265188,-0.5701467428535223,0.6327892961841076
1772732277222936300,0.175936279296875,1.9279308868408203,-0.4366390206396579,0.5099754750072956
1772732277232964400,0.18596435546875,1.7450673053056,-0.46326019332259893,0.5471538436703384
1772732277242991400,0.195991455078125,1.417527541810274,-0.4513432532966137,0.6471969570472836
1772732277253019400,0.206019287109375,0.9874942030459641,-0.3740282506868243,0.754760017600283
1772732277263047200,0.216047119140625,0.6095540396124124,-0.30769378403574227,0.7007364587288349
1772732277273074400,0.226074462890625,0.2598690798044205,-0.25155045653134583,0.5510851187046617
1772732277283102200,0.236102294921875,0.08588613933920859,-0.1446209446415305,0.46892041104137894
1772732277293129500,0.24612939453125,0.0986567735850811,-0.06860884132385253,0.45266551487632095
1772732277303157200,0.2561572265625,0.08613222305476664,-0.13665303450226782,0.41964967272020876
1772732277313185300,0.266185302734375,0.051775779944658276,-0.2402978256329894,0.4064377975128591
1772732277323212300,0.27621240234375,0.043778935971856114,-0.2761237567737698,0.4549906698882579
1772732277333240300,0.286240234375,0.014157120168209076,-0.40434857014864684,0.551219010750018
1772732277343268400,0.296268310546875,-0.041533202871680254,-0.5112386268109083,0.6480442215263843
1772732277353295400,0.30629541015625,-0.03222995247542858,-0.4549643664032221,0.5755605480631814
1772732277363323400,0.316323486328125,-0.05447977820634842,-0.5008674549221992,0.5415439313666894
1772732277373350400,0.326350341796875,-0.04249240329265594,-0.5700321765631436,0.522963734059222
1772732277383378200,0.336378173828125,-0.027736148187518118,-0.6181251763418316,0.5395666399443522
1772732277393406500,0.346406494140625,0.08284545646905898,-0.4724319262936711,0.7879458825610578
1772732277403433200,0.35643310546875,0.1895055037677288,0.12117284903675317,1.6687703936971723
1772732277413461500,0.36646142578125,0.013416530933976172,-0.43999476080834865,1.8021717329271136
1772732277423489300,0.3764892578125,-0.029682021558284758,-1.136566281877458,1.4189564055696129
1772732277433516300,0.386516357421875,-0.11467325788438319,-1.5090531483411789,0.9003564562104642
1772732277443544300,0.39654443359375,-0.20489596512317657,-1.6024942331045866,0.28512276352643967
1772732277453571300,0.4065712890625,-0.11663257525861262,-1.4051815627172588,-0.15805870102662592
1772732277463599400,0.416599365234375,0.1206990940451622,-1.0604980644583701,-0.34604945284985006
1772732277473627400,0.42662744140625,0.3156470811277628,-0.8466799572110175,-0.36067221776843067
1772732277483654100,0.436654052734375,0.5033452432125807,-0.8083423355102538,-0.3109858478510752
1772732277493682400,0.446682373046875,0.745982033187151,-0.9184823338791728,-0.31369791982136663
1772732277503710200,0.456710205078125,0.830718417969346,-1.0652806225597857,-0.39445086099058385
1772732277513737500,0.466737548828125,0.8976941051334142,-1.1910033899858594,-0.39902317387480285
1772732277523765200,0.47676513671875,0.9714099142074585,-1.2507602318122981,-0.2981125934809446
1772732277533793500,0.48679345703125,1.179681493243575,-1.247224751162529,-0.01838306730017066
1772732277543820300,0.4968203125,1.302846685141325,-1.2029527709767223,0.4710637066803872
1772732277553848300,0.506848388671875,1.3534639427006243,-1.2569380436643958,0.6957632003609091
1772732277563875300,0.516875244140625,1.4480956985533238,-1.3435574657142162,0.6236881442312151
1772732277573903400,0.5269033203125,1.499202200934291,-1.3497481370478868,0.4625095941510051
1772732277583931400,0.536931396484375,1.5322335329204797,-1.1678905176848173,0.3187188532559201
1772732277593958400,0.54695849609375,1.4370067337840795,-1.079609299902618,0.26361659576967356
1772732277603986200,0.556986083984375,1.299187578111887,-1.0297837772428988,0.24548202333785593
1772732277614014500,0.567014404296875,1.1756781028211116,-0.9526999530404806,0.1929045716214925
1772732277624041200,0.577041259765625,1.0091226820081471,-0.9066086484730244,0.10547598861325531
1772732277634069500,0.587069580078125,0.8759545670121908,-0.9058718586310743,0.04391041686441749
1772732277644096300,0.59709619140625,0.6922785000503063,-0.9192164933726191,-0.01818710633665323
1772732277654124300,0.607124267578125,0.5782148984968662,-0.9392986196756362,-0.033654140059649944
1772732277664152300,0.61715234375,0.5589052178710698,-1.0049074024006723,-0.014206585333123802
1772732277674179300,0.627179443359375,0.6432201623708009,-1.09225923037827,0.02722140359841287
1772732277684207400,0.637207275390625,0.6728723733127117,-1.2011503977298736,0.028291005591303108
1772732277694235400,0.6472353515625,0.6666951459825039,-1.3193731647893785,0.027137451642006635
1772732277704262100,0.65726220703125,0.6272738206982612,-1.3681187832579016,0.1435824684392661
1772732277714290400,0.66729052734375,0.512600562813878,-1.387187933126092,0.36454891307130455
1772732277724317400,0.6773173828125,0.3360053940236568,-1.409629482036829,0.6174179048553109
1772732277734345500,0.687345458984375,0.11203238798677921,-1.373608612845838,0.8487857703838497
1772732277744373200,0.697373291015625,-0.16841653850972652,-1.2987541551306843,1.0179526158042251
1772732277754400300,0.707400146484375,-0.44073827265202997,-1.2301494054600595,1.0856246146693824
1772732277764428300,0.71742822265625,-0.6476087527185678,-1.097249878272414,1.1219145100601018
1772732277774456300,0.727456298828125,-0.7486836933612823,-0.9420590242996811,0.9914654447644948
1772732277784483300,0.7374833984375,-0.5914958203524351,-0.7787991379007697,0.7720568240337073
1772732277794511400,0.747511474609375,-0.24875322702825067,-0.6146843882381916,0.4598259080249816
1772732277804539400,0.757539306640625,0.10271218645572662,-0.5550231157407164,0.19683131661117076
1772732277814566400,0.76756640625,0.38409693249762056,-0.6284498787403107,0.07958864663019775
1772732277824594200,0.77759423828125,0.5442226125240326,-0.7615253470167517,0.12896328371725976
1772732277834621400,0.787621337890625,0.5776496658295392,-0.8174272669807076,0.21584044338781386
1772732277844649200,0.797649169921875,0.5508645347565412,-0.7778887450575828,0.1372524617001414
1772732277854677500,0.807677490234375,0.37956104263365265,-0.7537094125688075,-0.1159992092585191
1772732277864704300,0.817704345703125,0.14113281026482583,-0.6529135811284184,-0.23856376838199794
1772732277874732300,0.827732177734375,-0.05842179383039474,-0.563849104014039,-0.28110812105759975
1772732277884760300,0.83776025390625,-0.28742227264046666,-0.510433447907865,-0.4162111861715093
1772732277894787300,0.847787353515625,-0.5322305614352226,-0.4195800415500998,-0.5776527345694601
1772732277904815400,0.8578154296875,-0.8359621638417244,-0.24028058223724363,-0.6777222975619137
1772732277914842400,0.86784228515625,-1.1813035414874553,-0.08218582351654767,-0.7299243400946259
1772732277924870100,0.8778701171875,-1.4293044888436794,0.06223609142154455,-0.8146218541711568
1772732277934898400,0.8878984375,-1.5294441944628954,0.12073124274909496,-0.9591124504312872
1772732277944925200,0.89792529296875,-1.487357449361682,0.14884323851168155,-1.0887221422933042
1772732277954953500,0.907953369140625,-1.3087544478803872,0.13582301341891287,-1.1648945507392288
1772732277964981200,0.917981201171875,-1.13220779440701,0.09175766172111034,-1.1065063669174908
1772732277975008300,0.92800830078125,-1.1303455076664686,0.002700198869407177,-1.0959724056825042
1772732277985036300,0.938036376953125,-1.2924369348078966,-0.03821194949448108,-1.1657822933591901
1772732277995063300,0.948063232421875,-1.5489397530496118,0.03934592196047306,-1.2091479723550378
1772732278005091600,0.958091552734375,-1.774896041858196,0.21444763732254504,-1.2200022515855728
1772732278015119600,0.96811962890625,-1.951745477670431,0.32567017023116346,-1.2478320694059133
1772732278025146400,0.978146484375,-1.9901655169576404,0.41899639644324776,-1.2783566792681813
1772732278035174700,0.988174560546875,-1.8191390882104634,0.5352072391584515,-1.2995873910844324
1772732278045202400,0.998202392578125,-1.488213189408183,0.6094976332500577,-1.3290075468361378
1772732278055229700,1.008229736328125,-1.040236782196164,0.5869701596215366,-1.3162759294264017
1772732278065257500,1.018257568359375,-0.6029664779156446,0.517624820716679,-1.27102487507537
1772732278075285800,1.02828564453125,-0.3297463336288929,0.47571927740126846,-1.19930126273185
1772732278085312500,1.0383125,-0.24305004695057866,0.4697612457796931,-1.1490361796110868
1772732278095340500,1.048340576171875,-0.3891963014632463,0.4516825682535767,-1.0278070703424513
1772732278105367600,1.058367431640625,-0.5663087721258402,0.4456783594027161,-0.8725643400520086
1772732278115395600,1.0683955078125,-0.5412853900283575,0.48373862546682356,-0.8413079818490892
1772732278125423600,1.078423583984375,-0.3224135065227747,0.5224725530087948,-0.9233824539456515
1772732278135450600,1.08845068359375,-0.042861821126937864,0.48791415758579965,-0.997298973223567
1772732278145478400,1.098478515625,0.3845756559252739,0.48693566794246435,-0.9819678408399224
1772732278155505700,1.108505615234375,0.8517010002434253,0.46587037582099433,-0.999641444696486
1772732278165533400,1.118533447265625,1.3125386425942183,0.46394145358502864,-1.0571794414296745
1772732278175561700,1.128561767578125,1.776338057360053,0.4469856426090002,-1.1055416135385632
1772732278185588500,1.13858837890625,2.1143208889365197,0.4215793986737728,-1.0626208287660033
1772732278195616500,1.148616455078125,2.3270061927616594,0.3203153651997447,-0.9993415849670767
1772732278205644500,1.15864453125,2.5252847855716944,0.15254472337812183,-0.7619715564142913
1772732278215671600,1.168671630859375,2.5392946062237023,-0.08087824804931878,-0.5819157257761806
1772732278225699600,1.178699462890625,2.10609549690485,-0.5557581520169973,0.10510888146706857
1772732278235727600,1.1887275390625,1.7115858914643525,-0.5504194213375448,0.5493534360738471
1772732278245754400,1.19875439453125,1.391626207834482,-0.04738952768445015,0.6229267314046621
1772732278255782700,1.20878271484375,0.9204460351675748,0.02620411631464958,0.7397647661074995
1772732278265809400,1.218809326171875,0.30233284152448175,0.17387948009073734,-0.06874178352113813
1772732278275837700,1.228837646484375,0.31105741524994374,0.70008595893085,-0.17474409756343812
1772732278285865500,1.238865478515625,0.35202538545429707,0.37218174603730436,-0.776357663032785
1772732278295892500,1.248892578125,0.8467080142617225,0.09376257180273533,-1.2349424849554895
1772732278305920500,1.25892041015625,1.4441051676124332,0.4383578072562814,-1.4341684416182339
1772732278315948500,1.268948486328125,2.0754940224140883,0.6340490139216184,-1.4098495545282959
1772732278325975600,1.2789755859375,2.3382541474848986,0.43014205983579157,-1.4746309465184806
1772732278336003600,1.289003662109375,2.197875954979658,-0.18087679163217543,-1.2267054024860262
1772732278346030600,1.299030517578125,1.8205027777791023,-0.3363412018492818,-0.6267545460645109
1772732278356058600,1.30905859375,1.594742303803563,-0.38503129073828457,-0.20238463988937436
1772732278366086400,1.31908642578125,1.4104057271063326,-0.6246490251526237,-0.17350476502683013
1772732278376113700,1.32911376953125,1.4046405877083539,-0.8474202541843057,-0.18441329519525168
1772732278386141400,1.339141357421875,1.5894892055809497,-0.7856988342866301,-0.16247819796930998
1772732278396169700,1.349169677734375,1.831508740440011,-0.8635138953730463,-0.3776535285118967
1772732278406196500,1.359196533203125,1.957269794049859,-0.8337681609287858,-0.4932529613304883
1772732278416224500,1.369224609375,1.8606266983747481,-0.9414218954399227,-0.7549536404762417
1772732278426251800,1.379251708984375,1.545713192218542,-1.0293009621620177,-0.8021803057491779
1772732278436279600,1.389279541015625,1.2083470312356948,-0.9403031205430626,-0.7477927358709275
1772732278446307600,1.3993076171875,0.7662608511060476,-0.9414645655378698,-0.6453883732553571
1772732278456334600,1.40933447265625,0.22613690607249737,-0.8127931774392724,-0.4552355480274185
1772732278466362400,1.4193623046875,-0.24890695628523826,-0.4625859473228454,-0.3448784728417173
1772732278476390700,1.429390625,-0.6765940241843461,-0.31833851216882464,-0.22345150291342286
1772732278486417400,1.43941748046875,-0.43958793357312675,-0.5484402302190661,-0.2651618524502963
1772732278496445700,1.44944580078125,0.25449790816009044,-0.9341314461708068,-0.23714564521238207
1772732278506473500,1.459473388671875,1.2048439915508031,-1.036521853326261,0.14177856082245707
1772732278516500500,1.46950048828125,1.6361539261221885,-0.9753779410555958,-0.009185688431188464
1772732278526528500,1.479528564453125,0.7667185317456722,-1.0206365941911935,-0.45481757834367453
1772732278536555500,1.489555419921875,-1.030178914040327,-1.0073778841674328,-0.5244649689350277
1772732278546583600,1.49958349609375,-2.7379776881814,-1.4440636665582656,-1.1698356604032218
1772732278556611600,1.509611572265625,-3.2275229541003703,-1.7162106286555527,-2.3673338192358613
1772732278566638600,1.519638671875,-3.0955507708907124,-1.6024994938015937,-3.378721231305599
1772732278576666600,1.52966650390625,-2.8343331990867853,-1.5101646167144178,-2.556738492977619
1772732278586694400,1.5396943359375,-1.9266449386835096,-0.6084937169045209,-0.5578785782370717
1772732278596721700,1.5497216796875,-1.3268395551472902,-0.3444365377604961,0.744250240958482
1772732278606749400,1.55974951171875,-1.177964167931676,-1.4605539058491588,1.1028915374211967
1772732278616776400,1.5697763671875,-1.2525105826109646,-2.6741771239221093,0.4974962249234318
1772732278626804500,1.579804443359375,-2.0863731438249347,-3.8776200165033337,0.9832738088719546
1772732278636832500,1.58983251953125,-2.9814567741990086,-4.1661935050055385,1.0567805783051998
1772732278646859500,1.599859619140625,-2.6180121691077947,-3.621056115724146,0.8242764752883464
1772732278656887600,1.609887451171875,-2.470694532728195,-1.958478293056786,1.802976181177795
1772732278666915600,1.61991552734375,-3.7444700216859577,-1.0221543052777646,3.024905455303192
1772732278676942600,1.629942626953125,-4.3242479317158455,-1.560933557704091,2.442665685204416
1772732278686970400,1.639970458984375,-3.945055137872696,-1.6587416055053472,2.2458763080388304
1772732278696997600,1.64999755859375,-3.3043180244892834,-1.1730381097063423,2.483231065957248
1772732278707025400,1.660025390625,-2.7236726839751,-0.7320698276907205,2.2370367296315727
1772732278717053700,1.6700537109375,-2.691043503049016,-0.08658727334588766,1.6659798861958086
1772732278727080700,1.680080810546875,-3.2683582378357645,0.2981169773951173,1.1873507126972078
1772732278737108500,1.6901083984375,-3.4901188285201785,0.4710094922751188,0.8766166841827332
1772732278747136500,1.700136474609375,-3.1650761425375937,0.7675055904701351,0.6813439951904118
1772732278757163500,1.71016357421875,-2.4055863930016756,1.0246458298325538,1.6127520077466964
1772732278767191600,1.720191650390625,-2.1122189482212064,1.4429463529661297,1.2214268775612116
1772732278777218600,1.730218505859375,-0.42380291994214053,1.4651196063295007,1.4288112984992563
1772732278787246600,1.74024658203125,0.5559194800585509,2.1627678167194127,3.500250930956006
1772732278797274600,1.750274658203125,0.859920547056198,2.172625778388977,3.0425545092403885
1772732278807301600,1.760301513671875,1.918964321053028,1.8741522426411508,3.109804044909775
1772732278817329700,1.77032958984375,2.2784733402609825,1.5938634751424192,2.150765828758478
1772732278827357400,1.780357421875,3.0635195558577775,1.4648907660096884,1.5909215764716267
1772732278837384700,1.790384765625,4.271439301592111,0.9166001733943819,-0.10342822577059269
1772732278847412500,1.80041259765625,6.830600053280592,-0.9922133405223488,-5.442393298500776
1772732278857439500,1.810439453125,3.9992566836595533,-0.6589712737321853,-4.213604075478017
1772732278867467500,1.820467529296875,3.431030679735541,1.1564704212650656,-0.27517639292106033
1772732278877495600,1.83049560546875,2.115629633447528,1.564085299733281,1.4302195578619836
1772732278887522800,1.840522705078125,1.0979881294190883,1.1438467942744492,1.539178529752791
1772732278897550600,1.850550537109375,1.0979746854156256,0.8764791754081844,2.939690931615233
1772732278907578400,1.860578369140625,1.0207529140472411,0.897250745280087,3.388406174495816
1772732278917605600,1.870605712890625,1.177190260949731,1.0384656808704138,2.2824293844103813
1772732278927633400,1.88063330078125,0.7354360892534255,1.1179895917013287,1.510746215994656
1772732278937660700,1.89066064453125,0.17396657385230063,1.3375231539860366,1.0916562960490583
1772732278947688700,1.900688720703125,0.19175299043357372,1.6885905080631374,0.44753903870806094
1772732278957716500,1.910716552734375,0.5318816018670797,1.8051327746897934,-0.5153755804851651
1772732278967743700,1.92074365234375,0.5340536852091551,1.7986124330103397,-0.9203298614419996
1772732278977771500,1.930771484375,0.5772124434560537,1.7594836609318851,-0.770640965886414
1772732278987799600,1.940799560546875,0.9473515777498484,1.5797037246257066,-0.6538328148651867
1772732278997826600,1.95082666015625,1.25300450360775,1.2379720619097352,-0.2237689348321408
1772732279007854600,1.9608544921875,1.7569804459393024,0.9878221198260784,0.1378003231075592
1772732279017882600,1.970882568359375,2.103786050918698,0.6794006060376763,0.07489250643691048
1772732279027909600,1.98090966796875,1.860505702343583,0.36305180638134477,0.025319058842118828
1772732279037937700,1.990937744140625,1.772123070013523,0.32817192391902206,0.1251133394239936
1772732279047964700,2.000964599609375,2.132020796278119,0.4052995872631669,0.08146729085049592
1772732279057992700,2.01099267578125,2.3148200804054735,0.23372692281007765,0.16654988612132146
1772732279068020500,2.0210205078125,2.17942727509737,0.005514379507303237,0.14654288001428356
1772732279078047500,2.031047607421875,2.486142277228832,-0.06757862149327994,0.1237188071925193
1772732279088075500,2.041075439453125,2.4926579427331683,-0.37536388320475816,0.405307953232713
1772732279098103600,2.051103515625,2.276273199868202,-0.5249266681626439,0.2923868910442106
1772732279108130800,2.061130859375,1.8554115940749645,-0.45402007129043337,0.2819109070741571
1772732279118158600,2.07115869140625,1.3238883041262626,-0.468804675707221,0.8288023552149534
1772732279128185600,2.081185546875,0.9320540553748607,-0.5025102536931634,1.0343075382776559
1772732279138213600,2.091213623046875,0.9369511797666549,-0.9534355738386511,0.911330927754566
1772732279148241400,2.101241455078125,0.6342635334551334,-1.5948042631238697,0.6669162413872778
1772732279158268700,2.1112685546875,0.08733049292862415,-2.0211735264226793,0.006001295374566689
1772732279168296400,2.12129638671875,1.2048059976279735,-1.8465315375268458,0.5382729834046215
1772732279178324700,2.13132470703125,0.8745499609112739,-1.6460808613747357,0.633019890069589
1772732279188351700,2.141351806640625,0.1572720441609621,-1.214077683842182,-0.48132593830190595
1772732279198379500,2.151379638671875,0.36403731028735636,-1.1409095717787743,-0.2532127089214511
1772732279208406800,2.16140673828125,0.06580079816579819,-1.0017278955817221,-0.3209945065703243
1772732279218434600,2.1714345703125,0.2257429383188486,-1.1052654269456863,-0.38253275192081926
1772732279228462600,2.181462646484375,0.6242237854778766,-1.0311585727274417,-0.016222920991061256
1772732279238489600,2.191489501953125,0.9064426442563533,-1.1191533747836946,-0.0021028722970746457
1772732279248517600,2.201517578125,0.9842132816791533,-1.1898057046338915,-0.19499527855673804
1772732279258545700,2.211545654296875,1.1009452256590126,-1.2720318601608276,-0.1431684625445865
1772732279268572700,2.22157275390625,1.189965571370721,-1.3640543102979659,-0.10575741763683036
1772732279278600700,2.2316005859375,1.0579963107705115,-1.3224734688922761,-0.10808034415906295
1772732279288627700,2.241627685546875,0.6725315970510244,-1.0883864805981516,-0.4418159848861396
1772732279298655500,2.251655517578125,0.19412322669625282,-1.2000611411884425,0.02305467584040016
1772732279308683500,2.26168359375,-0.20997721391022203,-1.49053140322268,0.3240490353027358
1772732279318710500,2.27171044921875,-0.5183715474307536,-1.57379450058192,0.6578022299528121
1772732279328738800,2.28173876953125,-0.8127548912554979,-1.6074492251634598,0.4318340315107256
1772732279338766600,2.2917666015625,-0.6951210299998521,-1.6045044038832186,0.09594859233861788
1772732279348793600,2.301793701171875,-0.28383798441290853,-1.6834546064794063,0.09173250901354477
1772732279358821600,2.311821533203125,-0.3611328210175037,-1.874381082960963,-0.14543004166786558
1772732279368848600,2.3218486328125,-0.8062497471451758,-1.9471584421411154,-0.008332423469563945
1772732279378876700,2.331876708984375,-1.7037918765872715,-1.8906062415748834,0.1304270817926619
1772732279388904400,2.341904541015625,-2.811854240775108,-1.6947955001831054,0.2597093957306817
1772732279398931700,2.351931640625,-3.5865509117931125,-1.5999123999178408,-0.04879220668976195
1772732279408959700,2.361959716796875,-4.3515883585840465,-0.575365646545589,0.3008235694726929
1772732279418987500,2.371987548828125,-4.7846483516931535,0.24668606536537407,0.3819312058310956
1772732279429014800,2.382014892578125,-4.677458143040537,0.6155787067294121,0.07860148049006238
1772732279439042600,2.39204248046875,-3.817756207171082,0.9033584145054221,-0.7098348342027515
1772732279449069800,2.40206982421875,-3.6708857300370927,0.22425006941258907,-0.09968534944783895
1772732279459097600,2.41209765625,-2.9641654476583,0.18729922589510678,-0.3768692097337916
1772732279469125600,2.422125732421875,-2.1584698272645473,1.2585682752147316,0.1478749049361795
1772732279479152600,2.432152587890625,-1.5991332322388887,0.5165270886078477,-0.5710897958572954
1772732279489180700,2.4421806640625,-1.0323007284998893,0.5005792856305837,-0.7697139872346073
1772732279499208700,2.452208740234375,-0.7505752061963081,0.6960761387676,-0.6011044834360479
1772732279509235700,2.462235595703125,-0.796939482486248,0.5464867580637336,-0.6193382053934038
1772732279519263500,2.472263427734375,-0.9768915604889392,0.6159291276022791,-0.6143913966409862
1772732279529290800,2.482290771484375,-0.7691016274899244,0.29573183582425117,-1.2131290778804569
1772732279539318500,2.492318603515625,-0.8772124581187963,1.5828952141433954,-0.9067369510278105
1772732279549346600,2.5023466796875,-0.8890566251695156,1.5627736326128243,-0.38660818466618657
1772732279559373600,2.51237353515625,-0.8060060015171766,0.7517761064186692,-0.1396962015904486
1772732279569401900,2.52240185546875,-0.37894203395247456,1.3165923018991947,-0.46713623103834684
1772732279579429600,2.5324296875,0.007846621847152709,1.5314260159298776,-0.11654445858374238
1772732279589456600,2.54245654296875,0.3321586554676294,1.3320035137817263,0.1737009817186743
1772732279599484700,2.552484619140625,0.5294067361861468,1.135100300978124,0.2400165244735777
1772732279609511700,2.56251171875,0.5865326449871063,1.2730281777217984,0.22658676873184738
1772732279619539700,2.572539794921875,0.5354372485220432,1.4861255694791673,0.10827098962664604
1772732279629567700,2.582567626953125,0.3118108639657497,1.693272528399527,0.1151134028673172
1772732279639594500,2.592594482421875,-0.07978489985466003,1.8246280410155653,0.20925708294212816
1772732279649622800,2.602622802734375,0.15688742875754833,1.8577698476389048,0.3122472095564008
1772732279659650600,2.612650634765625,0.24252105464041232,1.709607869389653,0.2709190277375281
1772732279669677800,2.622677734375,0.39268122096955776,1.228343232820928,-0.34214535808339713
1772732279679705600,2.63270556640625,1.017116603371501,1.3448665024861692,-0.6497064556501806
1772732279689733600,2.642733642578125,1.635041580966115,1.4442887074857949,-0.6455496282316744
1772732279699760600,2.6527607421875,2.4299726462393996,1.1258990496516228,0.08500343822054564
1772732279709788700,2.66278857421875,2.7769109376877545,0.8101178207501769,0.13922339644692838
1772732279719815700,2.672815673828125,2.8879215814113617,0.6234776432856917,0.10942279001027345
1772732279729843700,2.68284375,2.964157848873734,0.4208841098859906,0.2013816733919084
1772732279739871700,2.692871826171875,2.9376234776914116,0.20605974820554254,0.07025047105103731
1772732279749898800,2.702898681640625,2.918774984836578,0.018791209709644315,0.09142141550406813
1772732279759926500,2.712926513671875,2.891905682611465,-0.17437895404547452,0.1804958294905722
1772732279769954600,2.72295458984375,2.775514514893293,-0.2916203088521957,0.1988130650129169
1772732279779981600,2.732981689453125,2.5978379806071517,-0.38249446573704476,0.048486456075683235
1772732279790009900,2.743009765625,2.3883774840474126,-0.4087535271093249,-0.056177887361124154
1772732279800036600,2.75303662109375,2.1931062563598154,-0.4242351738795638,-0.1326529320154339
1772732279810064600,2.763064697265625,2.0491186411857605,-0.49102527534365653,-0.2778620518084615
1772732279820092700,2.7730927734375,1.9567524921774864,-0.5797443000212311,-0.45066330820843575
1772732279830119700,2.78311962890625,1.6965058112323284,-0.6461378033831715,-0.4445574656140059
1772732279840147700,2.793147705078125,1.1008283212810754,-0.6742682115852833,-0.3626127573769539
1772732279850174700,2.8031748046875,0.3624187691748142,-0.4529229237034917,-0.4473419087007642
1772732279860202500,2.813202392578125,-0.11552958245277405,-0.23183862484544515,-0.6332452232580632
1772732279870230800,2.823230712890625,-0.3221218300998211,-0.2920630841836333,-0.749330978288874
1772732279880257500,2.833257568359375,-0.30006080493927,-0.43738165570050475,-0.7278337975561618
1772732279890285800,2.843285888671875,-0.26704642408788204,-0.5707908859759568,-0.5700491276979446
1772732279900313600,2.853313720703125,-0.43008594573438164,-0.6747530724927783,-0.4780187865152955
1772732279910340600,2.863340576171875,-0.5303764580011368,-0.762082396377623,-0.33028957366012035
1772732279920368600,2.87336865234375,-0.5441349342405796,-0.8459723934635519,-0.2837836238771677
1772732279930396700,2.883396728515625,-0.5028197580337525,-0.9108461399123072,-0.30318419765681026
1772732279940423700,2.893423583984375,-0.3970850088864565,-0.9431333755329251,-0.3848200591403991
1772732279950451700,2.90345166015625,-0.28840660750269886,-0.9742714411184191,-0.4337681413784623
1772732279960478500,2.913478515625,-0.2859188823401928,-1.071703056822717,-0.37547304266765713
1772732279970506800,2.9235068359375,-0.4527104499965906,-1.1576268978238105,-0.27436266538538034
1772732279980534500,2.933534423828125,-0.7591063031762838,-1.177167464596033,-0.12344831968806683
1772732279990561800,2.943561767578125,-1.0496803178459406,-1.123160564598441,0.03866875335127115
1772732280000590300,2.95359033203125,-1.3177958324700594,-1.0175783756643533,0.22803134151697158
1772732280010618400,2.963618408203125,-1.653749204045534,-0.9975903573855757,0.30749095494002104
1772732280020645400,2.973645263671875,-1.9822931761473417,-1.087729185733199,0.23634105083122847
1772732280030673200,2.983673095703125,-2.211871162584424,-1.1444427143409848,0.2273509580373764
1772732280040700400,2.993700439453125,-2.3236767560780045,-1.170973578391969,0.2980949116937816
1772732280050728400,3.003728515625,-2.4383149426490065,-1.2150073659077285,0.44687209923192855
1772732280060756500,3.013756591796875,-2.635105927249789,-1.344154262563586,0.5701553645513951
1772732280070783500,3.023783447265625,-2.8853122756958007,-1.381396782504022,0.6979306805931031
1772732280080811300,3.033811279296875,-3.2556799580484626,-1.2215607330739497,0.8273685230195522
1772732280090839300,3.04383935546875,-3.7436966992259024,-0.9778291335999965,0.8193076738998294
1772732280100866300,3.0538662109375,-4.069860498192906,-0.6747910664156079,0.7293496820118278
1772732280110894300,3.063894287109375,-4.175717412415146,-0.31844898680597544,0.6984047278456389
1772732280120921300,3.07392138671875,-4.224191228204965,0.10526303998231887,0.7569907723270356
1772732280130949400,3.083949462890625,-4.268776804384589,0.4957575645625591,0.9311559374913573
1772732280140977400,3.093977294921875,-4.34301985220313,0.800926798556745,1.209092515840754
1772732280151004400,3.10400439453125,-4.35801459223926,1.0693915650099515,1.372163382473588
1772732280161032400,3.114032470703125,-4.2579444447249175,1.4202452763363718,1.4391115971088408
1772732280171060200,3.124060302734375,-3.853751065137982,1.722974423702061,1.3168293255254626
1772732280181087200,3.134087158203125,-3.0033325059205294,1.9818574150785802,1.088073322995752
1772732280191115300,3.144115234375,-1.794516103607416,2.1974138904258607,0.8357987169083207
1772732280201142300,3.154142333984375,-0.5291898785650729,2.305002158485353,0.533970829231292
1772732280211170600,3.164170654296875,0.6713175450861454,2.4198481425881386,0.35229061226174235
1772732280221198300,3.1741982421875,1.8535078062802552,2.4254054844543336,0.23866467147320508
1772732280231225300,3.184225341796875,2.8732939211219546,2.309979070115089,0.21438217087090014
1772732280241253400,3.19425341796875,3.6512183220148082,2.2073522238552568,0.1967054252091795
1772732280251281200,3.20428125,4.260857701823115,2.0605659178733826,0.1414656224157661
1772732280261308400,3.214308349609375,4.796670213398337,1.825889146992564,0.07689750785008072
1772732280271336200,3.224336181640625,5.162258844780921,1.5566320611178874,0.10314100632704794
1772732280281363200,3.23436328125,5.242328406795859,1.3401277835264802,0.19779248979352412
1772732280291391500,3.2443916015625,5.076330619865655,1.1917550851359964,0.21443945401608944
1772732280301419300,3.254419189453125,4.723323237636685,1.0637836620002985,0.2725581732466817
1772732280311446500,3.264446533203125,4.238793754053115,0.9766828861743211,0.3706668114297092
1772732280321474300,3.274474365234375,3.6640702048033473,0.9310478009417652,0.5281663807362318
1772732280331502300,3.28450244140625,2.7995892179638147,0.916326032628119,0.6889994783796369
1772732280341529300,3.294529296875,1.8817454742491244,0.9336410323053598,0.6016795068450271
1772732280351557400,3.304557373046875,1.2494126165956259,0.9676724812448024,0.43731677377074957
1772732280361584400,3.31458447265625,0.7355927411198615,1.0379761437878012,0.2874824783951044
1772732280371612400,3.3246123046875,0.16975275554955005,1.0625804236903786,0.1339829385101795
1772732280381640400,3.334640380859375,-0.23219839806854722,1.0213111324518918,-0.04742328382357955
1772732280391667500,3.34466748046875,-0.29560207196474075,0.9726239661723375,-0.1824900720477104
1772732280401695200,3.3546953125,-0.3262280963748693,0.9151406222358346,-0.3162712774407118
1772732280411723300,3.36472314453125,-0.45293782901167867,0.81853230561316,-0.4720995525341481
1772732280421750300,3.374750244140625,-0.5199895040214061,0.7026210303664207,-0.5259590068850666
1772732280431778300,3.3847783203125,-0.5766378584384918,0.6123571143344044,-0.4174297316484153
1772732280441805300,3.394805419921875,-0.7657955716818571,0.6098834176972509,-0.19545725177899
1772732280451833300,3.404833251953125,-0.9625620063632726,0.563181287755072,-0.12550320639126003
1772732280461861400,3.414861328125,-0.9817910229682921,0.5192956765383482,-0.19250607382319868
1772732280471888400,3.424888427734375,-0.6869324628472327,0.44479602361023424,-0.19934381088875233
1772732280481916400,3.43491650390625,-0.3033773821413517,0.34638036530464883,-0.07121493216902017
1772732280491944200,3.444944091796875,0.056712651824951166,0.19203209963589907,0.09600837796814739
1772732280501971200,3.45497119140625,0.32428339204788204,0.06094751291573047,0.31024836388938126
1772732280511999500,3.46499951171875,0.5993599778562784,-0.06752893713265656,0.48995077797994013
1772732280522027300,3.47502734375,0.8119400677412748,-0.17180881129652262,0.6297432795517146
1772732280532054500,3.485054443359375,0.9039110799521207,-0.2407569675773382,0.60799431601502
1772732280542082300,3.495082275390625,0.9755880766749382,-0.29464813224077224,0.5007487239133567
1772732280552109300,3.505109375,1.1077660115897654,-0.3515568911597132,0.463681998931244
1772732280562137300,3.515137451171875,1.3050035709142684,-0.46652270224988457,0.5042191034376621
1772732280572165400,3.525165283203125,1.4496078566819428,-0.5481710578888654,0.46593186021726574
1772732280582192400,3.5351923828125,1.501417538896203,-0.6068938804924487,0.43659974807519464
1772732280592220400,3.545220458984375,1.397320035561919,-0.660740036970377,0.42141028918456286
1772732280602248400,3.55524853515625,1.2927367945373058,-0.7390308988749981,0.40176136666703965
1772732280612275500,3.565275390625,1.2033283262908459,-0.8102224501684308,0.2941779209131375
1772732280622303200,3.57530322265625,1.0126128622114658,-0.8494865390643477,0.18717103293817489
1772732280632330500,3.58533056640625,0.9271475786328315,-0.8918015399634838,0.16844461382674053
1772732280642358300,3.595358154296875,0.8098357889384031,-0.9430731697782874,0.14754932624362407
1772732280652386300,3.60538623046875,0.5625023655802012,-1.0151900192230938,0.13694027221212163
1772732280662413300,3.615413330078125,0.33659342304468154,-1.0537573580265045,0.16269649862879887
1772732280672441300,3.62544140625,0.19416998844742775,-1.175501869471371,0.02454582771360874
1772732280682469400,3.635469482421875,0.29011048881113527,-1.397465873773396,-0.044540056537464255
1772732280692496400,3.645496337890625,0.0015367080479860304,-0.6411304966151714,0.9139605456057935
1772732280702524400,3.6555244140625,-0.5678408039987087,-0.8609490133211016,0.9975459337219595
1772732280712551400,3.665551513671875,-0.9557488192170858,-1.1754691362455487,0.8764842899747193
1772732280722579200,3.6755791015625,-1.1733189724743365,-0.964446797196567,1.0109583730027079
1772732280732607500,3.685607421875,-1.3596055141955614,-0.6526093374848365,1.2061764091983438
1772732280742634200,3.69563427734375,-1.534860958814621,-0.640308658838272,1.067949622573331
1772732280752662500,3.70566259765625,-1.2705810768306254,-1.0373691178053617,0.5409525778774171
1772732280762690300,3.715690185546875,-0.5065653743028641,-0.8016714794442057,0.5066646699588746
1772732280772717300,3.72571728515625,0.11249649836719035,-1.0270827015906572,0.3269609406940639
1772732280782745300,3.735745361328125,0.5664046337157488,-1.2496125230818986,0.2558936733674258
1772732280792772400,3.7457724609375,0.45662733117938037,-1.0450921132728457,0.31007063270229845
1772732280802800400,3.75580029296875,-0.1833481501817703,-0.7352753457337617,0.38664734763279557
1772732280812828400,3.765828369140625,-1.2114701316922902,-0.2774778017312288,0.46550654747728254
1772732280822855200,3.775855224609375,-2.121640272039175,0.25329116271883245,0.526391699213907
1772732280832883500,3.785883544921875,-2.6312989361822603,0.7076908809766173,0.45418059561438856
1772732280842911200,3.7959111328125,-2.7366531615793703,0.9804673731490969,0.33104996357336636
1772732280852938500,3.8059384765625,-2.4841268457531926,1.0536004138991235,0.13632873445134608
1772732280862966300,3.81596630859375,-2.047108470407128,1.0305740508377552,-0.0852093908551149
1772732280872993300,3.8259931640625,-1.5727771402329205,0.972831763704121,-0.3178642457205802
1772732280883021300,3.836021240234375,-1.0779799451351164,0.8523740771993994,-0.4561695774745196
1772732280893049300,3.84604931640625,-0.5716565628945827,0.6744093736216425,-0.48022345695272084
1772732280903076400,3.856076416015625,-0.1565180109232664,0.46304245891869067,-0.4297777565680444
1772732280913104400,3.8661044921875,0.11465747579336166,0.37223552205115557,-0.35086901849340646
1772732280923132400,3.87613232421875,0.23261048600077627,0.38099487482905386,-0.22861737951030953
1772732280933159400,3.886159423828125,0.32048166167736053,0.4586912779718637,-0.13219801872163078
1772732280943187200,3.896187255859375,0.3125426853716373,0.59476914293468,-0.10201363713177852
1772732280953214500,3.90621435546875,0.19393910230100153,0.7118658285737037,-0.08019573654471897
1772732280963242200,3.9162421875,-0.009594342297315596,0.8301730590462684,-0.07857535053496248
1772732280973270500,3.9262705078125,-0.10045534743964671,0.9597484102472662,-0.052371243353467434
1772732280983297300,3.93629736328125,-0.0009019172757863998,1.1062439165890217,-0.12129567169882356
1772732280993325300,3.9463251953125,0.26610826645493507,1.20494277575016,-0.12338040555100888
1772732281003352800,3.956352783203125,0.470281762522459,1.2858426511093974,-0.013325975706847383
1772732281013379800,3.9663798828125,0.29693478187322614,1.3429419641643763,0.0023427454675547777
1772732281023407900,3.976407958984375,-0.17185294269919393,1.3379004628658293,-0.019744647110113873
1772732281033435000,3.986434814453125,-0.5381061754703521,1.2913605377480386,-0.08663500321144238
1772732281043463000,3.996462890625,-0.7105161675304174,1.1647285465225576,-0.20971063539590684
1772732281053491000,4.006490966796875,-0.7060211941987276,1.0324103263542055,-0.33126192582361397
1772732281063517700,4.016517578125,-0.4263654639065265,0.9318535643666982,-0.4326436673931777
1772732281073546000,4.0265458984375,0.08360825753509998,0.8289812189131974,-0.5312578074129298
1772732281083573800,4.03657373046875,0.6488485236465931,0.7359735571309923,-0.4814268779257312
1772732281093601000,4.04660107421875,1.0421990221798418,0.6185132988765836,-0.43716081602405754
1772732281103628800,4.05662890625,1.309465226498246,0.49187663147598504,-0.43031387273874133
1772732281113656800,4.06665673828125,1.5839952843397855,0.35472499980181454,-0.34165209467373786
1772732281123683800,4.076683837890625,1.75916714232862,0.2069645880907774,-0.3432839336592704
1772732281133712000,4.0867119140625,1.942429952314496,0.041516836258769035,-0.3952523135665804
1772732281143739000,4.09673876953125,2.096798091727495,-0.08633154501914977,-0.45127033419087526
1772732281153767000,4.106766845703125,2.1896073083281515,-0.23170447707176206,-0.4506899770196527
1772732281163794700,4.116794677734375,2.17905376560986,-0.35526714385449887,-0.37895003459583965
1772732281173822000,4.126822021484375,2.0917302869439123,-0.4380079709053039,-0.3403476244790479
1772732281183849700,4.136849609375,2.0154139399826527,-0.5124298824220895,-0.3626790640788153
1772732281193878000,4.1468779296875,1.932804630357027,-0.5563716077402234,-0.4602163686472922
1772732281203904800,4.15690478515625,1.7564596369355916,-0.5608469995886087,-0.5385531155202538
1772732281213933000,4.16693310546875,1.570443144327402,-0.572483953629434,-0.5728367125898599
1772732281223959800,4.176959716796875,1.4748966117173432,-0.5224246222138405,-0.5716265330825001
1772732281233987800,4.18698779296875,1.404243112823367,-0.45600803023725744,-0.5929475169980898
1772732281244015900,4.197015869140625,1.2026298226326704,-0.3968824720516801,-0.6373442560747266
1772732281254043000,4.20704296875,1.0225316141575573,-0.3169192930206656,-0.7000554176621139
1772732281264071000,4.21707080078125,0.8999614655435085,-0.19458178411871194,-0.7703405216351151
1772732281274099000,4.227098876953125,0.8190718193173409,-0.11009762053191662,-0.811182527372241
1772732281284125700,4.237125732421875,0.7789578355938196,-0.1531494112730026,-0.8094728008449077
1772732281294154000,4.247154052734375,0.8252274193376302,-0.24059184014350174,-0.686005118869245
1772732281304180700,4.2571806640625,0.8152788567751645,-0.27668986622393127,-0.6507519461151212
1772732281314209000,4.267208984375,0.6933399918019771,-0.3137970693469047,-0.6454295089833438
1772732281324236800,4.27723681640625,0.4646329429805279,-0.31401568053364753,-0.6280185746509581
1772732281334263800,4.287263916015625,0.15713409699499606,-0.29917466975450513,-0.5786453623360023
1772732281344291800,4.297291748046875,-0.10172551350593566,-0.31082623684257266,-0.4810459523167461
1772732281354320000,4.30731982421875,-0.20157588078975677,-0.3454850239001214,-0.4368824009414762
1772732281364347000,4.317346923828125,-0.17905600594580173,-0.38284664017558095,-0.3432903634000569
1772732281374375000,4.327375,-0.6125520523846149,-0.2551876439899206,-0.30760237942524254
1772732281384402000,4.33740185546875,-1.7528543059200048,-0.03892492006942629,-0.35894225217066705
1772732281394430000,4.347429931640625,-2.832649191522598,0.24878420668840406,-0.35266930938102303
1772732281404457700,4.357457763671875,-3.2772248503804207,0.44627179525122046,-0.39562399642318485
1772732281414485000,4.367485107421875,-3.288613090357184,0.3516334635272622,-0.3487121692530811
1772732281424512800,4.3775126953125,-2.9037884281069037,0.13767039485126734,-0.08034910960868001
1772732281434541000,4.387541015625,-2.164033891132474,0.04595364966243505,0.04337598119415342
1772732281444567800,4.39756787109375,-1.4022048849940298,-0.19258505734354256,-0.004945128251984715
1772732281454595800,4.407595947265625,-0.8083370748132467,-0.4338365304395556,0.05788125721290707
1772732281464622800,4.417622802734375,-0.4189356061667204,-0.6103685708656906,0.2611608731806278
1772732281474651000,4.42765087890625,-0.3534381748616695,-0.8445417761385441,0.5966453120701015
1772732281484679000,4.437678955078125,-0.4852180503696203,-1.0679182775869964,1.045245038812235
1772732281494706000,4.447705810546875,-0.7378110016912222,-1.1224547544166446,1.5931024276420473
1772732281504733700,4.457733642578125,-1.0900807172954081,-1.1007903273582458,2.127230054870248
1772732281514762000,4.467761962890625,-1.4867863714754581,-1.04551296903342,2.6033628815084695
1772732281524788700,4.477788818359375,-2.01178172096014,-0.8093123495861887,2.8326147047311068
1772732281534817000,4.487817138671875,-2.7125369574546814,-0.4459997003115713,2.7776439281374214
1772732281544844000,4.497843994140625,-3.393035003340244,-0.05824950600340962,2.5397563785165547
1772732281554871800,4.507871826171875,-3.873507320487499,0.37260859314724804,2.19571395464018
1772732281564899800,4.51789990234375,-4.046101436942815,0.8361785830713808,1.755981498029828
1772732281574926800,4.5279267578125,-3.9118712456732987,1.2066846509814262,1.285035718640685
1772732281584955000,4.537954833984375,-3.4453479589015243,1.404108234397322,0.9546267563845962
1772732281594983000,4.54798291015625,-2.6134230877518654,1.448500626092404,0.8014253226634115
1772732281605010000,4.558010009765625,-1.5535937163352966,1.4191985437624155,0.709063922895491
1772732281615038000,4.568037841796875,-0.4868558807045221,1.3893687842965126,0.650942134924978
1772732281625065000,4.57806494140625,0.45858606403172014,1.3948293877899647,0.6195470989037305
1772732281635093000,4.588093017578125,1.2865028685837983,1.3851226711593567,0.5851801343996077
1772732281645120800,4.598120849609375,1.9916624775171279,1.3068281559929251,0.5746339712701738
1772732281655147800,4.608147705078125,2.4978712934672833,1.225202304446697,0.5715012992676347
1772732281665175800,4.61817578125,2.7610551969081163,1.1380509674772619,0.6384427919011563
1772732281675203800,4.628203857421875,2.8905232883423566,1.0824582595929504,0.716174485553056
1772732281685230800,4.63823095703125,2.951258035290241,1.0473626885533331,0.8390996581498533
1772732281695259000,4.6482587890625,2.9763246720075607,1.0317188369587063,1.0390748257447033
1772732281705287000,4.658286865234375,2.8819465986549853,1.0130325489282608,1.2746085787810384
1772732281715314000,4.66831396484375,2.7783669817149637,0.9716399235710501,1.5284443697705865
1772732281725341700,4.678341796875,2.7286124784648416,0.9698048170983791,1.8427669242963194
1772732281735369000,4.688368896484375,2.5018133090913293,1.0387047503232956,2.0181281673774123
1772732281745396700,4.698396728515625,2.010406925475597,1.1664824044525623,1.9954335204884408
1772732281755425000,4.708425048828125,1.3996452636390924,1.3537196710273622,1.7646159092538058
1772732281765452000,4.7184521484375,0.8143155647009611,1.5816843770489095,1.3795558308124543
1772732281775479800,4.728479736328125,0.25030104099214073,1.7376272184327244,0.8798276821184903
1772732281785507000,4.738507080078125,-0.08501344815790653,1.7736136008322239,0.41828956334814427
1772732281795534800,4.748534912109375,-0.01318272217810154,1.7227330161616206,0.05971110298857093
1772732281805563000,4.75856298828125,0.39049335553646086,1.5589824236363172,-0.18546470394432543
1772732281815590000,4.76858984375,0.9836310978770255,1.226043723706901,-0.38486769767440854
1772732281825617700,4.77861767578125,1.6123334900736808,0.8954726296916603,-0.5332324684867635
1772732281835646000,4.78864599609375,1.946491794925928,0.6942414706863462,-0.6183961022377014
1772732281845673000,4.7986728515625,1.6944091312140226,0.5332504060022533,-0.8187344040565192
1772732281855701000,4.808700927734375,1.2341349679648876,0.3026740561775863,-0.9808535959877073
1772732281865728800,4.818728759765625,0.9929898778527975,0.1018142147026956,-0.985297569784522
1772732281875755800,4.828755859375,0.8655074072778225,-0.09710384505465626,-0.9316893867809325
1772732281885783800,4.83878369140625,0.7442296365618706,-0.28611849656552074,-0.7227681116644292
1772732281895810800,4.848810791015625,0.5450549716949462,-0.41970732119157905,-0.5328660097945481
1772732281905838800,4.8588388671875,0.2111076792448759,-0.5024960790373385,-0.5071435029843822
1772732281915867000,4.868866943359375,-0.05920505316257477,-0.585108457402885,-0.5493533264759928
1772732281925894000,4.878893798828125,-0.02895896798074245,-0.7294795189365744,-0.589897079918906
1772732281935922000,4.888921875,0.1940320412814617,-0.8678874342821538,-0.6176218299295753
1772732281945949700,4.89894970703125,0.6923515652865171,-1.02688133379966,-0.2505408045647666
1772732281955977000,4.90897705078125,1.089036761200428,-1.2714546447947621,-0.16059837557207793
1772732281966004700,4.919004638671875,1.313993517577648,-1.4838053098380566,-0.007776054528704844
1772732281976031700,4.92903173828125,1.3719441867649553,-1.6384698018491268,0.19119754850789902
1772732281986060000,4.93906005859375,1.3364713068455456,-1.770993919853121,0.24043175421096383
1772732281996087800,4.949087890625,1.4155179555535315,-1.7781247946463525,0.5059322274984791
1772732282006115000,4.959114990234375,1.438775497022271,-1.7602580063052475,0.5388222147852182
1772732282016143000,4.96914306640625,1.3559960915267466,-1.792328238174319,0.47921420684494076
1772732282026171000,4.9791708984375,1.27489952455163,-1.7881369239643214,0.6585540712334216
1772732282036198100,4.9891982421875,1.1910334928631783,-1.8204912334717809,0.7002307742290198
1772732282046226000,4.999225830078125,1.102305992618203,-1.8467888732887803,0.6767096864532679
1772732282056253200,5.009253173828125,1.030522028389573,-1.8798460703685878,0.64034051528126
1772732282066281000,5.019281005859375,1.065942301338911,-1.8892296925246714,0.6283323167752474
1772732282076309000,5.02930908203125,1.1163690047621726,-1.8885589536562561,0.5843291070608422
1772732282086336300,5.039336181640625,1.092556167498231,-1.8822557618588207,0.5325225666517391
1772732282096364000,5.049364013671875,0.8963923748850822,-1.8604511956773697,0.580330977335386
1772732282106392000,5.05939208984375,0.3657207333296537,-1.7701959013432262,0.5515094815965742
1772732282116419000,5.069419189453125,-0.35327860038578507,-1.5240340059824287,0.44081784069426355
1772732282126447000,5.079447021484375,-1.0420786106705664,-1.1640398336060345,0.2855305588760413
1772732282136474000,5.08947412109375,-1.8701485599577425,-0.9239422067202627,0.2857456263988279
1772732282146502100,5.099502197265625,-2.614413852354884,-0.8093301775038242,0.28419973039738833
1772732282156530200,5.1095302734375,-2.991231149238348,-0.8595395849145948,0.21042369730239732
1772732282166557200,5.11955712890625,-2.94792099982202,-0.9756700558699667,0.1776499202738516
1772732282176585200,5.129585205078125,-2.4896353800415993,-1.0449874838545918,0.21822319207219407
1772732282186613000,5.139613037109375,-2.2178823856979606,-1.0813355391733348,0.1292869627136737
1772732282196640000,5.149639892578125,-2.199604970729351,-1.19566918983981,0.07972789983726106
1772732282206668000,5.15966796875,-2.372629295295477,-1.2362139661960303,0.22015713754314928
1772732282216695000,5.169695068359375,-2.946756047695875,-1.0916133336901663,0.2818027522582561
1772732282226723000,5.17972314453125,-3.933423152267933,-0.6599807430356741,0.15963457204122095
1772732282236751000,5.189751220703125,-4.983171859174966,0.002688508431613445,-0.03957748396033421
1772732282246778000,5.199778076171875,-5.708450127029419,0.6224516612388193,-0.3308328136913478
1772732282256806100,5.20980615234375,-5.904224628064036,1.0927667415089906,-0.5910078176397829
1772732282266834000,5.219833984375,-5.4118140358418225,1.272250032956153,-0.6225831786639988
1772732282276861200,5.229861083984375,-4.341936148619651,1.2110475223660468,-0.4148853809278458
1772732282286889000,5.239888916015625,-3.055298840001225,1.0013893112771213,-0.2282019305772148
1772732282296916000,5.249916015625,-1.9267741180211304,0.8247671083495021,-0.15255528130475432
1772732282306944300,5.2599443359375,-1.1606921306133269,0.8468651045195758,-0.28620542593030257
1772732282316972000,5.269971923828125,-0.6557610795140266,0.9532188623480499,-0.6030453518381342
1772732282326999300,5.279999267578125,-0.279614813759923,1.0930423435799776,-0.9631143795490265
1772732282337027000,5.290027099609375,0.12470949873030185,1.2080458563320338,-1.1407873336385934
1772732282347055000,5.30005517578125,0.5550754304498434,1.288269585995376,-1.236217619457841
1772732282357082000,5.31008203125,0.9650970777988434,1.3394414086975157,-1.2897734146870672
1772732282367110000,5.32010986328125,1.35378893687129,1.3451209156386554,-1.393244602816552
1772732282377137200,5.33013720703125,1.5228841052949427,1.3774490677915512,-1.5377508350372313
1772732282387164200,5.3401640625,1.5490239242017267,1.4159896647185086,-1.7272376341044902
1772732282397192000,5.35019189453125,1.531451442632079,1.3795079000175,-1.7899530334755778
1772732282407219200,5.36021923828125,1.5437842699825763,1.3484212723582982,-1.7951671148620545
1772732282417247000,5.3702470703125,1.47100486497581,1.3285758774206042,-1.889495065462589
1772732282427275300,5.380275146484375,1.340558868420124,1.3155834171175955,-1.9806912939086556
1772732282437302000,5.390302001953125,1.1306816077530384,1.3842553868055343,-2.0220861112229525
1772732282447330000,5.400330078125,0.7841343614488839,1.3410823077723384,-2.0511014855660497
1772732282457358000,5.410358154296875,0.4138508502483368,1.2830971517935394,-1.9609687946982681
1772732282467385000,5.420385009765625,0.05850070428550243,1.271896543343365,-1.8181962544023988
1772732282477413000,5.4304130859375,-0.20992051528692243,1.2441019429668783,-1.697138556177914
1772732282487441200,5.440441162109375,-0.28483342519104476,1.2005123920872807,-1.5342203228235243
1772732282497468000,5.450468017578125,-0.20484920337200163,1.1226391710728407,-1.3923345022343099
1772732282507496200,5.46049609375,-0.03248305045366287,1.0410925222426652,-1.2667086193114518
1772732282517523000,5.47052294921875,0.28335341576635836,0.911107713457942,-1.2084369745414703
1772732282527551200,5.48055126953125,0.6464683505117893,0.8398486498862504,-1.1657660728767514
1772732282537579000,5.4905791015625,0.8841016331106424,0.796163529677689,-1.0931345519080757
1772732282547606000,5.50060595703125,0.971006009581685,0.7106894782707095,-0.9866457695230841
1772732282557634000,5.510634033203125,1.011366661542654,0.641901480987668,-0.9714348294530063
1772732282567661000,5.5206611328125,1.1100345410436392,0.6687023941516875,-0.9962818320702761
1772732282577689000,5.530689208984375,1.2383026090383529,0.6509148085266351,-1.0110497045479714
1772732282587717000,5.540717041015625,1.385520292174816,0.6122916478827596,-1.0440862241659312
1772732282597743900,5.550743896484375,1.5678502052247523,0.5982093465164303,-1.1807925232253969
1772732282607772200,5.560772216796875,1.766609859549999,0.5786044823363423,-1.2689260030999778
1772732282617800000,5.570800048828125,1.8650497755140065,0.5764034651607275,-1.3465813435800373
1772732282627827200,5.5808271484375,1.8219067993581295,0.5599176097840071,-1.458512024758011
1772732282637855000,5.59085498046875,1.7480811001688241,0.5475105481535196,-1.493603065752983
1772732282647882000,5.600882080078125,1.6694330953896044,0.5032777309343218,-1.471633518268168
1772732282657910000,5.610909912109375,1.5935849504619837,0.3989458343222737,-1.4417742404468357
1772732282667938000,5.62093798828125,1.5719307525366544,0.2798670349553227,-1.3939403299957513
1772732282677965000,5.630965087890625,1.5622282736897468,0.20802491079866886,-1.3253542850255966
1772732282687993000,5.6409931640625,1.5598235506355762,0.10663257476985454,-1.2515610268011688
1772732282698021000,5.651021240234375,1.6141583674132822,-0.03139554747790098,-1.0924557758636773
1772732282708048100,5.661048095703125,1.5438099889457224,-0.13136983340233563,-0.9882546660244464
1772732282718076000,5.671075927734375,1.3466215294599533,-0.23789719423204658,-0.8912078118540346
1772732282728104200,5.681104248046875,1.1535048494577407,-0.32267508006840945,-0.7383187320176512
1772732282738131000,5.691130859375,1.0006874466180802,-0.33859044208079575,-0.6866107566121965
1772732282748159200,5.7011591796875,0.7534457931965589,-0.30936595503166314,-0.6694725017413496
1772732282758187000,5.71118701171875,0.4620511097937822,-0.31296982474252577,-0.5425313715014607
1772732282768214000,5.721214111328125,0.21089783588647842,-0.31048925997316834,-0.4446763427533209
1772732282778242000,5.731241943359375,-0.036516251492500304,-0.2948464312918484,-0.42665991680845616
1772732282788270000,5.74127001953125,-0.27861294324100017,-0.3190706258356571,-0.41213681287206705
1772732282798297000,5.751297119140625,-0.6420464424163103,-0.3926476109609008,-0.3645682022936642
1772732282808325000,5.7613251953125,-0.9489835628658533,-0.4279511256627738,-0.2519754404777661
1772732282818353200,5.771353271484375,-1.1275596763402222,-0.4690646418176591,-0.23162830656301228
1772732282828380200,5.781380126953125,-1.333566817575693,-0.5475494188591837,-0.006254530350118875
1772732282838408000,5.791407958984375,-1.4840537316411733,-0.7053222521491348,0.30836832229644057
1772732282848436200,5.801436279296875,-1.7601064690053463,-0.7023331533357501,0.3941834787586704
1772732282858463000,5.811462890625,-2.574040340912342,-0.5479774350129067,0.6421005106911063
1772732282868491300,5.8214912109375,-3.7831484196484086,-0.38641105465888975,0.8246968926575035
1772732282878518000,5.83151806640625,-4.52745170596838,-0.10299860218167305,0.9951444986034184
1772732282888546000,5.841546142578125,-4.621830948364734,0.18597966772913932,0.6961383172836154
1772732282898574000,5.851573974609375,-3.8949499214887617,0.260256033295393,0.21003301748437805
1772732282908601000,5.86160107421875,-2.7718858030021187,0.13953443515747785,-0.13489329482074827
1772732282918629000,5.871629150390625,-2.065993203619122,-0.07321721190214156,-0.15908453694302588
1772732282928657200,5.8816572265625,-2.036482446974516,-0.11341332095116376,0.2132807855002582
1772732282938684000,5.891683837890625,-2.1002923635840416,-0.5492644060835242,0.37495537546910346
1772732282948712200,5.901712158203125,-1.5721405958950518,-1.6035069172784686,-0.02051028858721256
1772732282958739000,5.911739013671875,-1.1915572244763373,-1.511167948538065,0.3622621173083782
1772732282968767200,5.921767333984375,-0.717947194314003,-1.357092070069909,0.4019021268445998
1772732282978795000,5.931794921875,-0.4342483261108398,-1.134421378803253,0.2906158079847693
1772732282988822000,5.941822021484375,-0.47987435125410555,-1.0319090988337993,0.23207886334210634
1772732282998850000,5.95185009765625,-0.9491068969845772,-0.9203221165269613,0.48310887619592247
1772732283008877800,5.9618779296875,-1.2046896777719258,-0.849698428249359,0.6065935823716223
1772732283018904800,5.97190478515625,-1.1623065800726413,-0.5819616838097572,0.7760392447333783
1772732283028932900,5.981932861328125,-1.2590548896878957,-0.25457448052763937,0.7125543953597545
1772732283038959600,5.991959716796875,-1.387465581023693,0.12879589126110075,0.49283188637420533
1772732283048988000,6.00198779296875,-1.4094640623420476,0.5772378701582551,0.21569617607891559
1772732283059015700,6.012015625,-1.3040256657928229,0.9754685419484972,-0.11815868884734809
1772732283069043000,6.02204296875,-1.0951917766988277,1.3294699036508797,-0.39227475906051695
1772732283079070700,6.03207080078125,-0.723307260042429,1.69733261744529,-0.5562375330317765
1772732283089099000,6.04209912109375,-0.2958043165385723,2.0090487888649107,-0.7195791063647717
1772732283099125800,6.052125732421875,0.025379940450191495,2.218318146766722,-0.8088648980796337
1772732283109153800,6.06215380859375,0.300726575371623,2.3047826705157757,-0.6747783530645072
1772732283119181800,6.072181884765625,0.7952338476121426,2.340480006840825,-0.542204660297744
1772732283129208800,6.082208740234375,1.3245266020298003,2.267529044659436,-0.3867044481148943
1772732283139236900,6.09223681640625,1.8652841687917707,2.1012997870609165,-0.1747351836046204
1772732283149264000,6.102263916015625,2.4022417587488887,1.9022589777067302,0.08584843767732381
1772732283159291600,6.112291748046875,2.8441923298001286,1.6752660393267869,0.26908392126485703
1772732283169320000,6.12231982421875,3.0752146698266265,1.420964822782576,0.5966756706757471
1772732283179346700,6.1323466796875,3.0340093837350604,1.1744886007755995,0.9302872648980468
1772732283189375000,6.142375,3.0647049662500616,0.95980657017529,1.1008357739351688
1772732283199402800,6.15240283203125,3.1021757419884204,0.7932160780489445,1.255716831306368
1772732283209429800,6.1624296875,3.01017550368309,0.6931310252264141,1.2477584196478129
1772732283219457800,6.172457763671875,2.73993583651185,0.6213309866458178,1.1834860731583088
1772732283229484800,6.18248486328125,2.300251456826925,0.610049129652977,0.9732659173376857
1772732283239512800,6.192512939453125,1.7477777333080768,0.6803209357529878,0.6421445690285414
1772732283249540900,6.202540771484375,1.244973172843456,0.7915019676074385,0.26206761276200413
1772732283259567600,6.212567626953125,0.8462468264907598,0.9055874887317419,-0.096558075139625
1772732283269596000,6.222595947265625,0.5991641630232334,0.9223483616575598,-0.4111413720939308
1772732283279623700,6.232623779296875,0.4748474630028009,0.9159607064470648,-0.6550099688857793
1772732283289651000,6.24265087890625,0.4056418248295784,0.8738675316050648,-0.8672568082284182
1772732283299678700,6.2526787109375,0.4795791676998138,0.7876067137345671,-1.0630935608442873
1772732283309705700,6.262705810546875,0.5992699614852667,0.658688365137577,-1.161754718343541
1772732283319733800,6.272733642578125,0.7173322772860526,0.5044739549815654,-1.2188856686457992
1772732283329761800,6.28276171875,0.8986544745981693,0.3153136113896966,-1.2161892691686749
1772732283339788800,6.292788818359375,0.9874825126081704,0.09403028282821178,-1.0273738665569574
1772732283349816800,6.30281689453125,0.954364671382308,-0.10884849725365638,-0.7565222780324519
1772732283359844900,6.312844970703125,1.0647533838152885,-0.26044220351725816,-0.5671059503855184
1772732283369872000,6.322871826171875,1.0170441226571798,-0.39895489441156384,-0.42492224282827223
1772732283379899600,6.332899658203125,0.8411375206530094,-0.5484425683066249,-0.2627275379754603
1772732283389927000,6.342927001953125,0.7712053217709064,-0.6423579925835132,-0.0853146413278766
1772732283399954700,6.35295458984375,0.7788882774889468,-0.7263458970859646,0.03242802776421886
1772732283409983000,6.36298291015625,0.8658668882399797,-0.803485543128848,0.16384376896778122
1772732283420009700,6.373009765625,0.8109732685357331,-0.8375801204323768,0.31264278474524615
1772732283430037800,6.383037841796875,0.5912281093269586,-0.8457686875849961,0.277859439726267
1772732283440065800,6.393065673828125,0.31818858230412006,-0.8410381519317627,0.27453349190764126
1772732283450092800,6.4030927734375,0.09389584279358386,-0.819144007770717,0.3877422301974147
1772732283460120800,6.413120849609375,-0.13722761951982973,-0.7826762715950608,0.3678540555639192
1772732283470147800,6.42314794921875,-0.18493161998093127,-0.7897764589890838,0.3237530845634639
1772732283480175600,6.433175537109375,-0.12360709044635296,-0.8058665930464863,0.26669140010513365
1772732283490204000,6.443203857421875,-0.10954407830238341,-0.8427991702549159,0.2302555751713924
1772732283500231000,6.45323095703125,-0.12299860315918922,-0.8634938754983246,0.17985071825375779
1772732283510259000,6.463259033203125,0.010270049601793289,-0.9128238697260618,0.17769593310635537
1772732283520286700,6.47328662109375,0.17747253614664077,-1.0450012201189993,0.31215679132658986
1772732283530313700,6.483313720703125,0.36655192345678805,-1.207510142020136,0.40391624314598734
1772732283540341800,6.493341796875,0.5257827004700899,-1.3131728488445282,0.5095551307033747
1772732283550369800,6.503369873046875,0.5933984391033649,-1.3901583272390068,0.5317083641920238
1772732283560396800,6.513396728515625,0.6848287685662507,-1.4652473243623971,0.46998361982610076
1772732283570424800,6.5234248046875,0.8243114735364914,-1.5452181021779774,0.4770232361393049
1772732283580451800,6.533451904296875,0.8374111936062574,-1.6667679678335785,0.5426175519475713
1772732283590480000,6.54347998046875,0.9397814347565173,-1.7967663667522369,0.6546440581828356
1772732283600507600,6.553507568359375,1.068430026501417,-1.9219041738972067,0.686128160727024
1772732283610535000,6.563534912109375,1.0841665248155594,-1.939198861438781,0.675471084569022
1772732283620562700,6.573562744140625,0.9357201766669749,-1.8716902364417909,0.6483120786823332
1772732283630591000,6.583591064453125,0.6381693087220192,-1.6931974173367021,0.5706325170764699
1772732283640617700,6.59361767578125,-0.09312193581163883,-1.388782508841157,0.5664136207398027
1772732283650645800,6.603645751953125,-1.429334883981943,-0.9438663659825921,0.4527132995408028
1772732283660673000,6.613673095703125,-2.8716064064264297,-0.6522543865673244,0.2912447900706902
1772732283670700800,6.62370068359375,-4.0735277885288,-0.5681240048542618,0.1967465244045481
1772732283680728800,6.633728759765625,-4.894584644183516,-0.5045796073131263,0.30821576208323237
1772732283690755800,6.643755859375,-5.323456537953019,-0.42480332915633917,0.4783320171829313
1772732283700783600,6.65378369140625,-5.399242139038443,-0.4167154458992183,0.693983550402522
1772732283710812000,6.66381201171875,-5.2996933850497,-0.3703969084471464,0.8596344235911965
1772732283720839000,6.6738388671875,-5.119885683953762,-0.2245662957549095,0.8146466232862323
1772732283730867000,6.683866943359375,-4.9689066024571655,-0.11992650223746895,0.7499072438068688
1772732283740894700,6.693894775390625,-4.7888621699959035,-0.022510960885137318,0.8509954092573374
1772732283750921700,6.703921630859375,-4.509793299680948,0.09315174642801284,0.9614929888922721
1772732283760949800,6.71394970703125,-4.216496582049131,0.1954436616450548,0.9214214560709894
1772732283770976800,6.723976806640625,-3.833987795525789,0.28025223488062617,0.8081280351724475
1772732283781004800,6.7340048828125,-3.3975761539012193,0.3621250469252467,0.6868368204530328
1772732283791032800,6.74403271484375,-2.8245985715359447,0.42456630553007124,0.6147706782821566
1772732283801059800,6.754059814453125,-2.180003029158711,0.47843233575224875,0.5279202604880556
1772732283811088000,6.764087890625,-1.6664391742706297,0.47193683625310656,0.4240097310932353
1772732283821115600,6.77411572265625,-1.3414070096820592,0.3842085761785507,0.4741884145721793
1772732283831143000,6.784142822265625,-1.2674141372323036,0.37772885877043005,0.4562781524155289
1772732283841170700,6.794170654296875,-1.2516308771669864,0.4953370010629296,0.2713239370102994
1772732283851197700,6.80419775390625,-1.2243220144808291,0.7079960014030336,0.10401413589976727
1772732283861225700,6.814225830078125,-1.3190192367851734,0.8672589271202683,0.03731616969853639
1772732283871253800,6.824253662109375,-1.4948708937317132,1.0672639053314923,0.03398322588354349
1772732283881281000,6.834281005859375,-1.6350123548716307,1.3117287875160575,0.014173870373610406
1772732283891308800,6.844308837890625,-1.6456950769275427,1.4470064420118927,0.018876677769701925
1772732283901336800,6.8543369140625,-1.5215683465212582,1.5483739358603954,0.0002883702210150659
1772732283911363800,6.86436376953125,-1.3394587982237338,1.64524294924587,-0.02712223580656573
1772732283921391600,6.8743916015625,-1.2005804888874292,1.737053802458942,-0.08073639189321548
1772732283931419000,6.8844189453125,-0.9980535909831524,1.8612568129718303,-0.18176471691522747
1772732283941446700,6.89444677734375,-0.7604162167310714,1.9945348180830478,-0.25708792465329167
1772732283951475000,6.904474853515625,-0.5451677844196557,2.1164991097584367,-0.40944914469067006
1772732283961502000,6.914501953125,-0.3070674688309431,2.2213906860798596,-0.5940486831730232
1772732283971529700,6.92452978515625,-0.008021978414058686,2.2768735038489103,-0.7077986522000282
1772732283981557800,6.934557861328125,0.3318009280711412,2.3080089390859007,-0.7591213546149432
1772732283991584800,6.944584716796875,0.7584551457911729,2.2780217971011996,-0.8116588396470993
1772732284001612800,6.95461279296875,1.2538590746104716,2.207711704817414,-0.8043537773307412
1772732284011640300,6.964640380859375,1.6994710907787083,2.1320257647141814,-0.8050413942687213
1772732284021668000,6.974668212890625,2.0580121417373416,2.092225376984477,-0.8841865349151193
1772732284031696400,6.9846962890625,2.3211755869120356,2.0052438436239957,-0.9960158015452325
1772732284041723100,6.99472314453125,2.5878262896806,1.9572180638626218,-1.1046152194086463
1772732284051751200,7.004751220703125,2.7885692267775535,1.9310411278158426,-1.2030319736927746
1772732284061779200,7.014779296875,2.7457500757485627,1.8452943969473241,-1.111186195296794
1772732284071806200,7.02480615234375,2.6890339167922734,1.7482655168250203,-0.9542444060035049
1772732284081834200,7.034834228515625,2.689336699131131,1.7107976636961102,-0.9108768273115158
1772732284091862300,7.0448623046875,2.6285201191186904,1.6713675705835223,-1.0114335892990232
1772732284101889000,7.054888916015625,2.5409856280505654,1.57671331063807,-0.9581584376420825
1772732284111917300,7.064917236328125,2.5189485682874917,1.5041978172644972,-0.8165857746552675
1772732284121944000,7.074944091796875,2.4435744706124067,1.400595403970778,-1.1927220304720103
1772732284131972400,7.084972412109375,2.3884973110347985,1.4883593198806047,-0.9918404886219649
1772732284142000000,7.095000244140625,2.36809106734395,1.249613692125678,-0.9407739529252052
1772732284152027100,7.105027099609375,2.4576386518001554,0.8313777586609125,-0.812688036564365
1772732284162055200,7.11505517578125,2.4622025987148284,0.6305182094469666,-0.568450533394888
1772732284172083200,7.125083251953125,2.413305004554987,0.2987754413038492,-0.4895333197528496
1772732284182110200,7.135110107421875,2.5717747340679167,0.07159867078959942,0.09211327022574842
1772732284192138200,7.14513818359375,2.585466574811935,-0.10847031159102916,0.33286567122582345
1772732284202165200,7.155165283203125,2.325629059189558,-0.36926980411335825,0.3011665011588484
1772732284212193300,7.165193359375,2.0285972466826436,-0.46250864430293437,0.28568437946457415
1772732284222221000,7.175220947265625,1.8568898499339819,-0.4499629048541188,0.03765579518275335
1772732284232248300,7.185248291015625,1.8179945943504572,-0.38368572134822604,-0.2863587167958729
1772732284242276000,7.195276123046875,1.7955279109984634,-0.3565237197868526,-0.540194891377911
1772732284252304400,7.205304443359375,1.802578414031863,-0.47196577008664603,-0.6120983172677457
1772732284262331100,7.2153310546875,1.828830461141467,-0.6215376151338219,-0.5454796268478036
1772732284272359200,7.225359130859375,1.775250846645236,-0.8162228596270084,-0.41888899054601786
1772732284282386200,7.23538623046875,1.5731997495591639,-1.0317189830891786,-0.2773002532072365
1772732284292414200,7.245414306640625,1.5168220287770031,-1.1691989699348806,-0.013956647426355629
1772732284302442200,7.255442138671875,1.3532675433456898,-1.2826380098491907,0.004253456193394959
1772732284312469200,7.26546923828125,1.0731693299829959,-1.4218687858849763,0.045451417495030906
1772732284322497300,7.275497314453125,0.704722386559844,-1.4099028921507297,0.04238582851248793
1772732284332525300,7.285525390625,0.333272754189372,-1.2939683821588754,-0.12819350492116063
1772732284342552000,7.295552001953125,-0.06183014096915722,-1.1661826908536255,-0.3337592955972999
1772732284352580400,7.305580322265625,-0.47536067322194575,-1.0012623238965868,-0.5454647946048528
1772732284362607400,7.315607421875,-0.8179653193801641,-0.8795463078938424,-0.6253846459507942
1772732284372635400,7.325635498046875,-0.9385036699056625,-0.793757637579739,-0.6422323203772307
1772732284382663200,7.3356630859375,-0.8281915298402309,-0.7892585725948215,-0.6148097681835294
1772732284392690200,7.345690185546875,-0.6161649821847677,-0.8511470196224749,-0.5760250968350097
1772732284402718200,7.35571826171875,-0.33098435099124907,-0.9130126702964305,-0.6444791494559496
1772732284412746200,7.365746337890625,-0.06294891586601734,-1.0848558222539721,-0.6260634219951927
1772732284422773200,7.375773193359375,0.06569616874754429,-1.244655631326884,-0.5029590934392064
1772732284432801300,7.38580126953125,0.21624387308955192,-1.320513859257102,-0.48318318354114886
1772732284442829000,7.3958291015625,0.3743634739905596,-1.3858685210905968,-0.4973775669798255
1772732284452856300,7.405856201171875,0.40762978377640247,-1.399125623679161,-0.46917223037797956
1772732284462884000,7.415884033203125,0.28857787241637706,-1.3764039426527916,-0.4042078099710867
1772732284472911400,7.425911376953125,0.057762453138828274,-1.358328918388486,-0.3066016048848629
1772732284482939100,7.435939208984375,-0.32174364443719383,-1.280124127332121,-0.22509463047794998
1772732284492967400,7.445967529296875,-0.6881535290747881,-1.1929736671455204,-0.24274331908896565
1772732284502994200,7.455994140625,-0.8615244751214981,-1.1135912106119095,-0.33827111046593633
1772732284513022200,7.466022216796875,-0.9285328955113887,-1.0330654292620718,-0.3646713338745758
1772732284523050200,7.47605029296875,-0.8294172722429036,-1.0898745271988213,-0.32020715558491647
1772732284533077200,7.4860771484375,-0.5905962411642074,-1.3235495736911893,-0.2155241805128753
1772732284543105300,7.496105224609375,-0.296608618658781,-1.748073793645203,-0.2963072245594114
1772732284553132300,7.50613232421875,0.1140980883449316,-2.3180171228811144,-0.36485410656295714
1772732284563160000,7.51616015625,0.6279384220868349,-2.5000129816710945,-0.17000483061447738
1772732284573188400,7.526188232421875,0.8549445122092961,-2.5914585087031123,0.11134747446253895
1772732284583215400,7.53621533203125,0.7014245140582323,-2.8906396081984043,0.4576845120821148
1772732284593243400,7.546243408203125,0.1100064351171255,-3.0063252579957247,0.7114817976921797
1772732284603271200,7.556271240234375,-0.6444505809485912,-2.911885517583787,0.8251924941547214
1772732284613298200,7.566298095703125,-1.3118512448519468,-2.700730199804902,0.8347375904828309
1772732284623326200,7.576326171875,-2.174323229956627,-2.2434661781571803,0.8850226204130798
1772732284633353200,7.586353271484375,-3.649199383407831,-1.5482798278361558,0.9760469994235783
1772732284643381200,7.59638134765625,-5.456703563404083,-0.9054868048362433,0.9579694909412413
1772732284653409300,7.6064091796875,-6.592127981770038,-0.5180564901322126,0.6391572237808257
1772732284663436300,7.616436279296875,-7.297198743376136,0.9321646761424839,1.0808736938152461
1772732284673464300,7.62646435546875,-7.539820335781574,1.8212110721789299,1.0310095196455717
1772732284683492000,7.6364921875,-7.135161092248558,1.9142511749260127,0.41052302099987864
1772732284693519400,7.646519287109375,-6.198226279094815,2.1730380124516784,0.10725625962615012
1772732284703547100,7.656547119140625,-5.083312149316072,2.6464488667801023,0.18179039934575555
1772732284713575400,7.666575439453125,-3.90789591230154,2.830459572523832,0.15130276049301028
1772732284723602200,7.676602294921875,-2.655868729293346,2.9296307253718377,0.20782281235530972
1772732284733630200,7.686630126953125,-1.4694190570890902,3.044765755549073,0.3168698278557509
1772732284743657500,7.696657470703125,-0.3886170402705669,3.0228149127647277,0.4530973304223269
1772732284753685200,7.706685302734375,0.7309270873963832,2.9469384185254572,0.673604779240489
1772732284763713300,7.71671337890625,1.844742900544405,2.921138206836581,0.9178941587276757
1772732284773740300,7.726740234375,2.8780554364353415,2.7758976689919828,1.014601551810652
1772732284783768000,7.73676806640625,3.686131814485788,2.5396269069179893,1.0520230815798044
1772732284793796400,7.74679638671875,4.341791771712899,2.2759981823191047,0.9870683057840913
1772732284803823400,7.7568232421875,4.967897717675567,2.1650769704446193,1.413774911278486
1772732284813851400,7.766851318359375,5.226639839276671,1.9299796360641717,1.1979200375065207
1772732284823878400,7.77687841796875,5.375080926728248,1.6404437322705983,1.1446248659748584
1772732284833906200,7.78690625,5.148818348449469,1.5607596624419091,1.159871096554026
1772732284843934200,7.796934326171875,4.51823847194314,1.5992551050528883,0.9740599172595887
1772732284853961200,7.806961181640625,3.745390643662214,1.6696715803205966,0.8386202771350741
1772732284863989200,7.8169892578125,3.032348757046461,1.7663295813038944,0.7709110149994493
1772732284874017300,7.827017333984375,2.3754911144673825,1.8477017503499984,0.7198991320993751
1772732284884044300,7.837044189453125,1.8617431351840494,1.8869070947960018,0.645159606000781
1772732284894072300,7.847072265625,1.5817688404619692,1.9464014862939714,0.5080302592236549
1772732284904099300,7.857099365234375,1.5212299083471297,2.0204770685911178,0.2984890255779028
1772732284914127400,7.86712744140625,1.4400129298627375,2.0321219136774538,0.10588898986093699
1772732284924155100,7.877155029296875,1.3434066590666771,1.9749191402480004,0.06152158647663891
1772732284934182100,7.88718212890625,1.2044663904100656,1.8895050023347137,-0.11247918190620838
1772732284944210200,7.897210205078125,1.142965335264802,1.7763012324810028,0.03324775121584535
1772732284954238200,7.90723828125,1.2354688469171524,1.7445611093491316,0.45857335068061944
1772732284964265500,7.917265380859375,1.0839368077129126,1.4466019528642295,0.009773644386976957
1772732284974293200,7.927293212890625,1.2692822691917418,1.1853469716593623,0.033156273540109395
1772732284984321300,7.9373212890625,1.5069816027641296,0.9071788495764136,0.2056198224183172
1772732284994348300,7.947348388671875,1.7170114236444234,0.46594402557909487,0.4950472243361175
1772732285004376000,7.9573759765625,1.8749609286755322,0.015799334417283536,0.7341911306936293
1772732285014403000,7.967403076171875,1.8914146353483199,-0.27849603886306284,0.9200088858593255
1772732285024431000,7.97743115234375,1.8046727559626101,-0.4941977678999305,1.0707032321304082
1772732285034459100,7.987459228515625,1.730871022170782,-0.7051552250191568,1.0794150194395333
1772732285044486100,7.997486083984375,1.7647499108970164,-0.9373328725606203,1.0577674704506992
1772732285054514200,8.00751416015625,1.8367127388238906,-1.119632390472293,1.0348618842247872
1772732285064542000,8.0175419921875,1.7950509411364792,-1.1909791323274372,0.8948884731281548
1772732285074569000,8.02756884765625,1.608569169104099,-1.197524316187203,0.7001034215223044
1772732285084597000,8.037596923828126,1.209224983114004,-1.1465762192383409,0.5649540695812553
1772732285094624000,8.0476240234375,0.6857037978351116,-1.105156121352315,0.474577852281183
1772732285104652300,8.05765234375,0.21902385919690132,-1.1034551626533269,0.3583884907454252
1772732285114680000,8.06768017578125,-0.0403594829171896,-1.0509311946898698,0.3127226815810427
1772732285124707000,8.07770703125,-0.28483985493183134,-0.9895961437612771,0.27088435828294605
1772732285134735000,8.087735107421874,-0.6412339569896459,-0.9604217794641852,0.17296338815912604
1772732285144763000,8.097762939453125,-1.061758878174424,-0.9005211452528834,0.09749752054736018
1772732285154790100,8.1077900390625,-1.3702081567525863,-0.8132510042093694,0.03488448557220399
1772732285164818200,8.117818115234375,-1.522598274090886,-0.7648587292231619,-0.0291300867639482
1772732285174845000,8.127844970703125,-1.5243062470525501,-0.8219960362009704,-0.025123116144910453
1772732285184873200,8.137873291015625,-1.4196335741788149,-0.9199398392111062,-0.009203589414060116
1772732285194901000,8.14790087890625,-1.2792138806194067,-1.0134680177360773,0.0014878274049609898
1772732285204928300,8.15792822265625,-1.1611743611723184,-1.1227098982214927,0.0333824835114181
1772732285214956000,8.1679560546875,-1.141079667648673,-1.210784487515688,0.0706838209670037
1772732285224984000,8.177984130859375,-1.1101128669768572,-1.282943422536552,0.17841880402080715
1772732285235011000,8.188010986328125,-1.032508233770728,-1.3116875787228346,0.25082082708254455
1772732285245039000,8.1980390625,-0.9597054478883743,-1.3396063900008797,0.29609686974436045
1772732285255067100,8.208067138671876,-0.9272147986501454,-1.295644206416607,0.2826125708037987
1772732285265094100,8.21809423828125,-0.8881763352036476,-1.1957438625112176,0.24243414354193954
1772732285275122200,8.2281220703125,-0.9143290135920047,-1.0748702886819839,0.16837368574868886
1772732285285149200,8.238149169921876,-1.0274228933304548,-0.9458905652865767,0.022330434952769426
1772732285295177000,8.248177001953126,-1.3602373823583125,-0.7440370365992188,-0.10108973635304719
1772732285305205000,8.258205078125,-1.7579466606229543,-0.7302963882774114,-0.5154094096895308
1772732285315232000,8.26823193359375,-1.6945470783799885,-1.2389467521607875,-1.251492053218186
1772732285325260300,8.27826025390625,-0.8040858471095561,-1.705758792746067,-1.7251906384468079
1772732285335288000,8.2882880859375,0.16841595398783682,-1.621456707727909,-1.835353287038952
1772732285345315000,8.298315185546874,0.46587622103989124,-1.757242311745882,-1.7824688152000308
1772732285355343000,8.308343017578125,0.29201486112773417,-2.0215087497264146,-1.4620336230129003
1772732285365370000,8.3183701171875,-0.15122107355892658,-1.5939552450791001,-1.1603075152099132
1772732285375398100,8.328398193359375,-1.6276947253346443,-0.6223349029913544,-1.0174856558796017
1772732285385426000,8.338426025390625,-3.7557927952110766,0.4202048954501748,-0.7218053310468793
1772732285395453000,8.348452880859375,-5.30159717284441,1.3134893674477934,-0.2956702052975073
1772732285405481200,8.358481201171875,-5.602910023671388,1.8383818410798907,-0.0420985451368615
1772732285415509000,8.368509033203125,-4.950283150529861,2.0746859209015964,0.025970408023474736
1772732285425536300,8.378536376953125,-3.5161131014764306,2.1935016854181884,-0.08363501767786219
1772732285435564000,8.38856396484375,-1.837943157401681,2.1327657694265243,-0.14128403703747316
1772732285445591000,8.398591064453125,-0.34875264739394185,1.887093557278812,-0.31913148917742074
1772732285455619000,8.408619140625,0.8746914152085781,1.6085706304088234,-0.5590914611581712
1772732285465647000,8.418647216796876,1.763613015821576,1.2133397249564528,-0.5658440041583032
1772732285475674000,8.428674072265625,2.4173580793380736,0.8011299199134111,-0.35221199406757947
1772732285485702100,8.4387021484375,2.774098218354583,0.5251397263914347,-0.16533450071588157
1772732285495730200,8.448730224609376,2.6427140641659497,0.3372413655593991,-0.0713036333657801
1772732285505757200,8.458757080078126,2.537616443878412,0.41681525301188227,0.7927451726015656
1772732285515785000,8.468784912109374,2.05989897839725,0.6247355343922972,1.1103670609336345
1772732285525813000,8.47881298828125,1.5246961231529712,0.7075839134708046,0.7827604427471756
1772732285535840000,8.488840087890624,0.830082458153367,1.0005994760736823,0.6351267261557281
1772732285545868000,8.498867919921874,0.09690379243791103,1.2973156467601656,0.5366534924440085
1772732285555895000,8.50889501953125,-0.33466157819926734,1.4496046418115496,0.6123920029846951
1772732285565923000,8.518923095703125,-0.619997107693553,1.6375848357081413,0.5854300540400669
1772732285575951000,8.528951171875,-0.7930021430373191,1.663329810078442,0.503638892396912
1772732285585978000,8.53897802734375,-0.6552671585172415,1.5380331591099499,0.41271333411838856
1772732285596006100,8.549006103515625,-0.2708738734215498,1.4289949845030903,0.36467915185485034
1772732285606034000,8.559033935546875,-0.032955344140529634,1.274744626250863,0.30435053802244366
1772732285616061000,8.56906103515625,0.2353010402590036,1.088842699933052,0.30487931113690137
1772732285626089200,8.579089111328125,0.6564215892493724,0.934138460433483,0.30002942342031746
1772732285636116000,8.589115966796875,1.0321060827106237,0.8282064351484179,0.21451504000294952
1772732285646144300,8.599144287109375,1.2583002719283103,0.7671452327251433,0.10676021973751484
1772732285656172000,8.609172119140625,1.4531635033369064,0.6808356072768569,-0.03933211263082921
1772732285666199000,8.619198974609375,1.6712258240252733,0.597519902947545,-0.1106936136636883
1772732285676227000,8.62922705078125,1.8857921192914247,0.5549535576358438,-0.10334073015023022
1772732285686255000,8.639255126953126,1.9691414336293935,0.45094168675839896,-0.007679704315029084
1772732285696282000,8.6492822265625,1.9456892463713884,0.34160423694401976,0.03469097229409963
1772732285706310100,8.65931005859375,1.9228057989120482,0.2512710550680756,0.08075045695118606
1772732285716338200,8.669338134765624,1.9231518358707427,0.12119301504194736,0.10505085853636265
1772732285726365200,8.679365234375,1.853333034235239,-0.0343140652731061,0.1012721071826294
1772732285736393000,8.68939306640625,1.7047615984022617,-0.11929741055369376,0.0010171776859089733
1772732285746420200,8.699420166015624,1.539881417325139,-0.17869316398277876,-0.05051445477195084
1772732285756448000,8.709447998046874,1.3988748637884854,-0.3254198487319052,0.07510729996506124
1772732285766476000,8.71947607421875,1.3417378490716219,-0.4365779381021857,0.1452628592742607
1772732285776503000,8.7295029296875,1.405195883503556,-0.49650136866718525,0.08558933008341119
1772732285786531000,8.739531005859375,1.387215405654907,-0.48885655300244685,-0.022340006498713046
1772732285796559000,8.74955908203125,1.2166443194597958,-0.5098952493779361,-0.1508838044285774
1772732285806586000,8.759586181640625,1.091647820481658,-0.4570385423287749,-0.23555744443917645
1772732285816614100,8.7696142578125,0.9752379480630159,-0.43778862906619903,-0.3371159125488251
1772732285826641200,8.77964111328125,0.7939806326806544,-0.4187259089387953,-0.5015163838176057
1772732285836669000,8.7896689453125,0.5847182890415191,-0.3438401793025434,-0.6412395099475979
1772732285846697200,8.799697265625,0.4814408699184656,-0.3698467272184789,-0.655404228900373
1772732285856724000,8.809723876953125,0.42234804495871064,-0.4286708182394504,-0.5720058147236704
1772732285866752300,8.819752197265625,0.3422165236234665,-0.5312982490211725,-0.528505768758431
1772732285876780000,8.829780029296876,0.19662556490600108,-0.6579558130793273,-0.5157933675058186
1772732285886807000,8.83980712890625,0.3634194706499576,-0.620264672588557,-0.0499992124259239
1772732285896835000,8.8498349609375,0.18391279832720756,-0.7583131069719791,-0.33998175030872224
1772732285906862800,8.85986279296875,0.026817864298820493,-0.8002844089999794,-0.394701474750787
1772732285916890000,8.86989013671875,-0.0473959574252367,-0.7269527769379317,-0.2739501755943522
1772732285926918100,8.879918212890624,-0.23496435565054416,-0.7492544789865613,-0.22336853733770548
1772732285936945200,8.889945068359374,-0.542131193202734,-0.8176054000265895,0.0147905227009207
1772732285946973200,8.89997314453125,-0.872919729360938,-0.7973496707223355,0.24550635406151414
1772732285957001000,8.9100009765625,-1.2753086898744106,-0.7548632587790489,0.40589400949236004
1772732285967028200,8.9200283203125,-1.744341913640499,-0.6732673639796674,0.5377773453747854
1772732285977056000,8.930055908203125,-2.21419171448648,-0.4930892221361398,0.5459495459144935
1772732285987084000,8.940083984375,-2.594044433543086,-0.3353836088635027,0.47227750291693954
1772732285997111000,8.950111083984375,-2.811504112163186,-0.3491694115012884,0.29749899162724613
1772732286007139000,8.96013916015625,-2.6477777772963047,-0.5602211227752268,0.04222012568991631
1772732286017167000,8.9701669921875,-2.0754203726559877,-0.5579382725350558,-0.004290975192189217
1772732286027194000,8.980194091796875,-1.62550159920454,-0.32936990153193474,0.10859558193851261
1772732286037222100,8.99022216796875,-1.6490987478911876,-0.42288799705430863,0.22056137096248565
1772732286047249200,9.000249267578125,-1.9967507405668496,-0.6521405509293079,0.4636326798968017
1772732286057277000,9.01027685546875,-2.3747201300948855,-0.46207580584362146,0.8549062260255217
1772732286067305200,9.02030517578125,-2.900413983237743,-0.05470657269954681,1.0861197777751832
1772732286077332000,9.03033203125,-3.3562954644858833,0.31961832284629343,1.1999399259615688
1772732286087360300,9.0403603515625,-3.118897744208574,0.652366176378727,1.4077891148671506
1772732286097388000,9.050387939453126,-2.4914193408489225,0.9977435021206736,1.6781971243426204
1772732286107415300,9.060415283203126,-2.36305599578619,1.331765321111679,1.8898098305001854
1772732286117443000,9.070443115234376,-2.591331082931161,1.6263611386433243,1.9778456952191887
1772732286127470000,9.080469970703126,-2.80726282133162,1.8497920006275177,1.8032215342409907
1772732286137498000,9.090498046875,-2.8250843092262743,2.0330454582631585,1.5439347843691706
1772732286147526100,9.100526123046874,-2.7079496296644208,2.199647640827298,1.176339489339292
1772732286157553200,9.11055322265625,-2.438257074981928,2.3030279358029366,0.7235834466353058
1772732286167581200,9.120581298828125,-1.662919767972827,2.3702687036439776,0.20305895895436404
1772732286177609000,9.13060888671875,-0.5865688853442669,2.368680849930644,-0.4114274224936962
1772732286187636200,9.14063623046875,0.7626110964268445,2.3689108592942354,-0.3239233265638351
1772732286197664000,9.1506640625,1.8687480455100536,2.17392575507164,-0.647819180598855
1772732286207691300,9.160691162109375,2.849540705090761,1.9324863581880927,-1.0523451531410217
1772732286217719000,9.170718994140625,3.6818320714652537,1.7950369126111267,-0.9791446001127362
1772732286227747000,9.1807470703125,4.156742078310251,1.5524273029044269,-0.6732805157221853
1772732286237774000,9.190774169921875,4.143806608891487,1.181983048184216,-0.530460044631362
1772732286247802000,9.200802001953125,3.878450037586689,0.8249842582315206,-0.3383504958450794
1772732286257830100,9.210830078125,3.5347207713127133,0.5954807983353734,-0.033034254595637316
1772732286267857200,9.220857177734375,3.1209552612602707,0.4260626815676689,0.3604521452769637
1772732286277885200,9.23088525390625,2.5379537130087613,0.34736820729821916,0.7221338323488831
1772732286287913000,9.240912841796876,1.7699007177889345,0.39537966627329585,0.9876793503545224
1772732286297940000,9.25093994140625,1.080571130672097,0.1881505820274353,1.0893054951392114
1772732286307968300,9.26096826171875,0.330699104309082,0.4918196405917406,1.5744326523549854
1772732286317995000,9.2709951171875,-0.7473071443110704,0.969722984033823,1.9602118388511238
1772732286328023300,9.281023193359376,-1.5512433538168668,1.0425970815867185,1.7330721854768691
1772732286338051000,9.291051025390624,-1.9686229627132414,1.0484364552646874,1.327055097594112
1772732286348078000,9.301078125,-1.9096832824885843,1.0630977255627512,0.7642636859394609
1772732286358106000,9.311106201171874,-1.3807827422589063,1.0130389786690472,0.12185498608201742
1772732286368134100,9.321134033203125,-0.6755810477495193,0.9531167171478271,-0.3307935045942664
1772732286378161200,9.3311611328125,-0.03315583514869213,0.8638441502407193,-0.4528786461703479
1772732286388188200,9.341188232421874,0.490873299652338,0.6947644716471433,-0.40701004444286226
1772732286398216000,9.3512158203125,0.8585638717502355,0.45525925769656894,-0.19145619944408535
1772732286408244200,9.361244140625,1.106610996335745,0.1731003124117851,0.014450988548249005
1772732286418271000,9.37127099609375,1.403946760225296,-0.021902035206556317,0.1312683457892388
1772732286428299300,9.38129931640625,1.7220049941480158,-0.20544073952436445,0.23632782602347432
1772732286438327000,9.3913271484375,2.021621562451124,-0.4207864947304129,0.34532523022852835
1772732286448354000,9.40135400390625,2.2644389696896075,-0.5366472088336944,0.36274522465020415
1772732286458382000,9.411382080078125,2.389117488759756,-0.6818769330233335,0.417827498794347
1772732286468409000,9.4214091796875,2.4713006819278,-0.8131804231911898,0.5139065308459103
1772732286478437000,9.43143701171875,2.4840783304363487,-0.8501271750554442,0.5854927805453538
1772732286488465200,9.441465087890625,2.3545371737658978,-0.9345683762833475,0.5579064891573041
1772732286498492000,9.451491943359375,2.16737969442904,-0.9355378058373928,0.6699417266882955
1772732286508520200,9.461520263671876,1.7862001106828451,-0.9028203621059656,0.7184577741846442
1772732286518548000,9.4715478515625,1.2663047146856785,-0.8862970973283052,0.6843504835300147
1772732286528575200,9.4815751953125,0.6818839472860098,-0.7343202369660139,0.581421658648923
1772732286538603000,9.49160302734375,0.25299159525036813,-0.5421598347753286,0.4678130343213677
1772732286548631300,9.50163134765625,0.09245090468227862,-0.4480538563624024,0.46784291800297795
1772732286558658000,9.511657958984374,0.07400514740943909,-0.3991360961973667,0.5684007759690285
1772732286568686000,9.52168603515625,0.03023264117836952,-0.39982495524436235,0.6139001790579408
1772732286578713000,9.531713134765624,-0.13718670298755167,-0.34010260020941496,0.6070165570240468
1772732286588741000,9.5417412109375,-0.5176537545502186,-0.30801644011884927,0.5818599770009517
1772732286598769200,9.55176904296875,-0.9100047206521034,-0.30313509781807657,0.5141421662326902
1772732286608796200,9.561796142578125,-1.1509855601131915,-0.2492632223770022,0.446823035925813
1772732286618824000,9.571823974609375,-1.2273445771723985,-0.21762334474921224,0.44936384298242626
1772732286628852200,9.581852294921875,-1.2484206829488276,-0.24088030169606206,0.5136105435740203
1772732286638879000,9.59187890625,-1.2238006209552288,-0.24814386295825241,0.5866457134401425
1772732286648907300,9.6019072265625,-1.0998960088670253,-0.2564575177952647,0.7293512894470244
1772732286658935000,9.61193505859375,-0.870875656312704,-0.21031331399679182,0.8778188995793461
1772732286668962000,9.621962158203125,-0.6978396413087844,-0.16525222925990818,1.0895704296857118
1772732286678990000,9.631989990234375,-0.5296212557196617,-0.1455579332306981,1.1798688325092195
1772732286689017000,9.64201708984375,-0.2602875974774361,-0.08562573483735322,1.092082120245695
1772732286699045000,9.652045166015625,-0.02223696624934673,-0.2540484108269214,0.8505004653472453
1772732286709073200,9.6620732421875,0.3085357878178358,-0.6201745100870728,0.2191902835386805
1772732286719100000,9.672099853515626,0.922564342495799,-0.6574319353356957,-0.5406238208470866
1772732286729128200,9.682128173828126,1.3826917907506227,-0.2261824987798929,-1.1608926946867257
1772732286739156000,9.692156005859376,1.2501894461870193,0.03793605516254902,-1.5888324952378867
1772732286749183200,9.702183349609374,0.7720575546860694,0.15444178917109966,-1.534306832063198
1772732286759211000,9.7122109375,-0.07018705042600631,0.4601107893809676,-0.9806873725753277
1772732286769238000,9.722238037109374,-1.4414415013611317,0.835282072623074,-0.4280345661625266
1772732286779266000,9.73226611328125,-2.9692279917448756,0.9792354932665824,-0.021539156710915268
1772732286789294000,9.742294189453125,-3.7433658598363397,1.0344567374899982,0.10320227152761072
1772732286799321000,9.752321044921874,-3.381735026168823,1.2022551441013811,-0.1660171492177993
1772732286809349000,9.76234912109375,-2.4484219106435776,1.3315855806306003,-0.6256621477179228
1772732286819377200,9.772377197265625,-1.5219038620859384,1.245337037719786,-0.9589258418180048
1772732286829404200,9.782404052734375,-0.9528525132536888,1.0953636261343955,-1.1101577290318905
1772732286839432000,9.792431884765625,-0.9251900148242711,0.9687076695114374,-0.9611530163481831
1772732286849460200,9.802460205078125,-1.2970429672986268,0.8735907604902983,-0.6029179625988006
1772732286859487000,9.812487060546875,-1.6876865449607372,0.8745131360322237,-0.22771873190384356
1772732286869515300,9.822515380859375,-1.9221745152711867,0.8799991662278771,0.2103239449886605
1772732286879542000,9.8325419921875,-1.8000579556435345,1.0583230585068464,-0.22488248556461185
1772732286889570000,9.842570068359375,-1.3012789974331855,1.5485899166986345,-0.5928215159982443
1772732286899598000,9.85259814453125,-1.2575818945258854,1.5795882815524935,-0.5629640282751992
1772732286909625000,9.862625,-1.0118483075797557,1.4231424590826034,-0.625876374990493
1772732286919653000,9.872653076171876,-0.3320160321265459,1.4369994272604585,-0.7467638312146068
1772732286929681200,9.88268115234375,0.37762218352556226,1.338410458214581,-0.821064016047865
1772732286939708000,9.8927080078125,1.0763988134235143,1.190438741840422,-0.5245335406592115
1772732286949736200,9.902736083984376,1.3727818066328763,0.8678051628261804,-0.4743573413982987
1772732286959764000,9.912763916015624,1.511304142138362,0.8036763895258306,-0.74688833437711
1772732286969791200,9.922791259765624,1.9141817629516125,0.8020446966707706,-0.5162278134003281
1772732286979819000,9.932819091796874,1.7214157960832117,0.6343816068768501,-0.6387997886452823
1772732286989846000,9.942845947265624,1.5734136845707893,0.6142796068295836,-0.9367144484013319
1772732286999874000,9.9528740234375,1.4778332496911286,0.724381319014728,-1.0655636772848665
1772732287009901600,9.962901611328125,1.247691199630499,0.704401484042406,-1.225918636022508
1772732287019928600,9.972928466796875,0.9726403327852488,0.6500508851736784,-1.3640008265450596
1772732287029956400,9.982956298828125,0.707148736923933,0.6576604833945632,-1.4215947912491858
1772732287039984400,9.992984375,0.5118067820876836,0.6804843096211552,-1.4863041409164666
1772732287050011400,10.003011474609375,0.30739070943593977,0.7083993215069174,-1.4125729881428182
1772732287060039400,10.013039306640625,0.055304538592696184,0.6737728292837739,-1.2129675306431948
1772732287070067500,10.0230673828125,-0.21143968767821789,0.6842664585083723,-0.9705068278878927
1772732287080094500,10.033094482421875,-0.5265963549405336,0.7216273441314697,-0.8314546963546424
1772732287090122500,10.04312255859375,-0.8725497270047664,0.7164765372395515,-0.790511276069656
1772732287100149500,10.0531494140625,-0.9983739089787006,0.6801505476221442,-0.8059876621428876
1772732287110177500,10.063177490234375,-0.8523433898001909,0.6401107981786132,-0.7437398072183131
1772732287120205300,10.073205322265625,-0.61231882815063,0.5080632116451859,-0.6067455945955589
1772732287130232600,10.083232666015626,-0.2721744346261024,0.3819800864741206,-0.4730834855375811
1772732287140260400,10.09326025390625,0.17119184844195842,0.2297577269181609,-0.33862434435039757
1772732287150288400,10.103288330078126,0.527488919866085,0.12161971602141856,-0.34744974810183044
1772732287160315400,10.1133154296875,0.8329588903725147,0.07350742702037096,-0.39147765386607497
1772732287170343400,10.123343505859374,1.0781336743921042,0.0266106512889266,-0.4234306890962645
1772732287180370700,10.13337060546875,1.217279694753885,-0.04081336416453123,-0.35910485885385424
1772732287190398500,10.1433984375,1.241387131050229,-0.151414258043468,-0.23363149961158633
1772732287200426200,10.15342626953125,1.2084300333440303,-0.22034780127704143,-0.14850151240192352
1772732287210453500,10.16345361328125,1.1791805579841137,-0.21531652911156415,-0.2757291314329952
1772732287220481300,10.173481201171874,1.1425871496021747,-0.21240239523053167,-0.49788376293629405
1772732287230509600,10.183509521484375,1.0637637882560491,-0.2124322058469057,-0.5596058038884774
1772732287240536600,10.19353662109375,0.8735860843151807,-0.23903905774354933,-0.4965769911866635
1772732287250564600,10.203564697265625,0.7529185544520616,-0.3006166852563619,-0.4328603058185428
1772732287260592400,10.21359228515625,0.6468155565142631,-0.35443741503208875,-0.39596974112093447
1772732287270619400,10.223619384765625,0.509254759517312,-0.3850181389957666,-0.3265623698305338
1772732287280647400,10.2336474609375,0.33051088826060293,-0.42888036933690304,-0.20315664717517792
1772732287290674400,10.24367431640625,0.08484802846312522,-0.42870135950818655,-0.15116744367554782
1772732287300702500,10.253702392578125,-0.18187047884464264,-0.41497473971173165,-0.1216922332683578
1772732287310730500,10.26373046875,-0.3951309522092342,-0.41520489520579573,-0.08171619671080262
1772732287320757500,10.273757568359375,-0.49367199046015736,-0.40811859020665286,-0.058733161334507164
1772732287330785500,10.28378564453125,-0.22139351093769072,-0.13108853224292397,-0.28554548245053735
1772732287340813300,10.293813232421876,-0.6855757875412702,-0.4921830670766532,-0.1225688151734881
1772732287350840600,10.303840576171876,-0.8020464502364396,-0.4190881663799286,-0.39744405145719647
1772732287360868400,10.313868408203126,-0.3353852162986994,-0.183427060636878,-0.6032719271356239
1772732287370896400,10.323896484375,-0.22482290086448192,-0.21890826999321578,-0.6529690376427024
1772732287380923400,10.33392333984375,-0.03404197033345699,-0.28809987964108585,-0.6791907626792788
1772732287390951400,10.343951416015624,0.21437281852066514,-0.2808259431153536,-0.6662625267188995
1772732287400978700,10.353978759765624,0.50054889049232,-0.23667846609205007,-0.7876970223665237
1772732287411006500,10.36400634765625,0.789623021993041,-0.2938628270819783,-0.9585540128309279
1772732287421034500,10.374034423828125,1.0692816748946905,-0.3978825890049338,-0.9732107530843466
1772732287431061500,10.3840615234375,1.1463549777030944,-0.5806465095579624,-0.7986956785038113
1772732287441089300,10.39408935546875,1.0555343045711516,-0.7800561522245406,-0.5740413391392678
1772732287451117600,10.40411767578125,0.9565151274144649,-0.9559237373925745,-0.41984950614124533
1772732287461144300,10.414144287109375,0.9866332023024559,-1.0732003096431493,-0.28703539221473034
1772732287471172600,10.424172607421875,1.0053384872943163,-1.1827053711093962,-0.11316902733389288
1772732287481200400,10.434200439453125,0.9777817873269319,-1.2767168031066656,-0.030272352134250103
1772732287491227400,10.444227294921875,0.9460527701109647,-1.353253807081282,-0.053201830692403015
1772732287501255400,10.45425537109375,0.8997481150537728,-1.3823049833901226,-0.09004161505084485
1772732287511282400,10.464282470703125,0.7465764919489621,-1.460263252339512,-0.04748078616447746
1772732287521310500,10.474310546875,0.5759837784439324,-1.5891035672642289,0.10654409276880324
1772732287531338500,10.48433837890625,0.4322323101133108,-1.6738517886146902,0.2586588272318244
1772732287541365500,10.494365478515626,0.27525311141908165,-1.7140885219350457,0.3722351567249745
1772732287551393500,10.5043935546875,0.2651648481249809,-1.7098799643293021,0.35132461677379906
1772732287561421300,10.51442138671875,0.19942074858248232,-1.7317089342996477,0.18060959206335245
1772732287571448600,10.524448486328126,0.07192951017916202,-1.7639362564265726,0.06373707056902349
1772732287581476400,10.534476318359374,-0.039111528682708736,-1.8587553515449164,0.06759674167186021
1772732287591504600,10.544504638671874,0.04325871149003505,-1.7997797232240438,0.021529037175700066
1772732287601531400,10.554531494140624,0.0769061295479536,-1.7572933112807572,-0.09399206970967351
1772732287611559400,10.564559326171874,-0.05149462491571903,-1.5667159404978155,-0.3035545653391629
1772732287621586700,10.574586669921874,-0.5599637870132923,-1.4874484886460004,-0.31975619694702323
1772732287631614500,10.584614501953125,-0.8397609716027975,-1.221253128429502,-0.4165208731751889
1772732287641642500,10.594642578125,-0.9068559012323617,-0.8242359240822493,-0.7036214395806193
1772732287651669500,10.60466943359375,-1.1693822175472974,-0.5211386740565299,-0.7866372841805219
1772732287661697300,10.614697265625,-1.8625725717455148,-0.25507059348151084,-0.6526305994685739
1772732287671725600,10.6247255859375,-2.69042040271461,0.028175416387617586,-0.4865162734866142
1772732287681752300,10.63475244140625,-3.417334162816405,0.32003362564891574,-0.41800051727369425
1772732287691780600,10.644780517578125,-3.8880163228332996,0.5278443091750145,-0.23711057389900086
1772732287701808400,10.654808349609375,-4.108485704663396,0.6865612914472818,-0.15837942088097334
1772732287711835400,10.66483544921875,-4.111670179918408,0.8931110151268541,-0.3444076769921928
1772732287721863400,10.674863525390625,-4.100079695367813,1.1252079986475407,-0.4584361341670155
1772732287731890400,10.684890380859375,-4.272081106626987,1.3403745978944004,-0.48276035501919684
1772732287741918500,10.69491845703125,-4.35924559533894,1.5471148757100104,-0.5378587765805423
1772732287751946500,10.704946533203126,-4.018664563962817,1.7806591354295611,-0.6725333506166935
1772732287761973500,10.714973388671876,-3.4686709668219087,1.9397588334091007,-0.8234037110418081
1772732287772001500,10.72500146484375,-3.1855040135383605,1.758874735253304,-0.4696912492834031
1772732287782029300,10.735029296875,-2.374896655705571,1.6464308438561857,-0.41233525805361565
1772732287792056600,10.745056640625,-1.1299445256501435,1.7509606011278926,-0.439288585300371
1772732287802084400,10.75508447265625,-0.13070318618714807,1.6543299265429376,-0.27187194454818964
1772732287812112600,10.765112548828125,0.6730185037851333,1.4514039463184774,-0.06780833859592676
1772732287822139400,10.775139404296874,1.3609429002791642,1.385467977465689,0.3328106896355748
1772732287832167400,10.78516748046875,1.6471961291402577,1.3516352659687398,0.7449453836157918
1772732287842195500,10.795195556640625,1.8798247353196142,1.3507871247068046,0.8721955067396163
1772732287852222500,10.805222412109375,2.1829384980887174,1.4463165600515901,0.7669963257737458
1772732287862250500,10.81525048828125,2.4444196892648935,1.5510896245598793,0.6740827720157802
1772732287872277500,10.825277587890625,2.496190793034434,1.693205600643158,0.6724366122439503
1772732287882305300,10.83530517578125,2.278638175433874,1.802064034768939,0.6577879091665149
1772732287892333600,10.84533349609375,2.0159470239460466,1.9017749935820698,0.6536952330254018
1772732287902360300,10.8553603515625,1.7552742265433072,2.044212164443731,0.6495559412635863
1772732287912388600,10.865388671875,1.5251245776981115,2.1404975327223537,0.6956456383958458
1772732287922416400,10.87541650390625,1.2749813576161861,2.1182357242926955,0.7853243018858135
1772732287932443400,10.885443359375,0.963296165856719,2.004432234980166,0.8667273044615983
1772732287942471400,10.895471435546876,0.6313777488857507,1.7998600949838757,1.1054105345048009
1772732287952498400,10.90549853515625,0.5316425324141979,1.676610731934011,0.9877655673332512
1772732287962526500,10.9155263671875,0.5346329464018345,1.5998028020635247,0.7545252589963376
1772732287972554500,10.925554443359376,0.4602326621949672,1.3879793757647274,0.6629422231897711
1772732287982581500,10.93558154296875,0.2872118447601795,0.9900577699236571,0.287991450830549
1772732287992609500,10.945609619140624,0.08305296173989772,1.2213707634598017,0.21306582757532597
1772732288002637300,10.95563720703125,-0.008506547060608863,1.4417517363540828,0.21223463744819163
1772732288012664800,10.965664794921874,0.07375380299687385,1.343537299709022,0.11156214012652635
1772732288022692900,10.97569287109375,0.15021511138677596,1.2208559458054602,0.28841449854820966
1772732288032721000,10.985720947265625,0.09696750532388687,0.994499697893858,0.5403576076589525
1772732288042747600,10.99574755859375,0.059895958036184305,0.8459982585571706,0.6729051065385341
1772732288052776000,11.00577587890625,0.12124854462146759,0.8510248545475304,0.6009928397551179
1772732288062803700,11.0158037109375,0.30242402693927284,0.8784498909592628,0.30928835975080726
1772732288072831000,11.0258310546875,0.06678864015936851,1.409491242609918,-0.3694349315471947
1772732288082858800,11.035858642578125,-0.3254015824228525,1.2616899143666027,-0.6344084948837757
1772732288092885800,11.0458857421875,0.38011049320995804,0.41963133334591984,-0.13074687919840217
1772732288102913800,11.055913818359375,0.5935925003707408,0.3659406596906483,-0.1582677772000432
1772732288112941800,11.06594189453125,0.6366454601556062,0.6294809753537177,-0.42837943407744167
1772732288122968800,11.07596875,0.5557599055826664,0.884516351391375,0.16714754148721694
1772732288132996900,11.085996826171876,0.2703267609328031,1.1673662015497683,0.5954238074511289
1772732288143025000,11.09602490234375,-0.020661679756641387,0.9455199784085154,0.0634725013487041
1772732288153052000,11.106052001953126,-0.10638473748862742,0.7138600711308419,0.0797172414459288
1772732288163079700,11.11607958984375,0.06572656388580798,0.6387780882701277,0.1443333598718047
1772732288173108000,11.12610791015625,0.43284488905370233,0.4717050733238458,0.20821239619478582
1772732288183134700,11.136134765625,0.934263548117876,0.4597679672926664,0.353730143545568
1772732288193163000,11.1461630859375,1.409054897019267,0.5379314034253359,0.3351351870603859
1772732288203189800,11.156189697265624,1.7394214083731174,0.5485352150261402,0.1969599114269018
1772732288213217800,11.1662177734375,1.7543816616177559,0.46094577890038485,0.10744827506691217
1772732288223245800,11.176245849609375,1.5348071828007697,0.36760464738011356,0.24130481071844695
1772732288233272800,11.18627294921875,1.338199738073349,0.259849498321116,0.32987828944548964
1772732288243300900,11.19630078125,1.1840297515809535,0.1721598166912794,0.4633012559853494
1772732288253329000,11.206328857421875,0.9844260476469993,0.10684709430336951,0.3900150705002248
1772732288263355600,11.216355712890625,0.9304635713130235,0.03134381729066372,0.3295290376164019
1772732288273384000,11.226384033203125,0.9722288293749094,-0.0933303178653121,0.36351591676175593
1772732288283411700,11.23641162109375,0.89106270429492,-0.10092384173423051,0.2737010596714914
1772732288293439000,11.24643896484375,0.6552472847729921,-0.09381547103375196,0.0940486952677369
1772732288303466800,11.256466796875,0.3553378710031509,-0.10101473488807677,-0.08565072314813732
1772732288313493800,11.26649365234375,0.2891735002219677,-0.1378970432139933,-0.18810586610287428
1772732288323521800,11.276521728515625,0.2892804677277803,-0.17138240257799625,-0.11623312761224805
1772732288333549800,11.2865498046875,0.017749591702222824,-0.19634806313887238,-0.022900690855085847
1772732288343576800,11.296576904296876,-0.28073066604733465,-0.2248546111769974,0.06475275041759014
1772732288353604900,11.30660498046875,-0.20430676705837247,-0.22840645843967794,0.03254785931818187
1772732288363633000,11.3166328125,0.00291442614197731,-0.2992857289135456,0.02055536983795464
1772732288373660000,11.326659912109376,0.18958207613527775,-0.2963666265964508,0.025825638391077516
1772732288383687700,11.336687744140624,0.18909341583549974,-0.26510610367506743,-0.050083369878306985
1772732288393716000,11.346716064453124,0.1909352443099022,-0.40021877686753865,-0.16578918568082152
1772732288403742700,11.35674267578125,0.3008727058440447,-0.4800279343806207,-0.20615137201175093
1772732288413771000,11.36677099609375,0.4117763820618391,-0.5355351559385657,-0.24217925546541808
1772732288423798800,11.376798828125,0.4526590120702982,-0.672978171774745,-0.2887350357394665
1772732288433825800,11.38682568359375,0.513880081230402,-0.7937854023694991,-0.3418735554046929
1772732288443853800,11.396853759765625,0.31088615033626554,-0.7004704282037914,0.05388911883682012
1772732288453880800,11.406880859375,0.79385846760571,-1.2728930070348083,1.082426330084726
1772732288463908900,11.416908935546875,0.9435843341708183,-1.4670087810769676,-0.3628128830589354
1772732288473937000,11.42693701171875,1.213656243559718,-0.8623886907353997,0.38529388719722624
1772732288483963600,11.436963623046875,0.8080506590873002,-1.2562433393985033,0.0343046398576349
1772732288493992000,11.446991943359375,0.4567892437428236,-1.220889555814117,0.09939159066565334
1772732288504019700,11.457019775390625,0.22439970701634882,-0.9117411890558897,0.21582133682854474
1772732288514047000,11.467046875,-0.2429185295253992,-0.802702283796668,0.0928564898084849
1772732288524074800,11.47707470703125,-0.5331985296845436,-0.7953143655024468,0.12115984342470765
1772732288534103000,11.48710302734375,-0.6725023709565401,-0.9341375836506486,0.14660167012996972
1772732288544129800,11.4971298828125,-0.3500917870432138,-0.9712667063444852,0.31924802822917697
1772732288554157800,11.50715771484375,-0.3349742974102497,-0.9755882228054106,0.27906748207546767
1772732288564184800,11.517184814453126,-0.10248889909386634,-0.9858283156603574,0.2474538348674774
1772732288574212900,11.527212890625,0.2870651297658682,-1.0736457153230905,0.12526800939589738
1772732288584241000,11.537240966796874,0.5035550865709781,-1.1337513705871998,0.050816798719391224
1772732288594268000,11.547267822265624,0.48600423231124873,-1.1485197545215486,0.14132190309613943
1772732288604295700,11.557295654296874,0.39486733283698555,-1.19781380065307,0.15982698934078216
1772732288614324000,11.567323974609375,0.35292671820819377,-1.2007441550165414,0.12535174215659498
1772732288624350700,11.577350830078124,0.43536300935447214,-1.2027587097093462,0.08807488155514001
1772732288634379000,11.58737890625,0.47072424559295173,-1.1798685402482747,0.010857567166164516
1772732288644406800,11.59740673828125,0.3557826921612024,-1.156264669559896,-0.04375255942158401
1772732288654433800,11.607433837890625,0.20409984630942343,-1.113265193527937,-0.07937047383487224
1772732288664461800,11.6174619140625,0.10720423717796802,-1.0661544827848672,0.06192439512386918
1772732288674489900,11.62748974609375,0.08278291262686252,-0.9588915011569857,0.07958842743448913
1772732288684516900,11.637516845703125,0.23395254825949668,-0.9591752865344285,-0.0800574331857264
1772732288694545000,11.647544921875,0.49519642354846,-1.161174945694208,-0.1695350576782599
1772732288704571600,11.657571533203125,0.7895785983294248,-1.2117249832361936,-0.2960292113356292
1772732288714600000,11.667599853515625,0.8682692732065915,-0.9724708214372396,-0.446983158390969
1772732288724627700,11.677627685546875,0.696309363001585,-0.7534300111055374,-0.41780795384366065
1772732288734655000,11.687655029296875,0.4646043014079332,-0.7764940758287906,-0.23241646126601845
1772732288744682800,11.697682861328126,0.2524298697143793,-0.9022387628257275,0.047006738911941646
1772732288754711000,11.7077109375,0.2229799033463001,-1.0164780132070184,0.06212086754404008
1772732288764737800,11.71773779296875,0.311193024328351,-0.9798433960318564,-0.1203628843607381
1772732288774765800,11.727765869140624,0.1620119321644306,-0.8613789291709661,-0.2842543101288378
1772732288784793900,11.7377939453125,-0.28661329434514043,-0.6216305541142821,-0.25103359305039047
1772732288794820900,11.74782080078125,-1.0500982509970664,-0.27342019690349695,-0.007792517039738595
1772732288804849000,11.757848876953124,-2.203054818922281,0.15114260149523615,0.23749453171528875
1772732288814876700,11.767876708984375,-3.3513685294777154,0.5538742379665375,0.5741313555102795
1772732288824903700,11.777903564453124,-3.983511417517066,0.9209060538947582,0.8767959862723946
1772732288834932000,11.787931884765625,-3.988305666056275,1.2296047771893441,1.0567815281532704
1772732288844959700,11.797959716796875,-3.5087060400903223,1.3813682870618997,0.8726713075578212
1772732288854987000,11.807987060546875,-2.888019781088829,1.5038162706010043,0.5765486457850784
1772732288865014800,11.818014892578125,-2.25085701906085,1.5307302887506782,0.2916754000402987
1772732288875041800,11.828041748046875,-1.5259727189600467,1.4111926397003232,0.05587704125102609
1772732288885069800,11.83806982421875,-0.6016390287041664,1.280459204505384,-0.07431337310839443
1772732288895097900,11.848097900390625,0.2407832710623741,1.1670400383353232,-0.12895590412840247
1772732288905124900,11.858124755859375,0.825416219907999,1.0643059323087334,-0.21928053737170994
1772732288915153000,11.86815283203125,1.1438894643723965,1.0576678094685077,-0.3055727732937783
1772732288925181000,11.878180908203126,1.2794862678200005,1.0354708829686046,-0.42310945778526365
1772732288935208000,11.8882080078125,1.4088836321055889,1.0410703104108572,-0.3858518864061683
1772732288945235700,11.898235595703126,1.4038532367229462,1.0558782957032322,-0.28159886371660975
1772732288955263700,11.908263671875,1.2182546772658824,1.1001002992674709,-0.2136933118239045
1772732288965290800,11.918290771484376,0.8600602477878332,1.1499129624456166,-0.15894377676546573
1772732288975318800,11.92831884765625,0.5787462288945913,1.2108166362196207,-0.1396827575869858
1772732288985346800,11.938346923828124,0.40331308962106704,1.2818208482474087,-0.08567549226321279
1772732288995373800,11.948373779296874,0.08148001333475112,1.4275401095196605,-0.11345387215726077
1772732289005401900,11.95840185546875,-0.4472895939916372,1.529754283325374,-0.058101731563173234
1772732289015428900,11.968428955078124,-1.088325982582569,1.6374217541009186,0.18239099558740854
1772732289025457000,11.978456787109375,-1.6958254277527331,1.7629530906081199,0.2271599655099213
1772732289035484700,11.988484619140625,-2.172765479120612,1.824192279946804,0.1342941964164376
1772732289045512000,11.998511962890625,-2.377276244318485,1.8088363053828478,0.14290825897213072
1772732289055540000,12.0085400390625,-1.7688474093437194,1.8382096993833779,0.10526015390548854
1772732289065568000,12.018568115234375,-1.0577911435872316,1.7742746950894592,0.009626344870775938
1772732289075595000,12.028594970703125,-0.2572761407017708,1.5442051257431506,0.1482894040212035
1772732289085622800,12.038622802734375,0.5685860694080591,1.4467825701281427,0.2779766180988401
1772732289095650800,12.04865087890625,1.1477964086830614,1.26511725846678,0.3672112276157364
1772732289105677800,12.058677734375,1.4899135635852814,1.1677353271231055,0.41129827968869354
1772732289115705900,12.068705810546875,1.5478513732910155,1.103003911754489,0.3522892970874905
1772732289125734000,12.07873388671875,1.6119260783165692,1.0361270087897776,0.24759707926306873
1772732289135761000,12.088760986328126,1.7695722164869307,0.8811375226080417,0.16165592180099336
1772732289145789000,12.098788818359376,1.793197422224283,0.7885702980697155,0.09268471343815327
1772732289155816700,12.108816650390626,1.5475509290397167,0.8323851821377873,-0.05689399974122643
1772732289165844000,12.118843994140626,1.1610732388854026,0.7632306896299124,-0.09762242556866257
1772732289175871700,12.128871826171874,0.7504740839093923,0.5654202988535165,0.04379208771437406
