time,seconds_elapsed,z,y,x
1772732277122660400,0.075660400390625,-0.01256540510803461,-0.2155449539422989,0.29873424768447876
1772732277132687400,0.085687255859375,-0.05748547613620758,-0.2602634131908417,0.41422727704048157
1772732277142715100,0.095715087890625,-0.09892429411411285,-0.3191950023174286,0.4525458812713623
1772732277152743400,0.105743408203125,-0.14526835083961487,-0.35576632618904114,0.42489108443260193
1772732277162770200,0.115770263671875,-0.18078692257404327,-0.35173359513282776,0.3770676553249359
1772732277172798500,0.125798583984375,-0.19414453208446503,-0.3203783333301544,0.33871254324913025
1772732277182826200,0.135826171875,-0.17262500524520874,-0.2598091661930084,0.29002439975738525
1772732277192853500,0.145853515625,-0.13152123987674713,-0.14031875133514404,0.21845461428165436
1772732277202881300,0.15588134765625,-0.10231801122426987,-0.010616794228553772,0.15301042795181274
1772732277212908300,0.165908203125,-0.08719311654567719,0.1167060062289238,0.09741268306970596
1772732277222936300,0.175936279296875,-0.05678722634911537,0.26266419887542725,0.028577376157045364
1772732277232964400,0.18596435546875,-0.005819650366902351,0.35479438304901123,-0.051620256155729294
1772732277242991400,0.195991455078125,0.03427162393927574,0.351929247379303,-0.11772269755601883
1772732277253019400,0.206019287109375,0.0475647896528244,0.27507147192955017,-0.15921156108379364
1772732277263047200,0.216047119140625,0.03357146307826042,0.21210910379886627,-0.18524768948554993
1772732277273074400,0.226074462890625,0.013844627887010574,0.1599617451429367,-0.1952049732208252
1772732277283102200,0.236102294921875,-0.005976824555546045,0.11443006992340088,-0.18539264798164368
1772732277293129500,0.24612939453125,-0.021663643419742584,0.10342375189065933,-0.17003419995307922
1772732277303157200,0.2561572265625,-0.022570746019482613,0.13494624197483063,-0.1369001567363739
1772732277313185300,0.266185302734375,-0.014092572964727879,0.19831110537052155,-0.10983924567699432
1772732277323212300,0.27621240234375,0.03131745383143425,0.28222566843032837,-0.0724392905831337
1772732277333240300,0.286240234375,0.07588306069374084,0.30361512303352356,-0.022553754970431328
1772732277343268400,0.296268310546875,0.11302275210618973,0.29110345244407654,0.015075519680976868
1772732277353295400,0.30629541015625,0.13666416704654694,0.31825438141822815,0.05950929597020149
1772732277363323400,0.316323486328125,0.14780254662036896,0.33994224667549133,0.11244847625494003
1772732277373350400,0.326350341796875,0.16151730716228485,0.2608620822429657,0.1770849972963333
1772732277383378200,0.336378173828125,0.22106876969337463,0.14567998051643372,0.22591066360473633
1772732277393406500,0.346406494140625,0.4383206367492676,0.06021035462617874,0.27755388617515564
1772732277403433200,0.35643310546875,0.665897011756897,0.05959244444966316,0.3427482545375824
1772732277413461500,0.36646142578125,0.8583788275718689,0.07943832129240036,0.40247923135757446
1772732277423489300,0.3764892578125,0.9675217270851135,0.13188788294792175,0.4495909810066223
1772732277433516300,0.386516357421875,0.9726788997650146,0.1948665827512741,0.4806162714958191
1772732277443544300,0.39654443359375,0.9039163589477539,0.21289698779582977,0.48817646503448486
1772732277453571300,0.4065712890625,0.7934695482254028,0.1930536925792694,0.45470312237739563
1772732277463599400,0.416599365234375,0.6522801518440247,0.1782912015914917,0.3944428861141205
1772732277473627400,0.42662744140625,0.5022799968719482,0.13165712356567383,0.3112579882144928
1772732277483654100,0.436654052734375,0.3207433223724365,0.0570688359439373,0.208647683262825
1772732277493682400,0.446682373046875,0.13393935561180115,-0.021093878895044327,0.10461343079805374
1772732277503710200,0.456710205078125,-0.027748966589570045,-0.07821288704872131,0.023692661896348
1772732277513737500,0.466737548828125,-0.14170189201831818,-0.12458091974258423,-0.025901788845658302
1772732277523765200,0.47676513671875,-0.1813962459564209,-0.15324996411800385,-0.07116000354290009
1772732277533793500,0.48679345703125,-0.1386066973209381,-0.11926695704460144,-0.10069338977336884
1772732277543820300,0.4968203125,-0.0565706342458725,-0.04761255159974098,-0.1068730428814888
1772732277553848300,0.506848388671875,0.021450398489832878,0.006475717760622501,-0.11302973330020905
1772732277563875300,0.516875244140625,0.07645095139741898,0.05632373318076134,-0.11226017773151398
1772732277573903400,0.5269033203125,0.1354743391275406,0.09281010925769806,-0.15952010452747345
1772732277583931400,0.536931396484375,0.1771424561738968,0.1326511949300766,-0.21544361114501953
1772732277593958400,0.54695849609375,0.18059498071670532,0.10489120334386826,-0.2603687345981598
1772732277603986200,0.556986083984375,0.1539381593465805,0.04227617010474205,-0.27594444155693054
1772732277614014500,0.567014404296875,0.1205008253455162,0.009129668585956097,-0.2709331512451172
1772732277624041200,0.577041259765625,0.09993074834346771,0.006119503639638424,-0.2537586987018585
1772732277634069500,0.587069580078125,0.09269121289253235,0.01054434571415186,-0.2283622771501541
1772732277644096300,0.59709619140625,0.08308263123035431,-0.007135146297514439,-0.18457108736038208
1772732277654124300,0.607124267578125,0.06166229769587517,-0.05208398029208183,-0.14804530143737793
1772732277664152300,0.61715234375,0.037094712257385254,-0.07656839489936829,-0.1303543746471405
1772732277674179300,0.627179443359375,0.009500903077423573,-0.06526381522417068,-0.11836428940296173
1772732277684207400,0.637207275390625,-0.0166702289134264,-0.03179622441530228,-0.10021190345287323
1772732277694235400,0.6472353515625,-0.018269989639520645,0.021882981061935425,-0.08128935098648071
1772732277704262100,0.65726220703125,-0.016764648258686066,0.1023368239402771,-0.07384185492992401
1772732277714290400,0.66729052734375,-0.011320880614221096,0.17036354541778564,-0.06261050701141357
1772732277724317400,0.6773173828125,0.00258033350110054,0.22051259875297546,-0.0532405711710453
1772732277734345500,0.687345458984375,0.021806493401527405,0.2565166652202606,-0.022809961810708046
1772732277744373200,0.697373291015625,0.054609447717666626,0.27111804485321045,0.03634184971451759
1772732277754400300,0.707400146484375,0.10193461179733276,0.2650550901889801,0.11747878044843674
1772732277764428300,0.71742822265625,0.14790138602256775,0.2266644537448883,0.20046348869800568
1772732277774456300,0.727456298828125,0.16529235243797302,0.1400800198316574,0.2565014660358429
1772732277784483300,0.7374833984375,0.13685791194438934,0.028819886967539787,0.2809351980686188
1772732277794511400,0.747511474609375,0.08611591905355453,-0.056223101913928986,0.2612949311733246
1772732277804539400,0.757539306640625,0.03931441158056259,-0.12182788550853729,0.20884938538074493
1772732277814566400,0.76756640625,0.016943061724305153,-0.16864226758480072,0.1499149650335312
1772732277824594200,0.77759423828125,0.023562252521514893,-0.18660162389278412,0.09253786504268646
1772732277834621400,0.787621337890625,0.03324976935982704,-0.15864108502864838,0.04954299330711365
1772732277844649200,0.797649169921875,0.039678905159235,-0.08458470553159714,0.027547944337129593
1772732277854677500,0.807677490234375,0.05904967337846756,-0.024167697876691818,0.02350366860628128
1772732277864704300,0.817704345703125,0.07269914448261261,0.026523156091570854,0.03315901383757591
1772732277874732300,0.827732177734375,0.06591980159282684,0.07553570717573166,0.05413007736206055
1772732277884760300,0.83776025390625,0.05729598179459572,0.13171669840812683,0.07909928262233734
1772732277894787300,0.847787353515625,0.040551356971263885,0.1893741488456726,0.1201322078704834
1772732277904815400,0.8578154296875,0.015326130203902721,0.22812950611114502,0.18053914606571198
1772732277914842400,0.86784228515625,-0.022969327867031097,0.23061051964759827,0.24321849644184113
1772732277924870100,0.8778701171875,-0.06887169927358627,0.18389512598514557,0.3011675477027893
1772732277934898400,0.8878984375,-0.11955058574676514,0.1107972115278244,0.34056341648101807
1772732277944925200,0.89792529296875,-0.15924233198165894,0.06963823735713959,0.33174940943717957
1772732277954953500,0.907953369140625,-0.1734178066253662,0.06597372889518738,0.2680942714214325
1772732277964981200,0.917981201171875,-0.1754525899887085,0.08088723570108414,0.18309445679187775
1772732277975008300,0.92800830078125,-0.18513771891593933,0.1018790677189827,0.10321693867444992
1772732277985036300,0.938036376953125,-0.19899366796016693,0.11865688860416412,0.05222277343273163
1772732277995063300,0.948063232421875,-0.2023010402917862,0.13023337721824646,0.027177339419722557
1772732278005091600,0.958091552734375,-0.2145518660545349,0.13368818163871765,0.03343929722905159
1772732278015119600,0.96811962890625,-0.24112196266651154,0.10843076556921005,0.06514795869588852
1772732278025146400,0.978146484375,-0.2734515070915222,0.07110916823148727,0.09434250742197037
1772732278035174700,0.988174560546875,-0.32185447216033936,0.03668142110109329,0.10844340920448303
1772732278045202400,0.998202392578125,-0.3645784854888916,0.014890546910464764,0.09242343157529831
1772732278055229700,1.008229736328125,-0.3893309533596039,0.030952071771025658,0.04961765184998512
1772732278065257500,1.018257568359375,-0.4030725359916687,0.08651932328939438,-0.011702822521328926
1772732278075285800,1.02828564453125,-0.41043829917907715,0.15911869704723358,-0.06537004560232162
1772732278085312500,1.0383125,-0.41872113943099976,0.2205033153295517,-0.08814436197280884
1772732278095340500,1.048340576171875,-0.41147467494010925,0.2536407709121704,-0.07522136718034744
1772732278105367600,1.058367431640625,-0.4048851728439331,0.22773446142673492,-0.03724881261587143
1772732278115395600,1.0683955078125,-0.40701010823249817,0.17049753665924072,0.006656860001385212
1772732278125423600,1.078423583984375,-0.41708898544311523,0.1055421531200409,0.04027609899640083
1772732278135450600,1.08845068359375,-0.4188871383666992,0.03968749940395355,0.054958637803792953
1772732278145478400,1.098478515625,-0.4177304804325104,-0.02482684887945652,0.043226562440395355
1772732278155505700,1.108505615234375,-0.4297059178352356,-0.07657366245985031,0.019565442577004433
1772732278165533400,1.118533447265625,-0.4410240650177002,-0.09829352051019669,-0.017821602523326874
1772732278175561700,1.128561767578125,-0.4451620876789093,-0.08569943159818649,-0.06044256314635277
1772732278185588500,1.13858837890625,-0.4368511438369751,-0.050340425223112106,-0.10035628825426102
1772732278195616500,1.148616455078125,-0.39939403533935547,-0.012375734746456146,-0.13389958441257477
1772732278205644500,1.15864453125,-0.34886059165000916,0.009507797658443451,-0.14686568081378937
1772732278215671600,1.168671630859375,-0.24180205166339874,-0.05469915270805359,-0.1075531616806984
1772732278225699600,1.178699462890625,-0.13060323894023895,-0.036680594086647034,-0.03537127003073692
1772732278235727600,1.1887275390625,-0.043427590280771255,-0.0623428151011467,0.042424723505973816
1772732278245754400,1.19875439453125,0.018601881340146065,-0.21525108814239502,0.1681865006685257
1772732278255782700,1.20878271484375,-0.03294733166694641,-0.38131117820739746,0.310819536447525
1772732278265809400,1.218809326171875,-0.022519847378134727,-0.4333096444606781,0.4122987985610962
1772732278275837700,1.228837646484375,0.040797337889671326,-0.6221847534179688,0.50832599401474
1772732278285865500,1.238865478515625,0.04753020033240318,-0.5346687436103821,0.5419923067092896
1772732278295892500,1.248892578125,0.023935925215482712,-0.2925426959991455,0.4606386125087738
1772732278305920500,1.25892041015625,-0.06037912517786026,-0.04352560639381409,0.2846924364566803
1772732278315948500,1.268948486328125,-0.1916961371898651,0.00833146646618843,0.06906425952911377
1772732278325975600,1.2789755859375,-0.30411210656166077,-0.010189512744545937,-0.10845266282558441
1772732278336003600,1.289003662109375,-0.30867302417755127,0.028628990054130554,-0.21302594244480133
1772732278346030600,1.299030517578125,-0.2291683405637741,0.08765295892953873,-0.2487953156232834
1772732278356058600,1.30905859375,-0.1344309151172638,0.11469416320323944,-0.23441264033317566
1772732278366086400,1.31908642578125,-0.03944668173789978,0.11792367696762085,-0.20055051147937775
1772732278376113700,1.32911376953125,0.05479326844215393,0.14492839574813843,-0.20194974541664124
1772732278386141400,1.339141357421875,0.1268305778503418,0.2007461041212082,-0.22255563735961914
1772732278396169700,1.349169677734375,0.19692817330360413,0.3522253930568695,-0.26326683163642883
1772732278406196500,1.359196533203125,0.2602201998233795,0.518527626991272,-0.26172032952308655
1772732278416224500,1.369224609375,0.33904924988746643,0.7196604609489441,-0.19218625128269196
1772732278426251800,1.379251708984375,0.4260624945163727,0.9551209211349487,-0.08319702744483948
1772732278436279600,1.389279541015625,0.5133132338523865,1.1715893745422363,0.0699688196182251
1772732278446307600,1.3993076171875,0.570526659488678,1.2810444831848145,0.25045791268348694
1772732278456334600,1.40933447265625,0.5777750015258789,1.239233136177063,0.4353225529193878
1772732278466362400,1.4193623046875,0.542447030544281,1.0687384605407715,0.5935670733451843
1772732278476390700,1.429390625,0.5292856693267822,0.907895028591156,0.6797102093696594
1772732278486417400,1.43941748046875,0.5792512893676758,0.8872390389442444,0.6733734011650085
1772732278496445700,1.44944580078125,0.7275111079216003,1.0595791339874268,0.5599802732467651
1772732278506473500,1.459473388671875,0.818069577217102,1.1020922660827637,0.3962882459163666
1772732278516500500,1.46950048828125,0.7637746930122375,0.9443632960319519,0.297441303730011
1772732278526528500,1.479528564453125,0.6197489500045776,0.6410223841667175,0.37080395221710205
1772732278536555500,1.489555419921875,0.44449612498283386,0.37091654539108276,0.6251265406608582
1772732278546583600,1.49958349609375,0.30508461594581604,0.40374070405960083,0.8831334114074707
1772732278556611600,1.509611572265625,0.04056534543633461,0.4603869318962097,1.0176485776901245
1772732278566638600,1.519638671875,-0.2668693959712982,0.3354411721229553,0.9418206214904785
1772732278576666600,1.52966650390625,-0.4766761362552643,0.12553510069847107,0.6189882755279541
1772732278586694400,1.5396943359375,-0.4956319332122803,-0.13196448981761932,0.2012936919927597
1772732278596721700,1.5497216796875,-0.3609202206134796,-0.17128153145313263,-0.17108386754989624
1772732278606749400,1.55974951171875,-0.19879035651683807,-0.025240931659936905,-0.36709555983543396
1772732278616776400,1.5697763671875,0.012093647383153439,0.12584657967090607,-0.3500835597515106
1772732278626804500,1.579804443359375,0.2165873646736145,0.11041055619716644,-0.1866895854473114
1772732278636832500,1.58983251953125,0.32617297768592834,-0.04334624856710434,-0.17947295308113098
1772732278646859500,1.599859619140625,0.37943270802497864,0.04225790873169899,-0.402057945728302
1772732278656887600,1.609887451171875,0.44105425477027893,-0.03710136190056801,-0.4355306923389435
1772732278666915600,1.61991552734375,0.5255152583122253,-0.27536165714263916,-0.35743385553359985
1772732278676942600,1.629942626953125,0.6233885288238525,-0.43560484051704407,-0.3561086654663086
1772732278686970400,1.639970458984375,0.6835862398147583,-0.568528413772583,-0.43224337697029114
1772732278696997600,1.64999755859375,0.6686802506446838,-0.6425323486328125,-0.5250353217124939
1772732278707025400,1.660025390625,0.5631483197212219,-0.5826722979545593,-0.5884493589401245
1772732278717053700,1.6700537109375,0.3829660713672638,-0.5807412266731262,-0.47431081533432007
1772732278727080700,1.680080810546875,0.2027401179075241,-0.5933746099472046,-0.24120332300662994
1772732278737108500,1.6901083984375,0.031839217990636826,-0.6156463623046875,0.039559632539749146
1772732278747136500,1.700136474609375,-0.02403409034013748,-0.5679143667221069,0.3045210838317871
1772732278757163500,1.71016357421875,-0.13227321207523346,-0.4087575078010559,0.6131673455238342
1772732278767191600,1.720191650390625,-0.2566692531108856,-0.02710890583693981,0.7571877837181091
1772732278777218600,1.730218505859375,-0.2292480319738388,0.508908748626709,0.8302337527275085
1772732278787246600,1.74024658203125,-0.2803541421890259,0.9607941508293152,0.8964599370956421
1772732278797274600,1.750274658203125,-0.22627784311771393,1.0291862487792969,0.9851581454277039
1772732278807301600,1.760301513671875,-0.027305329218506813,1.018555998802185,1.0708609819412231
1772732278817329700,1.77032958984375,0.2072560340166092,1.0221023559570312,1.0866715908050537
1772732278827357400,1.780357421875,0.279166579246521,0.6647689938545227,0.9941835403442383
1772732278837384700,1.790384765625,-0.23109935224056244,-0.1032128855586052,0.6404451727867126
1772732278847412500,1.80041259765625,-0.5795576572418213,-0.3752848207950592,0.43639862537384033
1772732278857439500,1.810439453125,-0.6241690516471863,-0.3255593478679657,0.1366577297449112
1772732278867467500,1.820467529296875,-0.7319883108139038,-0.23064804077148438,-0.07046931236982346
1772732278877495600,1.83049560546875,-0.8386942744255066,-0.5097286701202393,-0.15479591488838196
1772732278887522800,1.840522705078125,-0.674202024936676,-0.62685227394104,-0.24952135980129242
1772732278897550600,1.850550537109375,-0.32370975613594055,-0.6104892492294312,-0.3132225573062897
1772732278907578400,1.860578369140625,-0.00812865886837244,-0.5113603472709656,-0.3468875288963318
1772732278917605600,1.870605712890625,0.19441354274749756,-0.6336553692817688,-0.31778421998023987
1772732278927633400,1.88063330078125,0.3134351372718811,-0.6996288299560547,-0.26505669951438904
1772732278937660700,1.89066064453125,0.34554702043533325,-0.6339358687400818,-0.23228541016578674
1772732278947688700,1.900688720703125,0.31770995259284973,-0.6415045261383057,-0.18260596692562103
1772732278957716500,1.910716552734375,0.26240408420562744,-0.5647114515304565,-0.10738950967788696
1772732278967743700,1.92074365234375,0.19741100072860718,-0.4051278233528137,-0.03284322842955589
1772732278977771500,1.930771484375,0.1363425999879837,-0.3054172098636627,0.005986192729324102
1772732278987799600,1.940799560546875,0.10703208297491074,-0.22339852154254913,0.0007981469389051199
1772732278997826600,1.95082666015625,0.11865890771150589,-0.11682068556547165,-0.08082747459411621
1772732279007854600,1.9608544921875,0.18800897896289825,-0.12883365154266357,-0.10510996729135513
1772732279017882600,1.970882568359375,0.24766431748867035,-0.11832642555236816,-0.06353189796209335
1772732279027909600,1.98090966796875,0.2701720595359802,-0.06762076914310455,0.0014283345080912113
1772732279037937700,1.990937744140625,0.2580525577068329,0.004322929307818413,-0.023230671882629395
1772732279047964700,2.000964599609375,0.2685377299785614,0.06700603663921356,-0.08400885760784149
1772732279057992700,2.01099267578125,0.2764739394187927,0.1252341866493225,-0.153253972530365
1772732279068020500,2.0210205078125,0.19259898364543915,0.22946032881736755,-0.3471183776855469
1772732279078047500,2.031047607421875,0.071494922041893,0.30993226170539856,-0.5417088866233826
1772732279088075500,2.041075439453125,0.0022612260654568672,0.18013803660869598,-0.6655330657958984
1772732279098103600,2.051103515625,-0.01081436313688755,-0.02309444546699524,-0.6907857060432434
1772732279108130800,2.061130859375,-0.007001124322414398,-0.14964064955711365,-0.6753345727920532
1772732279118158600,2.07115869140625,-0.009409154765307903,-0.12660351395606995,-0.6742149591445923
1772732279128185600,2.081185546875,0.07085170596837997,0.06939978897571564,-0.6349929571151733
1772732279138213600,2.091213623046875,0.2576221227645874,0.051559001207351685,-0.4713291823863983
1772732279148241400,2.101241455078125,0.5213711261749268,-0.18935991823673248,-0.1320527344942093
1772732279158268700,2.1112685546875,0.6601508259773254,0.12279611825942993,-0.12166986614465714
1772732279168296400,2.12129638671875,0.7023922801017761,0.28387579321861267,-0.08143183588981628
1772732279178324700,2.13132470703125,0.6270940899848938,0.23488003015518188,-0.00871209241449833
1772732279188351700,2.141351806640625,0.5573021173477173,0.21842870116233826,0.030252916738390923
1772732279198379500,2.151379638671875,0.480224072933197,0.17763306200504303,0.09483350813388824
1772732279208406800,2.16140673828125,0.3800118565559387,0.10129720717668533,0.14376932382583618
1772732279218434600,2.1714345703125,0.32673054933547974,0.07469169050455093,0.15221421420574188
1772732279228462600,2.181462646484375,0.27873679995536804,0.08851947635412216,0.14246056973934174
1772732279238489600,2.191489501953125,0.237692192196846,0.14822489023208618,0.13755902647972107
1772732279248517600,2.201517578125,0.2186174839735031,0.24084389209747314,0.11038749665021896
1772732279258545700,2.211545654296875,0.20174849033355713,0.3125566840171814,0.06728796660900116
1772732279268572700,2.22157275390625,0.16273516416549683,0.327675998210907,0.009259243495762348
1772732279278600700,2.2316005859375,0.044060446321964264,0.3030523955821991,-0.04450066015124321
1772732279288627700,2.241627685546875,-0.017856260761618614,0.26177671551704407,-0.07119893282651901
1772732279298655500,2.251655517578125,-0.049092479050159454,0.17841418087482452,-0.050580207258462906
1772732279308683500,2.26168359375,-0.028929999098181725,0.09446956217288971,-0.021431058645248413
1772732279318710500,2.27171044921875,-0.02512301132082939,-0.04819012060761452,0.012835835106670856
1772732279328738800,2.28173876953125,-0.04337860271334648,-0.16714076697826385,-0.031715553253889084
1772732279338766600,2.2917666015625,-0.053030431270599365,-0.25938335061073303,-0.15040118992328644
1772732279348793600,2.301793701171875,-0.06318813562393188,-0.28578564524650574,-0.3144857883453369
1772732279358821600,2.311821533203125,-0.03698129951953888,-0.258268266916275,-0.479830265045166
1772732279368848600,2.3218486328125,0.00336521677672863,-0.1957613229751587,-0.5924904346466064
1772732279378876700,2.331876708984375,0.05022966116666794,-0.12476730346679688,-0.6169782280921936
1772732279388904400,2.341904541015625,0.015369679778814316,-0.08945678919553757,-0.5858983993530273
1772732279398931700,2.351931640625,0.01010354608297348,-0.10793832689523697,-0.4297785460948944
1772732279408959700,2.361959716796875,-0.027383359149098396,-0.13765770196914673,-0.1858292818069458
1772732279418987500,2.371987548828125,-0.12141399085521698,-0.1513570100069046,0.06736249476671219
1772732279429014800,2.382014892578125,-0.32434841990470886,-0.030025867745280266,0.24878795444965363
1772732279439042600,2.39204248046875,-0.3540242910385132,-0.04732495918869972,0.4033104181289673
1772732279449069800,2.40206982421875,-0.4146282374858856,-0.0032787201926112175,0.54764324426651
1772732279459097600,2.41209765625,-0.38236191868782043,0.0070857699029147625,0.6635258793830872
1772732279469125600,2.422125732421875,-0.4423561990261078,0.00926977675408125,0.6965367197990417
1772732279479152600,2.432152587890625,-0.45675110816955566,0.06019260734319687,0.6902461051940918
1772732279489180700,2.4421806640625,-0.4517863392829895,0.15883779525756836,0.6357138156890869
1772732279499208700,2.452208740234375,-0.4464099705219269,0.25520452857017517,0.5723135471343994
1772732279509235700,2.462235595703125,-0.4413178563117981,0.35231173038482666,0.5155946612358093
1772732279519263500,2.472263427734375,-0.5501292943954468,0.45485010743141174,0.40072181820869446
1772732279529290800,2.482290771484375,-0.6259592771530151,0.6090084314346313,0.35356953740119934
1772732279539318500,2.492318603515625,-0.6743454933166504,0.6645515561103821,0.2782534658908844
1772732279549346600,2.5023466796875,-0.7568039894104004,0.7618355751037598,0.13217298686504364
1772732279559373600,2.51237353515625,-0.7943825721740723,0.8216813206672668,0.068937286734581
1772732279569401900,2.52240185546875,-0.7405494451522827,0.9033015966415405,-0.03352478891611099
1772732279579429600,2.5324296875,-0.6755307912826538,0.963411271572113,-0.15451006591320038
1772732279589456600,2.54245654296875,-0.601611316204071,1.0008667707443237,-0.29865479469299316
1772732279599484700,2.552484619140625,-0.5361734628677368,0.9811826348304749,-0.45089226961135864
1772732279609511700,2.56251171875,-0.48799771070480347,0.8776830434799194,-0.5725389122962952
1772732279619539700,2.572539794921875,-0.4472428262233734,0.5580064654350281,-0.654142439365387
1772732279629567700,2.582567626953125,-0.3838854134082794,0.142254039645195,-0.6555033326148987
1772732279639594500,2.592594482421875,-0.27943864464759827,-0.1932760328054428,-0.5480455756187439
1772732279649622800,2.602622802734375,-0.20335741341114044,-0.4612259864807129,-0.32665494084358215
1772732279659650600,2.612650634765625,-0.24255222082138062,-0.5926039218902588,-0.15449674427509308
1772732279669677800,2.622677734375,-0.3172263205051422,-0.7346866130828857,-0.05592493712902069
1772732279679705600,2.63270556640625,-0.37482887506484985,-0.8273984789848328,-0.028490647673606873
1772732279689733600,2.642733642578125,-0.3699110448360443,-0.8047874569892883,-0.09339992702007294
1772732279699760600,2.6527607421875,-0.3407861888408661,-0.7482094168663025,-0.18691736459732056
1772732279709788700,2.66278857421875,-0.2888815999031067,-0.6946874260902405,-0.2699451744556427
1772732279719815700,2.672815673828125,-0.22956950962543488,-0.64271479845047,-0.34631744027137756
1772732279729843700,2.68284375,-0.1841932237148285,-0.611621081829071,-0.40404370427131653
1772732279739871700,2.692871826171875,-0.12833793461322784,-0.5669239163398743,-0.45388638973236084
1772732279749898800,2.702898681640625,-0.05216054618358612,-0.5074072480201721,-0.5006917119026184
1772732279759926500,2.712926513671875,0.02595342881977558,-0.4366909861564636,-0.5360899567604065
1772732279769954600,2.72295458984375,0.08378270268440247,-0.3602134585380554,-0.5427420735359192
1772732279779981600,2.732981689453125,0.12383664399385452,-0.26742520928382874,-0.5279021859169006
1772732279790009900,2.743009765625,0.15178148448467255,-0.1821465641260147,-0.5001425743103027
1772732279800036600,2.75303662109375,0.16485200822353363,-0.08749676495790482,-0.4716542065143585
1772732279810064600,2.763064697265625,0.1656145602464676,0.01633691042661667,-0.4566897451877594
1772732279820092700,2.7730927734375,0.17202691733837128,0.16431492567062378,-0.44372761249542236
1772732279830119700,2.78311962890625,0.19497187435626984,0.3031224012374878,-0.39130938053131104
1772732279840147700,2.793147705078125,0.17132779955863953,0.33074045181274414,-0.2799713909626007
1772732279850174700,2.8031748046875,0.07792875915765762,0.2714385986328125,-0.16109350323677063
1772732279860202500,2.813202392578125,-0.016551939770579338,0.20415279269218445,-0.04390295222401619
1772732279870230800,2.823230712890625,-0.08175617456436157,0.18070581555366516,0.018156573176383972
1772732279880257500,2.833257568359375,-0.11452078074216843,0.2027653157711029,0.03777607902884483
1772732279890285800,2.843285888671875,-0.1292290836572647,0.21898001432418823,0.07597501575946808
1772732279900313600,2.853313720703125,-0.1286943256855011,0.24954643845558167,0.1298198699951172
1772732279910340600,2.863340576171875,-0.10898004472255707,0.28269052505493164,0.1832789033651352
1772732279920368600,2.87336865234375,-0.09007985889911652,0.322933554649353,0.23018968105316162
1772732279930396700,2.883396728515625,-0.08372088521718979,0.358892560005188,0.2514403462409973
1772732279940423700,2.893423583984375,-0.07521368563175201,0.4031042158603668,0.24543969333171844
1772732279950451700,2.90345166015625,-0.049599215388298035,0.4698634147644043,0.22058141231536865
1772732279960478500,2.913478515625,-0.006567059084773064,0.5456191301345825,0.18781042098999023
1772732279970506800,2.9235068359375,0.04741838201880455,0.5997158885002136,0.15816043317317963
1772732279980534500,2.933534423828125,0.09254510700702667,0.6182200908660889,0.11065895855426788
1772732279990561800,2.943561767578125,0.14777261018753052,0.5886334776878357,0.05213404819369316
1772732280000590300,2.95359033203125,0.19393211603164673,0.5206091403961182,-0.002898845821619034
1772732280010618400,2.963618408203125,0.22929464280605316,0.4147154688835144,-0.05655195191502571
1772732280020645400,2.973645263671875,0.2559971511363983,0.29353106021881104,-0.1132088229060173
1772732280030673200,2.983673095703125,0.27900028228759766,0.17379377782344818,-0.1991124004125595
1772732280040700400,2.993700439453125,0.30602073669433594,0.04848432540893555,-0.3023282587528229
1772732280050728400,3.003728515625,0.34292763471603394,-0.06090579554438591,-0.409187376499176
1772732280060756500,3.013756591796875,0.39608219265937805,-0.1264246255159378,-0.5126818418502808
1772732280070783500,3.023783447265625,0.45324134826660156,-0.14447163045406342,-0.5763217210769653
1772732280080811300,3.033811279296875,0.502370297908783,-0.1339777112007141,-0.5675618052482605
1772732280090839300,3.04383935546875,0.5343690514564514,-0.07678841054439545,-0.5114771127700806
1772732280100866300,3.0538662109375,0.5314022898674011,0.028962789103388786,-0.42873936891555786
1772732280110894300,3.063894287109375,0.5042129158973694,0.15116411447525024,-0.3311578333377838
1772732280120921300,3.07392138671875,0.46727249026298523,0.24859584867954254,-0.23720765113830566
1772732280130949400,3.083949462890625,0.4320865273475647,0.27961286902427673,-0.12758468091487885
1772732280140977400,3.093977294921875,0.39774665236473083,0.22746339440345764,0.007211746647953987
1772732280151004400,3.10400439453125,0.340848833322525,0.0936148464679718,0.182386577129364
1772732280161032400,3.114032470703125,0.2644350230693817,-0.08732111752033234,0.39965951442718506
1772732280171060200,3.124060302734375,0.1667516678571701,-0.25325438380241394,0.6180990934371948
1772732280181087200,3.134087158203125,0.060121361166238785,-0.3692699372768402,0.8186582922935486
1772732280191115300,3.144115234375,-0.05922368913888931,-0.42193254828453064,0.9842286109924316
1772732280201142300,3.154142333984375,-0.16808412969112396,-0.4145715534687042,1.1110790967941284
1772732280211170600,3.164170654296875,-0.2545437812805176,-0.3318465054035187,1.180941104888916
1772732280221198300,3.1741982421875,-0.3062487840652466,-0.20891711115837097,1.2002135515213013
1772732280231225300,3.184225341796875,-0.3330245018005371,-0.07759435474872589,1.1791616678237915
1772732280241253400,3.19425341796875,-0.336288183927536,0.05605371296405792,1.1114941835403442
1772732280251281200,3.20428125,-0.31509384512901306,0.18324176967144012,0.9821620583534241
1772732280261308400,3.214308349609375,-0.26668742299079895,0.2994956970214844,0.7860926389694214
1772732280271336200,3.224336181640625,-0.19230620563030243,0.39093106985092163,0.5556125044822693
1772732280281363200,3.23436328125,-0.11067312955856323,0.4447934925556183,0.3093411922454834
1772732280291391500,3.2443916015625,-0.021927671507000923,0.47003087401390076,0.06299875676631927
1772732280301419300,3.254419189453125,0.07382601499557495,0.47144636511802673,-0.17587372660636902
1772732280311446500,3.264446533203125,0.17741352319717407,0.4499463737010956,-0.39005398750305176
1772732280321474300,3.274474365234375,0.2855421304702759,0.4125652015209198,-0.5513043403625488
1772732280331502300,3.28450244140625,0.3758741617202759,0.3471105396747589,-0.6353039145469666
1772732280341529300,3.294529296875,0.4522229731082916,0.2624499797821045,-0.6917024850845337
1772732280351557400,3.304557373046875,0.5001005530357361,0.18613235652446747,-0.7308444380760193
1772732280361584400,3.31458447265625,0.5358295440673828,0.06389141082763672,-0.729968786239624
1772732280371612400,3.3246123046875,0.5523649454116821,-0.08205763250589371,-0.6882449984550476
1772732280381640400,3.334640380859375,0.5530248880386353,-0.19764362275600433,-0.6610463857650757
1772732280391667500,3.34466748046875,0.5495290160179138,-0.29130348563194275,-0.6505922675132751
1772732280401695200,3.3546953125,0.5331031680107117,-0.3407125771045685,-0.6291834115982056
1772732280411723300,3.36472314453125,0.5149214863777161,-0.3382830023765564,-0.5873607993125916
1772732280421750300,3.374750244140625,0.5029614567756653,-0.31178587675094604,-0.5262369513511658
1772732280431778300,3.3847783203125,0.4918561279773712,-0.2802644968032837,-0.4236094653606415
1772732280441805300,3.394805419921875,0.48105037212371826,-0.26178109645843506,-0.2899635136127472
1772732280451833300,3.404833251953125,0.45018601417541504,-0.23817692697048187,-0.13630996644496918
1772732280461861400,3.414861328125,0.41408100724220276,-0.1918664276599884,0.0051507591269910336
1772732280471888400,3.424888427734375,0.38176077604293823,-0.14987190067768097,0.1132204681634903
1772732280481916400,3.43491650390625,0.35591718554496765,-0.13185429573059082,0.18626831471920013
1772732280491944200,3.444944091796875,0.34519973397254944,-0.14541621506214142,0.2226344347000122
1772732280501971200,3.45497119140625,0.3424969017505646,-0.17540447413921356,0.23066306114196777
1772732280511999500,3.46499951171875,0.3465554118156433,-0.2189272791147232,0.21857711672782898
1772732280522027300,3.47502734375,0.3536849617958069,-0.2740006744861603,0.19972780346870422
1772732280532054500,3.485054443359375,0.3335164487361908,-0.3287619650363922,0.18877892196178436
1772732280542082300,3.495082275390625,0.305436372756958,-0.38774487376213074,0.1679050624370575
1772732280552109300,3.505109375,0.2893020510673523,-0.44970035552978516,0.11673694103956223
1772732280562137300,3.515137451171875,0.2674018144607544,-0.4903934597969055,0.04427765682339668
1772732280572165400,3.525165283203125,0.2514529228210449,-0.4945701062679291,-0.030527018010616302
1772732280582192400,3.5351923828125,0.2403954714536667,-0.4719143211841583,-0.08728616684675217
1772732280592220400,3.545220458984375,0.22510115802288055,-0.43794140219688416,-0.13582436740398407
1772732280602248400,3.55524853515625,0.19864530861377716,-0.39836281538009644,-0.1619398593902588
1772732280612275500,3.565275390625,0.16929015517234802,-0.3513024151325226,-0.1752547025680542
1772732280622303200,3.57530322265625,0.13643047213554382,-0.31105512380599976,-0.20131559669971466
1772732280632330500,3.58533056640625,0.10650593042373657,-0.2756560742855072,-0.2312222123146057
1772732280642358300,3.595358154296875,0.07863675057888031,-0.25244370102882385,-0.2517266869544983
1772732280652386300,3.60538623046875,0.041310593485832214,-0.23438885807991028,-0.2698855400085449
1772732280662413300,3.615413330078125,-0.04477475956082344,-0.19740714132785797,-0.3079727292060852
1772732280672441300,3.62544140625,-0.1246388852596283,-0.10256516933441162,-0.40517619252204895
1772732280682469400,3.635469482421875,-0.0859636664390564,-0.016798602417111397,-0.44091102480888367
1772732280692496400,3.645496337890625,-0.06346480548381805,0.08039422333240509,-0.3900455832481384
1772732280702524400,3.6555244140625,-0.06493354588747025,0.16497834026813507,-0.3046955466270447
1772732280712551400,3.665551513671875,-0.0589824877679348,0.21352684497833252,-0.21414552628993988
1772732280722579200,3.6755791015625,-0.01789657026529312,0.15425260365009308,-0.09780160337686539
1772732280732607500,3.685607421875,0.01000756211578846,-0.020050451159477234,0.08040530234575272
1772732280742634200,3.69563427734375,-0.022827615961432457,-0.13010744750499725,0.171251580119133
1772732280752662500,3.70566259765625,-0.013739108107984066,-0.15479950606822968,0.11627979576587677
1772732280762690300,3.715690185546875,0.02110755443572998,-0.1094842329621315,-0.038098063319921494
1772732280772717300,3.72571728515625,0.08984073251485825,-0.0665382444858551,-0.23828716576099396
1772732280782745300,3.735745361328125,0.1559843271970749,0.014213323593139648,-0.4258967339992523
1772732280792772400,3.7457724609375,0.21020248532295227,0.12800852954387665,-0.53045654296875
1772732280802800400,3.75580029296875,0.25968772172927856,0.2376953512430191,-0.529110848903656
1772732280812828400,3.765828369140625,0.27940958738327026,0.2790314853191376,-0.43094849586486816
1772732280822855200,3.775855224609375,0.2502799332141876,0.24241383373737335,-0.28857481479644775
1772732280832883500,3.785883544921875,0.18918964266777039,0.11438101530075073,-0.14268068969249725
1772732280842911200,3.7959111328125,0.10506384819746017,-0.04866330325603485,-0.02136438712477684
1772732280852938500,3.8059384765625,0.023980198428034782,-0.19323761761188507,0.06927257776260376
1772732280862966300,3.81596630859375,-0.05768004432320595,-0.30380886793136597,0.13980986177921295
1772732280872993300,3.8259931640625,-0.1253371238708496,-0.37939175963401794,0.18020522594451904
1772732280883021300,3.836021240234375,-0.17192167043685913,-0.41264158487319946,0.17708586156368256
1772732280893049300,3.84604931640625,-0.18699036538600922,-0.3928830623626709,0.14445415139198303
1772732280903076400,3.856076416015625,-0.17192699015140533,-0.3269040584564209,0.0957113727927208
1772732280913104400,3.8661044921875,-0.13721923530101776,-0.2266015261411667,0.041632186621427536
1772732280923132400,3.87613232421875,-0.09966599941253662,-0.11910703033208847,-0.013142643496394157
1772732280933159400,3.886159423828125,-0.07128452509641647,-0.022397059947252274,-0.08027862757444382
1772732280943187200,3.896187255859375,-0.0498330257833004,0.04346078261733055,-0.14282456040382385
1772732280953214500,3.90621435546875,-0.033998917788267136,0.07780661433935165,-0.18517927825450897
1772732280963242200,3.9162421875,-0.019808799028396606,0.07932781428098679,-0.2078252136707306
1772732280973270500,3.9262705078125,-0.023933079093694687,0.05823887139558792,-0.23405683040618896
1772732280983297300,3.93629736328125,-0.03603501617908478,0.052560482174158096,-0.3037158250808716
1772732280993325300,3.9463251953125,-0.03890780359506607,0.05674795061349869,-0.42003872990608215
1772732281003352800,3.956352783203125,-0.046387821435928345,0.03237336874008179,-0.5252043008804321
1772732281013379800,3.9663798828125,-0.05982774496078491,-0.01592017337679863,-0.5642593502998352
1772732281023407900,3.976407958984375,-0.08112983405590057,-0.05251307412981987,-0.5332106351852417
1772732281033435000,3.986434814453125,-0.10470416396856308,-0.08396129310131073,-0.4541005790233612
1772732281043463000,3.996462890625,-0.1298915445804596,-0.10649510473012924,-0.34026774764060974
1772732281053491000,4.006490966796875,-0.1559772789478302,-0.11363187432289124,-0.2296237051486969
1772732281063517700,4.016517578125,-0.18988117575645447,-0.10229106992483139,-0.14403502643108368
1772732281073546000,4.0265458984375,-0.21305924654006958,-0.05537962168455124,-0.10091353952884674
1772732281083573800,4.03657373046875,-0.224253311753273,-0.002931593218818307,-0.07626092433929443
1772732281093601000,4.04660107421875,-0.23207511007785797,0.0538053996860981,-0.05768119916319847
1772732281103628800,4.05662890625,-0.23494812846183777,0.10215988010168076,-0.05412348359823227
1772732281113656800,4.06665673828125,-0.234281525015831,0.13479337096214294,-0.055957596749067307
1772732281123683800,4.076683837890625,-0.23673748970031738,0.132416233420372,-0.07896464318037033
1772732281133712000,4.0867119140625,-0.24431388080120087,0.10680802166461945,-0.11958490312099457
1772732281143739000,4.09673876953125,-0.2459447979927063,0.08130745589733124,-0.16093261539936066
1772732281153767000,4.106766845703125,-0.23287835717201233,0.07181447744369507,-0.19687499105930328
1772732281163794700,4.116794677734375,-0.2131725549697876,0.07540974020957947,-0.216752290725708
1772732281173822000,4.126822021484375,-0.199397012591362,0.09321558475494385,-0.2227863222360611
1772732281183849700,4.136849609375,-0.18758562207221985,0.12945161759853363,-0.22382628917694092
1772732281193878000,4.1468779296875,-0.17785733938217163,0.1761852502822876,-0.21125522255897522
1772732281203904800,4.15690478515625,-0.16485311090946198,0.21902991831302643,-0.1830395758152008
1772732281213933000,4.16693310546875,-0.15947416424751282,0.260781854391098,-0.1667054295539856
1772732281223959800,4.176959716796875,-0.153070330619812,0.29374244809150696,-0.16038493812084198
1772732281233987800,4.18698779296875,-0.15311484038829803,0.3089689314365387,-0.14822962880134583
1772732281244015900,4.197015869140625,-0.15667761862277985,0.3155679702758789,-0.13100217282772064
1772732281254043000,4.20704296875,-0.1788254827260971,0.31497931480407715,-0.12108521908521652
1772732281264071000,4.21707080078125,-0.20864836871623993,0.3022238314151764,-0.12154994159936905
1772732281274099000,4.227098876953125,-0.24072641134262085,0.24412722885608673,-0.13798855245113373
1772732281284125700,4.237125732421875,-0.2616649866104126,0.16314822435379028,-0.1865808665752411
1772732281294154000,4.247154052734375,-0.276414155960083,0.08957691490650177,-0.242561936378479
1772732281304180700,4.2571806640625,-0.2887192964553833,0.03788575902581215,-0.2925414741039276
1772732281314209000,4.267208984375,-0.2948697507381439,0.019902311265468597,-0.322638601064682
1772732281324236800,4.27723681640625,-0.29639601707458496,0.010590833611786366,-0.32217416167259216
1772732281334263800,4.287263916015625,-0.293003112077713,0.021954204887151718,-0.3009727895259857
1772732281344291800,4.297291748046875,-0.2962138056755066,0.023307090625166893,-0.296767920255661
1772732281354320000,4.30731982421875,-0.29728615283966064,0.010483697056770325,-0.3519565761089325
1772732281364347000,4.317346923828125,-0.2972627282142639,0.03006645292043686,-0.40118351578712463
1772732281374375000,4.327375,-0.3149184584617615,0.05682602897286415,-0.3317044675350189
1772732281384402000,4.33740185546875,-0.36065611243247986,0.08816824108362198,-0.12785972654819489
1772732281394430000,4.347429931640625,-0.42314937710762024,0.16240224242210388,0.11952882260084152
1772732281404457700,4.357457763671875,-0.4699088931083679,0.2554405927658081,0.36417877674102783
1772732281414485000,4.367485107421875,-0.4859760105609894,0.2914521098136902,0.5454383492469788
1772732281424512800,4.3775126953125,-0.512414276599884,0.305661678314209,0.6275569200515747
1772732281434541000,4.387541015625,-0.5392597913742065,0.32397884130477905,0.6104449033737183
1772732281444567800,4.39756787109375,-0.5582148432731628,0.35484328866004944,0.5257672667503357
1772732281454595800,4.407595947265625,-0.5605016350746155,0.41777071356773376,0.3898494839668274
1772732281464622800,4.417622802734375,-0.5430960059165955,0.46694228053092957,0.23600158095359802
1772732281474651000,4.42765087890625,-0.48839688301086426,0.487982839345932,0.07766757160425186
1772732281484679000,4.437678955078125,-0.3942283093929291,0.4992094039916992,-0.07909008115530014
1772732281494706000,4.447705810546875,-0.2707843780517578,0.4842442572116852,-0.24593885242938995
1772732281504733700,4.457733642578125,-0.12328121066093445,0.4261450171470642,-0.4308450520038605
1772732281514762000,4.467761962890625,0.020268267020583153,0.33363932371139526,-0.6060104966163635
1772732281524788700,4.477788818359375,0.1414085477590561,0.2243003100156784,-0.7143609523773193
1772732281534817000,4.487817138671875,0.22048741579055786,0.10000315308570862,-0.7331440448760986
1772732281544844000,4.497843994140625,0.26049450039863586,-0.02141515165567398,-0.6658669710159302
1772732281554871800,4.507871826171875,0.24220262467861176,-0.15007749199867249,-0.5291649103164673
1772732281564899800,4.51789990234375,0.1668921560049057,-0.3114096522331238,-0.33198073506355286
1772732281574926800,4.5279267578125,0.0702754333615303,-0.4457191824913025,-0.09850266575813293
1772732281584955000,4.537954833984375,-0.010082792490720749,-0.5253751873970032,0.129505455493927
1772732281594983000,4.54798291015625,-0.06641054153442383,-0.5641276240348816,0.3311832547187805
1772732281605010000,4.558010009765625,-0.10764027386903763,-0.5698693990707397,0.49207574129104614
1772732281615038000,4.568037841796875,-0.13750219345092773,-0.5311499238014221,0.6255350708961487
1772732281625065000,4.57806494140625,-0.14463654160499573,-0.44035768508911133,0.7097024321556091
1772732281635093000,4.588093017578125,-0.13596153259277344,-0.33141571283340454,0.7485411167144775
1772732281645120800,4.598120849609375,-0.11230333894491196,-0.21293649077415466,0.7400472164154053
1772732281655147800,4.608147705078125,-0.07250559329986572,-0.09941738843917847,0.7040809392929077
1772732281665175800,4.61817578125,-0.026898428797721863,0.004615006037056446,0.6510907411575317
1772732281675203800,4.628203857421875,0.030066272243857384,0.09115429222583771,0.568484902381897
1772732281685230800,4.63823095703125,0.10531868040561676,0.16156934201717377,0.4634990990161896
1772732281695259000,4.6482587890625,0.20501957833766937,0.21928085386753082,0.3499309718608856
1772732281705287000,4.658286865234375,0.32387006282806396,0.25483351945877075,0.22132690250873566
1772732281715314000,4.66831396484375,0.47346609830856323,0.288036048412323,0.05172080546617508
1772732281725341700,4.678341796875,0.6319804191589355,0.3204629719257355,-0.14729668200016022
1772732281735369000,4.688368896484375,0.7855804562568665,0.31236377358436584,-0.3345106244087219
1772732281745396700,4.698396728515625,0.9058679938316345,0.2540927529335022,-0.48490118980407715
1772732281755425000,4.708425048828125,0.9666532874107361,0.15115202963352203,-0.5888404250144958
1772732281765452000,4.7184521484375,0.9698290824890137,0.006699235178530216,-0.6215280890464783
1772732281775479800,4.728479736328125,0.9306168556213379,-0.17862558364868164,-0.5947530269622803
1772732281785507000,4.738507080078125,0.8579980134963989,-0.37767425179481506,-0.5609663128852844
1772732281795534800,4.748534912109375,0.7736991047859192,-0.5615329146385193,-0.5382195115089417
1772732281805563000,4.75856298828125,0.7031282782554626,-0.6946720480918884,-0.5597679615020752
1772732281815590000,4.76858984375,0.6426442861557007,-0.8118898272514343,-0.6475136280059814
1772732281825617700,4.77861767578125,0.5814003348350525,-0.9138870239257812,-0.7748023271560669
1772732281835646000,4.78864599609375,0.513883113861084,-0.945185661315918,-0.8457022905349731
1772732281845673000,4.7986728515625,0.43646422028541565,-0.8896792531013489,-0.8468162417411804
1772732281855701000,4.808700927734375,0.36937186121940613,-0.7825595736503601,-0.8206965327262878
1772732281865728800,4.818728759765625,0.30895882844924927,-0.6441657543182373,-0.7895407676696777
1772732281875755800,4.828755859375,0.2755012810230255,-0.5105485320091248,-0.7501115798950195
1772732281885783800,4.83878369140625,0.2536178231239319,-0.3744884133338928,-0.6824113726615906
1772732281895810800,4.848810791015625,0.2224055677652359,-0.24368034303188324,-0.5751283168792725
1772732281905838800,4.8588388671875,0.18128423392772675,-0.13822130858898163,-0.42037683725357056
1772732281915867000,4.868866943359375,0.1302807331085205,-0.07470349222421646,-0.2612404525279999
1772732281925894000,4.878893798828125,0.057060591876506805,-0.08049453794956207,-0.1325567662715912
1772732281935922000,4.888921875,0.0156873632222414,-0.07922680675983429,-0.08103517442941666
1772732281945949700,4.89894970703125,-0.014203156344592571,-0.07421287149190903,-0.0655217245221138
1772732281955977000,4.90897705078125,-0.015322874300181866,-0.0465351864695549,-0.07220195978879929
1772732281966004700,4.919004638671875,0.003797823330387473,-0.0019032687414437532,-0.06834197789430618
1772732281976031700,4.92903173828125,0.030396314337849617,0.04276474565267563,-0.05254746600985527
1772732281986060000,4.93906005859375,0.07493102550506592,0.11480777710676193,-0.05207235738635063
1772732281996087800,4.949087890625,0.10447027534246445,0.11846809089183807,-0.06948989629745483
1772732282006115000,4.959114990234375,0.1139998659491539,0.05720020458102226,-0.08730670809745789
1772732282016143000,4.96914306640625,0.12893620133399963,-0.02579854056239128,-0.0968560054898262
1772732282026171000,4.9791708984375,0.14262671768665314,-0.09694968163967133,-0.0954357385635376
1772732282036198100,4.9891982421875,0.16003616154193878,-0.15479162335395813,-0.07547445595264435
1772732282046226000,4.999225830078125,0.173919215798378,-0.18475989997386932,-0.04044110327959061
1772732282056253200,5.009253173828125,0.19492454826831818,-0.2133006751537323,-0.023250022903084755
1772732282066281000,5.019281005859375,0.2135951817035675,-0.21937455236911774,-0.03529603034257889
1772732282076309000,5.02930908203125,0.23683391511440277,-0.16342686116695404,-0.0492645762860775
1772732282086336300,5.039336181640625,0.2793228030204773,-0.027345726266503334,-0.05560290068387985
1772732282096364000,5.049364013671875,0.320814311504364,0.15725287795066833,-0.03994378075003624
1772732282106392000,5.05939208984375,0.3464544415473938,0.30387082695961,-0.003880319418385625
1772732282116419000,5.069419189453125,0.31049269437789917,0.37318792939186096,0.03656083717942238
1772732282126447000,5.079447021484375,0.25045597553253174,0.38663607835769653,0.11643942445516586
1772732282136474000,5.08947412109375,0.1887333244085312,0.3256351053714752,0.24603107571601868
1772732282146502100,5.099502197265625,0.11531103402376175,0.2157866507768631,0.3864225149154663
1772732282156530200,5.1095302734375,0.04633403569459915,0.04292408376932144,0.49414679408073425
1772732282166557200,5.11955712890625,-0.01794428564608097,-0.1577802449464798,0.4950575828552246
1772732282176585200,5.129585205078125,-0.07372883707284927,-0.33549270033836365,0.4019102156162262
1772732282186613000,5.139613037109375,-0.09023324400186539,-0.44068941473960876,0.2467813640832901
1772732282196640000,5.149639892578125,-0.030284889042377472,-0.40844643115997314,0.04972817748785019
1772732282206668000,5.15966796875,0.06245143711566925,-0.27621597051620483,-0.11389271169900894
1772732282216695000,5.169695068359375,0.12727661430835724,-0.1247708648443222,-0.17466548085212708
1772732282226723000,5.17972314453125,0.12865373492240906,-0.013919184915721416,-0.11362024396657944
1772732282236751000,5.189751220703125,0.05630125850439072,-0.0025068973191082478,0.03007321059703827
1772732282246778000,5.199778076171875,-0.08031357824802399,-0.08897334337234497,0.21443825960159302
1772732282256806100,5.20980615234375,-0.22391977906227112,-0.21246680617332458,0.39551037549972534
1772732282266834000,5.219833984375,-0.3154565989971161,-0.30104008316993713,0.5091354846954346
1772732282276861200,5.229861083984375,-0.33575552701950073,-0.28188982605934143,0.5416290163993835
1772732282286889000,5.239888916015625,-0.30291181802749634,-0.17855574190616608,0.5306277871131897
1772732282296916000,5.249916015625,-0.27403080463409424,-0.057797543704509735,0.49777770042419434
1772732282306944300,5.2599443359375,-0.2686770260334015,0.020054377615451813,0.4650903344154358
1772732282316972000,5.269971923828125,-0.308149516582489,0.053462397307157516,0.4477480947971344
1772732282326999300,5.279999267578125,-0.3557439148426056,0.0592329315841198,0.43181389570236206
1772732282337027000,5.290027099609375,-0.4067518711090088,0.053524523973464966,0.41672283411026
1772732282347055000,5.30005517578125,-0.4521039128303528,0.057613007724285126,0.40103790163993835
1772732282357082000,5.31008203125,-0.4844956696033478,0.09166114777326584,0.3781430423259735
1772732282367110000,5.32010986328125,-0.517553448677063,0.1644487977027893,0.34389400482177734
1772732282377137200,5.33013720703125,-0.547220766544342,0.23880866169929504,0.33122193813323975
1772732282387164200,5.3401640625,-0.5778713822364807,0.2990339398384094,0.31419873237609863
1772732282397192000,5.35019189453125,-0.5945326685905457,0.36080193519592285,0.2928895950317383
1772732282407219200,5.36021923828125,-0.6100962162017822,0.42584750056266785,0.2620469927787781
1772732282417247000,5.3702470703125,-0.6313487887382507,0.46652650833129883,0.2192288190126419
1772732282427275300,5.380275146484375,-0.664662778377533,0.47946202754974365,0.171177938580513
1772732282437302000,5.390302001953125,-0.7021258473396301,0.47611942887306213,0.1354561299085617
1772732282447330000,5.400330078125,-0.7366606593132019,0.45234087109565735,0.11814530938863754
1772732282457358000,5.410358154296875,-0.7719518542289734,0.40374305844306946,0.12731270492076874
1772732282467385000,5.420385009765625,-0.8007726073265076,0.3442397713661194,0.16114364564418793
1772732282477413000,5.4304130859375,-0.8196594715118408,0.29235008358955383,0.20459435880184174
1772732282487441200,5.440441162109375,-0.8232033848762512,0.2513512372970581,0.2545352876186371
1772732282497468000,5.450468017578125,-0.8111480474472046,0.22246409952640533,0.2972087264060974
1772732282507496200,5.46049609375,-0.787587583065033,0.19923147559165955,0.31400182843208313
1772732282517523000,5.47052294921875,-0.7610229253768921,0.17712046205997467,0.28932666778564453
1772732282527551200,5.48055126953125,-0.728977620601654,0.1482640504837036,0.2407740354537964
1772732282537579000,5.4905791015625,-0.6860837936401367,0.1019870862364769,0.18716812133789062
1772732282547606000,5.50060595703125,-0.6443254351615906,0.04393096640706062,0.14817358553409576
1772732282557634000,5.510634033203125,-0.6013277769088745,-0.02442697249352932,0.11025872081518173
1772732282567661000,5.5206611328125,-0.5524246692657471,-0.08845256268978119,0.07698145508766174
1772732282577689000,5.530689208984375,-0.5020797848701477,-0.12959733605384827,0.04321789741516113
1772732282587717000,5.540717041015625,-0.45930755138397217,-0.15250344574451447,0.009462331421673298
1772732282597743900,5.550743896484375,-0.42452895641326904,-0.15612348914146423,-0.0424482524394989
1772732282607772200,5.560772216796875,-0.39651358127593994,-0.1439906507730484,-0.09808940440416336
1772732282617800000,5.570800048828125,-0.38032853603363037,-0.12259353697299957,-0.13416287302970886
1772732282627827200,5.5808271484375,-0.3718564808368683,-0.1061120256781578,-0.16257692873477936
1772732282637855000,5.59085498046875,-0.36012735962867737,-0.08283846825361252,-0.17861561477184296
1772732282647882000,5.600882080078125,-0.34960174560546875,-0.07357040047645569,-0.18027342855930328
1772732282657910000,5.610909912109375,-0.3346436023712158,-0.06871441006660461,-0.18380685150623322
1772732282667938000,5.62093798828125,-0.3265904486179352,-0.07736142724752426,-0.18610675632953644
1772732282677965000,5.630965087890625,-0.3148636519908905,-0.08286190778017044,-0.19071859121322632
1772732282687993000,5.6409931640625,-0.29253971576690674,-0.08330772072076797,-0.2193845957517624
1772732282698021000,5.651021240234375,-0.26302453875541687,-0.06986880302429199,-0.25261229276657104
1772732282708048100,5.661048095703125,-0.2343050241470337,-0.0610731802880764,-0.263709157705307
1772732282718076000,5.671075927734375,-0.19846518337726593,-0.05877865105867386,-0.27917608618736267
1772732282728104200,5.681104248046875,-0.16477751731872559,-0.06349378079175949,-0.2927992343902588
1772732282738131000,5.691130859375,-0.1417853832244873,-0.0696176066994667,-0.2984667718410492
1772732282748159200,5.7011591796875,-0.11746060103178024,-0.08193765580654144,-0.28254586458206177
1772732282758187000,5.71118701171875,-0.09452709555625916,-0.10184944421052933,-0.2588087022304535
1772732282768214000,5.721214111328125,-0.08102726936340332,-0.1367347240447998,-0.2196488082408905
1772732282778242000,5.731241943359375,-0.07710941135883331,-0.19275915622711182,-0.1767115592956543
1772732282788270000,5.74127001953125,-0.07798239588737488,-0.2615717649459839,-0.10973066836595535
1772732282798297000,5.751297119140625,-0.07679107785224915,-0.3447931706905365,-0.04378118738532066
1772732282808325000,5.7613251953125,-0.08071764558553696,-0.4461994171142578,0.0021197244059294462
1772732282818353200,5.771353271484375,-0.06076808646321297,-0.5591108202934265,0.03408367186784744
1772732282828380200,5.781380126953125,-0.018880827352404594,-0.6817682981491089,0.0486876480281353
1772732282838408000,5.791407958984375,0.03132570907473564,-0.7466046214103699,0.04381275177001953
1772732282848436200,5.801436279296875,0.09202128648757935,-0.8226378560066223,0.10536559671163559
1772732282858463000,5.811462890625,0.13529229164123535,-0.9610750675201416,0.27132612466812134
1772732282868491300,5.8214912109375,0.14166976511478424,-1.1887484788894653,0.4856754243373871
1772732282878518000,5.83151806640625,0.07492241263389587,-1.476568341255188,0.6628140807151794
1772732282888546000,5.841546142578125,-0.06951945275068283,-1.7101304531097412,0.7120234370231628
1772732282898574000,5.851573974609375,-0.2385070025920868,-1.8159995079040527,0.6199352741241455
1772732282908601000,5.86160107421875,-0.3743809461593628,-1.7554504871368408,0.5086130499839783
1772732282918629000,5.871629150390625,-0.39508894085884094,-1.4949095249176025,0.48556002974510193
1772732282928657200,5.8816572265625,-0.41119837760925293,-1.1911706924438477,0.5456486344337463
1772732282938684000,5.891683837890625,-0.4453095495700836,-0.7744145393371582,0.5499659180641174
1772732282948712200,5.901712158203125,-0.39235150814056396,-0.4183107614517212,0.5362679362297058
1772732282958739000,5.911739013671875,-0.3405369520187378,-0.1130383312702179,0.46711698174476624
1772732282968767200,5.921767333984375,-0.30859020352363586,0.10883361101150513,0.3593095541000366
1772732282978795000,5.931794921875,-0.28773751854896545,0.29330602288246155,0.24766121804714203
1772732282988822000,5.941822021484375,-0.23508839309215546,0.4006492495536804,0.17026309669017792
1772732282998850000,5.95185009765625,-0.1583678126335144,0.4210623502731323,0.09112253785133362
1772732283008877800,5.9618779296875,-0.061883892863988876,0.39424484968185425,-0.015118150971829891
1772732283018904800,5.97190478515625,0.025914043188095093,0.3138461709022522,-0.11712229996919632
1772732283028932900,5.981932861328125,0.09151462465524673,0.2045806646347046,-0.17920537292957306
1772732283038959600,5.991959716796875,0.12145037204027176,0.10293027013540268,-0.19524873793125153
1772732283048988000,6.00198779296875,0.11396528780460358,0.015306416898965836,-0.16495129466056824
1772732283059015700,6.012015625,0.07462161034345627,-0.04821743071079254,-0.09790115058422089
1772732283069043000,6.02204296875,0.0016049286350607872,-0.09649734944105148,-0.015592427924275398
1772732283079070700,6.03207080078125,-0.1016261950135231,-0.10110556334257126,0.07026194036006927
1772732283089099000,6.04209912109375,-0.2180633246898651,-0.057395368814468384,0.17110973596572876
1772732283099125800,6.052125732421875,-0.3241563141345978,-0.004315430298447609,0.29240837693214417
1772732283109153800,6.06215380859375,-0.41955846548080444,0.06248730048537254,0.38827499747276306
1772732283119181800,6.072181884765625,-0.49643266201019287,0.12257573008537292,0.45160025358200073
1772732283129208800,6.082208740234375,-0.5524724721908569,0.17437048256397247,0.4725268483161926
1772732283139236900,6.09223681640625,-0.5738511085510254,0.22837957739830017,0.4403659403324127
1772732283149264000,6.102263916015625,-0.568885087966919,0.26631709933280945,0.3715573251247406
1772732283159291600,6.112291748046875,-0.5274856686592102,0.298297643661499,0.27952706813812256
1772732283169320000,6.12231982421875,-0.44324803352355957,0.32340008020401,0.18793907761573792
1772732283179346700,6.1323466796875,-0.32735195755958557,0.34459808468818665,0.08585701882839203
1772732283189375000,6.142375,-0.19948774576187134,0.3579184412956238,-0.04099760204553604
1772732283199402800,6.15240283203125,-0.06193242222070694,0.36624568700790405,-0.1916232854127884
1772732283209429800,6.1624296875,0.07314496487379074,0.3617779612541199,-0.33847907185554504
1772732283219457800,6.172457763671875,0.19121094048023224,0.3520094156265259,-0.4584406614303589
1772732283229484800,6.18248486328125,0.27784809470176697,0.3267029821872711,-0.5330384373664856
1772732283239512800,6.192512939453125,0.32734742760658264,0.275702565908432,-0.5809115171432495
1772732283249540900,6.202540771484375,0.33731457591056824,0.20418737828731537,-0.602995753288269
1772732283259567600,6.212567626953125,0.312032550573349,0.1305629462003708,-0.6043626666069031
1772732283269596000,6.222595947265625,0.27293121814727783,0.06450244039297104,-0.5866009593009949
1772732283279623700,6.232623779296875,0.2155686765909195,0.005383782088756561,-0.5450206995010376
1772732283289651000,6.24265087890625,0.14114584028720856,-0.025880130007863045,-0.49233245849609375
1772732283299678700,6.2526787109375,0.06732846796512604,-0.017625650390982628,-0.4322241544723511
1772732283309705700,6.262705810546875,-0.00026868487475439906,0.03273472562432289,-0.361095130443573
1772732283319733800,6.272733642578125,-0.06329524517059326,0.11278583109378815,-0.2967521846294403
1772732283329761800,6.28276171875,-0.10505706816911697,0.20581217110157013,-0.24307724833488464
1772732283339788800,6.292788818359375,-0.11897717416286469,0.2515964210033417,-0.19007229804992676
1772732283349816800,6.30281689453125,-0.11284498125314713,0.2663863003253937,-0.16020414233207703
1772732283359844900,6.312844970703125,-0.09983779489994049,0.2802087962627411,-0.14505107700824738
1772732283369872000,6.322871826171875,-0.07096432894468307,0.23236939311027527,-0.11933053284883499
1772732283379899600,6.332899658203125,-0.02978706732392311,0.15638215839862823,-0.10118036717176437
1772732283389927000,6.342927001953125,0.004795143846422434,0.06246578320860863,-0.10558150708675385
1772732283399954700,6.35295458984375,0.0540100634098053,-0.017221076413989067,-0.14155302941799164
1772732283409983000,6.36298291015625,0.11603082716464996,-0.07134582847356796,-0.1916998326778412
1772732283420009700,6.373009765625,0.15847188234329224,-0.10411595553159714,-0.2261778712272644
1772732283430037800,6.383037841796875,0.19182051718235016,-0.1384667307138443,-0.24658966064453125
1772732283440065800,6.393065673828125,0.22642715275287628,-0.19518901407718658,-0.25721442699432373
1772732283450092800,6.4030927734375,0.23755250871181488,-0.2663492262363434,-0.2516806423664093
1772732283460120800,6.413120849609375,0.23101316392421722,-0.33056455850601196,-0.24800799787044525
1772732283470147800,6.42314794921875,0.21129325032234192,-0.3764955401420593,-0.24099670350551605
1772732283480175600,6.433175537109375,0.18116383254528046,-0.403469979763031,-0.22440747916698456
1772732283490204000,6.443203857421875,0.13136591017246246,-0.4285857081413269,-0.19354011118412018
1772732283500231000,6.45323095703125,0.08328094333410263,-0.43876969814300537,-0.16277188062667847
1772732283510259000,6.463259033203125,0.04111245274543762,-0.42794129252433777,-0.1319359391927719
1772732283520286700,6.47328662109375,0.002462388714775443,-0.3990083336830139,-0.10710618644952774
1772732283530313700,6.483313720703125,-0.022031769156455994,-0.3530304729938507,-0.08364586532115936
1772732283540341800,6.493341796875,-0.049072910100221634,-0.30090171098709106,-0.05407344177365303
1772732283550369800,6.503369873046875,-0.09181797504425049,-0.25632545351982117,-0.036408960819244385
1772732283560396800,6.513396728515625,-0.1382891833782196,-0.23102328181266785,-0.03643036633729935
1772732283570424800,6.5234248046875,-0.1772589534521103,-0.22569668292999268,-0.034666553139686584
1772732283580451800,6.533451904296875,-0.20392277836799622,-0.20762234926223755,-0.04226774722337723
1772732283590480000,6.54347998046875,-0.20949891209602356,-0.1620015949010849,-0.07194814085960388
1772732283600507600,6.553507568359375,-0.20595887303352356,-0.09904453158378601,-0.10147283971309662
1772732283610535000,6.563534912109375,-0.19767963886260986,-0.009247001260519028,-0.13375380635261536
1772732283620562700,6.573562744140625,-0.19264793395996094,0.13187642395496368,-0.17487896978855133
1772732283630591000,6.583591064453125,-0.19125564396381378,0.2898908257484436,-0.21584104001522064
1772732283640617700,6.59361767578125,-0.2230893224477768,0.42474421858787537,-0.19927267730236053
1772732283650645800,6.603645751953125,-0.2872067987918854,0.5172664523124695,-0.1212356686592102
1772732283660673000,6.613673095703125,-0.3572957217693329,0.5749252438545227,-0.004771945532411337
1772732283670700800,6.62370068359375,-0.41421014070510864,0.5893824696540833,0.11959687620401382
1772732283680728800,6.633728759765625,-0.43891867995262146,0.5682345628738403,0.22706633806228638
1772732283690755800,6.643755859375,-0.42664870619773865,0.48123815655708313,0.2843192517757416
1772732283700783600,6.65378369140625,-0.3906962275505066,0.35854485630989075,0.3061141073703766
1772732283710812000,6.66381201171875,-0.3587247133255005,0.24344757199287415,0.29885193705558777
1772732283720839000,6.6738388671875,-0.3352034091949463,0.14087821543216705,0.2851575016975403
1772732283730867000,6.683866943359375,-0.3084988296031952,0.023033596575260162,0.27687108516693115
1772732283740894700,6.693894775390625,-0.2719278633594513,-0.09350772202014923,0.2755199670791626
1772732283750921700,6.703921630859375,-0.24322032928466797,-0.1997273564338684,0.285351037979126
1772732283760949800,6.71394970703125,-0.2200177013874054,-0.2843632698059082,0.31169500946998596
1772732283770976800,6.723976806640625,-0.2029809206724167,-0.3470836281776428,0.3474005460739136
1772732283781004800,6.7340048828125,-0.18730208277702332,-0.3878340721130371,0.37093281745910645
1772732283791032800,6.74403271484375,-0.17543476819992065,-0.4105644226074219,0.37577202916145325
1772732283801059800,6.754059814453125,-0.15417422354221344,-0.3852952718734741,0.36326315999031067
1772732283811088000,6.764087890625,-0.10272753983736038,-0.304718941450119,0.3447909355163574
1772732283821115600,6.77411572265625,-0.03255631774663925,-0.1944853812456131,0.33019596338272095
1772732283831143000,6.784142822265625,0.0202320609241724,-0.08985962718725204,0.32019686698913574
1772732283841170700,6.794170654296875,0.050378844141960144,0.005780977196991444,0.3003315031528473
1772732283851197700,6.80419775390625,0.07230757921934128,0.09300509095191956,0.27410122752189636
1772732283861225700,6.814225830078125,0.09601476043462753,0.15749502182006836,0.2588709592819214
1772732283871253800,6.824253662109375,0.10667086392641068,0.18464355170726776,0.2467900514602661
1772732283881281000,6.834281005859375,0.11036775261163712,0.18172955513000488,0.23317880928516388
1772732283891308800,6.844308837890625,0.1131821796298027,0.17302660644054413,0.19639603793621063
1772732283901336800,6.8543369140625,0.12104034423828125,0.16568319499492645,0.14222605526447296
1772732283911363800,6.86436376953125,0.12682604789733887,0.15299376845359802,0.0947384312748909
1772732283921391600,6.8743916015625,0.12173086404800415,0.14395205676555634,0.06546209752559662
1772732283931419000,6.8844189453125,0.11134880036115646,0.15643136203289032,0.039916254580020905
1772732283941446700,6.89444677734375,0.09035444259643555,0.1821657419204712,0.0276953112334013
1772732283951475000,6.904474853515625,0.05037293583154678,0.213340163230896,0.04075412079691887
1772732283961502000,6.914501953125,0.007291529793292284,0.24296952784061432,0.06629882752895355
1772732283971529700,6.92452978515625,-0.043137554079294205,0.2642095685005188,0.09560265392065048
1772732283981557800,6.934557861328125,-0.08778700232505798,0.28328728675842285,0.11507876217365265
1772732283991584800,6.944584716796875,-0.12119262665510178,0.30620431900024414,0.1065840795636177
1772732284001612800,6.95461279296875,-0.13938352465629578,0.3261677026748657,0.07305577397346497
1772732284011640300,6.964640380859375,-0.15914471447467804,0.3468564450740814,0.02675219252705574
1772732284021668000,6.974668212890625,-0.17794938385486603,0.368864506483078,-0.010477294214069843
1772732284031696400,6.9846962890625,-0.2010488361120224,0.4031282067298889,-0.056177135556936264
1772732284041723100,6.99472314453125,-0.2238343060016632,0.46242809295654297,-0.11533213406801224
1772732284051751200,7.004751220703125,-0.2286418378353119,0.48411500453948975,-0.15738585591316223
1772732284061779200,7.014779296875,-0.21417729556560516,0.46498122811317444,-0.18746694922447205
1772732284071806200,7.02480615234375,-0.1965804547071457,0.44555267691612244,-0.23091454803943634
1772732284081834200,7.034834228515625,-0.18340758979320526,0.38818132877349854,-0.2644069194793701
1772732284091862300,7.0448623046875,-0.1526576578617096,0.3565797209739685,-0.2965901494026184
1772732284101889000,7.054888916015625,-0.12617069482803345,0.3228073716163635,-0.32839781045913696
1772732284111917300,7.064917236328125,-0.14461307227611542,0.2552293837070465,-0.3407120108604431
1772732284121944000,7.074944091796875,-0.15625743567943573,0.18286050856113434,-0.3456120789051056
1772732284131972400,7.084972412109375,-0.1844232976436615,0.08966824412345886,-0.35257038474082947
1772732284142000000,7.095000244140625,-0.21883416175842285,-0.037412241101264954,-0.384684294462204
1772732284152027100,7.105027099609375,-0.22992409765720367,-0.16840673983097076,-0.4174981713294983
1772732284162055200,7.11505517578125,-0.23263925313949585,-0.3179466426372528,-0.43613138794898987
1772732284172083200,7.125083251953125,-0.1777198165655136,-0.38391953706741333,-0.4808272123336792
1772732284182110200,7.135110107421875,-0.09433809667825699,-0.41925713419914246,-0.5181964039802551
1772732284192138200,7.14513818359375,-0.011201663874089718,-0.44055068492889404,-0.5195993781089783
1772732284202165200,7.155165283203125,0.0658867284655571,-0.43111246824264526,-0.4760524332523346
1772732284212193300,7.165193359375,0.11076365411281586,-0.3944929242134094,-0.4198213815689087
1772732284222221000,7.175220947265625,0.11661519855260849,-0.3350052237510681,-0.3642096519470215
1772732284232248300,7.185248291015625,0.08883416652679443,-0.26815056800842285,-0.31008514761924744
1772732284242276000,7.195276123046875,0.054336536675691605,-0.2080485075712204,-0.2759903371334076
1772732284252304400,7.205304443359375,0.030273545533418655,-0.14898625016212463,-0.26105159521102905
1772732284262331100,7.2153310546875,0.020965812727808952,-0.10151343047618866,-0.2550254464149475
1772732284272359200,7.225359130859375,0.029243716970086098,-0.09680736064910889,-0.25400492548942566
1772732284282386200,7.23538623046875,0.06532279402017593,-0.08572626858949661,-0.28958913683891296
1772732284292414200,7.245414306640625,0.10685931891202927,-0.09566332399845123,-0.3335755169391632
1772732284302442200,7.255442138671875,0.15704894065856934,-0.10291896760463715,-0.3768914043903351
1772732284312469200,7.26546923828125,0.20160281658172607,-0.10268168151378632,-0.38875019550323486
1772732284322497300,7.275497314453125,0.2181471288204193,-0.09150725603103638,-0.37099939584732056
1772732284332525300,7.285525390625,0.2034190595149994,-0.05200085788965225,-0.3181958496570587
1772732284342552000,7.295552001953125,0.16835322976112366,0.008106664754450321,-0.22494810819625854
1772732284352580400,7.305580322265625,0.10928697884082794,0.055081360042095184,-0.08582668751478195
1772732284362607400,7.315607421875,0.04530060291290283,0.09298823773860931,0.05393501743674278
1772732284372635400,7.325635498046875,-0.01043269969522953,0.11100319027900696,0.1777845323085785
1772732284382663200,7.3356630859375,-0.055492836982011795,0.11939765512943268,0.2784232497215271
1772732284392690200,7.345690185546875,-0.09819742292165756,0.1336117386817932,0.3398765027523041
1772732284402718200,7.35571826171875,-0.12417720258235931,0.14773479104042053,0.37073764204978943
1772732284412746200,7.365746337890625,-0.13609644770622253,0.17067445814609528,0.38842689990997314
1772732284422773200,7.375773193359375,-0.1371346265077591,0.2079765945672989,0.3941138982772827
1772732284432801300,7.38580126953125,-0.13517507910728455,0.2741135358810425,0.3683403730392456
1772732284442829000,7.3958291015625,-0.13608968257904053,0.335934579372406,0.3254663944244385
1772732284452856300,7.405856201171875,-0.13406994938850403,0.39284151792526245,0.26850298047065735
1772732284462884000,7.415884033203125,-0.12161948531866074,0.4358367919921875,0.21245373785495758
1772732284472911400,7.425911376953125,-0.09748059511184692,0.4473664164543152,0.1754608303308487
1772732284482939100,7.435939208984375,-0.07926709204912186,0.42135897278785706,0.16122886538505554
1772732284492967400,7.445967529296875,-0.08551700413227081,0.3795817196369171,0.15049074590206146
1772732284502994200,7.455994140625,-0.12782730162143707,0.3424755334854126,0.15450860559940338
1772732284513022200,7.466022216796875,-0.17155639827251434,0.3013480603694916,0.15264572203159332
1772732284523050200,7.47605029296875,-0.20047993957996368,0.27529504895210266,0.14518548548221588
1772732284533077200,7.4860771484375,-0.22170640528202057,0.241572767496109,0.12687864899635315
1772732284543105300,7.496105224609375,-0.22721713781356812,0.2235225886106491,0.0720883384346962
1772732284553132300,7.50613232421875,-0.2046862691640854,0.2590249180793762,-0.057670190930366516
1772732284563160000,7.51616015625,-0.1343228816986084,0.34558069705963135,-0.23787038028240204
1772732284573188400,7.526188232421875,0.0031135466415435076,0.47075536847114563,-0.43882930278778076
1772732284583215400,7.53621533203125,0.16995492577552795,0.6009417772293091,-0.6297668814659119
1772732284593243400,7.546243408203125,0.3192621171474457,0.6523261070251465,-0.8158778548240662
1772732284603271200,7.556271240234375,0.44136369228363037,0.6182457208633423,-1.0468674898147583
1772732284613298200,7.566298095703125,0.545397162437439,0.5604695081710815,-1.311662197113037
1772732284623326200,7.576326171875,0.624040424823761,0.5187287330627441,-1.4771760702133179
1772732284633353200,7.586353271484375,0.6499530076980591,0.4703737497329712,-1.4478696584701538
1772732284643381200,7.59638134765625,0.5822145342826843,0.42158910632133484,-1.275843858718872
1772732284653409300,7.6064091796875,0.5626959204673767,0.34472203254699707,-0.9650779962539673
1772732284663436300,7.616436279296875,0.49023494124412537,0.23051750659942627,-0.5565382242202759
1772732284673464300,7.62646435546875,0.3207132816314697,0.09873925149440765,-0.1336340755224228
1772732284683492000,7.6364921875,0.13150574266910553,-0.01802229881286621,0.2506157159805298
1772732284693519400,7.646519287109375,-0.05068083107471466,-0.13130198419094086,0.5972407460212708
1772732284703547100,7.656547119140625,-0.23376931250095367,-0.24023111164569855,0.9112298488616943
1772732284713575400,7.666575439453125,-0.3984549045562744,-0.3184809386730194,1.182494044303894
1772732284723602200,7.676602294921875,-0.5338705778121948,-0.35200852155685425,1.4085149765014648
1772732284733630200,7.686630126953125,-0.640256404876709,-0.35444825887680054,1.6169581413269043
1772732284743657500,7.696657470703125,-0.7017293572425842,-0.334053099155426,1.7677135467529297
1772732284753685200,7.706685302734375,-0.7280957102775574,-0.2781272530555725,1.838454008102417
1772732284763713300,7.71671337890625,-0.7242530584335327,-0.2026173323392868,1.8260042667388916
1772732284773740300,7.726740234375,-0.6837647557258606,-0.1369592249393463,1.7370948791503906
1772732284783768000,7.73676806640625,-0.617792010307312,-0.10675965994596481,1.586316466331482
1772732284793796400,7.74679638671875,-0.4951092004776001,-0.010011815465986729,1.3262982368469238
1772732284803823400,7.7568232421875,-0.36980339884757996,0.044053077697753906,1.0429185628890991
1772732284813851400,7.766851318359375,-0.22473356127738953,0.09771976619958878,0.7157543301582336
1772732284823878400,7.77687841796875,-0.0714397057890892,0.15833032131195068,0.3897225856781006
1772732284833906200,7.78690625,0.062488000839948654,0.1888006180524826,0.12225865572690964
1772732284843934200,7.796934326171875,0.1658087521791458,0.17362147569656372,-0.0759558454155922
1772732284853961200,7.806961181640625,0.2586936950683594,0.14812064170837402,-0.2141866832971573
1772732284863989200,7.8169892578125,0.3360341489315033,0.10769448429346085,-0.2886801064014435
1772732284874017300,7.827017333984375,0.4036531448364258,0.04927884042263031,-0.3169735372066498
1772732284884044300,7.837044189453125,0.44536450505256653,-0.020270707085728645,-0.3234550654888153
1772732284894072300,7.847072265625,0.46095117926597595,-0.10207130014896393,-0.34102606773376465
1772732284904099300,7.857099365234375,0.44770848751068115,-0.18062786757946014,-0.3484635651111603
1772732284914127400,7.86712744140625,0.42695340514183044,-0.25069934129714966,-0.3452642858028412
1772732284924155100,7.877155029296875,0.37826481461524963,-0.3474902808666229,-0.30432742834091187
1772732284934182100,7.88718212890625,0.34793487191200256,-0.3597815930843353,-0.24578581750392914
1772732284944210200,7.897210205078125,0.3490803837776184,-0.2555146813392639,-0.1899334043264389
1772732284954238200,7.90723828125,0.2989135980606079,-0.18486446142196655,-0.08492282032966614
1772732284964265500,7.917265380859375,0.23808109760284424,-0.10475379228591919,-0.005583670921623707
1772732284974293200,7.927293212890625,0.18604318797588348,-0.03922644257545471,0.03384123370051384
1772732284984321300,7.9373212890625,0.16494105756282806,-0.014093589968979359,0.033288680016994476
1772732284994348300,7.947348388671875,0.18861736357212067,0.0074801454320549965,0.0023984075523912907
1772732285004376000,7.9573759765625,0.2232990264892578,0.02237996831536293,-0.03819286450743675
1772732285014403000,7.967403076171875,0.26980048418045044,0.017526887357234955,-0.06254028528928757
1772732285024431000,7.97743115234375,0.3239583671092987,0.007982463575899601,-0.08343834429979324
1772732285034459100,7.987459228515625,0.3847458064556122,-0.011614940129220486,-0.1290966421365738
1772732285044486100,7.997486083984375,0.4501742124557495,-0.03683330863714218,-0.20234233140945435
1772732285054514200,8.00751416015625,0.4959867000579834,-0.07121338695287704,-0.2977985441684723
1772732285064542000,8.0175419921875,0.5127543210983276,-0.09944046288728714,-0.3973982334136963
1772732285074569000,8.02756884765625,0.5184904932975769,-0.11911802738904953,-0.4697094261646271
1772732285084597000,8.037596923828126,0.5112083554267883,-0.1304658204317093,-0.4946385622024536
1772732285094624000,8.0476240234375,0.4845764636993408,-0.14161407947540283,-0.491437703371048
1772732285104652300,8.05765234375,0.4485500454902649,-0.15052199363708496,-0.48388442397117615
1772732285114680000,8.06768017578125,0.4108745753765106,-0.14862023293972015,-0.47719377279281616
1772732285124707000,8.07770703125,0.35939058661460876,-0.14440979063510895,-0.45193737745285034
1772732285134735000,8.087735107421874,0.3021230101585388,-0.15122215449810028,-0.3883618414402008
1772732285144763000,8.097762939453125,0.23064857721328735,-0.17025204002857208,-0.295357346534729
1772732285154790100,8.1077900390625,0.1477522850036621,-0.1919843852519989,-0.18746185302734375
1772732285164818200,8.117818115234375,0.06912054121494293,-0.20837421715259552,-0.08630882203578949
1772732285174845000,8.127844970703125,-0.00392224220559001,-0.2216724455356598,0.0004622959822881967
1772732285184873200,8.137873291015625,-0.07044897228479385,-0.2138781100511551,0.07141219079494476
1772732285194901000,8.14790087890625,-0.1283988207578659,-0.18595726788043976,0.12944886088371277
1772732285204928300,8.15792822265625,-0.17507261037826538,-0.15204313397407532,0.18744345009326935
1772732285214956000,8.1679560546875,-0.2067578285932541,-0.12055925279855728,0.2373015582561493
1772732285224984000,8.177984130859375,-0.22331711649894714,-0.10134971886873245,0.2648107409477234
1772732285235011000,8.188010986328125,-0.22516827285289764,-0.1083301305770874,0.2696380019187927
1772732285245039000,8.1980390625,-0.22029604017734528,-0.15800970792770386,0.24818702042102814
1772732285255067100,8.208067138671876,-0.2131614238023758,-0.26444587111473083,0.19476373493671417
1772732285265094100,8.21809423828125,-0.2152567058801651,-0.40792691707611084,0.11681417375802994
1772732285275122200,8.2281220703125,-0.22077077627182007,-0.5605678558349609,0.042974576354026794
1772732285285149200,8.238149169921876,-0.23025107383728027,-0.6841825842857361,0.029562566429376602
1772732285295177000,8.248177001953126,-0.26130619645118713,-0.8124313950538635,0.1198091059923172
1772732285305205000,8.258205078125,-0.30242452025413513,-0.9870139360427856,0.23594464361667633
1772732285315232000,8.26823193359375,-0.32474207878112793,-1.1328357458114624,0.23778729140758514
1772732285325260300,8.27826025390625,-0.34213098883628845,-1.1436342000961304,0.09519025683403015
1772732285335288000,8.2882880859375,-0.31423836946487427,-1.072756052017212,-0.07151803374290466
1772732285345315000,8.298315185546874,-0.1932467520236969,-0.7611810564994812,-0.2525750398635864
1772732285355343000,8.308343017578125,-0.015049055218696594,-0.13245023787021637,-0.45606371760368347
1772732285365370000,8.3183701171875,0.13486212491989136,0.5493772029876709,-0.5471591949462891
1772732285375398100,8.328398193359375,0.20837415754795074,1.0117560625076294,-0.438967227935791
1772732285385426000,8.338426025390625,0.21040622889995575,1.2138707637786865,-0.1561521738767624
1772732285395453000,8.348452880859375,0.15165503323078156,1.1189777851104736,0.18647629022598267
1772732285405481200,8.358481201171875,0.05970006436109543,0.7291665077209473,0.4862070679664612
1772732285415509000,8.368509033203125,-0.07984558492898941,0.21214143931865692,0.6412078142166138
1772732285425536300,8.378536376953125,-0.21457432210445404,-0.28662294149398804,0.6597702503204346
1772732285435564000,8.38856396484375,-0.3386310338973999,-0.7148379683494568,0.6002362966537476
1772732285445591000,8.398591064453125,-0.4541414678096771,-0.982469916343689,0.49822789430618286
1772732285455619000,8.408619140625,-0.5315081477165222,-1.0695598125457764,0.37601569294929504
1772732285465647000,8.418647216796876,-0.5467974543571472,-1.0253981351852417,0.22640715539455414
1772732285475674000,8.428674072265625,-0.5170714855194092,-0.8692479729652405,0.08514857292175293
1772732285485702100,8.4387021484375,-0.4712921977043152,-0.6656314134597778,-0.012884695082902908
1772732285495730200,8.448730224609376,-0.32170432806015015,-0.2969069182872772,-0.12529192864894867
1772732285505757200,8.458757080078126,-0.16739743947982788,0.011564720422029495,-0.20048706233501434
1772732285515785000,8.468784912109374,-0.05721687525510788,0.21319158375263214,-0.2713172733783722
1772732285525813000,8.47881298828125,-0.001933205290697515,0.33931589126586914,-0.31652000546455383
1772732285535840000,8.488840087890624,0.013610866852104664,0.3592488467693329,-0.32780301570892334
1772732285545868000,8.498867919921874,-0.00274864980019629,0.2485719919204712,-0.3373158872127533
1772732285555895000,8.50889501953125,-0.04535336792469025,0.06659500300884247,-0.33317652344703674
1772732285565923000,8.518923095703125,-0.1012418121099472,-0.1430036872625351,-0.29275718331336975
1772732285575951000,8.528951171875,-0.15240351855754852,-0.3300881087779999,-0.24940064549446106
1772732285585978000,8.53897802734375,-0.19435781240463257,-0.46002233028411865,-0.2308276742696762
1772732285596006100,8.549006103515625,-0.22885853052139282,-0.5107946991920471,-0.18361622095108032
1772732285606034000,8.559033935546875,-0.23942667245864868,-0.48913824558258057,-0.11779238283634186
1772732285616061000,8.56906103515625,-0.22747866809368134,-0.39728766679763794,-0.05455242842435837
1772732285626089200,8.579089111328125,-0.20599330961704254,-0.2586471140384674,-0.004873412195593119
1772732285636116000,8.589115966796875,-0.18812295794487,-0.09874347597360611,0.044692546129226685
1772732285646144300,8.599144287109375,-0.18102557957172394,0.046537213027477264,0.07802541553974152
1772732285656172000,8.609172119140625,-0.1823291927576065,0.13174398243427277,0.0729137435555458
1772732285666199000,8.619198974609375,-0.19886955618858337,0.1495903581380844,0.035288866609334946
1772732285676227000,8.62922705078125,-0.20711763203144073,0.1330747753381729,-0.026224026456475258
1772732285686255000,8.639255126953126,-0.20962990820407867,0.08839181810617447,-0.09108933806419373
1772732285696282000,8.6492822265625,-0.20702587068080902,0.036008503288030624,-0.13970054686069489
1772732285706310100,8.65931005859375,-0.1905817985534668,-0.0036122389137744904,-0.18480408191680908
1772732285716338200,8.669338134765624,-0.16657979786396027,-0.006742518395185471,-0.22376292943954468
1772732285726365200,8.679365234375,-0.14275483787059784,0.021844690665602684,-0.24331864714622498
1772732285736393000,8.68939306640625,-0.12690263986587524,0.05562342703342438,-0.23847009241580963
1772732285746420200,8.699420166015624,-0.09166092425584793,0.08353101462125778,-0.21834449470043182
1772732285756448000,8.709447998046874,-0.04425293579697609,0.11137063801288605,-0.20815017819404602
1772732285766476000,8.71947607421875,-0.005845122504979372,0.1364959478378296,-0.22385531663894653
1772732285776503000,8.7295029296875,0.021771324798464775,0.14556214213371277,-0.2528451681137085
1772732285786531000,8.739531005859375,0.04635394737124443,0.14058348536491394,-0.26465079188346863
1772732285796559000,8.74955908203125,0.057146940380334854,0.14860279858112335,-0.2643016576766968
1772732285806586000,8.759586181640625,0.06121651455760002,0.15669108927249908,-0.25087106227874756
1772732285816614100,8.7696142578125,0.050883982330560684,0.17101889848709106,-0.22243250906467438
1772732285826641200,8.77964111328125,0.022403622046113014,0.19019410014152527,-0.1698305457830429
1772732285836669000,8.7896689453125,-0.007960408926010132,0.21389436721801758,-0.11885125190019608
1772732285846697200,8.799697265625,-0.026677966117858887,0.24837186932563782,-0.06776291877031326
1772732285856724000,8.809723876953125,-0.031121449545025826,0.284709632396698,-0.018050754442811012
1772732285866752300,8.819752197265625,-0.029501620680093765,0.312822550535202,0.046129386872053146
1772732285876780000,8.829780029296876,0.012880988419055939,0.4362736642360687,0.05997276306152344
1772732285886807000,8.83980712890625,0.029712215065956116,0.5198485851287842,0.08895369619131088
1772732285896835000,8.8498349609375,0.04016458988189697,0.581803560256958,0.11092664301395416
1772732285906862800,8.85986279296875,0.04454495757818222,0.625368595123291,0.10244260728359222
1772732285916890000,8.86989013671875,0.05438986420631409,0.6339799165725708,0.06971661746501923
1772732285926918100,8.879918212890624,0.07868454605340958,0.6138195395469666,0.03580312430858612
1772732285936945200,8.889945068359374,0.11790651828050613,0.5726587772369385,0.00014472988550551236
1772732285946973200,8.89997314453125,0.15986265242099762,0.5195749402046204,-0.028086936101317406
1772732285957001000,8.9100009765625,0.20397259294986725,0.4818507134914398,-0.021473508328199387
1772732285967028200,8.9200283203125,0.23411273956298828,0.46585795283317566,0.021911872550845146
1772732285977056000,8.930055908203125,0.24389773607254028,0.4562878906726837,0.10318542271852493
1772732285987084000,8.940083984375,0.23622764647006989,0.40911057591438293,0.20346230268478394
1772732285997111000,8.950111083984375,0.2335362583398819,0.34152352809906006,0.2774028480052948
1772732286007139000,8.96013916015625,0.24103610217571259,0.3291708827018738,0.26545754075050354
1772732286017167000,8.9701669921875,0.2520224452018738,0.40278199315071106,0.19649098813533783
1772732286027194000,8.980194091796875,0.2855759859085083,0.5476517677307129,0.13639944791793823
1772732286037222100,8.99022216796875,0.35927629470825195,0.7516613602638245,0.10288596153259277
1772732286047249200,9.000249267578125,0.4487590491771698,1.0038765668869019,0.09512311965227127
1772732286057277000,9.01027685546875,0.5279779434204102,1.2446433305740356,0.13968658447265625
1772732286067305200,9.02030517578125,0.5731778740882874,1.4162639379501343,0.24421843886375427
1772732286077332000,9.03033203125,0.5923827290534973,1.4662530422210693,0.26748302578926086
1772732286087360300,9.0403603515625,0.589940071105957,1.3797028064727783,0.1527455747127533
1772732286097388000,9.050387939453126,0.5708616971969604,1.1855075359344482,0.00826455932110548
1772732286107415300,9.060415283203126,0.537334680557251,0.9267140626907349,-0.08291234076023102
1772732286117443000,9.070443115234376,0.48683634400367737,0.6492419838905334,-0.10627784579992294
1772732286127470000,9.080469970703126,0.4124682545661926,0.39101266860961914,-0.06954516470432281
1772732286137498000,9.090498046875,0.3248412013053894,0.15393994748592377,0.05252215638756752
1772732286147526100,9.100526123046874,0.21080969274044037,-0.058749713003635406,0.2699615955352783
1772732286157553200,9.11055322265625,0.07271626591682434,-0.20470692217350006,0.524328887462616
1772732286167581200,9.120581298828125,-0.08742819726467133,-0.3136579394340515,0.7685563564300537
1772732286177609000,9.13060888671875,-0.18747517466545105,-0.25122973322868347,0.9318336844444275
1772732286187636200,9.14063623046875,-0.2827489674091339,-0.12712827324867249,1.0342971086502075
1772732286197664000,9.1506640625,-0.38491714000701904,-0.02397552877664566,1.0603591203689575
1772732286207691300,9.160691162109375,-0.45495298504829407,0.10049235075712204,0.9746131300926208
1772732286217719000,9.170718994140625,-0.47081610560417175,0.2366270124912262,0.8082521557807922
1772732286227747000,9.1807470703125,-0.45689135789871216,0.33887502551078796,0.6260660886764526
1772732286237774000,9.190774169921875,-0.41328662633895874,0.41253194212913513,0.44248583912849426
1772732286247802000,9.200802001953125,-0.3346531093120575,0.48559215664863586,0.2603595554828644
1772732286257830100,9.210830078125,-0.2293626219034195,0.5627852082252502,0.05315258353948593
1772732286267857200,9.220857177734375,-0.11086665838956833,0.5921218395233154,-0.17231324315071106
1772732286277885200,9.23088525390625,-0.005380448419600725,0.5463751554489136,-0.3867352604866028
1772732286287913000,9.240912841796876,0.06524699181318283,0.44561097025871277,-0.6169037222862244
1772732286297940000,9.25093994140625,0.19992037117481232,0.3427940309047699,-0.8180879354476929
1772732286307968300,9.26096826171875,0.3359627425670624,0.16983456909656525,-0.906257688999176
1772732286317995000,9.2709951171875,0.43171536922454834,-0.05949821323156357,-0.9017886519432068
1772732286328023300,9.281023193359376,0.4951675534248352,-0.3083344101905823,-0.821243166923523
1772732286338051000,9.291051025390624,0.5093159079551697,-0.54036545753479,-0.6962450742721558
1772732286348078000,9.301078125,0.4704246520996094,-0.7121259570121765,-0.5770331621170044
1772732286358106000,9.311106201171874,0.3952478766441345,-0.8081979155540466,-0.4800970256328583
1772732286368134100,9.321134033203125,0.3266839385032654,-0.8316642045974731,-0.39060720801353455
1772732286378161200,9.3311611328125,0.26708024740219116,-0.78661048412323,-0.2911141514778137
1772732286388188200,9.341188232421874,0.24118579924106598,-0.6677085757255554,-0.18114078044891357
1772732286398216000,9.3512158203125,0.24041827023029327,-0.5306575298309326,-0.07091601192951202
1772732286408244200,9.361244140625,0.2532168924808502,-0.389969140291214,0.03744428604841232
1772732286418271000,9.37127099609375,0.2689759433269501,-0.26643481850624084,0.10578620433807373
1772732286428299300,9.38129931640625,0.2910524904727936,-0.1885511875152588,0.12254595011472702
1772732286438327000,9.3913271484375,0.3026580214500427,-0.1863841712474823,0.09786377847194672
1772732286448354000,9.40135400390625,0.30699560046195984,-0.23667284846305847,0.03790119290351868
1772732286458382000,9.411382080078125,0.3150375485420227,-0.2878428101539612,-0.04822250455617905
1772732286468409000,9.4214091796875,0.3215363025665283,-0.3354344367980957,-0.14144396781921387
1772732286478437000,9.43143701171875,0.3246162235736847,-0.379462867975235,-0.22533434629440308
1772732286488465200,9.441465087890625,0.3289882242679596,-0.3917275369167328,-0.2976067066192627
1772732286498492000,9.451491943359375,0.34202840924263,-0.3700571060180664,-0.33826944231987
1772732286508520200,9.461520263671876,0.3585169017314911,-0.3299714922904968,-0.3412254750728607
1772732286518548000,9.4715478515625,0.35341718792915344,-0.2876996695995331,-0.29186296463012695
1772732286528575200,9.4815751953125,0.3279767334461212,-0.25559258460998535,-0.20776864886283875
1772732286538603000,9.49160302734375,0.29497671127319336,-0.23164252936840057,-0.13967294991016388
1772732286548631300,9.50163134765625,0.27285391092300415,-0.2248811423778534,-0.10949364304542542
1772732286558658000,9.511657958984374,0.24737386405467987,-0.2384672611951828,-0.113725945353508
1772732286568686000,9.52168603515625,0.22419042885303497,-0.2773713767528534,-0.13209012150764465
1772732286578713000,9.531713134765624,0.19321732223033905,-0.32161635160446167,-0.1260085254907608
1772732286588741000,9.5417412109375,0.15528127551078796,-0.36981379985809326,-0.06918548792600632
1772732286598769200,9.55176904296875,0.10046649724245071,-0.3960781693458557,0.015850311145186424
1772732286608796200,9.561796142578125,0.04832747206091881,-0.40363919734954834,0.11092504113912582
1772732286618824000,9.571823974609375,-0.001448869938030839,-0.4023742079734802,0.20747262239456177
1772732286628852200,9.581852294921875,-0.052478592842817307,-0.42138075828552246,0.304816335439682
1772732286638879000,9.59187890625,-0.08423972129821777,-0.4666004478931427,0.39381465315818787
1772732286648907300,9.6019072265625,-0.09610463678836823,-0.5096149444580078,0.4567617177963257
1772732286658935000,9.61193505859375,-0.08036082237958908,-0.5600227117538452,0.5086944103240967
1772732286668962000,9.621962158203125,-0.03865655139088631,-0.6278077363967896,0.5389924049377441
1772732286678990000,9.631989990234375,0.002209654776379466,-0.7260488271713257,0.5279906392097473
1772732286689017000,9.64201708984375,0.04689363017678261,-0.8818137645721436,0.4936901926994324
1772732286699045000,9.652045166015625,0.08217518776655197,-1.0759170055389404,0.41371601819992065
1772732286709073200,9.6620732421875,0.08095374703407288,-1.2200020551681519,0.24433280527591705
1772732286719100000,9.672099853515626,0.02159109152853489,-1.2124115228652954,0.0169926006346941
1772732286729128200,9.682128173828126,-0.07679353654384613,-1.0615373849868774,-0.17997479438781738
1772732286739156000,9.692156005859376,-0.15754489600658417,-0.778011679649353,-0.32307618856430054
1772732286749183200,9.702183349609374,-0.19169487059116364,-0.3911156952381134,-0.40382829308509827
1772732286759211000,9.7122109375,-0.1889934539794922,-0.04476454108953476,-0.36618244647979736
1772732286769238000,9.722238037109374,-0.16597121953964233,0.1499788463115692,-0.1824919879436493
1772732286779266000,9.73226611328125,-0.1380690187215805,0.17844271659851074,0.06972881406545639
1772732286789294000,9.742294189453125,-0.15928535163402557,0.09778328239917755,0.24541115760803223
1772732286799321000,9.752321044921874,-0.22659911215305328,-0.0017575547099113464,0.2881782054901123
1772732286809349000,9.76234912109375,-0.30667105317115784,-0.06078971549868584,0.20366652309894562
1772732286819377200,9.772377197265625,-0.3693922460079193,-0.048772864043712616,0.058064430952072144
1772732286829404200,9.782404052734375,-0.3980042040348053,0.013762153685092926,-0.07612346112728119
1772732286839432000,9.792431884765625,-0.37905749678611755,0.08821917325258255,-0.12161241471767426
1772732286849460200,9.802460205078125,-0.3439037799835205,0.12744620442390442,-0.11371055245399475
1772732286859487000,9.812487060546875,-0.2668918967247009,0.21504400670528412,-0.05986398085951805
1772732286869515300,9.822515380859375,-0.23533077538013458,0.22670972347259521,-0.01568959467113018
1772732286879542000,9.8325419921875,-0.2842792570590973,0.18461039662361145,0.000029947608709335327
1772732286889570000,9.842570068359375,-0.32149720191955566,0.14732800424098969,0.04210522770881653
1772732286899598000,9.85259814453125,-0.35868600010871887,0.09313862025737762,0.10673139244318008
1772732286909625000,9.862625,-0.4017796814441681,0.04010416194796562,0.14144942164421082
1772732286919653000,9.872653076171876,-0.4465043246746063,0.022581228986382484,0.1324419230222702
1772732286929681200,9.88268115234375,-0.4819736182689667,0.16126799583435059,0.14216113090515137
1772732286939708000,9.8927080078125,-0.42526939511299133,0.1589854657649994,0.11132904142141342
1772732286949736200,9.902736083984376,-0.43390336632728577,0.14411543309688568,0.049119994044303894
1772732286959764000,9.912763916015624,-0.42199981212615967,0.15886349976062775,-0.029594849795103073
1772732286969791200,9.922791259765624,-0.3859291672706604,0.137397900223732,-0.1116148829460144
1772732286979819000,9.932819091796874,-0.3849835693836212,0.08250902593135834,-0.1869504749774933
1772732286989846000,9.942845947265624,-0.39501622319221497,0.005077882669866085,-0.2622454762458801
1772732286999874000,9.9528740234375,-0.41148731112480164,-0.04732804745435715,-0.3124951422214508
1772732287009901600,9.962901611328125,-0.4296386241912842,-0.060192711651325226,-0.3224543035030365
1772732287019928600,9.972928466796875,-0.44928884506225586,-0.030549217015504837,-0.3067726194858551
1772732287029956400,9.982956298828125,-0.4753763675689697,0.029672842472791672,-0.2751089632511139
1772732287039984400,9.992984375,-0.490626722574234,0.11172908544540405,-0.24198345839977264
1772732287050011400,10.003011474609375,-0.49234819412231445,0.20451520383358002,-0.20029166340827942
1772732287060039400,10.013039306640625,-0.4760556221008301,0.30367010831832886,-0.15972137451171875
1772732287070067500,10.0230673828125,-0.461417555809021,0.37898990511894226,-0.10344211012125015
1772732287080094500,10.033094482421875,-0.4560249149799347,0.4224487841129303,-0.026456519961357117
1772732287090122500,10.04312255859375,-0.45942631363868713,0.4248940944671631,0.061828866600990295
1772732287100149500,10.0531494140625,-0.46301203966140747,0.3809144198894501,0.12065055221319199
1772732287110177500,10.063177490234375,-0.46963319182395935,0.30472511053085327,0.15914522111415863
1772732287120205300,10.073205322265625,-0.46894970536231995,0.24013857543468475,0.1904333233833313
1772732287130232600,10.083232666015626,-0.444174587726593,0.17037227749824524,0.17471854388713837
1772732287140260400,10.09326025390625,-0.41761961579322815,0.10799454897642136,0.1267377883195877
1772732287150288400,10.103288330078126,-0.39196670055389404,0.05720806494355202,0.07551082968711853
1772732287160315400,10.1133154296875,-0.3629780113697052,0.02866036258637905,0.005584055557847023
1772732287170343400,10.123343505859374,-0.32418587803840637,0.015859346836805344,-0.06067432463169098
1772732287180370700,10.13337060546875,-0.2663198709487915,-0.001193055184558034,-0.11691229045391083
1772732287190398500,10.1433984375,-0.19511094689369202,-0.007903954945504665,-0.1654670536518097
1772732287200426200,10.15342626953125,-0.13973432779312134,-0.013124184682965279,-0.21204309165477753
1772732287210453500,10.16345361328125,-0.10610341280698776,-0.017734382301568985,-0.25339561700820923
1772732287220481300,10.173481201171874,-0.08226525038480759,-0.01912006363272667,-0.2955847382545471
1772732287230509600,10.183509521484375,-0.061077672988176346,-0.018929116427898407,-0.3225173056125641
1772732287240536600,10.19353662109375,-0.03930691257119179,-0.016689525917172432,-0.33987247943878174
1772732287250564600,10.203564697265625,-0.02084614522755146,-0.033919911831617355,-0.35684800148010254
1772732287260592400,10.21359228515625,-0.004239722620695829,-0.05696287006139755,-0.37269631028175354
1772732287270619400,10.223619384765625,0.005037399008870125,-0.11631008237600327,-0.40102994441986084
1772732287280647400,10.2336474609375,0.008116013370454311,-0.2286592572927475,-0.44118189811706543
1772732287290674400,10.24367431640625,0.009681419469416142,-0.35692399740219116,-0.4802291691303253
1772732287300702500,10.253702392578125,0.012517686933279037,-0.4616394340991974,-0.49231693148612976
1772732287310730500,10.26373046875,0.007727192714810371,-0.5407182574272156,-0.49157631397247314
1772732287320757500,10.273757568359375,-0.04531200975179672,-0.7017038464546204,-0.6191394329071045
1772732287330785500,10.28378564453125,-0.02803022414445877,-0.736636221408844,-0.5593860745429993
1772732287340813300,10.293813232421876,-0.03993914648890495,-0.7191638350486755,-0.4739435017108917
1772732287350840600,10.303840576171876,-0.0697268694639206,-0.6354867815971375,-0.39704659581184387
1772732287360868400,10.313868408203126,-0.08814360201358795,-0.4714208245277405,-0.28564170002937317
1772732287370896400,10.323896484375,-0.0926336869597435,-0.28188684582710266,-0.14608699083328247
1772732287380923400,10.33392333984375,-0.09115920960903168,-0.05303865671157837,-0.019640659913420677
1772732287390951400,10.343951416015624,-0.10185819119215012,0.16925033926963806,0.07272069901227951
1772732287400978700,10.353978759765624,-0.13997727632522583,0.32501664757728577,0.11701207607984543
1772732287411006500,10.36400634765625,-0.1911642849445343,0.4021415114402771,0.11220134049654007
1772732287421034500,10.374034423828125,-0.2300812155008316,0.4413255751132965,0.08583075553178787
1772732287431061500,10.3840615234375,-0.2497159093618393,0.4545449912548065,0.0750659927725792
1772732287441089300,10.39408935546875,-0.25887957215309143,0.4640980064868927,0.08762572705745697
1772732287451117600,10.40411767578125,-0.25814881920814514,0.4856176972389221,0.09907705336809158
1772732287461144300,10.414144287109375,-0.24569137394428253,0.5152079463005066,0.10305007547140121
1772732287471172600,10.424172607421875,-0.22968897223472595,0.5403857231140137,0.10868692398071289
1772732287481200400,10.434200439453125,-0.2132771760225296,0.5654376745223999,0.10552317649126053
1772732287491227400,10.444227294921875,-0.20229536294937134,0.5954946279525757,0.09422843903303146
1772732287501255400,10.45425537109375,-0.19443146884441376,0.6015368103981018,0.08229384571313858
1772732287511282400,10.464282470703125,-0.1805042028427124,0.5729765295982361,0.06730956584215164
1772732287521310500,10.474310546875,-0.14837142825126648,0.5144670605659485,0.0528578944504261
1772732287531338500,10.48433837890625,-0.11273965984582901,0.43649452924728394,0.038977231830358505
1772732287541365500,10.494365478515626,-0.07379713654518127,0.3668031692504883,0.019991202279925346
1772732287551393500,10.5043935546875,-0.052128586918115616,0.3207520544528961,0.002304882276803255
1772732287561421300,10.51442138671875,-0.021313544362783432,0.2841833233833313,-0.015472279861569405
1772732287571448600,10.524448486328126,0.027173031121492386,0.2454921156167984,-0.042063675820827484
1772732287581476400,10.534476318359374,0.08734013885259628,0.2328638732433319,-0.1006903275847435
1772732287591504600,10.544504638671874,0.1405109465122223,0.19638629257678986,-0.1993042528629303
1772732287601531400,10.554531494140624,0.17346611618995667,0.1917911171913147,-0.3078371584415436
1772732287611559400,10.564559326171874,0.21849139034748077,0.18953540921211243,-0.3619754910469055
1772732287621586700,10.574586669921874,0.25894060730934143,0.16141799092292786,-0.40869390964508057
1772732287631614500,10.584614501953125,0.25087815523147583,0.18790313601493835,-0.47294214367866516
1772732287641642500,10.594642578125,0.2311212718486786,0.27943989634513855,-0.537758469581604
1772732287651669500,10.60466943359375,0.20346274971961975,0.35838690400123596,-0.5647584199905396
1772732287661697300,10.614697265625,0.16601555049419403,0.39583879709243774,-0.5673431158065796
1772732287671725600,10.6247255859375,0.11429350823163986,0.3467969596385956,-0.5619052052497864
1772732287681752300,10.63475244140625,0.06971675902605057,0.2179848551750183,-0.5445366501808167
1772732287691780600,10.644780517578125,0.024357803165912628,0.08718503266572952,-0.543974757194519
1772732287701808400,10.654808349609375,-0.042082205414772034,-0.016961611807346344,-0.5490533709526062
1772732287711835400,10.66483544921875,-0.11009694635868073,-0.07605262845754623,-0.5162951946258545
1772732287721863400,10.674863525390625,-0.1823555827140808,-0.09314409643411636,-0.40211185812950134
1772732287731890400,10.684890380859375,-0.26080378890037537,-0.13375625014305115,-0.20927821099758148
1772732287741918500,10.69491845703125,-0.35337141156196594,-0.16619665920734406,0.018892941996455193
1772732287751946500,10.704946533203126,-0.4647200405597687,-0.16768589615821838,0.2673325836658478
1772732287761973500,10.714973388671876,-0.5220491886138916,-0.07474412024021149,0.5593656897544861
1772732287772001500,10.72500146484375,-0.5708236694335938,0.06817015260457993,0.834105372428894
1772732287782029300,10.735029296875,-0.6146292686462402,0.2009926438331604,1.0295811891555786
1772732287792056600,10.745056640625,-0.6371819972991943,0.3246261775493622,1.125285267829895
1772732287802084400,10.75508447265625,-0.6271867156028748,0.47340771555900574,1.1577911376953125
1772732287812112600,10.765112548828125,-0.5645384788513184,0.6175976395606995,1.1502338647842407
1772732287822139400,10.775139404296874,-0.46926382184028625,0.6991725564002991,1.1082372665405273
1772732287832167400,10.78516748046875,-0.36188358068466187,0.7219271063804626,1.0486871004104614
1772732287842195500,10.795195556640625,-0.2674920856952667,0.7332444787025452,0.9495354294776917
1772732287852222500,10.805222412109375,-0.17906183004379272,0.7316093444824219,0.8132423162460327
1772732287862250500,10.81525048828125,-0.09039938449859619,0.7253249287605286,0.6638990044593811
1772732287872277500,10.825277587890625,-0.006690644659101963,0.7104775309562683,0.5253787040710449
1772732287882305300,10.83530517578125,0.0666794627904892,0.6568775773048401,0.39465898275375366
1772732287892333600,10.84533349609375,0.12092352658510208,0.5445094704627991,0.2632218599319458
1772732287902360300,10.8553603515625,0.15683794021606445,0.39412081241607666,0.11654197424650192
1772732287912388600,10.865388671875,0.19360581040382385,0.26597458124160767,-0.02397705428302288
1772732287922416400,10.87541650390625,0.25481757521629333,0.20857106149196625,-0.1410980075597763
1772732287932443400,10.885443359375,0.3553417921066284,0.21655336022377014,-0.2111165076494217
1772732287942471400,10.895471435546876,0.4282259941101074,0.2526271343231201,-0.275024950504303
1772732287952498400,10.90549853515625,0.4838024377822876,0.32224908471107483,-0.3280031979084015
1772732287962526500,10.9155263671875,0.5370745062828064,0.4405089020729065,-0.36029601097106934
1772732287972554500,10.925554443359376,0.5271315574645996,0.5480702519416809,-0.3718773126602173
1772732287982581500,10.93558154296875,0.5176717042922974,0.5576800107955933,-0.3711770474910736
1772732287992609500,10.945609619140624,0.4715801477432251,0.48667797446250916,-0.35260361433029175
1772732288002637300,10.95563720703125,0.3837357759475708,0.37168020009994507,-0.36059844493865967
1772732288012664800,10.965664794921874,0.2988552451133728,0.22093570232391357,-0.35455891489982605
1772732288022692900,10.97569287109375,0.2514466941356659,0.05947744846343994,-0.30409568548202515
1772732288032721000,10.985720947265625,0.2510083317756653,-0.08062133193016052,-0.23247234523296356
1772732288042747600,10.99574755859375,0.2622034549713135,-0.21775831282138824,-0.16462619602680206
1772732288052776000,11.00577587890625,0.25621241331100464,-0.3088024854660034,-0.12806923687458038
1772732288062803700,11.0158037109375,0.13663449883460999,-0.5735053420066833,-0.09699131548404694
1772732288072831000,11.0258310546875,0.02127782627940178,-0.6477915048599243,-0.02036391571164131
1772732288082858800,11.035858642578125,0.02366691641509533,-0.570174515247345,0.06448525935411453
1772732288092885800,11.0458857421875,0.039415519684553146,-0.4731648564338684,0.1505463570356369
1772732288102913800,11.055913818359375,0.010342135094106197,-0.46176478266716003,0.221734881401062
1772732288112941800,11.06594189453125,0.024426529183983803,-0.410584419965744,0.23031319677829742
1772732288122968800,11.07596875,0.07946395128965378,-0.3848276138305664,0.23709073662757874
1772732288132996900,11.085996826171876,0.07905621826648712,-0.4219326376914978,0.3092392086982727
1772732288143025000,11.09602490234375,0.07525336742401123,-0.4613952338695526,0.41777145862579346
1772732288153052000,11.106052001953126,0.09869290888309479,-0.4442468583583832,0.5219692587852478
1772732288163079700,11.11607958984375,0.16713851690292358,-0.3398596942424774,0.5640989542007446
1772732288173108000,11.12610791015625,0.21455423533916473,-0.23383446037769318,0.541796863079071
1772732288183134700,11.136134765625,0.22566936910152435,-0.1674182116985321,0.4508673846721649
1772732288193163000,11.1461630859375,0.2108030766248703,-0.13406531512737274,0.3035951256752014
1772732288203189800,11.156189697265624,0.18926329910755157,-0.15488359332084656,0.13468970358371735
1772732288213217800,11.1662177734375,0.1762031614780426,-0.23821815848350525,-0.007800866849720478
1772732288223245800,11.176245849609375,0.167328879237175,-0.32001641392707825,-0.11929473280906677
1772732288233272800,11.18627294921875,0.16269683837890625,-0.3664100170135498,-0.19965428113937378
1772732288243300900,11.19630078125,0.1554451435804367,-0.39604678750038147,-0.23826223611831665
1772732288253329000,11.206328857421875,0.14233146607875824,-0.4046884775161743,-0.27147987484931946
1772732288263355600,11.216355712890625,0.14421363174915314,-0.379806250333786,-0.30307871103286743
1772732288273384000,11.226384033203125,0.14849971234798431,-0.337706983089447,-0.3533773124217987
1772732288283411700,11.23641162109375,0.14568598568439484,-0.299472838640213,-0.3765604794025421
1772732288293439000,11.24643896484375,0.13131371140480042,-0.2604801654815674,-0.35950613021850586
1772732288303466800,11.256466796875,0.11953291296958923,-0.1978386491537094,-0.3308451175689697
1772732288313493800,11.26649365234375,0.12395615875720978,-0.1265261173248291,-0.311697781085968
1772732288323521800,11.276521728515625,0.13283315300941467,-0.09449794888496399,-0.2791944742202759
1772732288333549800,11.2865498046875,0.13798131048679352,-0.11605783551931381,-0.2191638946533203
1772732288343576800,11.296576904296876,0.1386723518371582,-0.09094691276550293,-0.15516434609889984
1772732288353604900,11.30660498046875,0.1534166783094406,-0.0067366911098361015,-0.09915539622306824
1772732288363633000,11.3166328125,0.16357403993606567,0.07420256733894348,-0.059396594762802124
1772732288373660000,11.326659912109376,0.15692465007305145,0.10225896537303925,-0.02856757678091526
1772732288383687700,11.336687744140624,0.13570591807365417,0.11061223596334457,-0.00030105127370916307
1772732288393716000,11.346716064453124,0.10576879233121872,0.08773461729288101,0.01697993464767933
1772732288403742700,11.35674267578125,0.06235187128186226,0.028936319053173065,0.021289343014359474
1772732288413771000,11.36677099609375,0.008930722251534462,-0.010825473815202713,0.03588293492794037
1772732288423798800,11.376798828125,-0.03943111002445221,-0.046999555081129074,0.060670867562294006
1772732288433825800,11.38682568359375,-0.05782902613282204,-0.15980945527553558,0.09836764633655548
1772732288443853800,11.396853759765625,0.03411037474870682,-0.2302127629518509,0.0504935085773468
1772732288453880800,11.406880859375,-0.009004869498312473,-0.26263755559921265,0.00011342554353177547
1772732288463908900,11.416908935546875,0.0228416807949543,-0.2442832738161087,-0.10407112538814545
1772732288473937000,11.42693701171875,0.017436528578400612,-0.24883034825325012,-0.13282392919063568
1772732288483963600,11.436963623046875,0.03259536996483803,-0.22695480287075043,-0.13188514113426208
1772732288493992000,11.446991943359375,0.03898242861032486,-0.1872454732656479,-0.1290651261806488
1772732288504019700,11.457019775390625,0.022175734862685204,-0.20510774850845337,-0.09393563121557236
1772732288514047000,11.467046875,0.01165491621941328,-0.20414447784423828,-0.03949689492583275
1772732288524074800,11.47707470703125,0.01319171767681837,-0.20310361683368683,0.03177592530846596
1772732288534103000,11.48710302734375,0.029139790683984756,-0.16364727914333344,0.0739303007721901
1772732288544129800,11.4971298828125,0.03150191903114319,-0.171768918633461,0.12938761711120605
1772732288554157800,11.50715771484375,0.03367479145526886,-0.16569797694683075,0.17063173651695251
1772732288564184800,11.517184814453126,0.029022110626101494,-0.11513113230466843,0.1800103485584259
1772732288574212900,11.527212890625,0.029705211520195007,-0.08861856162548065,0.17375537753105164
1772732288584241000,11.537240966796874,0.04842369258403778,-0.07941170036792755,0.1608162522315979
1772732288594268000,11.547267822265624,0.0611749067902565,-0.10230077058076859,0.1643446683883667
1772732288604295700,11.557295654296874,0.07686518877744675,-0.13433532416820526,0.1699885129928589
1772732288614324000,11.567323974609375,0.08534442633390427,-0.15879780054092407,0.16296203434467316
1772732288624350700,11.577350830078124,0.09169655293226242,-0.16163665056228638,0.15254433453083038
1772732288634379000,11.58737890625,0.08776545524597168,-0.15062315762043,0.15324102342128754
1772732288644406800,11.59740673828125,0.07978332042694092,-0.1247272714972496,0.17960335314273834
1772732288654433800,11.607433837890625,0.08641565591096878,-0.1360691338777542,0.20630474388599396
1772732288664461800,11.6174619140625,0.07759110629558563,-0.18186427652835846,0.22371071577072144
1772732288674489900,11.62748974609375,0.06476878374814987,-0.22938784956932068,0.2244553416967392
1772732288684516900,11.637516845703125,0.06650937348604202,-0.248471200466156,0.2124437391757965
1772732288694545000,11.647544921875,0.07255768030881882,-0.20743747055530548,0.17103931307792664
1772732288704571600,11.657571533203125,0.05201883614063263,-0.12280072271823883,0.12817153334617615
1772732288714600000,11.667599853515625,0.00992970447987318,-0.07637463510036469,0.0878472700715065
1772732288724627700,11.677627685546875,-0.02908245660364628,-0.09253722429275513,0.03920048847794533
1772732288734655000,11.687655029296875,-0.03259117156267166,-0.16498532891273499,-0.025089286267757416
1772732288744682800,11.697682861328126,-0.028894860297441483,-0.2416146993637085,-0.10963103920221329
1772732288754711000,11.7077109375,-0.021040134131908417,-0.2666553258895874,-0.2258170247077942
1772732288764737800,11.71773779296875,-0.03130514547228813,-0.2009434998035431,-0.3344079852104187
1772732288774765800,11.727765869140624,-0.043785784393548965,-0.09364660829305649,-0.44023215770721436
1772732288784793900,11.7377939453125,-0.06530323624610901,0.010189304128289223,-0.5330959558486938
1772732288794820900,11.74782080078125,-0.08515310287475586,0.08064136654138565,-0.5429192781448364
1772732288804849000,11.757848876953124,-0.09534710645675659,0.09852708876132965,-0.4438372552394867
1772732288814876700,11.767876708984375,-0.09071533381938934,0.0701199471950531,-0.27532467246055603
1772732288824903700,11.777903564453124,-0.08491452783346176,0.00044353585690259933,-0.10514402389526367
1772732288834932000,11.787931884765625,-0.09639222174882889,-0.08389078825712204,0.028777560219168663
1772732288844959700,11.797959716796875,-0.12169352173805237,-0.17875359952449799,0.1381039321422577
1772732288854987000,11.807987060546875,-0.16558215022087097,-0.26373881101608276,0.2498088926076889
1772732288865014800,11.818014892578125,-0.20682983100414276,-0.2989337146282196,0.3605228364467621
1772732288875041800,11.828041748046875,-0.22886855900287628,-0.30409783124923706,0.4352000057697296
1772732288885069800,11.83806982421875,-0.23707985877990723,-0.26727917790412903,0.4451408088207245
1772732288895097900,11.848097900390625,-0.2377118319272995,-0.21087877452373505,0.42418810725212097
1772732288905124900,11.858124755859375,-0.23835337162017822,-0.14760169386863708,0.39687708020210266
1772732288915153000,11.86815283203125,-0.24410153925418854,-0.07545799762010574,0.3661271333694458
1772732288925181000,11.878180908203126,-0.23961710929870605,-0.011425898410379887,0.3209848701953888
1772732288935208000,11.8882080078125,-0.23188835382461548,0.015008638612926006,0.24608294665813446
1772732288945235700,11.898235595703126,-0.2150297611951828,0.0047787269577383995,0.1510366052389145
1772732288955263700,11.908263671875,-0.19796662032604218,-0.030493242666125298,0.05861798673868179
1772732288965290800,11.918290771484376,-0.18535783886909485,-0.05788213014602661,-0.03697070851922035
1772732288975318800,11.92831884765625,-0.17231979966163635,-0.0723247155547142,-0.16165964305400848
1772732288985346800,11.938346923828124,-0.16586002707481384,-0.08007168024778366,-0.29412662982940674
1772732288995373800,11.948373779296874,-0.15092794597148895,-0.07355731725692749,-0.396135538816452
1772732289005401900,11.95840185546875,-0.11516741663217545,-0.048025138676166534,-0.43432316184043884
1772732289015428900,11.968428955078124,-0.06982070952653885,-0.01965315267443657,-0.4018650949001312
1772732289025457000,11.978456787109375,-0.028819100931286812,0.01811257191002369,-0.2912921607494354
1772732289035484700,11.988484619140625,0.022572185844182968,0.1371534764766693,-0.03391174599528313
1772732289045512000,11.998511962890625,0.041646480560302734,0.21020793914794922,0.10566037893295288
1772732289055540000,12.0085400390625,0.05600331723690033,0.2470940500497818,0.24734561145305634
1772732289065568000,12.018568115234375,0.06706070154905319,0.23670527338981628,0.30680400133132935
1772732289075595000,12.028594970703125,0.08261223137378693,0.21915584802627563,0.3168156147003174
1772732289085622800,12.038622802734375,0.1148635745048523,0.20239122211933136,0.27350741624832153
1772732289095650800,12.04865087890625,0.15299737453460693,0.1910078078508377,0.19901934266090393
1772732289105677800,12.058677734375,0.18533702194690704,0.14930637180805206,0.13307881355285645
1772732289115705900,12.068705810546875,0.21139764785766602,0.08738255500793457,0.06749633699655533
1772732289125734000,12.07873388671875,0.22837360203266144,0.01532587967813015,-0.02153429202735424
1772732289135761000,12.088760986328126,0.24074585735797882,-0.07613452523946762,-0.12220098078250885
1772732289145789000,12.098788818359376,0.2309398055076599,-0.17760850489139557,-0.22117415070533752
1772732289155816700,12.108816650390626,0.22612054646015167,-0.2288232147693634,-0.2583436369895935
1772732289165844000,12.118843994140626,0.26082345843315125,-0.18047812581062317,-0.19073136150836945
1772732289175871700,12.128871826171874,0.30345454812049866,-0.07487846910953522,-0.09703443199396133
