time,seconds_elapsed,z,y,x
1772641388348665300,0.050665283203125,-0.9902801513671875,-0.1708984375,0.1056060791015625
1772641388358710300,0.060710205078125,-0.995574951171875,-0.1631927490234375,0.1029205322265625
1772641388368755500,0.07075537109375,-1.00360107421875,-0.157684326171875,0.0976104736328125
1772641388378800000,0.080800048828125,-1.010467529296875,-0.1551513671875,0.0935516357421875
1772641388388845300,0.09084521484375,-1.020477294921875,-0.1544189453125,0.0904541015625
1772641388398891300,0.100891357421875,-1.0253753662109375,-0.1531982421875,0.0873565673828125
1772641388408936200,0.110936279296875,-1.031585693359375,-0.1533203125,0.0848388671875
1772641388418981400,0.1209814453125,-1.025115966796875,-0.1527557373046875,0.082061767578125
1772641388429026000,0.131026123046875,-1.0048980712890625,-0.155731201171875,0.07965087890625
1772641388439071200,0.1410712890625,-0.9912872314453125,-0.162200927734375,0.0828704833984375
1772641388449116200,0.1511162109375,-0.992828369140625,-0.170135498046875,0.0872802734375
1772641388459162000,0.161162109375,-0.9851837158203125,-0.1708526611328125,0.0843048095703125
1772641388469207300,0.171207275390625,-0.968353271484375,-0.1720428466796875,0.0783233642578125
1772641388479252200,0.181252197265625,-0.955780029296875,-0.174163818359375,0.07562255859375
1772641388489297200,0.191297119140625,-0.9498748779296875,-0.1792755126953125,0.0733489990234375
1772641388499342000,0.201342041015625,-0.950775146484375,-0.18267822265625,0.0695648193359375
1772641388509388300,0.21138818359375,-0.9538726806640625,-0.182464599609375,0.062835693359375
1772641388519433200,0.22143310546875,-0.959869384765625,-0.17822265625,0.058013916015625
1772641388529478400,0.231478515625,-0.9661865234375,-0.17401123046875,0.0588836669921875
1772641388539523000,0.241523193359375,-0.9748992919921875,-0.1673126220703125,0.0585784912109375
1772641388549568300,0.251568359375,-0.9817352294921875,-0.1580352783203125,0.057159423828125
1772641388559613200,0.26161328125,-0.985015869140625,-0.1576995849609375,0.05999755859375
1772641388569659100,0.2716591796875,-0.9828033447265625,-0.164764404296875,0.0678863525390625
1772641388579704300,0.281704345703125,-0.9791107177734375,-0.168853759765625,0.07159423828125
1772641388589749200,0.291749267578125,-0.97979736328125,-0.170257568359375,0.0634307861328125
1772641388599794200,0.301794189453125,-0.9783172607421875,-0.166961669921875,0.053070068359375
1772641388609839000,0.311839111328125,-0.976531982421875,-0.16485595703125,0.0450439453125
1772641388619884300,0.32188427734375,-0.9879302978515625,-0.163421630859375,0.037841796875
1772641388629930200,0.33193017578125,-1.009857177734375,-0.1640777587890625,0.031158447265625
1772641388639975400,0.341975341796875,-1.0345001220703125,-0.1632232666015625,0.025604248046875
1772641388650020000,0.35202001953125,-1.0454254150390625,-0.165985107421875,0.02105712890625
1772641388660065300,0.362065185546875,-1.043182373046875,-0.1648712158203125,0.02032470703125
1772641388670110200,0.372110107421875,-1.0323486328125,-0.16156005859375,0.01959228515625
1772641388680156200,0.38215625,-1.0152130126953125,-0.151702880859375,0.0212554931640625
1772641388690201300,0.392201416015625,-0.9990386962890625,-0.1436004638671875,0.0264434814453125
1772641388700246300,0.402246337890625,-0.996795654296875,-0.1401824951171875,0.032806396484375
1772641388710291200,0.412291259765625,-1.00653076171875,-0.1388702392578125,0.0411224365234375
1772641388720336100,0.422336181640625,-1.0269622802734375,-0.14508056640625,0.0497894287109375
1772641388730381300,0.43238134765625,-1.049713134765625,-0.1612701416015625,0.061492919921875
1772641388740427300,0.44242724609375,-1.06427001953125,-0.1702117919921875,0.06591796875
1772641388750472200,0.45247216796875,-1.068695068359375,-0.174560546875,0.066436767578125
1772641388760517000,0.46251708984375,-1.0700836181640625,-0.18426513671875,0.0659637451171875
1772641388770562000,0.47256201171875,-1.0728759765625,-0.1928558349609375,0.0589141845703125
1772641388780607200,0.482607177734375,-1.070465087890625,-0.1894378662109375,0.041595458984375
1772641388790653200,0.492653076171875,-1.0655670166015625,-0.1786346435546875,0.0149688720703125
1772641388800698400,0.502698486328125,-1.0617828369140625,-0.16595458984375,-0.0100555419921875
1772641388810743300,0.512743408203125,-1.061492919921875,-0.15625,-0.0285186767578125
1772641388820788200,0.522788330078125,-1.06805419921875,-0.1441802978515625,-0.041290283203125
1772641388830833400,0.53283349609375,-1.0738372802734375,-0.12896728515625,-0.0488433837890625
1772641388840878600,0.542878662109375,-1.0798797607421875,-0.114898681640625,-0.04290771484375
1772641388850924500,0.552924560546875,-1.0888519287109375,-0.100555419921875,-0.0383758544921875
1772641388860969500,0.562969482421875,-1.09674072265625,-0.09307861328125,-0.03289794921875
1772641388871014700,0.5730146484375,-1.10205078125,-0.089874267578125,-0.0301055908203125
1772641388881059300,0.583059326171875,-1.097076416015625,-0.089630126953125,-0.0307464599609375
1772641388891104500,0.5931044921875,-1.0800933837890625,-0.0919036865234375,-0.0334014892578125
1772641388901149400,0.6031494140625,-1.0577850341796875,-0.0937652587890625,-0.03424072265625
1772641388911195400,0.6131953125,-1.026763916015625,-0.0906982421875,-0.0384368896484375
1772641388921240600,0.623240478515625,-0.99005126953125,-0.086090087890625,-0.0399627685546875
1772641388931285500,0.633285400390625,-0.953704833984375,-0.07958984375,-0.0427398681640625
1772641388941330400,0.643330322265625,-0.924163818359375,-0.0752410888671875,-0.04534912109375
1772641388951375400,0.653375244140625,-0.8954010009765625,-0.0701751708984375,-0.0444793701171875
1772641388961421600,0.663421630859375,-0.868682861328125,-0.0653533935546875,-0.036041259765625
1772641388971466500,0.673466552734375,-0.8450469970703125,-0.062652587890625,-0.02862548828125
1772641388981511700,0.68351171875,-0.8242950439453125,-0.0613250732421875,-0.02374267578125
1772641388991556400,0.693556396484375,-0.8090057373046875,-0.0599212646484375,-0.0232391357421875
1772641389001601500,0.7036015625,-0.8001708984375,-0.0625762939453125,-0.026611328125
1772641389011646500,0.713646484375,-0.7990570068359375,-0.0661773681640625,-0.027252197265625
1772641389021692400,0.7236923828125,-0.8109893798828125,-0.075775146484375,-0.0304718017578125
1772641389031737600,0.733737548828125,-0.824005126953125,-0.0789947509765625,-0.0347747802734375
1772641389041782300,0.7437822265625,-0.831207275390625,-0.0765533447265625,-0.0393524169921875
1772641389051827500,0.753827392578125,-0.8356170654296875,-0.0689697265625,-0.0426177978515625
1772641389061872400,0.763872314453125,-0.8501129150390625,-0.0618133544921875,-0.0423126220703125
1772641389071918600,0.773918701171875,-0.8748626708984375,-0.05718994140625,-0.0394439697265625
1772641389081963500,0.783963623046875,-0.9033355712890625,-0.049896240234375,-0.0370635986328125
1772641389092008700,0.7940087890625,-0.9315032958984375,-0.0407867431640625,-0.042144775390625
1772641389102053400,0.804053466796875,-0.9575958251953125,-0.03094482421875,-0.04864501953125
1772641389112098600,0.8140986328125,-0.9758148193359375,-0.0240325927734375,-0.05499267578125
1772641389122143500,0.8241435546875,-0.9908294677734375,-0.0217132568359375,-0.06158447265625
1772641389132189400,0.834189453125,-1.0030517578125,-0.026580810546875,-0.0655364990234375
1772641389142234600,0.844234619140625,-1.0124664306640625,-0.02813720703125,-0.0761260986328125
1772641389152279300,0.854279296875,-1.014495849609375,-0.033477783203125,-0.0827178955078125
1772641389162324500,0.864324462890625,-1.0080718994140625,-0.0415496826171875,-0.084808349609375
1772641389172369400,0.874369384765625,-0.994720458984375,-0.0560302734375,-0.076019287109375
1772641389182414600,0.88441455078125,-0.975128173828125,-0.070526123046875,-0.0597686767578125
1772641389192460500,0.89446044921875,-0.96063232421875,-0.0837860107421875,-0.0435791015625
1772641389202505500,0.90450537109375,-0.950225830078125,-0.095855712890625,-0.0318450927734375
1772641389212550400,0.91455029296875,-0.940216064453125,-0.1066436767578125,-0.02276611328125
1772641389222595300,0.92459521484375,-0.9379425048828125,-0.1156005859375,-0.0183563232421875
1772641389232640500,0.934640625,-0.9380035400390625,-0.121063232421875,-0.0146026611328125
1772641389242686500,0.9446865234375,-0.9418487548828125,-0.1251373291015625,-0.0117645263671875
1772641389252731600,0.954731689453125,-0.949310302734375,-0.124664306640625,-0.0077362060546875
1772641389262776300,0.9647763671875,-0.950927734375,-0.123779296875,-0.0041351318359375
1772641389272821500,0.974821533203125,-0.946624755859375,-0.123077392578125,0.0009613037109375
1772641389282866400,0.984866455078125,-0.9423675537109375,-0.1214141845703125,0.009796142578125
1772641389292911600,0.99491162109375,-0.9418487548828125,-0.1199493408203125,0.018890380859375
1772641389302957600,1.00495751953125,-0.9473876953125,-0.1171875,0.026397705078125
1772641389313002500,1.01500244140625,-0.9593048095703125,-0.114776611328125,0.031524658203125
1772641389323047400,1.02504736328125,-0.97149658203125,-0.1137847900390625,0.0325927734375
1772641389333092400,1.03509228515625,-0.98773193359375,-0.1139984130859375,0.0284576416015625
1772641389343137500,1.045137451171875,-1.005584716796875,-0.1138458251953125,0.025787353515625
1772641389353183500,1.05518359375,-1.014739990234375,-0.1114349365234375,0.0245819091796875
1772641389363228700,1.065228759765625,-1.0270538330078125,-0.1125030517578125,0.0240478515625
1772641389373273300,1.0752734375,-1.031341552734375,-0.1099700927734375,0.0205230712890625
1772641389383318500,1.085318603515625,-1.034515380859375,-0.1063995361328125,0.0144805908203125
1772641389393363500,1.095363525390625,-1.041748046875,-0.1086883544921875,0.0133056640625
1772641389403408600,1.10540869140625,-1.047149658203125,-0.1148681640625,0.01483154296875
1772641389413454600,1.11545458984375,-1.0424041748046875,-0.1170806884765625,0.0141754150390625
1772641389423499500,1.12549951171875,-1.035247802734375,-0.1172027587890625,0.0122833251953125
1772641389433544400,1.13554443359375,-1.0272064208984375,-0.113922119140625,0.0059967041015625
1772641389443589400,1.14558935546875,-1.0173492431640625,-0.110687255859375,0.0002288818359375
1772641389453634600,1.155634521484375,-1.0155487060546875,-0.1118011474609375,-0.000640869140625
1772641389463679500,1.165679443359375,-1.0155181884765625,-0.1162261962890625,0.00714111328125
1772641389473725400,1.175725341796875,-1.0075225830078125,-0.11907958984375,0.0176849365234375
1772641389483770400,1.185770263671875,-0.9944305419921875,-0.120574951171875,0.02581787109375
1772641389493815300,1.195815185546875,-0.9774169921875,-0.1204833984375,0.026397705078125
1772641389503860500,1.205860595703125,-0.9627685546875,-0.122467041015625,0.0232696533203125
1772641389513905400,1.215905517578125,-0.9618988037109375,-0.125091552734375,0.0195465087890625
1772641389523951600,1.22595166015625,-0.970916748046875,-0.1256256103515625,0.0160369873046875
1772641389533996500,1.23599658203125,-0.98028564453125,-0.1255340576171875,0.0148773193359375
1772641389544041500,1.24604150390625,-0.9899139404296875,-0.1264801025390625,0.015869140625
1772641389554086400,1.25608642578125,-1.001129150390625,-0.1301422119140625,0.0208740234375
1772641389564131600,1.266131591796875,-1.00897216796875,-0.14129638671875,0.0313262939453125
1772641389574176500,1.276176513671875,-1.014862060546875,-0.1548919677734375,0.037750244140625
1772641389584222500,1.286222412109375,-1.0228729248046875,-0.15484619140625,0.0279998779296875
1772641389594267400,1.296267333984375,-1.0344696044921875,-0.1462860107421875,0.0052032470703125
1772641389604312300,1.306312255859375,-1.050506591796875,-0.140533447265625,-0.0145721435546875
1772641389614357500,1.316357421875,-1.0736083984375,-0.1324920654296875,-0.03704833984375
1772641389624402400,1.32640234375,-1.107513427734375,-0.1237335205078125,-0.058380126953125
1772641389634447600,1.336447509765625,-1.140411376953125,-0.1072998046875,-0.077789306640625
1772641389644493600,1.34649365234375,-1.17095947265625,-0.082977294921875,-0.0936737060546875
1772641389654538500,1.35653857421875,-1.1986083984375,-0.05718994140625,-0.0957794189453125
1772641389664583400,1.36658349609375,-1.2298431396484375,-0.035797119140625,-0.086029052734375
1772641389674628600,1.376628662109375,-1.2469329833984375,-0.020050048828125,-0.067840576171875
1772641389684673500,1.386673583984375,-1.232025146484375,-0.0049285888671875,-0.0522613525390625
1772641389694718500,1.396718505859375,-1.1988067626953125,0.0049591064453125,-0.0444488525390625
1772641389704764400,1.406764404296875,-1.180572509765625,-0.0002899169921875,-0.0300750732421875
1772641389714809300,1.416809326171875,-1.1415252685546875,-0.005828857421875,-0.0228118896484375
1772641389724854500,1.4268544921875,-1.098876953125,-0.012298583984375,-0.0194549560546875
1772641389734899500,1.4368994140625,-1.062530517578125,-0.017181396484375,-0.02105712890625
1772641389744944600,1.446944580078125,-1.03509521484375,-0.01806640625,-0.030517578125
1772641389754990600,1.456990478515625,-1.0082550048828125,-0.0147247314453125,-0.046112060546875
1772641389765035300,1.46703515625,-0.989349365234375,-0.0126953125,-0.0590362548828125
1772641389775080400,1.47708056640625,-0.9762725830078125,-0.0108642578125,-0.063140869140625
1772641389785125400,1.48712548828125,-0.9688568115234375,-0.0060272216796875,-0.0537109375
1772641389795170600,1.497170654296875,-0.95965576171875,-0.00042724609375,-0.036346435546875
1772641389805215200,1.50721533203125,-0.936981201171875,0.001739501953125,-0.0157928466796875
1772641389815261400,1.517261474609375,-0.9098968505859375,0.004638671875,0.0022735595703125
1772641389825306400,1.527306396484375,-0.87774658203125,0.0039825439453125,0.015655517578125
1772641389835351800,1.537351806640625,-0.8484344482421875,-0.00048828125,0.0265045166015625
1772641389845396700,1.547396728515625,-0.831298828125,-0.004364013671875,0.034332275390625
1772641389855442000,1.55744189453125,-0.82623291015625,-0.011016845703125,0.04998779296875
1772641389865488000,1.56748779296875,-0.821380615234375,-0.01385498046875,0.0636444091796875
1772641389875532800,1.57753271484375,-0.8166351318359375,-0.015960693359375,0.071044921875
1772641389885578000,1.587577880859375,-0.8189239501953125,-0.0201263427734375,0.0786590576171875
1772641389895622700,1.59762255859375,-0.824127197265625,-0.0196380615234375,0.08514404296875
1772641389905667800,1.607667724609375,-0.8249053955078125,-0.0155792236328125,0.08984375
1772641389915712800,1.617712646484375,-0.837738037109375,-0.010040283203125,0.0917816162109375
1772641389925758700,1.6277587890625,-0.8513336181640625,0.0015411376953125,0.0960693359375
1772641389935804000,1.637803955078125,-0.8664703369140625,0.017364501953125,0.1024932861328125
1772641389945848600,1.6478486328125,-0.8802642822265625,0.0300140380859375,0.1129608154296875
1772641389955893800,1.657893798828125,-0.891510009765625,0.036346435546875,0.1234893798828125
1772641389965938700,1.667938720703125,-0.905914306640625,0.0402374267578125,0.1331329345703125
1772641389975983900,1.67798388671875,-0.9160614013671875,0.04351806640625,0.1402130126953125
1772641389986029800,1.68802978515625,-0.927154541015625,0.04071044921875,0.144256591796875
1772641389996075000,1.698074951171875,-0.9336090087890625,0.03326416015625,0.1324005126953125
1772641390006119700,1.70811962890625,-0.933563232421875,0.0253753662109375,0.1145782470703125
1772641390016164900,1.718164794921875,-0.9571075439453125,0.00604248046875,0.097259521484375
1772641390026209800,1.728209716796875,-0.9647979736328125,-0.009735107421875,0.077545166015625
1772641390036255700,1.738255859375,-0.9731903076171875,-0.019744873046875,0.05780029296875
1772641390046301000,1.748301025390625,-0.981414794921875,-0.0305328369140625,0.0418548583984375
1772641390056345600,1.758345703125,-0.995147705078125,-0.0427093505859375,0.0335235595703125
1772641390066390800,1.768390869140625,-1.0093994140625,-0.0504913330078125,0.02752685546875
1772641390076435700,1.778435791015625,-1.015472412109375,-0.054290771484375,0.0225982666015625
1772641390086481000,1.78848095703125,-1.0279998779296875,-0.0567474365234375,0.0184478759765625
1772641390096526800,1.79852685546875,-1.0413818359375,-0.0599517822265625,0.018157958984375
1772641390106572000,1.808572021484375,-1.0442657470703125,-0.057952880859375,0.0102691650390625
1772641390116616700,1.81861669921875,-1.0453643798828125,-0.0557861328125,-0.00042724609375
1772641390126662000,1.828661865234375,-1.042938232421875,-0.0561065673828125,-0.0043792724609375
1772641390136706800,1.838706787109375,-1.039825439453125,-0.0569610595703125,-0.0037841796875
1772641390146752000,1.848751953125,-1.04052734375,-0.0537261962890625,-0.001922607421875
1772641390156798000,1.8587978515625,-1.0398712158203125,-0.05010986328125,0.00018310546875
1772641390166842600,1.868842529296875,-1.03875732421875,-0.0488739013671875,0.003021240234375
1772641390176887800,1.8788876953125,-1.037139892578125,-0.0519256591796875,0.00927734375
1772641390186932700,1.8889326171875,-1.02978515625,-0.0508575439453125,0.014129638671875
1772641390196978000,1.89897802734375,-1.018280029296875,-0.0499267578125,0.017822265625
1772641390207023900,1.90902392578125,-1.0072021484375,-0.053192138671875,0.024749755859375
1772641390217068800,1.91906884765625,-1.0001220703125,-0.0553436279296875,0.03277587890625
1772641390227113700,1.92911376953125,-0.9919586181640625,-0.0587615966796875,0.0404052734375
1772641390237158700,1.93915869140625,-0.9860076904296875,-0.063507080078125,0.04638671875
1772641390247203800,1.949203857421875,-0.9810333251953125,-0.067535400390625,0.0503082275390625
1772641390257248800,1.959248779296875,-0.9745330810546875,-0.0703125,0.050567626953125
1772641390267295000,1.969294921875,-0.9726715087890625,-0.0732269287109375,0.0487823486328125
1772641390277339600,1.979339599609375,-0.974395751953125,-0.073944091796875,0.0495147705078125
1772641390287384800,1.989384765625,-0.9783477783203125,-0.073944091796875,0.0519256591796875
1772641390297429800,1.9994296875,-0.9806060791015625,-0.079620361328125,0.05816650390625
1772641390307475000,2.009474853515625,-0.9760284423828125,-0.0856781005859375,0.0646820068359375
1772641390317520000,2.019519775390625,-0.9647064208984375,-0.090423583984375,0.069061279296875
1772641390327565800,2.02956591796875,-0.9556121826171875,-0.0931854248046875,0.0697174072265625
1772641390337610800,2.03961083984375,-0.9526519775390625,-0.09661865234375,0.0690155029296875
1772641390347655700,2.04965576171875,-0.955657958984375,-0.100830078125,0.066802978515625
1772641390357700900,2.059700927734375,-0.9647369384765625,-0.1013031005859375,0.0648956298828125
1772641390367745800,2.069745849609375,-0.9732513427734375,-0.0971832275390625,0.0640716552734375
1772641390377791000,2.079791015625,-0.9824676513671875,-0.089019775390625,0.0668182373046875
1772641390387836700,2.089836669921875,-0.98968505859375,-0.0819854736328125,0.0682830810546875
1772641390397881900,2.0998818359375,-0.9976043701171875,-0.0762176513671875,0.0653076171875
1772641390407926800,2.1099267578125,-1.0116119384765625,-0.072235107421875,0.06201171875
1772641390417972000,2.119971923828125,-1.0242919921875,-0.0683746337890625,0.0587921142578125
1772641390428017000,2.130016845703125,-1.0396728515625,-0.066131591796875,0.05877685546875
1772641390438062800,2.140062744140625,-1.0473480224609375,-0.0610504150390625,0.0572052001953125
1772641390448107800,2.150107666015625,-1.0512847900390625,-0.0601348876953125,0.0550079345703125
1772641390458152700,2.160152587890625,-1.060089111328125,-0.0645904541015625,0.0538177490234375
1772641390468198000,2.170197998046875,-1.068695068359375,-0.08294677734375,0.0641632080078125
1772641390478242800,2.180242919921875,-1.0706939697265625,-0.121063232421875,0.08380126953125
1772641390488288000,2.1902880859375,-1.0630035400390625,-0.151092529296875,0.095001220703125
1772641390498333700,2.200333740234375,-1.058441162109375,-0.164703369140625,0.096923828125
1772641390508378600,2.210378662109375,-1.047821044921875,-0.1720733642578125,0.087158203125
1772641390518423800,2.220423828125,-1.0423583984375,-0.16961669921875,0.071197509765625
1772641390528468700,2.23046875,-1.04290771484375,-0.1519012451171875,0.0440521240234375
1772641390538514000,2.240513916015625,-1.058074951171875,-0.109954833984375,-0.010498046875
1772641390548558600,2.25055859375,-1.0908203125,-0.0684356689453125,-0.06298828125
1772641390558604800,2.260604736328125,-1.157958984375,-0.0284576416015625,-0.0962677001953125
1772641390568649700,2.270649658203125,-1.2100677490234375,0.00762939453125,-0.103118896484375
1772641390578695000,2.28069482421875,-1.250396728515625,0.0408935546875,-0.0868377685546875
1772641390588739800,2.29073974609375,-1.2636566162109375,0.0682220458984375,-0.062744140625
1772641390598785000,2.300784912109375,-1.2498626708984375,0.0826568603515625,-0.0327606201171875
1772641390608831000,2.3108310546875,-1.2027435302734375,0.08660888671875,-0.009765625
1772641390618875600,2.320875732421875,-1.1592559814453125,0.0819091796875,0.014495849609375
1772641390628920800,2.3309208984375,-1.1312408447265625,0.057830810546875,0.0379180908203125
1772641390638965800,2.3409658203125,-1.0660247802734375,0.0376434326171875,0.0464935302734375
1772641390649011000,2.351010986328125,-1.0064239501953125,0.02001953125,0.051605224609375
1772641390659055600,2.3610556640625,-0.9547271728515625,0.0040283203125,0.058502197265625
1772641390669101800,2.371101806640625,-0.8970794677734375,-0.006805419921875,0.0693206787109375
1772641390679146800,2.381146728515625,-0.8554534912109375,-0.01593017578125,0.07659912109375
1772641390689192000,2.39119189453125,-0.8251800537109375,-0.018310546875,0.0804901123046875
1772641390699236900,2.40123681640625,-0.8045501708984375,-0.01739501953125,0.0829315185546875
1772641390709282000,2.411281982421875,-0.7922821044921875,-0.0127716064453125,0.081787109375
1772641390719326700,2.42132666015625,-0.78997802734375,-0.0118255615234375,0.0810394287109375
1772641390729372700,2.43137255859375,-0.7904510498046875,-0.012542724609375,0.077392578125
1772641390739417900,2.44141796875,-0.788909912109375,-0.016845703125,0.0707244873046875
1772641390749462800,2.451462890625,-0.7837982177734375,-0.028411865234375,0.0661773681640625
1772641390759508000,2.461508056640625,-0.7825927734375,-0.0398101806640625,0.0556640625
1772641390769552600,2.471552734375,-0.786590576171875,-0.053314208984375,0.0418548583984375
1772641390779597800,2.481597900390625,-0.791534423828125,-0.065826416015625,0.03125
1772641390789643800,2.491643798828125,-0.7935333251953125,-0.0723876953125,0.0182342529296875
1772641390799688700,2.501688720703125,-0.80426025390625,-0.0751953125,0.0095672607421875
1772641390809734000,2.51173388671875,-0.8393707275390625,-0.0700225830078125,0.0047149658203125
1772641390819778800,2.52177880859375,-0.8932342529296875,-0.0616302490234375,-0.0007476806640625
1772641390829823700,2.53182373046875,-0.9423065185546875,-0.0563812255859375,-0.001800537109375
1772641390839870200,2.5418701171875,-0.984405517578125,-0.054595947265625,-0.00213623046875
1772641390849915400,2.551915283203125,-1.010009765625,-0.051025390625,-0.004913330078125
1772641390859960000,2.5619599609375,-1.011474609375,-0.0473480224609375,-0.0105133056640625
1772641390870005200,2.572005126953125,-1.002716064453125,-0.050537109375,-0.01483154296875
1772641390880050200,2.58205029296875,-1.016082763671875,-0.0673980712890625,-0.0077972412109375
1772641390890095400,2.592095458984375,-1.01953125,-0.08367919921875,-0.008087158203125
1772641390900141300,2.602141357421875,-1.01922607421875,-0.094146728515625,-0.0142974853515625
1772641390910186200,2.612186279296875,-1.0085296630859375,-0.105621337890625,-0.0200347900390625
1772641390920231200,2.622231201171875,-0.9858245849609375,-0.118255615234375,-0.0207977294921875
1772641390930276000,2.632276123046875,-0.96075439453125,-0.1266937255859375,-0.0183258056640625
1772641390940321300,2.6423212890625,-0.9430694580078125,-0.1324615478515625,-0.0140228271484375
1772641390950366200,2.6523662109375,-0.92413330078125,-0.1374359130859375,-0.00555419921875
1772641390960412200,2.662412109375,-0.9063262939453125,-0.138458251953125,-0.002838134765625
1772641390970457000,2.67245703125,-0.899322509765625,-0.13555908203125,-0.0007781982421875
1772641390980502000,2.682501953125,-0.9035491943359375,-0.1319732666015625,0.00006103515625
1772641390990547200,2.692547119140625,-0.9193878173828125,-0.1275177001953125,0.00238037109375
1772641391000592100,2.702592041015625,-0.9409637451171875,-0.1228790283203125,0.00775146484375
1772641391010638300,2.712638427734375,-0.9504241943359375,-0.117889404296875,0.01519775390625
1772641391020683300,2.722683349609375,-0.9550323486328125,-0.11279296875,0.019134521484375
1772641391030728200,2.732728271484375,-0.95904541015625,-0.1109161376953125,0.0182952880859375
1772641391040773000,2.742773193359375,-0.9681396484375,-0.113922119140625,0.0150146484375
1772641391050818300,2.752818359375,-0.979248046875,-0.1205596923828125,0.0121002197265625
1772641391060863200,2.76286328125,-0.98492431640625,-0.12408447265625,0.0152587890625
1772641391070909200,2.7729091796875,-0.9913482666015625,-0.1254119873046875,0.0161895751953125
1772641391080954000,2.7829541015625,-0.999969482421875,-0.122894287109375,0.0195465087890625
1772641391090999000,2.7929990234375,-1.0069580078125,-0.1223907470703125,0.0270233154296875
1772641391101044200,2.803044189453125,-1.01031494140625,-0.1202545166015625,0.0364837646484375
1772641391111089200,2.813089111328125,-1.01007080078125,-0.119110107421875,0.0484161376953125
1772641391121134300,2.82313427734375,-1.011810302734375,-0.120025634765625,0.0602264404296875
1772641391131180300,2.83318017578125,-1.010101318359375,-0.119232177734375,0.0675506591796875
1772641391141225200,2.84322509765625,-1.013641357421875,-0.11968994140625,0.06854248046875
1772641391151270100,2.853270263671875,-1.0211334228515625,-0.1182098388671875,0.0683135986328125
1772641391161315300,2.8633154296875,-1.023040771484375,-0.1131591796875,0.0676116943359375
1772641391171360300,2.8733603515625,-1.0229034423828125,-0.1097412109375,0.069427490234375
1772641391181406200,2.88340625,-1.0239105224609375,-0.107818603515625,0.0731353759765625
1772641391191451100,2.893451171875,-1.0230255126953125,-0.1047821044921875,0.0738372802734375
1772641391201496000,2.90349609375,-1.03546142578125,-0.09954833984375,0.0754547119140625
1772641391211541200,2.913541259765625,-1.0496826171875,-0.0977935791015625,0.07391357421875
1772641391221586200,2.923586181640625,-1.0608978271484375,-0.09906005859375,0.0731048583984375
1772641391231631400,2.93363134765625,-1.080596923828125,-0.1071319580078125,0.080810546875
1772641391241677300,2.94367724609375,-1.0848541259765625,-0.1324615478515625,0.0885772705078125
1772641391251722000,2.953721923828125,-1.0792388916015625,-0.158477783203125,0.0803070068359375
1772641391261767200,2.96376708984375,-1.0722808837890625,-0.166229248046875,0.056243896484375
1772641391271812000,2.97381201171875,-1.08319091796875,-0.1689300537109375,0.0327911376953125
1772641391281857300,2.983857177734375,-1.107635498046875,-0.1780853271484375,0.0216064453125
1772641391291902200,2.993902099609375,-1.1280670166015625,-0.1767425537109375,0.0094757080078125
1772641391301948200,3.0039482421875,-1.1443939208984375,-0.1508331298828125,-0.0057220458984375
1772641391311993000,3.0139931640625,-1.160247802734375,-0.1195526123046875,-0.01654052734375
1772641391322038300,3.024038330078125,-1.1749420166015625,-0.0877685546875,-0.0178375244140625
1772641391332083200,3.034083251953125,-1.180450439453125,-0.0612945556640625,-0.0071563720703125
1772641391342128400,3.04412841796875,-1.1892852783203125,-0.032318115234375,0.0003662109375
1772641391352173000,3.054173095703125,-1.1836395263671875,-0.00616455078125,0.0048065185546875
1772641391362219000,3.064218994140625,-1.1739959716796875,0.0146331787109375,0.009857177734375
1772641391372264200,3.07426416015625,-1.159149169921875,0.022918701171875,0.0174560546875
1772641391382309000,3.08430908203125,-1.1425933837890625,0.028045654296875,0.0241241455078125
1772641391392354300,3.094354248046875,-1.1203155517578125,0.032745361328125,0.0251922607421875
1772641391402399200,3.104399169921875,-1.0910186767578125,0.030731201171875,0.02520751953125
1772641391412445200,3.114445068359375,-1.0626220703125,0.0253753662109375,0.0274200439453125
1772641391422490000,3.124489990234375,-1.0337982177734375,0.0212860107421875,0.02752685546875
1772641391432535300,3.134535400390625,-1.0069580078125,0.0099029541015625,0.033111572265625
1772641391442580200,3.144580322265625,-0.978424072265625,-0.00537109375,0.045135498046875
1772641391452625200,3.154625244140625,-0.9447479248046875,-0.0174560546875,0.059356689453125
1772641391462670000,3.164670166015625,-0.9083251953125,-0.027496337890625,0.0719451904296875
1772641391472716000,3.174716064453125,-0.8697967529296875,-0.034393310546875,0.0819091796875
1772641391482761200,3.18476123046875,-0.837310791015625,-0.040252685546875,0.0863494873046875
1772641391492806100,3.19480615234375,-0.8210906982421875,-0.0427398681640625,0.08978271484375
1772641391502851300,3.204851318359375,-0.8070068359375,-0.041748046875,0.0928955078125
1772641391512896300,3.214896240234375,-0.7975616455078125,-0.0427093505859375,0.101226806640625
1772641391522941200,3.224941162109375,-0.79888916015625,-0.04315185546875,0.1109466552734375
1772641391532987100,3.234987060546875,-0.8017730712890625,-0.04315185546875,0.118072509765625
1772641391543032000,3.245031982421875,-0.7985382080078125,-0.039093017578125,0.123809814453125
1772641391553077200,3.2550771484375,-0.798919677734375,-0.0358734130859375,0.1288909912109375
1772641391563122200,3.2651220703125,-0.802459716796875,-0.03460693359375,0.136810302734375
1772641391573167000,3.2751669921875,-0.80438232421875,-0.030120849609375,0.14617919921875
1772641391583213000,3.285213134765625,-0.80596923828125,-0.0230255126953125,0.151092529296875
1772641391593258200,3.29525830078125,-0.8079986572265625,-0.0172271728515625,0.1551971435546875
1772641391603303200,3.30530322265625,-0.8177947998046875,-0.012115478515625,0.1552734375
1772641391613348400,3.315348388671875,-0.83282470703125,-0.0054779052734375,0.1494140625
1772641391623393300,3.325393310546875,-0.8573455810546875,-0.0029449462890625,0.140380859375
1772641391633438200,3.335438232421875,-0.8843841552734375,-0.002685546875,0.1316375732421875
1772641391643484200,3.345484130859375,-0.91265869140625,-0.0037994384765625,0.12078857421875
1772641391653529000,3.355529052734375,-0.9428863525390625,-0.004791259765625,0.1069488525390625
1772641391663574300,3.36557421875,-0.9680938720703125,-0.0128021240234375,0.1008758544921875
1772641391673619200,3.375619140625,-0.9840087890625,-0.027313232421875,0.092132568359375
1772641391683664100,3.3856640625,-0.9857635498046875,-0.0261383056640625,0.0671539306640625
1772641391693709000,3.395708984375,-0.9891204833984375,-0.0367584228515625,0.04644775390625
1772641391703755300,3.40575537109375,-1.000946044921875,-0.061248779296875,0.0379486083984375
1772641391713800200,3.41580029296875,-0.9945831298828125,-0.0772705078125,0.0253753662109375
1772641391723845000,3.42584521484375,-0.990753173828125,-0.092742919921875,0.0123291015625
1772641391733890300,3.435890380859375,-0.986602783203125,-0.1062774658203125,0.001678466796875
1772641391743935200,3.445935302734375,-0.9852447509765625,-0.1183319091796875,-0.008636474609375
1772641391753980200,3.455980224609375,-0.9913330078125,-0.12750244140625,-0.01275634765625
1772641391764026000,3.466026123046875,-0.996307373046875,-0.1233978271484375,-0.018280029296875
1772641391774071300,3.4760712890625,-1.00091552734375,-0.1156768798828125,-0.020751953125
1772641391784116200,3.4861162109375,-1.0126190185546875,-0.10809326171875,-0.0176544189453125
1772641391794161200,3.4961611328125,-1.022247314453125,-0.1020050048828125,-0.0077362060546875
1772641391804206000,3.5062060546875,-1.025177001953125,-0.0969085693359375,0.00225830078125
1772641391814252000,3.516251953125,-1.024169921875,-0.0937042236328125,0.0126495361328125
1772641391824297200,3.526297119140625,-1.0184783935546875,-0.0912322998046875,0.020172119140625
1772641391834341600,3.536341552734375,-1.01824951171875,-0.09246826171875,0.02764892578125
1772641391844386600,3.546386474609375,-1.01751708984375,-0.0935821533203125,0.0313262939453125
1772641391854431700,3.556431640625,-1.0139617919921875,-0.0938873291015625,0.0355224609375
1772641391864476700,3.5664765625,-1.0120697021484375,-0.09503173828125,0.0395355224609375
1772641391874522600,3.576522705078125,-1.006500244140625,-0.0948486328125,0.04217529296875
1772641391884567600,3.586567626953125,-1.0069732666015625,-0.0985260009765625,0.0395965576171875
1772641391894612500,3.596612548828125,-1.01348876953125,-0.10333251953125,0.039642333984375
1772641391904657700,3.60665771484375,-1.018341064453125,-0.1116485595703125,0.039093017578125
1772641391914702600,3.61670263671875,-1.0175933837890625,-0.12359619140625,0.0415802001953125
1772641391924747800,3.626747802734375,-1.0077972412109375,-0.136016845703125,0.04241943359375
1772641391934793700,3.636793701171875,-0.99652099609375,-0.146026611328125,0.0396728515625
1772641391944838400,3.64683837890625,-0.98638916015625,-0.1547088623046875,0.0352783203125
1772641391954883600,3.656883544921875,-0.97705078125,-0.1631011962890625,0.02899169921875
1772641391964928500,3.666928466796875,-0.97491455078125,-0.171142578125,0.0275726318359375
1772641391974973700,3.6769736328125,-0.970733642578125,-0.1787567138671875,0.019500732421875
1772641391985019600,3.68701953125,-0.9755401611328125,-0.1897430419921875,0.01776123046875
1772641391995064600,3.697064697265625,-0.9798736572265625,-0.19378662109375,0.0130615234375
1772641392005109500,3.707109619140625,-0.9785003662109375,-0.188690185546875,0.00408935546875
1772641392015154700,3.71715478515625,-0.978668212890625,-0.1839752197265625,-0.0037078857421875
1772641392025199600,3.72719970703125,-0.9864349365234375,-0.1781158447265625,-0.0059051513671875
1772641392035244800,3.737244873046875,-1.000885009765625,-0.171478271484375,-0.0033721923828125
1772641392045290800,3.747290771484375,-1.02130126953125,-0.160491943359375,-0.0001678466796875
1772641392055335400,3.75733544921875,-1.04339599609375,-0.1453399658203125,0.00262451171875
1772641392065380600,3.767380615234375,-1.06890869140625,-0.1380615234375,0.01318359375
1772641392075425500,3.777425537109375,-1.0972747802734375,-0.155059814453125,0.035736083984375
1772641392085470700,3.787470703125,-1.1134490966796875,-0.179473876953125,0.0543060302734375
1772641392095515400,3.797515380859375,-1.1199188232421875,-0.186431884765625,0.049560546875
1772641392105561600,3.8075615234375,-1.126983642578125,-0.189361572265625,0.0468292236328125
1772641392115606500,3.8176064453125,-1.132781982421875,-0.205322265625,0.0493621826171875
1772641392125651700,3.827651611328125,-1.1255645751953125,-0.209075927734375,0.026214599609375
1772641392135696600,3.837696533203125,-1.1220550537109375,-0.1892547607421875,-0.0185546875
1772641392145741800,3.847741943359375,-1.1305694580078125,-0.1768341064453125,-0.0545501708984375
1772641392155787800,3.857787841796875,-1.1454620361328125,-0.1502685546875,-0.09033203125
1772641392165832400,3.86783251953125,-1.1652679443359375,-0.1161346435546875,-0.11181640625
1772641392175877600,3.877877685546875,-1.189544677734375,-0.084747314453125,-0.111541748046875
1772641392185922600,3.887922607421875,-1.20758056640625,-0.056060791015625,-0.1008453369140625
1772641392195967700,3.8979677734375,-1.215118408203125,-0.0341033935546875,-0.0867156982421875
1772641392206012400,3.908012451171875,-1.2136383056640625,-0.0126800537109375,-0.0778656005859375
1772641392216058400,3.918058349609375,-1.1877899169921875,0.0172271728515625,-0.088409423828125
1772641392226103600,3.928103515625,-1.147735595703125,0.02642822265625,-0.0884552001953125
1772641392236148500,3.9381484375,-1.11358642578125,0.0074005126953125,-0.05902099609375
1772641392246193700,3.948193603515625,-1.0445098876953125,-0.009735107421875,-0.0271453857421875
1772641392256238600,3.958238525390625,-0.985504150390625,-0.0174102783203125,-0.0031280517578125
1772641392266283500,3.968283447265625,-0.92694091796875,-0.0233306884765625,0.0181427001953125
1772641392276329500,3.97832958984375,-0.863616943359375,-0.030242919921875,0.0354461669921875
1772641392286374700,3.988374755859375,-0.821258544921875,-0.0376129150390625,0.0488128662109375
1772641392296419600,3.998419677734375,-0.8019561767578125,-0.0443878173828125,0.0601959228515625
1772641392306464800,4.00846484375,-0.8021087646484375,-0.0471649169921875,0.0677947998046875
1772641392316509400,4.018509521484375,-0.8063507080078125,-0.038299560546875,0.06365966796875
1772641392326554600,4.0285546875,-0.8150482177734375,-0.032928466796875,0.053192138671875
1772641392336600600,4.0386005859375,-0.82098388671875,-0.035919189453125,0.04315185546875
1772641392346645500,4.0486455078125,-0.8108062744140625,-0.035003662109375,0.033172607421875
1772641392356690700,4.058690673828125,-0.7972564697265625,-0.0348358154296875,0.0280303955078125
1772641392366735600,4.068735595703125,-0.79119873046875,-0.0387420654296875,0.0320587158203125
1772641392376780500,4.078780517578125,-0.7837066650390625,-0.0438995361328125,0.0369415283203125
1772641392386826500,4.088826416015625,-0.78582763671875,-0.0478973388671875,0.043609619140625
1772641392396871700,4.09887158203125,-0.7934722900390625,-0.0527191162109375,0.0438995361328125
1772641392406916600,4.10891650390625,-0.8104400634765625,-0.0532989501953125,0.0424041748046875
1772641392416961800,4.1189619140625,-0.83349609375,-0.05206298828125,0.0366668701171875
1772641392427006500,4.12900634765625,-0.8610687255859375,-0.053375244140625,0.0320892333984375
1772641392437051600,4.1390517578125,-0.8957672119140625,-0.0555267333984375,0.028533935546875
1772641392447097600,4.14909765625,-0.929595947265625,-0.05609130859375,0.023223876953125
1772641392457142500,4.159142578125,-0.94879150390625,-0.0534515380859375,0.0201873779296875
1772641392467187700,4.169187744140625,-0.9571533203125,-0.05462646484375,0.015289306640625
1772641392477232600,4.179232666015625,-0.962890625,-0.0617828369140625,0.011932373046875
1772641392487277600,4.189277587890625,-0.9638519287109375,-0.072479248046875,0.0078887939453125
1772641392497322500,4.199322509765625,-0.965240478515625,-0.08746337890625,0.005615234375
1772641392507368400,4.209368408203125,-0.9632415771484375,-0.101287841796875,0.0008392333984375
1772641392517413600,4.21941357421875,-0.95440673828125,-0.1143646240234375,-0.0026702880859375
1772641392527458600,4.22945849609375,-0.9457550048828125,-0.1275787353515625,-0.0058441162109375
1772641392537503700,4.239503662109375,-0.932647705078125,-0.135955810546875,-0.0116424560546875
1772641392547548400,4.24954833984375,-0.9201202392578125,-0.141937255859375,-0.01904296875
1772641392557594600,4.2595947265625,-0.9166717529296875,-0.1435089111328125,-0.0239410400390625
1772641392567639600,4.2696396484375,-0.9228515625,-0.1439971923828125,-0.02874755859375
1772641392577684700,4.279684814453125,-0.93853759765625,-0.145111083984375,-0.027191162109375
1772641392587729700,4.289729736328125,-0.9552764892578125,-0.1435699462890625,-0.025115966796875
1772641392597774600,4.299774658203125,-0.968963623046875,-0.1360626220703125,-0.0197296142578125
1772641392607819500,4.309819580078125,-0.9791107177734375,-0.13214111328125,-0.0155181884765625
1772641392617865500,4.319865478515625,-0.986541748046875,-0.1256866455078125,-0.0133209228515625
1772641392627910700,4.32991064453125,-0.99615478515625,-0.122467041015625,-0.011627197265625
1772641392637955600,4.33995556640625,-1.0119476318359375,-0.123443603515625,-0.011199951171875
1772641392648000800,4.350000732421875,-1.02838134765625,-0.12530517578125,-0.0064849853515625
1772641392658045400,4.36004541015625,-1.0404205322265625,-0.1249847412109375,0.0008392333984375
1772641392668090600,4.370090576171875,-1.0439453125,-0.124267578125,0.0100860595703125
1772641392678136600,4.380136474609375,-1.0385589599609375,-0.122955322265625,0.02166748046875
1772641392688181800,4.390181640625,-1.029876708984375,-0.1246185302734375,0.031494140625
1772641392698226700,4.400226806640625,-1.0171051025390625,-0.128326416015625,0.0422515869140625
1772641392708271600,4.410271728515625,-1.0065155029296875,-0.134033203125,0.0514678955078125
1772641392718316500,4.420316650390625,-0.9923553466796875,-0.1440277099609375,0.06109619140625
1772641392728362500,4.430362548828125,-0.9776458740234375,-0.1539459228515625,0.0689544677734375
1772641392738407700,4.44040771484375,-0.96710205078125,-0.16064453125,0.0762786865234375
1772641392748452600,4.45045263671875,-0.959442138671875,-0.1670074462890625,0.083770751953125
1772641392758497800,4.460497802734375,-0.9616851806640625,-0.1704254150390625,0.08758544921875
1772641392768542500,4.47054248046875,-0.9696197509765625,-0.1710205078125,0.0915985107421875
1772641392778587600,4.480587646484375,-0.9813385009765625,-0.1685638427734375,0.09747314453125
1772641392788633600,4.490633544921875,-1.00335693359375,-0.1676177978515625,0.1039581298828125
1772641392798678500,4.500678466796875,-1.019012451171875,-0.162994384765625,0.1051025390625
1772641392808723700,4.5107236328125,-1.0332794189453125,-0.1572113037109375,0.100433349609375
1772641392818768400,4.520768310546875,-1.0393218994140625,-0.154052734375,0.0903167724609375
1772641392828813600,4.5308134765625,-1.0435943603515625,-0.1505889892578125,0.077972412109375
1772641392838858500,4.5408583984375,-1.051666259765625,-0.144134521484375,0.0654754638671875
1772641392848904700,4.55090478515625,-1.0620880126953125,-0.1359405517578125,0.059051513671875
1772641392858949600,4.56094970703125,-1.071685791015625,-0.1354217529296875,0.0580596923828125
1772641392868994800,4.570994873046875,-1.08551025390625,-0.1534881591796875,0.06744384765625
1772641392879039500,4.58103955078125,-1.089935302734375,-0.182891845703125,0.0740509033203125
1772641392889084700,4.591084716796875,-1.084259033203125,-0.2012176513671875,0.06134033203125
1772641392899130600,4.601130615234375,-1.07647705078125,-0.1991729736328125,0.0379486083984375
1772641392909175600,4.611175537109375,-1.08026123046875,-0.1992034912109375,0.02655029296875
1772641392919220700,4.621220703125,-1.0857696533203125,-0.2109375,0.026947021484375
1772641392929265400,4.631265380859375,-1.08135986328125,-0.2117767333984375,0.02410888671875
1772641392939310600,4.641310546875,-1.069366455078125,-0.186676025390625,0.014404296875
1772641392949355500,4.65135546875,-1.0576934814453125,-0.1560516357421875,0.005126953125
1772641392959401700,4.661401611328125,-1.042449951171875,-0.1277923583984375,0.0043182373046875
1772641392969446700,4.67144677734375,-1.0290679931640625,-0.098388671875,0.0052337646484375
1772641392979491600,4.68149169921875,-1.02911376953125,-0.0628509521484375,0.006500244140625
1772641392989536500,4.69153662109375,-1.040985107421875,-0.029022216796875,0.0085296630859375
1772641392999581700,4.701581787109375,-1.0625762939453125,-0.004364013671875,0.0215301513671875
1772641393009626600,4.711626708984375,-1.079620361328125,0.0103607177734375,0.0380401611328125
1772641393019672600,4.721672607421875,-1.079376220703125,0.02197265625,0.0514068603515625
1772641393029717800,4.7317177734375,-1.0667266845703125,0.0263824462890625,0.05584716796875
1772641393039762400,4.741762451171875,-1.0447235107421875,0.0197296142578125,0.055633544921875
1772641393049807600,4.7518076171875,-1.018310546875,0.008819580078125,0.0533905029296875
1772641393059852500,4.7618525390625,-0.987548828125,-0.005950927734375,0.0485687255859375
1772641393069897700,4.771897705078125,-0.9680023193359375,-0.0226593017578125,0.0439300537109375
1772641393079943700,4.781943603515625,-0.94635009765625,-0.03326416015625,0.0489349365234375
1772641393089988600,4.791988525390625,-0.9288482666015625,-0.041778564453125,0.0546722412109375
1772641393100033500,4.802033447265625,-0.9122772216796875,-0.0435638427734375,0.0616302490234375
1772641393110078500,4.812078369140625,-0.900360107421875,-0.03558349609375,0.0643157958984375
1772641393120123600,4.82212353515625,-0.8789825439453125,-0.02728271484375,0.066558837890625
1772641393130169600,4.832169677734375,-0.869873046875,-0.0273590087890625,0.07550048828125
1772641393140214800,4.84221484375,-0.868865966796875,-0.0285491943359375,0.0829925537109375
1772641393150259500,4.852259521484375,-0.8564605712890625,-0.016143798828125,0.0821533203125
1772641393160304600,4.8623046875,-0.836151123046875,-0.010009765625,0.0861358642578125
1772641393170349600,4.872349609375,-0.829345703125,-0.01385498046875,0.090667724609375
1772641393180394800,4.882394775390625,-0.8201141357421875,-0.0187530517578125,0.0970306396484375
1772641393190440700,4.892440673828125,-0.8182373046875,-0.0230255126953125,0.101226806640625
1772641393200485600,4.902485595703125,-0.8335418701171875,-0.0279083251953125,0.1032257080078125
1772641393210530600,4.912530517578125,-0.8620147705078125,-0.0298309326171875,0.1029510498046875
1772641393220575500,4.922575439453125,-0.892730712890625,-0.02435302734375,0.0955352783203125
1772641393230620700,4.93262060546875,-0.9246826171875,-0.019927978515625,0.0884552001953125
1772641393240665600,4.94266552734375,-0.9565582275390625,-0.0193634033203125,0.0826416015625
1772641393250711600,4.952711669921875,-0.9814453125,-0.0169677734375,0.0716094970703125
1772641393260756500,4.962756591796875,-0.9991912841796875,-0.0087890625,0.05963134765625
1772641393270801700,4.9728017578125,-1.01953125,-0.00201416015625,0.0506439208984375
1772641393280846600,4.9828466796875,-1.037353515625,0.000091552734375,0.0463714599609375
1772641393290891500,4.9928916015625,-1.054901123046875,-0.005401611328125,0.0439453125
1772641393300937700,5.002937744140625,-1.070404052734375,-0.011993408203125,0.041900634765625
1772641393310982700,5.012982666015625,-1.073455810546875,-0.0194244384765625,0.0350341796875
1772641393321027600,5.023027587890625,-1.060028076171875,-0.0335693359375,0.031097412109375
1772641393331072500,5.033072509765625,-1.0404510498046875,-0.054779052734375,0.030487060546875
1772641393341117700,5.04311767578125,-1.0159149169921875,-0.0769195556640625,0.0286865234375
1772641393351162600,5.05316259765625,-0.9953460693359375,-0.0983734130859375,0.024566650390625
1772641393361208600,5.06320849609375,-0.978057861328125,-0.1174468994140625,0.0195159912109375
1772641393371253500,5.07325341796875,-0.96441650390625,-0.1324462890625,0.015716552734375
1772641393381298400,5.08329833984375,-0.957305908203125,-0.1406097412109375,0.0127105712890625
1772641393391343600,5.093343505859375,-0.9431915283203125,-0.1433563232421875,0.0050506591796875
1772641393401388500,5.103388427734375,-0.942230224609375,-0.1463165283203125,0.005523681640625
1772641393411433700,5.113433837890625,-0.9538726806640625,-0.1431121826171875,0.0049285888671875
1772641393421479700,5.123479736328125,-0.96844482421875,-0.13543701171875,0.011688232421875
1772641393431524600,5.133524658203125,-0.981781005859375,-0.1273040771484375,0.02374267578125
1772641393441569500,5.143569580078125,-0.9853515625,-0.120361328125,0.0379180908203125
1772641393451614700,5.15361474609375,-0.981842041015625,-0.1129913330078125,0.049407958984375
1772641393461659600,5.16365966796875,-0.9771575927734375,-0.1079864501953125,0.0569000244140625
1772641393471705600,5.17370556640625,-0.97320556640625,-0.1060943603515625,0.063201904296875
1772641393481750500,5.18375048828125,-0.96795654296875,-0.1045074462890625,0.0695953369140625
1772641393491795500,5.19379541015625,-0.964874267578125,-0.1067352294921875,0.0783538818359375
1772641393501840600,5.203840576171875,-0.9589996337890625,-0.1083526611328125,0.0832061767578125
1772641393511885600,5.213885498046875,-0.95343017578125,-0.113128662109375,0.0853729248046875
1772641393521930800,5.2239306640625,-0.9477996826171875,-0.119354248046875,0.089019775390625
1772641393531976700,5.233976806640625,-0.9411468505859375,-0.125946044921875,0.0948486328125
1772641393542021600,5.244021728515625,-0.940399169921875,-0.1314849853515625,0.1016387939453125
1772641393552066600,5.254066650390625,-0.9419403076171875,-0.1372528076171875,0.1075897216796875
1772641393562111700,5.26411181640625,-0.9427947998046875,-0.1408843994140625,0.10595703125
1772641393572156700,5.27415673828125,-0.9476318359375,-0.1397247314453125,0.099151611328125
1772641393582201600,5.28420166015625,-0.9588623046875,-0.13861083984375,0.089569091796875
1772641393592247600,5.29424755859375,-0.9774169921875,-0.1395721435546875,0.0829620361328125
1772641393602292500,5.30429248046875,-0.9960174560546875,-0.1382293701171875,0.0788421630859375
1772641393612337700,5.314337646484375,-1.0083770751953125,-0.136810302734375,0.0784454345703125
1772641393622382600,5.324382568359375,-1.0167236328125,-0.1351165771484375,0.082061767578125
1772641393632427800,5.334427734375,-1.0223846435546875,-0.136138916015625,0.083404541015625
1772641393642472400,5.344472412109375,-1.02471923828125,-0.136932373046875,0.084716796875
1772641393652518400,5.354518310546875,-1.024688720703125,-0.13519287109375,0.08056640625
1772641393662563600,5.3645634765625,-1.02508544921875,-0.136474609375,0.0789642333984375
1772641393672608500,5.3746083984375,-1.0291900634765625,-0.137908935546875,0.0765380859375
1772641393682653700,5.38465380859375,-1.0323486328125,-0.138458251953125,0.0716705322265625
1772641393692698600,5.39469873046875,-1.0291290283203125,-0.1405487060546875,0.066986083984375
1772641393702744600,5.40474462890625,-1.0260772705078125,-0.141937255859375,0.067291259765625
1772641393712789500,5.41478955078125,-1.0303955078125,-0.1419677734375,0.06640625
1772641393722834700,5.424834716796875,-1.0454254150390625,-0.1430816650390625,0.06585693359375
1772641393732879600,5.434879638671875,-1.0755462646484375,-0.15240478515625,0.07623291015625
1772641393742924800,5.4449248046875,-1.085174560546875,-0.1766204833984375,0.0962066650390625
1772641393752969500,5.454969482421875,-1.0866851806640625,-0.190826416015625,0.102020263671875
1772641393763015400,5.465015380859375,-1.08441162109375,-0.19183349609375,0.1013336181640625
1772641393773060600,5.475060546875,-1.0824432373046875,-0.2009429931640625,0.103118896484375
1772641393783105500,5.48510546875,-1.0863037109375,-0.2127838134765625,0.098175048828125
1772641393793150700,5.495150634765625,-1.0829315185546875,-0.1962432861328125,0.0597686767578125
1772641393803195600,5.505195556640625,-1.097991943359375,-0.1546173095703125,0.0055999755859375
1772641393813240600,5.515240478515625,-1.125701904296875,-0.1156005859375,-0.0330047607421875
1772641393823286500,5.52528662109375,-1.15264892578125,-0.0862274169921875,-0.0522308349609375
1772641393833333800,5.535333740234375,-1.16497802734375,-0.0516815185546875,-0.04833984375
1772641393843378700,5.545378662109375,-1.1707000732421875,-0.0236053466796875,-0.0330810546875
1772641393853423600,5.555423583984375,-1.165252685546875,-0.0006103515625,-0.01708984375
1772641393863468500,5.565468505859375,-1.142578125,0.0155487060546875,-0.00628662109375
1772641393873514800,5.5755146484375,-1.1175689697265625,0.0233612060546875,-0.001861572265625
1772641393883559700,5.5855595703125,-1.0889892578125,0.022857666015625,0.0017852783203125
1772641393893604900,5.59560498046875,-1.051971435546875,0.012420654296875,0.010711669921875
1772641393903649500,5.6056494140625,-1.0119781494140625,-0.0020904541015625,0.0269012451171875
1772641393913694700,5.61569482421875,-0.9782562255859375,-0.0146942138671875,0.050506591796875
1772641393923739600,5.62573974609375,-0.9385833740234375,-0.0224456787109375,0.077911376953125
1772641393933785600,5.63578564453125,-0.8984222412109375,-0.0275726318359375,0.1024322509765625
1772641393943830800,5.645830810546875,-0.8449554443359375,-0.02813720703125,0.1216583251953125
1772641393953875700,5.655875732421875,-0.8057403564453125,-0.0223388671875,0.1294708251953125
1772641393963920600,5.665920654296875,-0.7720794677734375,-0.009185791015625,0.127593994140625
1772641393973965600,5.675965576171875,-0.7537689208984375,0.0034027099609375,0.121917724609375
1772641393984010800,5.6860107421875,-0.758331298828125,0.0000762939453125,0.120361328125
1772641393994056700,5.696056640625,-0.770416259765625,0.0039215087890625,0.0997314453125
1772641394004101600,5.7061015625,-0.7831878662109375,0.0075225830078125,0.0708465576171875
1772641394014146600,5.716146484375,-0.78887939453125,-0.0011138916015625,0.04779052734375
1772641394024191700,5.726191650390625,-0.786895751953125,-0.013824462890625,0.0351104736328125
1772641394034236700,5.736236572265625,-0.7856903076171875,-0.0243072509765625,0.025390625
1772641394044282600,5.74628271484375,-0.7866058349609375,-0.0328369140625,0.0252685546875
1772641394054327800,5.756327880859375,-0.7991485595703125,-0.0412750244140625,0.029388427734375
1772641394064372700,5.766372802734375,-0.8283233642578125,-0.0468292236328125,0.03045654296875
1772641394074417700,5.776417724609375,-0.864898681640625,-0.05029296875,0.0243072509765625
1772641394084462600,5.786462646484375,-0.9023590087890625,-0.049835205078125,0.0160980224609375
1772641394094507800,5.7965078125,-0.9313812255859375,-0.0462799072265625,0.003662109375
1772641394104553700,5.8065537109375,-0.966461181640625,-0.046966552734375,-0.0118255615234375
1772641394114598700,5.8165986328125,-0.9961090087890625,-0.0489044189453125,-0.0245361328125
1772641394124643800,5.826643798828125,-1.0217437744140625,-0.0555419921875,-0.035247802734375
1772641394134688500,5.8366884765625,-1.0296173095703125,-0.064056396484375,-0.0406341552734375
1772641394144733700,5.846733642578125,-1.0306854248046875,-0.0715179443359375,-0.0424041748046875
1772641394154778600,5.856778564453125,-1.0258636474609375,-0.08074951171875,-0.0398406982421875
1772641394164824800,5.866824951171875,-1.0180511474609375,-0.0938262939453125,-0.0356292724609375
1772641394174869800,5.876869873046875,-1.01190185546875,-0.1090240478515625,-0.02838134765625
1772641394184914700,5.886914794921875,-1.002410888671875,-0.12213134765625,-0.0240325927734375
1772641394194959600,5.896959716796875,-0.9923248291015625,-0.1326141357421875,-0.028076171875
1772641394205004800,5.9070048828125,-0.98455810546875,-0.138641357421875,-0.034332275390625
1772641394215050800,5.91705078125,-0.98614501953125,-0.141448974609375,-0.0406494140625
1772641394225095700,5.927095703125,-0.9986572265625,-0.142669677734375,-0.04510498046875
1772641394235140900,5.937140869140625,-1.0142822265625,-0.1371917724609375,-0.045989990234375
1772641394245185500,5.947185546875,-1.0248870849609375,-0.123779296875,-0.0398712158203125
1772641394255230700,5.957230712890625,-1.0290679931640625,-0.10589599609375,-0.02978515625
1772641394265275600,5.967275634765625,-1.0337677001953125,-0.0936126708984375,-0.0171051025390625
1772641394275321600,5.977321533203125,-1.047088623046875,-0.0853271484375,-0.00323486328125
1772641394285366800,5.98736669921875,-1.0544891357421875,-0.0772857666015625,0.0056610107421875
1772641394295411700,5.99741162109375,-1.058258056640625,-0.0740814208984375,0.0160369873046875
1772641394305456600,6.00745654296875,-1.061279296875,-0.07177734375,0.02374267578125
1772641394315501600,6.01750146484375,-1.052459716796875,-0.0695037841796875,0.0273284912109375
1772641394325546800,6.027546630859375,-1.0340728759765625,-0.071563720703125,0.0354461669921875
1772641394335592700,6.0375927734375,-1.0126190185546875,-0.0736846923828125,0.0455474853515625
1772641394345638000,6.047637939453125,-0.991058349609375,-0.078369140625,0.0567779541015625
1772641394355682600,6.0576826171875,-0.9715576171875,-0.0854949951171875,0.069244384765625
1772641394365727700,6.067727783203125,-0.9654083251953125,-0.0956878662109375,0.08160400390625
1772641394375772700,6.077772705078125,-0.9526214599609375,-0.1055755615234375,0.0873870849609375
1772641394385817900,6.08781787109375,-0.9451751708984375,-0.1130218505859375,0.0905303955078125
1772641394395863800,6.09786376953125,-0.9489288330078125,-0.123443603515625,0.0930938720703125
1772641394405908500,6.107908447265625,-0.951995849609375,-0.1318817138671875,0.09002685546875
1772641394415953700,6.11795361328125,-0.961090087890625,-0.1419830322265625,0.082550048828125
1772641394425998600,6.12799853515625,-0.971435546875,-0.1496734619140625,0.0715179443359375
1772641394436043800,6.138043701171875,-0.97393798828125,-0.1552734375,0.063232421875
1772641394446088700,6.148088623046875,-0.977935791015625,-0.1605072021484375,0.060302734375
1772641394456135000,6.158135009765625,-0.9845733642578125,-0.1595916748046875,0.060760498046875
1772641394466179600,6.1681796875,-0.9992828369140625,-0.1529998779296875,0.0565948486328125
1772641394476224800,6.178224853515625,-1.0168609619140625,-0.14654541015625,0.0546875
1772641394486269700,6.188269775390625,-1.0325164794921875,-0.140533447265625,0.053131103515625
1772641394496315000,6.19831494140625,-1.05303955078125,-0.1360321044921875,0.0524749755859375
1772641394506360800,6.20836083984375,-1.070098876953125,-0.128143310546875,0.052215576171875
1772641394516405500,6.218405517578125,-1.0828857421875,-0.12469482421875,0.054840087890625
1772641394526450700,6.22845068359375,-1.09075927734375,-0.1373443603515625,0.0651092529296875
1772641394536495600,6.23849560546875,-1.0802764892578125,-0.1552581787109375,0.07373046875
1772641394546540800,6.248540771484375,-1.050384521484375,-0.1521759033203125,0.067718505859375
1772641394556585700,6.258585693359375,-1.025299072265625,-0.1308135986328125,0.06475830078125
1772641394566631700,6.268631591796875,-1.0222320556640625,-0.111480712890625,0.0833587646484375
1772641394576676600,6.278676513671875,-1.0336151123046875,-0.0918121337890625,0.1033782958984375
1772641394586721500,6.288721435546875,-1.03955078125,-0.06390380859375,0.1137237548828125
1772641394596766700,6.2987666015625,-1.0438385009765625,-0.0340423583984375,0.1139678955078125
1772641394606811600,6.308811767578125,-1.0567626953125,-0.0131988525390625,0.1105194091796875
1772641394616856600,6.318856689453125,-1.07171630859375,-0.002716064453125,0.104766845703125
1772641394626902500,6.328902587890625,-1.0836334228515625,-0.0092926025390625,0.1046295166015625
1772641394636947700,6.33894775390625,-1.0830230712890625,-0.01898193359375,0.1019134521484375
1772641394646992600,6.34899267578125,-1.0638275146484375,-0.0357818603515625,0.0843505859375
1772641394657037800,6.359037841796875,-1.05096435546875,-0.057159423828125,0.063446044921875
1772641394667082800,6.369082763671875,-1.0411529541015625,-0.071533203125,0.0404815673828125
1772641394677128700,6.379128662109375,-1.0461273193359375,-0.08355712890625,0.0233154296875
1772641394687173600,6.389173583984375,-1.05194091796875,-0.0885772705078125,0.007354736328125
1772641394697218600,6.399218505859375,-1.0586090087890625,-0.08978271484375,-0.0060272216796875
1772641394707263700,6.409263671875,-1.05841064453125,-0.091278076171875,-0.0229034423828125
1772641394717308700,6.41930859375,-1.0579376220703125,-0.095489501953125,-0.0375213623046875
1772641394727353600,6.429353515625,-1.0455169677734375,-0.1001434326171875,-0.0503997802734375
1772641394737399600,6.439399658203125,-1.0206146240234375,-0.105072021484375,-0.05584716796875
1772641394747444700,6.44944482421875,-0.992095947265625,-0.111114501953125,-0.0561981201171875
1772641394757489700,6.45948974609375,-0.9656524658203125,-0.11248779296875,-0.046051025390625
1772641394767534800,6.469534912109375,-0.9423065185546875,-0.1112213134765625,-0.0317230224609375
1772641394777579800,6.479579833984375,-0.91827392578125,-0.10931396484375,-0.014862060546875
1772641394787624700,6.489624755859375,-0.8969573974609375,-0.10662841796875,0.010833740234375
1772641394797670700,6.499670654296875,-0.8759002685546875,-0.1038055419921875,0.038055419921875
1772641394807715600,6.509715576171875,-0.8636932373046875,-0.098785400390625,0.0598602294921875
1772641394817760800,6.5197607421875,-0.8541107177734375,-0.09197998046875,0.0778961181640625
1772641394827805700,6.5298056640625,-0.8460540771484375,-0.08612060546875,0.0872344970703125
1772641394837849000,6.53984912109375,-0.841156005859375,-0.0816802978515625,0.0946044921875
1772641394847894300,6.549894287109375,-0.8354949951171875,-0.0790252685546875,0.103546142578125
1772641394857940200,6.559940185546875,-0.831787109375,-0.0710601806640625,0.1060943603515625
1772641394867985000,6.56998486328125,-0.834381103515625,-0.0613250732421875,0.106658935546875
1772641394878030000,6.580030029296875,-0.8467559814453125,-0.0497894287109375,0.1075897216796875
1772641394888075000,6.590074951171875,-0.86474609375,-0.040191650390625,0.1142425537109375
1772641394898120200,6.6001201171875,-0.8805389404296875,-0.0342559814453125,0.1207733154296875
1772641394908166100,6.610166259765625,-0.8959808349609375,-0.0284423828125,0.1280670166015625
1772641394918211000,6.620211181640625,-0.9126434326171875,-0.022918701171875,0.1290740966796875
1772641394928256000,6.630256103515625,-0.9306793212890625,-0.0192108154296875,0.125732421875
1772641394938301200,6.64030126953125,-0.9503936767578125,-0.0201873779296875,0.1151580810546875
1772641394948346000,6.65034619140625,-0.9783172607421875,-0.02410888671875,0.101287841796875
1772641394958391300,6.660391357421875,-1.002105712890625,-0.0286865234375,0.0814208984375
1772641394968437200,6.670437255859375,-1.013153076171875,-0.0350189208984375,0.06134033203125
1772641394978482000,6.68048193359375,-1.0187530517578125,-0.043701171875,0.04010009765625
1772641394988527000,6.690527099609375,-1.0240478515625,-0.0573272705078125,0.017425537109375
1772641394998572000,6.700572021484375,-1.02667236328125,-0.0737152099609375,0.0020294189453125
1772641395008617200,6.7106171875,-1.024749755859375,-0.0908966064453125,-0.006378173828125
1772641395018662100,6.720662109375,-1.0176544189453125,-0.104888916015625,-0.011871337890625
1772641395028708000,6.7307080078125,-1.0085906982421875,-0.11773681640625,-0.012969970703125
1772641395038753000,6.7407529296875,-0.9981842041015625,-0.130767822265625,-0.009063720703125
1772641395048798200,6.750798095703125,-0.983489990234375,-0.14263916015625,-0.0059356689453125
1772641395058843100,6.760843017578125,-0.9736480712890625,-0.149658203125,-0.0048828125
1772641395068888000,6.77088818359375,-0.968597412109375,-0.152923583984375,-0.0046539306640625
1772641395078933000,6.78093310546875,-0.9674072265625,-0.154998779296875,-0.0018157958984375
1772641395088979000,6.79097900390625,-0.9635467529296875,-0.154815673828125,0.0030364990234375
1772641395099024100,6.801024169921875,-0.956817626953125,-0.1483001708984375,0.0066680908203125
1772641395109069000,6.811069091796875,-0.952789306640625,-0.1379241943359375,0.0118255615234375
1772641395119114200,6.8211142578125,-0.95220947265625,-0.1295318603515625,0.0198211669921875
1772641395129159200,6.8311591796875,-0.961181640625,-0.1214752197265625,0.0289764404296875
1772641395139205000,6.841205078125,-0.9691009521484375,-0.115509033203125,0.035064697265625
1772641395149250000,6.85125,-0.9744720458984375,-0.114654541015625,0.0414276123046875
1772641395159295000,6.861294921875,-0.98046875,-0.11431884765625,0.044830322265625
1772641395169340200,6.871340087890625,-0.984130859375,-0.1156463623046875,0.0424041748046875
1772641395179385000,6.881385009765625,-0.982025146484375,-0.119384765625,0.034698486328125
1772641395189430000,6.891429931640625,-0.983551025390625,-0.126708984375,0.026214599609375
1772641395199476000,6.90147607421875,-0.991943359375,-0.131805419921875,0.015625
1772641395209521200,6.911521240234375,-0.999847412109375,-0.1350250244140625,0.005157470703125
1772641395219566000,6.921566162109375,-1.0010223388671875,-0.1375274658203125,-0.002410888671875
1772641395229611300,6.931611328125,-1.0052947998046875,-0.141876220703125,-0.0053558349609375
1772641395239656200,6.94165625,-1.0066375732421875,-0.14898681640625,-0.005645751953125
1772641395249701000,6.951701171875,-1.0062103271484375,-0.15643310546875,-0.00384521484375
1772641395259747000,6.9617470703125,-1.002044677734375,-0.16546630859375,-0.000946044921875
1772641395269792000,6.9717919921875,-0.9923858642578125,-0.17437744140625,0.000274658203125
1772641395279837200,6.981837158203125,-0.985992431640625,-0.1774139404296875,0.0032958984375
1772641395289882000,6.991882080078125,-0.986053466796875,-0.1759796142578125,0.0073394775390625
1772641395299927000,7.001927001953125,-0.989654541015625,-0.1730804443359375,0.0157318115234375
1772641395309972000,7.011971923828125,-0.995391845703125,-0.16949462890625,0.028289794921875
1772641395320018200,7.02201806640625,-1.0009918212890625,-0.1640472412109375,0.037689208984375
1772641395330063000,7.03206298828125,-0.99786376953125,-0.1541290283203125,0.0452880859375
1772641395340108000,7.04210791015625,-0.994903564453125,-0.1455078125,0.0468597412109375
1772641395350153200,7.0521533203125,-0.9967193603515625,-0.1377716064453125,0.0465087890625
1772641395360198100,7.0621982421875,-0.9970550537109375,-0.136322021484375,0.0537261962890625
1772641395370244000,7.072244140625,-0.996917724609375,-0.1368560791015625,0.0629119873046875
1772641395380289000,7.0822890625,-1.0041961669921875,-0.1368408203125,0.0672760009765625
1772641395390334200,7.092334228515625,-1.02105712890625,-0.1487884521484375,0.073974609375
1772641395400379100,7.102379150390625,-1.039398193359375,-0.1773834228515625,0.08270263671875
1772641395410424000,7.112424072265625,-1.0546875,-0.1947174072265625,0.07891845703125
1772641395420469000,7.122468994140625,-1.072967529296875,-0.1954345703125,0.0637664794921875
1772641395430515000,7.132514892578125,-1.0905303955078125,-0.2096405029296875,0.0617218017578125
1772641395440560000,7.14256005859375,-1.1083831787109375,-0.234039306640625,0.060272216796875
1772641395450605000,7.15260498046875,-1.1099700927734375,-0.2245025634765625,0.0185546875
1772641395460650200,7.162650146484375,-1.1166534423828125,-0.1850128173828125,-0.0421905517578125
1772641395470695000,7.17269482421875,-1.1477203369140625,-0.1522979736328125,-0.0828094482421875
1772641395480740000,7.182739990234375,-1.182647705078125,-0.1294097900390625,-0.085205078125
1772641395490786000,7.1927861328125,-1.1964569091796875,-0.105804443359375,-0.0553741455078125
1772641395500831200,7.202831298828125,-1.17291259765625,-0.0807037353515625,-0.01812744140625
1772641395510876200,7.212876220703125,-1.1368865966796875,-0.054351806640625,0.008575439453125
1772641395520921000,7.222921142578125,-1.1046295166015625,-0.0384979248046875,0.0247802734375
1772641395530966000,7.232966064453125,-1.0723876953125,-0.0285491943359375,0.035247802734375
1772641395541011200,7.24301123046875,-1.04833984375,-0.027557373046875,0.040496826171875
1772641395551057200,7.25305712890625,-1.02813720703125,-0.03143310546875,0.03857421875
1772641395561102000,7.26310205078125,-1.0113525390625,-0.039031982421875,0.0356597900390625
1772641395571147300,7.273147216796875,-0.9825592041015625,-0.047698974609375,0.0334014892578125
1772641395581192000,7.28319189453125,-0.9449920654296875,-0.0462188720703125,0.02679443359375
1772641395591237000,7.293237060546875,-0.919891357421875,-0.0714111328125,0.05169677734375
1772641395601282000,7.303281982421875,-0.8805999755859375,-0.0831298828125,0.071258544921875
1772641395611328000,7.313327880859375,-0.8444976806640625,-0.07598876953125,0.0802459716796875
1772641395621373200,7.323373291015625,-0.828125,-0.061614990234375,0.08148193359375
1772641395631418000,7.333418212890625,-0.8213958740234375,-0.044097900390625,0.0818939208984375
1772641395641463000,7.343463134765625,-0.8232574462890625,-0.03033447265625,0.0808258056640625
1772641395651508000,7.353508056640625,-0.8372650146484375,-0.015594482421875,0.075225830078125
1772641395661554200,7.36355419921875,-0.8540191650390625,-0.001678466796875,0.06390380859375
1772641395671599000,7.37359912109375,-0.8730926513671875,0.0064239501953125,0.053192138671875
1772641395681644300,7.383644287109375,-0.8847503662109375,0.00836181640625,0.0466766357421875
1772641395691689000,7.39368896484375,-0.885528564453125,0.00494384765625,0.0438232421875
1772641395701734100,7.403734130859375,-0.8785400390625,0.0076904296875,0.0364227294921875
1772641395711779000,7.413779052734375,-0.8771209716796875,0.0102081298828125,0.02716064453125
1772641395721825000,7.423824951171875,-0.893768310546875,0.0125579833984375,0.01953125
1772641395731870200,7.4338701171875,-0.9255523681640625,0.014801025390625,0.0147705078125
1772641395741915000,7.443914794921875,-0.963623046875,0.0212554931640625,0.0143280029296875
1772641395751960000,7.4539599609375,-0.9970245361328125,0.027130126953125,0.010528564453125
1772641395762005000,7.4640048828125,-1.017181396484375,0.029541015625,0.0057220458984375
1772641395772050200,7.47405029296875,-1.03643798828125,0.0281829833984375,0.00439453125
1772641395782096100,7.48409619140625,-1.0386810302734375,0.022857666015625,0.0006866455078125
1772641395792141300,7.494141357421875,-1.024383544921875,0.0117340087890625,-0.0018463134765625
1772641395802186000,7.50418603515625,-1.000457763671875,-0.006805419921875,-0.004486083984375
1772641395812231200,7.514231201171875,-0.979034423828125,-0.029815673828125,-0.0072021484375
1772641395822276000,7.524276123046875,-0.9584503173828125,-0.0527191162109375,-0.0091705322265625
1772641395832321300,7.5343212890625,-0.9432830810546875,-0.07177734375,-0.011077880859375
1772641395842366700,7.54436669921875,-0.9337005615234375,-0.09088134765625,-0.0111083984375
1772641395852411600,7.55441162109375,-0.923583984375,-0.1083984375,-0.0059356689453125
1772641395862456800,7.564456787109375,-0.913116455078125,-0.1214141845703125,0.0007476806640625
1772641395872501500,7.57450146484375,-0.903106689453125,-0.128753662109375,0.00299072265625
1772641395882546700,7.584546630859375,-0.90380859375,-0.1372528076171875,0.005706787109375
1772641395892591600,7.594591552734375,-0.9096832275390625,-0.1459808349609375,0.004150390625
1772641395902637800,7.604637939453125,-0.9170074462890625,-0.1529083251953125,0.00250244140625
1772641395912682800,7.614682861328125,-0.9248504638671875,-0.1522216796875,0.0015716552734375
1772641395922727700,7.624727783203125,-0.9339141845703125,-0.147430419921875,-0.0003204345703125
1772641395932772600,7.634772705078125,-0.94940185546875,-0.1408538818359375,0.00244140625
1772641395942817800,7.64481787109375,-0.968780517578125,-0.136077880859375,0.0078277587890625
1772641395952863700,7.65486376953125,-0.9946746826171875,-0.1327667236328125,0.0120697021484375
1772641395962908700,7.66490869140625,-1.0174407958984375,-0.1278839111328125,0.0155792236328125
1772641395972953900,7.674953857421875,-1.03863525390625,-0.121490478515625,0.0154571533203125
1772641395982998500,7.68499853515625,-1.0534210205078125,-0.1143035888671875,0.0118560791015625
1772641395993043700,7.695043701171875,-1.0574798583984375,-0.11346435546875,0.009613037109375
1772641396003088600,7.705088623046875,-1.05810546875,-0.116607666015625,0.0095367431640625
1772641396013134600,7.715134521484375,-1.0606842041015625,-0.1220855712890625,0.013427734375
1772641396023179800,7.7251796875,-1.06024169921875,-0.125762939453125,0.018035888671875
1772641396033224700,7.735224609375,-1.0510101318359375,-0.126312255859375,0.0257720947265625
1772641396043269600,7.74526953125,-1.03851318359375,-0.1282806396484375,0.0341033935546875
1772641396053314600,7.755314453125,-1.0199432373046875,-0.128936767578125,0.04632568359375
1772641396063359700,7.76535986328125,-0.998321533203125,-0.1308441162109375,0.06195068359375
1772641396073405700,7.77540576171875,-0.981903076171875,-0.134368896484375,0.078826904296875
1772641396083451000,7.785450927734375,-0.971649169921875,-0.1342010498046875,0.0882110595703125
1772641396093495600,7.79549560546875,-0.969512939453125,-0.1268768310546875,0.0908203125
1772641396103540700,7.805540771484375,-0.9691314697265625,-0.1279449462890625,0.09320068359375
1772641396113585700,7.815585693359375,-0.9627532958984375,-0.1346588134765625,0.0981597900390625
1772641396123630800,7.825630859375,-0.9486541748046875,-0.1280059814453125,0.0976104736328125
1772641396133676800,7.8356767578125,-0.9334869384765625,-0.1173858642578125,0.09527587890625
1772641396143721500,7.845721435546875,-0.92864990234375,-0.10595703125,0.0919189453125
1772641396153766700,7.8557666015625,-0.9419403076171875,-0.1029052734375,0.08935546875
1772641396163811600,7.8658115234375,-0.9607391357421875,-0.10333251953125,0.0841064453125
1772641396173856800,7.875856689453125,-0.9814910888671875,-0.1057586669921875,0.0812530517578125
1772641396183901700,7.885901611328125,-1.002227783203125,-0.108184814453125,0.0818023681640625
1772641396193948000,7.895947998046875,-1.01824951171875,-0.118682861328125,0.089080810546875
1772641396203992600,7.90599267578125,-1.0250396728515625,-0.1368865966796875,0.0967864990234375
1772641396214037800,7.916037841796875,-1.01708984375,-0.14825439453125,0.0962066650390625
1772641396224082700,7.926082763671875,-1.0127105712890625,-0.14886474609375,0.0760955810546875
1772641396234128000,7.9361279296875,-1.022735595703125,-0.163116455078125,0.0696258544921875
1772641396244172500,7.946172607421875,-1.0402374267578125,-0.174957275390625,0.0708465576171875
1772641396254218500,7.956218505859375,-1.0611572265625,-0.1633758544921875,0.0646209716796875
1772641396264263700,7.966263671875,-1.07806396484375,-0.1390228271484375,0.056396484375
1772641396274308600,7.97630859375,-1.1012725830078125,-0.1169281005859375,0.0547027587890625
1772641396284353800,7.986353759765625,-1.1165771484375,-0.093963623046875,0.0531768798828125
1772641396294398700,7.996398681640625,-1.1269378662109375,-0.066864013671875,0.0499420166015625
1772641396304444700,8.006444580078124,-1.13970947265625,-0.0415191650390625,0.052703857421875
1772641396314489600,8.016489501953124,-1.152557373046875,-0.022186279296875,0.06890869140625
1772641396324534500,8.026534423828124,-1.1282958984375,-0.01190185546875,0.08453369140625
1772641396334579700,8.036579833984375,-1.11968994140625,0.0059051513671875,0.08740234375
1772641396344624600,8.046624755859375,-1.0909423828125,0.008544921875,0.0936126708984375
1772641396354669600,8.056669677734375,-1.0665130615234375,-0.0000762939453125,0.1026153564453125
1772641396364715500,8.066715576171875,-1.041290283203125,-0.0023651123046875,0.0991973876953125
1772641396374760700,8.0767607421875,-1.0167083740234375,-0.003387451171875,0.088165283203125
1772641396384805600,8.0868056640625,-0.999053955078125,-0.020843505859375,0.09136962890625
1772641396394850800,8.096850830078125,-0.9855194091796875,-0.0302734375,0.0876007080078125
1772641396404895700,8.106895751953125,-0.9717864990234375,-0.0374908447265625,0.0848236083984375
1772641396414940700,8.116940673828125,-0.9571075439453125,-0.0427398681640625,0.0780792236328125
1772641396424986600,8.126986572265626,-0.9344635009765625,-0.048187255859375,0.074432373046875
1772641396435031600,8.137031494140626,-0.9067230224609375,-0.0547027587890625,0.0755767822265625
1772641396445076700,8.14707666015625,-0.8935699462890625,-0.0629425048828125,0.085113525390625
1772641396455121700,8.15712158203125,-0.8843231201171875,-0.065216064453125,0.094085693359375
1772641396465166600,8.16716650390625,-0.88177490234375,-0.06304931640625,0.0980377197265625
1772641396475211500,8.17721142578125,-0.88543701171875,-0.0599517822265625,0.0984344482421875
1772641396485257700,8.1872578125,-0.8903961181640625,-0.0571136474609375,0.102630615234375
1772641396495302700,8.197302734375,-0.8915252685546875,-0.053436279296875,0.10797119140625
1772641396505347800,8.207347900390625,-0.8931121826171875,-0.0512237548828125,0.1140594482421875
1772641396515392800,8.217392822265625,-0.896728515625,-0.05474853515625,0.121795654296875
1772641396525437700,8.227437744140625,-0.9038238525390625,-0.056640625,0.1252593994140625
1772641396535482600,8.237482666015625,-0.9009857177734375,-0.0493927001953125,0.1287841796875
