time,seconds_elapsed,z,y,x
1772641388353687300,0.055687255859375,-0.16966652870178223,-0.16846971213817596,-0.24146482348442078
1772641388363732200,0.065732177734375,-0.1512124240398407,-0.16197611391544342,-0.2460092306137085
1772641388373778400,0.0757783203125,-0.1333007961511612,-0.153657466173172,-0.24038811028003693
1772641388383823000,0.085822998046875,-0.11500435322523117,-0.12883654236793518,-0.22020027041435242
1772641388393868300,0.095868408203125,-0.09401464462280273,-0.09602932631969452,-0.19325761497020721
1772641388403913200,0.105913330078125,-0.07001689821481705,-0.0484575480222702,-0.15405906736850739
1772641388413958400,0.11595849609375,-0.04939284920692444,-0.00307541829533875,-0.11168152093887329
1772641388424004400,0.12600439453125,-0.03765176981687546,0.0024863271974027157,-0.0819619745016098
1772641388434049000,0.136049072265625,-0.030072415247559547,-0.03567570447921753,-0.05114201456308365
1772641388444094200,0.14609423828125,-0.028242290019989014,-0.06226257607340813,-0.0068144965916872025
1772641388454139100,0.15613916015625,-0.036265064030885696,-0.0902462750673294,0.03555746003985405
1772641388464184300,0.166184326171875,-0.05561665818095207,-0.14562004804611206,0.07047097384929657
1772641388474229200,0.176229248046875,-0.07724498957395554,-0.20781391859054565,0.09481093287467957
1772641388484275500,0.186275390625,-0.09617553651332855,-0.26687535643577576,0.10686040669679642
1772641388494320000,0.196320068359375,-0.1196206733584404,-0.3103450834751129,0.10949773341417313
1772641388504365300,0.206365234375,-0.14729517698287964,-0.33878418803215027,0.1033460944890976
1772641388514410200,0.21641015625,-0.1784304529428482,-0.34281566739082336,0.08761081099510193
1772641388524455400,0.226455322265625,-0.20031338930130005,-0.32914674282073975,0.06809170544147491
1772641388534500000,0.2365,-0.2166907638311386,-0.3016786277294159,0.04989165812730789
1772641388544546000,0.246546142578125,-0.220829576253891,-0.25601980090141296,0.035826440900564194
1772641388554591200,0.25659130859375,-0.2150324136018753,-0.2140912562608719,0.026808444410562515
1772641388564636200,0.26663623046875,-0.20639339089393616,-0.19337931275367737,0.018000837415456772
1772641388574681300,0.276681396484375,-0.1906122863292694,-0.18935847282409668,0.012630840763449669
1772641388584726300,0.286726318359375,-0.1793268769979477,-0.19427147507667542,0.00595456175506115
1772641388594772200,0.296772216796875,-0.18412749469280243,-0.22239738702774048,0.002767557045444846
1772641388604817200,0.306817138671875,-0.1988142877817154,-0.2840642035007477,0.010753045789897442
1772641388614862000,0.316862060546875,-0.21920984983444214,-0.3714925944805145,0.04433790221810341
1772641388624907300,0.3269072265625,-0.24854110181331635,-0.4334864616394043,0.10534293204545975
1772641388634952200,0.3369521484375,-0.29031679034233093,-0.4453335404396057,0.19353137910366058
1772641388644997000,0.3469970703125,-0.3404023051261902,-0.4370526969432831,0.28917962312698364
1772641388655043000,0.35704296875,-0.39415210485458374,-0.42854201793670654,0.37150323390960693
1772641388665088300,0.367088134765625,-0.44238513708114624,-0.4078391492366791,0.42741659283638
1772641388675133200,0.37713330078125,-0.46763351559638977,-0.3902207314968109,0.4510345458984375
1772641388685178400,0.387178466796875,-0.4677610695362091,-0.3898974359035492,0.4467862844467163
1772641388695223300,0.397223388671875,-0.44423338770866394,-0.3940247893333435,0.4309857487678528
1772641388705269200,0.407269287109375,-0.4047320485115051,-0.3914750814437866,0.41832613945007324
1772641388715314200,0.417314208984375,-0.36296194791793823,-0.3817414939403534,0.4141841232776642
1772641388725359000,0.427359130859375,-0.32852381467819214,-0.3642416000366211,0.4150179624557495
1772641388735404300,0.437404296875,-0.30150020122528076,-0.3460434377193451,0.4137316644191742
1772641388745449200,0.44744921875,-0.2864554524421692,-0.33168286085128784,0.4052196741104126
1772641388755494100,0.457494140625,-0.2751716375350952,-0.3165135085582733,0.37328943610191345
1772641388765540000,0.4675400390625,-0.27136892080307007,-0.28908053040504456,0.3242236077785492
1772641388775585300,0.477585205078125,-0.2621421217918396,-0.23868927359580994,0.25475746393203735
1772641388785630200,0.487630126953125,-0.24835415184497833,-0.16368453204631805,0.15916675329208374
1772641388795675400,0.49767529296875,-0.23849539458751678,-0.07428941130638123,0.04893505200743675
1772641388805720300,0.50772021484375,-0.22683314979076385,0.03742540255188942,-0.06367937475442886
1772641388815765200,0.51776513671875,-0.21792913973331451,0.1524880826473236,-0.16200275719165802
1772641388825811200,0.527811279296875,-0.2075984627008438,0.2523856461048126,-0.23081164062023163
1772641388835856400,0.5378564453125,-0.19024664163589478,0.30842334032058716,-0.26425856351852417
1772641388845901600,0.547901611328125,-0.15734700858592987,0.33468130230903625,-0.2513326406478882
1772641388855946500,0.557946533203125,-0.11545761674642563,0.3403993844985962,-0.19960153102874756
1772641388865991700,0.56799169921875,-0.07398448139429092,0.3322407901287079,-0.11250177770853043
1772641388876037400,0.578037353515625,-0.039740487933158875,0.32388487458229065,-0.005846970248967409
1772641388886082300,0.588082275390625,-0.021647239103913307,0.304027795791626,0.11001385003328323
1772641388896127500,0.59812744140625,-0.02672082744538784,0.27624648809432983,0.22231562435626984
1772641388906172400,0.60817236328125,-0.05626806616783142,0.23763705790042877,0.32115885615348816
1772641388916217600,0.618217529296875,-0.1009838730096817,0.18355917930603027,0.4018097519874573
1772641388926262300,0.62826220703125,-0.1617652028799057,0.11816898733377457,0.4613686800003052
1772641388936308500,0.63830859375,-0.2291508913040161,0.05915599688887596,0.5034061670303345
1772641388946353400,0.648353515625,-0.2988559305667877,0.010013485327363014,0.5235193967819214
1772641388956398600,0.658398681640625,-0.35557088255882263,-0.0323861688375473,0.5208330750465393
1772641388966443500,0.668443603515625,-0.3926423490047455,-0.07926525920629501,0.5055127143859863
1772641388976488700,0.67848876953125,-0.41293883323669434,-0.11205782741308212,0.4641178548336029
1772641388986534700,0.68853466796875,-0.415018230676651,-0.12793320417404175,0.39753323793411255
1772641388996579300,0.698579345703125,-0.41014039516448975,-0.1270706057548523,0.3077183961868286
1772641389006624500,0.70862451171875,-0.40176206827163696,-0.10512428730726242,0.1981905847787857
1772641389016669400,0.71866943359375,-0.3843918740749359,-0.05431969836354256,0.08515936881303787
1772641389026714600,0.728714599609375,-0.36928990483283997,0.023959128186106682,-0.035293277353048325
1772641389036759300,0.73875927734375,-0.35475409030914307,0.10355888307094574,-0.15965570509433746
1772641389046805500,0.748805419921875,-0.33997300267219543,0.1557384580373764,-0.28613054752349854
1772641389056850400,0.758850341796875,-0.31975775957107544,0.17397180199623108,-0.39621204137802124
1772641389066895400,0.768895263671875,-0.29497677087783813,0.1692577302455902,-0.4806393086910248
1772641389076940500,0.7789404296875,-0.271632581949234,0.14802302420139313,-0.5440071225166321
1772641389086985500,0.7889853515625,-0.246043860912323,0.12874892354011536,-0.5763810276985168
1772641389097030400,0.799030517578125,-0.21660181879997253,0.10458739846944809,-0.589077889919281
1772641389107076400,0.809076416015625,-0.18468329310417175,0.07626787573099136,-0.5773552060127258
1772641389117121500,0.81912158203125,-0.15259434282779694,0.05138329416513443,-0.5563108921051025
1772641389127166500,0.82916650390625,-0.1179700493812561,0.03898175433278084,-0.5252975821495056
1772641389137211600,0.839211669921875,-0.09214164316654205,0.05264084041118622,-0.4919162094593048
1772641389147256300,0.84925634765625,-0.07788094878196716,0.09306736290454865,-0.4547424614429474
1772641389157302300,0.85930224609375,-0.07755338400602341,0.14073394238948822,-0.4168283939361572
1772641389167347500,0.869347412109375,-0.08619587123394012,0.16818980872631073,-0.3797430694103241
1772641389177392400,0.879392333984375,-0.09514089673757553,0.15855848789215088,-0.3443286120891571
1772641389187437600,0.8894375,-0.10652537643909454,0.12111364305019379,-0.311305433511734
1772641389197482500,0.899482421875,-0.11576122045516968,0.0612708143889904,-0.28151369094848633
1772641389207527400,0.90952734375,-0.13031592965126038,-0.012202603742480278,-0.2520599365234375
1772641389217573400,0.919573486328125,-0.15258581936359406,-0.0776820108294487,-0.22460594773292542
1772641389227618600,0.92961865234375,-0.17478539049625397,-0.12705622613430023,-0.20478563010692596
1772641389237663500,0.93966357421875,-0.19730748236179352,-0.14839425683021545,-0.1889030784368515
1772641389247708700,0.949708740234375,-0.21039985120296478,-0.14034752547740936,-0.17883259057998657
1772641389257753300,0.95975341796875,-0.21804843842983246,-0.11414548009634018,-0.17542961239814758
1772641389267799300,0.96979931640625,-0.22279046475887299,-0.08923506736755371,-0.18467317521572113
1772641389277844500,0.979844482421875,-0.2229241579771042,-0.06387937813997269,-0.2019280642271042
1772641389287889400,0.989889404296875,-0.21132849156856537,-0.04315652698278427,-0.23008432984352112
1772641389297934600,0.9999345703125,-0.1927260458469391,-0.026435868814587593,-0.25979083776474
1772641389307979500,1.0099794921875,-0.1649114489555359,-0.003082342678681016,-0.28508898615837097
1772641389318024400,1.0200244140625,-0.13134630024433136,0.017800036817789078,-0.306718111038208
1772641389328070400,1.0300703125,-0.10211970657110214,0.041547443717718124,-0.3199135661125183
1772641389338115300,1.040115234375,-0.07463349401950836,0.07957764714956284,-0.3200448453426361
1772641389348160500,1.050160400390625,-0.04984239116311073,0.1072140708565712,-0.307795912027359
1772641389358205400,1.060205322265625,-0.023807860910892487,0.12846049666404724,-0.28444477915763855
1772641389368250400,1.07025048828125,0.004542820155620575,0.14566639065742493,-0.2567841112613678
1772641389378295300,1.08029541015625,0.029824474826455116,0.17255792021751404,-0.23379544913768768
1772641389388341500,1.090341552734375,0.05595860630273819,0.20130860805511475,-0.20721736550331116
1772641389398386400,1.100386474609375,0.08084531128406525,0.21628756821155548,-0.1686537265777588
1772641389408431600,1.110431640625,0.10115617513656616,0.21483054757118225,-0.12681706249713898
1772641389418476500,1.1204765625,0.11530235409736633,0.19663690030574799,-0.08047273755073547
1772641389428521500,1.130521484375,0.12665913999080658,0.1650933474302292,-0.03326048329472542
1772641389438567400,1.1405673828125,0.13294818997383118,0.11460940539836884,0.016762735322117805
1772641389448612400,1.1506123046875,0.1343575417995453,0.06132327765226364,0.07121212780475616
1772641389458657500,1.160657470703125,0.1377757042646408,0.02130315825343132,0.1342451572418213
1772641389468702500,1.170702392578125,0.14530234038829803,-0.02197081223130226,0.1986244171857834
1772641389478747400,1.180747314453125,0.1664385050535202,-0.07368620485067368,0.2537665069103241
1772641389488792300,1.190792236328125,0.1911047101020813,-0.13415195047855377,0.288972944021225
1772641389498838500,1.200838623046875,0.2120201140642166,-0.19179952144622803,0.29716217517852783
1772641389508883500,1.210883544921875,0.22769547998905182,-0.22384987771511078,0.28488314151763916
1772641389518928600,1.2209287109375,0.24156895279884338,-0.22840067744255066,0.2640225887298584
1772641389528973600,1.2309736328125,0.2565785348415375,-0.2141474485397339,0.24036839604377747
1772641389539018500,1.2410185546875,0.2784060537815094,-0.18769054114818573,0.21194207668304443
1772641389549063400,1.2510634765625,0.3036608099937439,-0.16053907573223114,0.17993061244487762
1772641389559109400,1.261109375,0.3348890542984009,-0.15183213353157043,0.14654682576656342
1772641389569154600,1.271154541015625,0.3597174286842346,-0.18338899314403534,0.10785802453756332
1772641389579199500,1.281199462890625,0.3726782202720642,-0.23470811545848846,0.06421121209859848
1772641389589244400,1.291244384765625,0.3723328113555908,-0.29090240597724915,0.009226255118846893
1772641389599289300,1.301289306640625,0.3545871078968048,-0.34025663137435913,-0.051654405891895294
1772641389609335300,1.311335205078125,0.3299499452114105,-0.3808927536010742,-0.13097186386585236
1772641389619380500,1.32138037109375,0.29580822587013245,-0.37592488527297974,-0.21099773049354553
1772641389629425400,1.33142529296875,0.25464826822280884,-0.33412498235702515,-0.2883332669734955
1772641389639470600,1.341470703125,0.21631047129631042,-0.2475930154323578,-0.3522416651248932
1772641389649515300,1.351515380859375,0.19203868508338928,-0.12978489696979523,-0.3875061869621277
1772641389659560400,1.361560546875,0.1953689604997635,0.011146660894155502,-0.37665247917175293
1772641389669606400,1.3716064453125,0.2324170023202896,0.13861407339572906,-0.316763311624527
1772641389679651600,1.381651611328125,0.27351996302604675,0.22183093428611755,-0.24856160581111908
1772641389689696500,1.391696533203125,0.3179207146167755,0.2501611113548279,-0.15347397327423096
1772641389699741400,1.401741455078125,0.3554733991622925,0.280265748500824,-0.03767094761133194
1772641389709786400,1.411786376953125,0.37410569190979004,0.262178897857666,0.06096801161766052
1772641389719831600,1.42183154296875,0.368692010641098,0.21359217166900635,0.14421816170215607
1772641389729877500,1.43187744140625,0.3433043658733368,0.15182095766067505,0.20866958796977997
1772641389739922400,1.44192236328125,0.30297771096229553,0.09241035580635071,0.26184704899787903
1772641389749967600,1.451967529296875,0.2484513521194458,0.01738325133919716,0.2988452911376953
1772641389760012300,1.46201220703125,0.17218801379203796,-0.04265718162059784,0.32724231481552124
1772641389770057500,1.472057373046875,0.08504165709018707,-0.07771982997655869,0.3466644883155823
1772641389780103400,1.482103515625,0.002240783767774701,-0.08682464063167572,0.36808907985687256
1772641389790148600,1.492148681640625,-0.050695933401584625,-0.07462204247713089,0.39747172594070435
1772641389800193500,1.502193603515625,-0.07419433444738388,-0.05404325947165489,0.41530612111091614
1772641389810238500,1.512238525390625,-0.07091225683689117,-0.02991448901593685,0.4152248799800873
1772641389820283400,1.522283447265625,-0.06458351761102676,-0.019388612359762192,0.39112383127212524
1772641389830328600,1.53232861328125,-0.0628705769777298,-0.018430406227707863,0.3425096869468689
1772641389840374800,1.542374755859375,-0.0720566138625145,-0.017784323543310165,0.2761130630970001
1772641389850419700,1.552419677734375,-0.07330244034528732,-0.009127185679972172,0.2140190750360489
1772641389860465000,1.56246484375,-0.07964769005775452,-0.007553257513791323,0.14698998630046844
1772641389870509800,1.572509765625,-0.08722944557666779,-0.018801383674144745,0.07822263240814209
1772641389880555000,1.582554931640625,-0.1019735038280487,-0.019414976239204407,0.0030250847339630127
1772641389890599700,1.592599609375,-0.12032055109739304,-0.012622584588825703,-0.07558983564376831
1772641389900645600,1.602645751953125,-0.13976135849952698,-0.003820570884272456,-0.1607223004102707
1772641389910690800,1.61269091796875,-0.16148902475833893,0.016537697985768318,-0.24439217150211334
1772641389920735700,1.62273583984375,-0.17589779198169708,0.05258145183324814,-0.31981155276298523
1772641389930781000,1.632781005859375,-0.1784919798374176,0.10262437909841537,-0.3877522647380829
1772641389940825600,1.64282568359375,-0.15796007215976715,0.14525386691093445,-0.4373195469379425
1772641389950871800,1.652871826171875,-0.11501286923885345,0.1729230433702469,-0.4778198301792145
1772641389960916700,1.662916748046875,-0.051789429038763046,0.20592573285102844,-0.5015329122543335
1772641389970962000,1.6729619140625,0.02714373730123043,0.21976858377456665,-0.5089945197105408
1772641389981006800,1.6830068359375,0.11941534280776978,0.22018270194530487,-0.5074123740196228
1772641389991052000,1.693052001953125,0.20121140778064728,0.21504493057727814,-0.5214642286300659
1772641390001096700,1.7030966796875,0.2696636915206909,0.20887598395347595,-0.5390586853027344
1772641390011142700,1.713142578125,0.3231218755245209,0.22808989882469177,-0.5357611775398254
1772641390021187800,1.723187744140625,0.34744131565093994,0.24649685621261597,-0.5420414209365845
1772641390031232800,1.733232666015625,0.35071301460266113,0.2743745744228363,-0.5510051250457764
1772641390041278000,1.74327783203125,0.3414830267429352,0.2919769883155823,-0.5628114342689514
1772641390051322600,1.753322509765625,0.31860220432281494,0.29984715580940247,-0.5643858909606934
1772641390061367800,1.763367919921875,0.2932286858558655,0.308807909488678,-0.5465459227561951
1772641390071413800,1.773413818359375,0.258444607257843,0.2952803671360016,-0.5339195728302002
1772641390081458700,1.783458740234375,0.23433047533035278,0.2819001376628876,-0.4939766824245453
1772641390091503900,1.79350390625,0.2086176574230194,0.2674247920513153,-0.4429105818271637
1772641390101548800,1.803548828125,0.17815536260604858,0.23929300904273987,-0.3905560374259949
1772641390111593700,1.81359375,0.1414354294538498,0.21346060931682587,-0.3362821340560913
1772641390121639700,1.8236396484375,0.10058200359344482,0.1785806566476822,-0.2875620126724243
1772641390131684900,1.833684814453125,0.059654008597135544,0.1263134628534317,-0.23834599554538727
1772641390141729800,1.843729736328125,0.019276758655905724,0.06818411499261856,-0.1829221546649933
1772641390151775000,1.85377490234375,-0.015664447098970413,0.014506238512694836,-0.12304416298866272
1772641390161819600,1.863819580078125,-0.050398990511894226,-0.041599906980991364,-0.06042632460594177
1772641390171864800,1.87386474609375,-0.07716242969036102,-0.08863186091184616,-0.002228533150628209
1772641390181910800,1.883910888671875,-0.0984879583120346,-0.11861027032136917,0.048943307250738144
1772641390191955700,1.893955810546875,-0.11635563522577286,-0.14391669631004333,0.08457986265420914
1772641390202001000,1.9040009765625,-0.1260729730129242,-0.1564391404390335,0.10784177482128143
1772641390212045800,1.9140458984375,-0.13249120116233826,-0.15601755678653717,0.12132243067026138
1772641390222090800,1.9240908203125,-0.1338251680135727,-0.15270112454891205,0.12870125472545624
1772641390232135700,1.9341357421875,-0.13105228543281555,-0.15059296786785126,0.13510748744010925
1772641390242182000,1.944181884765625,-0.13102512061595917,-0.14827841520309448,0.1407368779182434
1772641390252226800,1.954226806640625,-0.13922633230686188,-0.14976951479911804,0.14222931861877441
1772641390262272000,1.96427197265625,-0.15124064683914185,-0.15421992540359497,0.14759212732315063
1772641390272316700,1.974316650390625,-0.16513143479824066,-0.14962917566299438,0.1565166413784027
1772641390282361900,1.98436181640625,-0.1788693517446518,-0.13632482290267944,0.1667833924293518
1772641390292406800,1.99440673828125,-0.18559542298316956,-0.11761744320392609,0.17788530886173248
1772641390302452700,2.00445263671875,-0.19174733757972717,-0.09964616596698761,0.1875201016664505
1772641390312498000,2.014497802734375,-0.19456522166728973,-0.09255789965391159,0.18799227476119995
1772641390322542800,2.02454296875,-0.19775915145874023,-0.08940764516592026,0.1775875687599182
1772641390332587800,2.034587890625,-0.20646315813064575,-0.09149689227342606,0.15914438664913177
1772641390342632700,2.0446328125,-0.2190665751695633,-0.08513859659433365,0.1365722268819809
1772641390352678700,2.0546787109375,-0.23175546526908875,-0.06223008409142494,0.11753435432910919
1772641390362723800,2.064723876953125,-0.24360306560993195,-0.04200763627886772,0.10095378011465073
1772641390372768800,2.074768798828125,-0.2472902238368988,-0.028538167476654053,0.09795239567756653
1772641390382813700,2.084813720703125,-0.24605904519557953,-0.03256247192621231,0.10625053942203522
1772641390392858600,2.094858642578125,-0.2421247512102127,-0.04391206428408623,0.12407534569501877
1772641390402903800,2.10490380859375,-0.23702453076839447,-0.0538959875702858,0.15181748569011688
1772641390412949800,2.11494970703125,-0.2363070696592331,-0.06213900446891785,0.19188767671585083
1772641390422995000,2.124994873046875,-0.22759667038917542,-0.06517181545495987,0.24023310840129852
1772641390433040000,2.135039794921875,-0.21504253149032593,-0.07485506683588028,0.3022434711456299
1772641390443084800,2.145084716796875,-0.20106174051761627,-0.09513530135154724,0.36554601788520813
1772641390453129700,2.155129638671875,-0.18674324452877045,-0.10866309702396393,0.4294901192188263
1772641390463175000,2.1651748046875,-0.1771036684513092,-0.11252574622631073,0.49046051502227783
1772641390473220900,2.175220947265625,-0.17897534370422363,-0.14148123562335968,0.5312849283218384
1772641390483265800,2.185265869140625,-0.19796234369277954,-0.19563128054141998,0.5411998629570007
1772641390493311000,2.19531103515625,-0.235809326171875,-0.2442246526479721,0.5184402465820312
1772641390503355600,2.205355712890625,-0.28426501154899597,-0.29221799969673157,0.44927021861076355
1772641390513400800,2.21540087890625,-0.3245333433151245,-0.3249237537384033,0.331405907869339
1772641390523446800,2.22544677734375,-0.35285472869873047,-0.3736569583415985,0.16476577520370483
1772641390533492000,2.235491943359375,-0.3883756995201111,-0.41967156529426575,-0.026939205825328827
1772641390543537000,2.245536865234375,-0.4472928047180176,-0.41783425211906433,-0.20264126360416412
1772641390553581800,2.255581787109375,-0.5199209451675415,-0.30228716135025024,-0.30200353264808655
1772641390563626800,2.265626708984375,-0.5680621266365051,-0.16255003213882446,-0.3278724253177643
1772641390573672000,2.275671875,-0.5710645318031311,0.017531322315335274,-0.2660641670227051
1772641390583718000,2.2857177734375,-0.5265295505523682,0.17600272595882416,-0.136713907122612
1772641390593762800,2.2957626953125,-0.4338630139827728,0.2901037335395813,0.033427465707063675
1772641390603808000,2.30580810546875,-0.33670905232429504,0.3568132519721985,0.17576995491981506
1772641390613852700,2.315852783203125,-0.20806904137134552,0.365364670753479,0.35731473565101624
1772641390623897900,2.32589794921875,-0.10688916593790054,0.392754465341568,0.5471493601799011
1772641390633942800,2.33594287109375,-0.06003537401556969,0.3655702471733093,0.7001605033874512
1772641390643988700,2.34598876953125,-0.06440935283899307,0.3081607520580292,0.8224160671234131
1772641390654034000,2.356033935546875,-0.09223219007253647,0.24410907924175262,0.9149407148361206
1772641390664078600,2.36607861328125,-0.14109693467617035,0.1436343938112259,0.960706353187561
1772641390674123800,2.376123779296875,-0.19034704566001892,0.020174777135252953,0.9669133424758911
1772641390684168700,2.386168701171875,-0.23643597960472107,-0.10115165263414383,0.9511772990226746
1772641390694215000,2.39621484375,-0.2726283371448517,-0.20005106925964355,0.9008517861366272
1772641390704259800,2.406259765625,-0.2879444360733032,-0.2692341208457947,0.8273919224739075
1772641390714305000,2.416304931640625,-0.2778087258338928,-0.29762423038482666,0.7344681024551392
1772641390724349700,2.426349609375,-0.24512426555156708,-0.2892073094844818,0.623668909072876
1772641390734395000,2.436394775390625,-0.19819137454032898,-0.24619539082050323,0.49515408277511597
1772641390744439800,2.446439697265625,-0.13509178161621094,-0.1915510594844818,0.35114365816116333
1772641390754485800,2.45648583984375,-0.06492600589990616,-0.11305598169565201,0.17790661752223969
1772641390764531000,2.466531005859375,0.004186222795397043,-0.003561711637303233,-0.012340555898845196
1772641390774575600,2.47657568359375,0.059790629893541336,0.13050155341625214,-0.2192668318748474
1772641390784620800,2.486620849609375,0.10224035382270813,0.2580408751964569,-0.4418650269508362
1772641390794665700,2.496665771484375,0.13756558299064636,0.3451765775680542,-0.6520017385482788
1772641390804711000,2.5067109375,0.1647370159626007,0.407394140958786,-0.8226760029792786
1772641390814756900,2.5167568359375,0.19129379093647003,0.46807345747947693,-0.922909140586853
1772641390824802000,2.526802001953125,0.22079655528068542,0.5084816217422485,-0.956081211566925
1772641390834847200,2.53684716796875,0.24818050861358643,0.5275479555130005,-0.9213980436325073
1772641390844892200,2.54689208984375,0.267788290977478,0.5220842361450195,-0.830854594707489
1772641390854937000,2.55693701171875,0.27206000685691833,0.4738280177116394,-0.7330588102340698
1772641390864983000,2.566983154296875,0.27271488308906555,0.37487053871154785,-0.6169614791870117
1772641390875028200,2.5770283203125,0.27161020040512085,0.27028289437294006,-0.46858078241348267
1772641390885073200,2.5870732421875,0.2522330582141876,0.15617655217647552,-0.31454887986183167
1772641390895118300,2.597118408203125,0.2107258141040802,0.04524337872862816,-0.16647952795028687
1772641390905163300,2.607163330078125,0.1582474261522293,-0.045875079929828644,-0.03832102194428444
1772641390915208200,2.617208251953125,0.09544822573661804,-0.12026596069335938,0.053293582051992416
1772641390925254100,2.627254150390625,0.039621178060770035,-0.1652483493089676,0.10113061219453812
1772641390935299000,2.637299072265625,-0.004693022463470697,-0.17314381897449493,0.10784684121608734
1772641390945344300,2.64734423828125,-0.031252194195985794,-0.1561959981918335,0.07547931373119354
1772641390955389200,2.65738916015625,-0.043414853513240814,-0.12782907485961914,0.012457202188670635
1772641390965434000,2.66743408203125,-0.0463738888502121,-0.09400346130132675,-0.07045125961303711
1772641390975479000,2.67747900390625,-0.04619332775473595,-0.04478664696216583,-0.15754355490207672
1772641390985525200,2.687525146484375,-0.04009468853473663,0.023743413388729095,-0.2368708699941635
1772641390995570200,2.697570068359375,-0.026375414803624153,0.11048097163438797,-0.29150375723838806
1772641391005615400,2.707615478515625,-0.0007451524725183845,0.17395634949207306,-0.3267197906970978
1772641391015660300,2.717660400390625,0.02570296637713909,0.1972997486591339,-0.3448322117328644
1772641391025705200,2.727705322265625,0.04821440204977989,0.1964416801929474,-0.34688445925712585
1772641391035750100,2.737750244140625,0.06154432147741318,0.18180495500564575,-0.3443610966205597
1772641391045796000,2.747796142578125,0.05690402910113335,0.17422319948673248,-0.3286106288433075
1772641391055841300,2.75784130859375,0.04514910280704498,0.15500609576702118,-0.30572184920310974
1772641391065886200,2.76788623046875,0.02490721456706524,0.12580452859401703,-0.27293431758880615
1772641391075931100,2.77793115234375,0.004703674931079149,0.09014587104320526,-0.23066729307174683
1772641391085976000,2.78797607421875,-0.016211194917559624,0.05420118570327759,-0.17738276720046997
1772641391096022000,2.79802197265625,-0.03302905708551407,0.01335788331925869,-0.11928218603134155
1772641391106067200,2.808067138671875,-0.041427068412303925,-0.03140426054596901,-0.06308948993682861
1772641391116112100,2.818112060546875,-0.03620807081460953,-0.07220468670129776,-0.012382900342345238
1772641391126157300,2.8281572265625,-0.02641483023762703,-0.11656815558671951,0.027950940653681755
1772641391136202000,2.838201904296875,-0.01338664535433054,-0.13455621898174286,0.057370349764823914
1772641391146247200,2.8482470703125,-0.0003046656202059239,-0.12246786057949066,0.07642686367034912
1772641391156293000,2.858293212890625,0.01495071966201067,-0.09539176523685455,0.08257769793272018
1772641391166338300,2.86833837890625,0.03714017942547798,-0.06095602735877037,0.07247313112020493
1772641391176383200,2.87838330078125,0.06394302845001221,-0.01782000996172428,0.05486378073692322
1772641391186428200,2.88842822265625,0.0969686210155487,0.016635967418551445,0.030789071694016457
1772641391196473000,2.89847314453125,0.13769634068012238,0.05572611093521118,0.010874485597014427
1772641391206518300,2.908518310546875,0.18432269990444183,0.08775541931390762,0.006682936567813158
1772641391216564200,2.918564208984375,0.23713132739067078,0.11338541656732559,0.020066652446985245
1772641391226609200,2.928609130859375,0.30019018054008484,0.1343090683221817,0.056287508457899094
1772641391236654300,2.938654296875,0.35720446705818176,0.12236825376749039,0.09137944877147675
1772641391246699000,2.948698974609375,0.39116883277893066,0.07449553906917572,0.11043223738670349
1772641391256744200,2.958744140625,0.38426539301872253,0.005090898834168911,0.10131943225860596
1772641391266789000,2.9687890625,0.3424912989139557,-0.04475921392440796,0.0756329745054245
1772641391276835300,2.97883544921875,0.2830205261707306,-0.07719092816114426,0.04880668595433235
1772641391286880300,2.98888037109375,0.2038993388414383,-0.09887491166591644,0.025311747565865517
1772641391296925200,2.99892529296875,0.11770027130842209,-0.12704849243164062,0.013185842894017696
1772641391306970000,3.00897021484375,0.03411482647061348,-0.14175181090831757,0.010974087752401829
1772641391317015300,3.019015380859375,-0.024382038041949272,-0.14805205166339874,0.025415344163775444
1772641391327061200,3.029061279296875,-0.056707222014665604,-0.1596226841211319,0.046784017235040665
1772641391337106200,3.039106201171875,-0.06095123291015625,-0.12724663317203522,0.08816314488649368
1772641391347151400,3.0491513671875,-0.03927763178944588,-0.10076842457056046,0.1278381198644638
1772641391357196000,3.059196044921875,-0.006555104628205299,-0.06245458871126175,0.17264901101589203
1772641391367241200,3.0692412109375,0.03923209011554718,-0.019949207082390785,0.21578235924243927
1772641391377286100,3.0792861328125,0.08171403408050537,0.045824479311704636,0.2671422064304352
1772641391387332000,3.08933203125,0.11751997470855713,0.10468912869691849,0.31675878167152405
1772641391397377300,3.099377197265625,0.15064597129821777,0.1457979530096054,0.3635113537311554
1772641391407422200,3.109422119140625,0.16872189939022064,0.17993487417697906,0.40935608744621277
1772641391417467100,3.119467041015625,0.17536622285842896,0.19363364577293396,0.46187442541122437
1772641391427512000,3.129511962890625,0.16675277054309845,0.1939079463481903,0.5220187306404114
1772641391437557200,3.13955712890625,0.14439153671264648,0.1784573644399643,0.5857468247413635
1772641391447603200,3.149603271484375,0.1128450557589531,0.13665159046649933,0.6448559761047363
1772641391457648400,3.1596484375,0.07544948160648346,0.07625962048768997,0.6848225593566895
1772641391467693000,3.169693115234375,0.030179208144545555,-0.005684783682227135,0.6988866925239563
1772641391477738200,3.17973828125,-0.018456239253282547,-0.09852737188339233,0.6849772930145264
1772641391487783200,3.189783203125,-0.07509927451610565,-0.16586406528949738,0.6419427394866943
1772641391497829000,3.1998291015625,-0.1275757998228073,-0.21289841830730438,0.5846850275993347
1772641391507874300,3.209874267578125,-0.1717805415391922,-0.23447881639003754,0.5062602758407593
1772641391517919200,3.219919189453125,-0.20378908514976501,-0.23333604633808136,0.4156036078929901
1772641391527964200,3.229964111328125,-0.2260989099740982,-0.2061465084552765,0.31785571575164795
1772641391538009000,3.240009033203125,-0.23761415481567383,-0.15751957893371582,0.20713187754154205
1772641391548054300,3.25005419921875,-0.2361760437488556,-0.09916440397500992,0.08735035359859467
1772641391558100200,3.260100341796875,-0.2281162589788437,-0.035649340599775314,-0.039858199656009674
1772641391568145200,3.270145263671875,-0.20114722847938538,0.02671816386282444,-0.16983138024806976
1772641391578190000,3.280190185546875,-0.16077956557273865,0.07692700624465942,-0.30075451731681824
1772641391588235300,3.2902353515625,-0.10505131632089615,0.11281123757362366,-0.42581814527511597
1772641391598280200,3.3002802734375,-0.04230617731809616,0.12798991799354553,-0.539463460445404
1772641391608325000,3.3103251953125,0.020358800888061523,0.13009782135486603,-0.6345964074134827
1772641391618371300,3.320371337890625,0.082515649497509,0.12043746560811996,-0.7021072506904602
1772641391628416300,3.330416259765625,0.13887985050678253,0.1058201715350151,-0.736929178237915
1772641391638461200,3.340461181640625,0.18818216025829315,0.08930297940969467,-0.7414306998252869
1772641391648506000,3.350506103515625,0.24116574227809906,0.07336369901895523,-0.7134581804275513
1772641391658551300,3.36055126953125,0.29303425550460815,0.05748140066862106,-0.6567161083221436
1772641391668596200,3.37059619140625,0.3427371084690094,0.018219217658042908,-0.5879628658294678
1772641391678642200,3.38064208984375,0.3721253573894501,-0.01805916242301464,-0.5316635966300964
1772641391688687000,3.39068701171875,0.39361947774887085,-0.04909217730164528,-0.4633721709251404
1772641391698732000,3.40073193359375,0.404403418302536,-0.07398074865341187,-0.3924737870693207
1772641391708777200,3.410777099609375,0.39866214990615845,-0.11853490024805069,-0.34414803981781006
1772641391718822100,3.420822265625,0.3734385669231415,-0.15941601991653442,-0.304436594247818
1772641391728868400,3.430868408203125,0.33144503831863403,-0.2036154419183731,-0.2814159691333771
1772641391738913300,3.440913330078125,0.279141366481781,-0.24456846714019775,-0.2675803005695343
1772641391748958200,3.450958251953125,0.21609021723270416,-0.27670562267303467,-0.25518861413002014
1772641391759003100,3.461003173828125,0.15446068346500397,-0.29844608902931213,-0.2416411191225052
1772641391769048300,3.47104833984375,0.08733943104743958,-0.31860408186912537,-0.22246156632900238
1772641391779093200,3.48109326171875,0.03008519858121872,-0.3419102132320404,-0.18902051448822021
1772641391789139200,3.49113916015625,-0.018698053434491158,-0.3612053394317627,-0.14076164364814758
1772641391799184100,3.50118408203125,-0.051536425948143005,-0.3801795542240143,-0.08758391439914703
1772641391809229000,3.51122900390625,-0.07879414409399033,-0.39303863048553467,-0.03861796483397484
1772641391819274200,3.521274169921875,-0.09618086367845535,-0.4032880663871765,-0.005653092171996832
1772641391829319200,3.531319091796875,-0.10689342767000198,-0.3873104453086853,0.020236296579241753
1772641391839363600,3.541363525390625,-0.11001758277416229,-0.35168373584747314,0.026565298438072205
1772641391849409500,3.551409423828125,-0.1124141588807106,-0.3084350526332855,0.028926189988851547
1772641391859454700,3.561454833984375,-0.11415427178144455,-0.2598222494125366,0.024708276614546776
1772641391869499600,3.571499755859375,-0.11221309006214142,-0.2211635410785675,0.019113240763545036
1772641391879544600,3.581544677734375,-0.10652697831392288,-0.1835879385471344,0.016686834394931793
1772641391889589500,3.591589599609375,-0.09881871938705444,-0.138677716255188,0.024322383105754852
1772641391899635500,3.601635498046875,-0.09405246376991272,-0.10233382880687714,0.04710519313812256
1772641391909680600,3.6116806640625,-0.08821241557598114,-0.08171803504228592,0.08285892754793167
1772641391919725600,3.6217255859375,-0.08421075344085693,-0.08842973411083221,0.12160073220729828
1772641391929770800,3.631770751953125,-0.0883016362786293,-0.10678130388259888,0.1579185277223587
1772641391939815400,3.6418154296875,-0.09619470685720444,-0.1273781955242157,0.18511126935482025
1772641391949860600,3.651860595703125,-0.10688437521457672,-0.1488611102104187,0.19753171503543854
1772641391959906600,3.661906494140625,-0.11621129512786865,-0.15046326816082,0.20219944417476654
1772641391969951700,3.67195166015625,-0.13057558238506317,-0.1725004017353058,0.19656844437122345
1772641391979996700,3.68199658203125,-0.1562015861272812,-0.16474473476409912,0.19555725157260895
1772641391990041600,3.69204150390625,-0.18709425628185272,-0.15244600176811218,0.1931643933057785
1772641392000086500,3.70208642578125,-0.2161746472120285,-0.143401637673378,0.18774406611919403
1772641392010131700,3.712131591796875,-0.2471943497657776,-0.14094780385494232,0.18075352907180786
1772641392020177700,3.722177734375,-0.279182106256485,-0.1500432938337326,0.17475822567939758
1772641392030222600,3.73222265625,-0.305926114320755,-0.1651676446199417,0.1751696914434433
1772641392040267800,3.742267822265625,-0.3224446177482605,-0.1900724619626999,0.1899787187576294
1772641392050312400,3.7523125,-0.3294559419155121,-0.2204277068376541,0.2219904512166977
1772641392060357600,3.762357666015625,-0.3199886679649353,-0.250827431678772,0.269281268119812
1772641392070403600,3.772403564453125,-0.30163443088531494,-0.2756273150444031,0.31809407472610474
1772641392080448500,3.782448486328125,-0.2837635278701782,-0.30730801820755005,0.35611817240715027
1772641392090493700,3.79249365234375,-0.2738472521305084,-0.32788732647895813,0.3655366897583008
1772641392100538400,3.802538330078125,-0.2597484886646271,-0.3190501630306244,0.34623223543167114
1772641392110583600,3.81258349609375,-0.23320475220680237,-0.30004769563674927,0.2949959635734558
1772641392120628500,3.82262841796875,-0.20497551560401917,-0.2848050892353058,0.2000742405653
1772641392130674700,3.8326748046875,-0.1925785094499588,-0.2364168018102646,0.0659361407160759
1772641392140719600,3.8427197265625,-0.205325186252594,-0.1612573266029358,-0.09221967309713364
1772641392150764800,3.852764892578125,-0.2360609918832779,-0.049189116805791855,-0.2459421306848526
1772641392160809500,3.8628095703125,-0.27507126331329346,0.09599603712558746,-0.36576440930366516
1772641392170854700,3.872854736328125,-0.29877471923828125,0.2392544001340866,-0.4193724989891052
1772641392180899600,3.882899658203125,-0.2938776910305023,0.34835532307624817,-0.41022029519081116
1772641392190945500,3.892945556640625,-0.2530735433101654,0.42287829518318176,-0.34265509247779846
1772641392200990700,3.90299072265625,-0.19419823586940765,0.5003035664558411,-0.2198660522699356
1772641392211035400,3.913035400390625,-0.1726447492837906,0.5694325566291809,-0.09033921360969543
1772641392221080600,3.92308056640625,-0.1698921024799347,0.6099472641944885,0.08587309718132019
1772641392231125500,3.93312548828125,-0.18558983504772186,0.6316708922386169,0.27687448263168335
1772641392241170700,3.943170654296875,-0.2167738527059555,0.5619818568229675,0.43701648712158203
1772641392251216600,3.953216552734375,-0.25196805596351624,0.475911945104599,0.5767895579338074
1772641392261261800,3.96326171875,-0.2869316339492798,0.3621286451816559,0.6820195913314819
1772641392271306500,3.973306396484375,-0.32537516951560974,0.20190702378749847,0.7357754707336426
1772641392281351700,3.9833515625,-0.36832529306411743,0.020788902416825294,0.7509499192237854
1772641392291396600,3.993396728515625,-0.40216049551963806,-0.13592880964279175,0.7316411733627319
1772641392301442600,4.003442626953125,-0.4101339876651764,-0.24373570084571838,0.6978858709335327
1772641392311487700,4.01348779296875,-0.39872822165489197,-0.289300799369812,0.6527959108352661
1772641392321532400,4.023532470703125,-0.38002723455429077,-0.28734415769577026,0.601544976234436
1772641392331577600,4.03357763671875,-0.3619225323200226,-0.23096103966236115,0.5396208763122559
1772641392341622500,4.04362255859375,-0.347397118806839,-0.15560290217399597,0.4516151249408722
1772641392351667700,4.053667724609375,-0.33138033747673035,-0.07941120117902756,0.3404012620449066
1772641392361713700,4.063713623046875,-0.30159661173820496,0.0015036207623779774,0.21107043325901031
1772641392371758600,4.073758544921875,-0.262481153011322,0.06497127562761307,0.07227659225463867
1772641392381803500,4.083803466796875,-0.2154769003391266,0.11971601098775864,-0.06950318068265915
1772641392391848400,4.093848388671875,-0.16615062952041626,0.15714435279369354,-0.21299615502357483
1772641392401893600,4.1038935546875,-0.11633513122797012,0.18843409419059753,-0.3380177319049835
1772641392411938600,4.1139384765625,-0.06745227426290512,0.21930758655071259,-0.4442687928676605
1772641392421984800,4.12398486328125,-0.019833093509078026,0.24927294254302979,-0.5229665637016296
1772641392432029400,4.134029541015625,0.02665025368332863,0.27628591656684875,-0.5654191970825195
1772641392442074600,4.14407470703125,0.06752444803714752,0.3067258596420288,-0.5635376572608948
1772641392452119600,4.15411962890625,0.1050846055150032,0.3070227801799774,-0.5273194909095764
1772641392462164700,4.164164794921875,0.13493864238262177,0.2690085768699646,-0.4651336073875427
1772641392472210700,4.174210693359375,0.16160140931606293,0.20279066264629364,-0.39142554998397827
1772641392482255600,4.184255615234375,0.1758919358253479,0.11772450059652328,-0.30793464183807373
1772641392492300500,4.194300537109375,0.1861262023448944,0.03791648894548416,-0.22662009298801422
1772641392502345500,4.204345458984375,0.18741916120052338,-0.024812672287225723,-0.15641143918037415
1772641392512390700,4.214390625,0.18408754467964172,-0.07257726788520813,-0.11423949152231216
1772641392522435600,4.224435546875,0.17714442312717438,-0.09894043207168579,-0.093435138463974
1772641392532481800,4.234481689453125,0.16849234700202942,-0.1102553978562355,-0.10411228984594345
1772641392542526500,4.2445263671875,0.15601223707199097,-0.11696496605873108,-0.14475052058696747
1772641392552571600,4.254571533203125,0.1467881053686142,-0.1026129275560379,-0.20405299961566925
1772641392562616600,4.264616455078125,0.13567180931568146,-0.07577306032180786,-0.27090713381767273
1772641392572661800,4.274661865234375,0.1296035349369049,-0.04246223717927933,-0.32967883348464966
1772641392582706700,4.284706787109375,0.1295316219329834,0.004450940992683172,-0.37101295590400696
1772641392592752600,4.294752685546875,0.13053856790065765,0.035361986607313156,-0.39269161224365234
1772641392602797600,4.304797607421875,0.13627475500106812,0.05088448524475098,-0.4023256003856659
1772641392612842500,4.314842529296875,0.14397767186164856,0.05860152840614319,-0.40305158495903015
1772641392622887700,4.3248876953125,0.15279966592788696,0.05997705087065697,-0.3974086046218872
1772641392632932600,4.3349326171875,0.15531662106513977,0.07057483494281769,-0.37580105662345886
1772641392642977800,4.344977783203125,0.1539221853017807,0.08861508965492249,-0.3360635042190552
1772641392653023700,4.355023681640625,0.15240046381950378,0.10609181225299835,-0.2832881808280945
1772641392663068400,4.365068359375,0.1513996422290802,0.1212230995297432,-0.21849505603313446
1772641392673113600,4.375113525390625,0.1537160575389862,0.11810586601495743,-0.15303802490234375
1772641392683158500,4.385158447265625,0.15969432890415192,0.11508557945489883,-0.09084601700305939
1772641392693203700,4.39520361328125,0.17428098618984222,0.11386265605688095,-0.03385543450713158
1772641392703249700,4.405249755859375,0.18871478736400604,0.12324656546115875,0.012663597241044044
1772641392713294600,4.415294677734375,0.2036774903535843,0.13804122805595398,0.04382205009460449
1772641392723339500,4.425339599609375,0.21928201615810394,0.1517312079668045,0.06389482319355011
1772641392733384700,4.435384765625,0.23021696507930756,0.16057929396629333,0.06770820915699005
1772641392743429600,4.4454296875,0.2356972098350525,0.15503272414207458,0.060504354536533356
1772641392753474800,4.455474853515625,0.23721787333488464,0.1417510062456131,0.05752241611480713
1772641392763520800,4.465520751953125,0.2426440715789795,0.11944969743490219,0.058215368539094925
1772641392773565400,4.4755654296875,0.25341281294822693,0.09879981726408005,0.06829516589641571
1772641392783610600,4.485610595703125,0.27548137307167053,0.08984813094139099,0.0865897536277771
1772641392793655600,4.495655517578125,0.31303754448890686,0.09205508977174759,0.11088869720697403
1772641392803700700,4.50570068359375,0.35515037178993225,0.10675547271966934,0.13334473967552185
1772641392813745400,4.515745361328125,0.39807119965553284,0.1237349882721901,0.14472709596157074
1772641392823791600,4.52579150390625,0.4381091594696045,0.15166568756103516,0.1462690681219101
1772641392833836500,4.53583642578125,0.4764525592327118,0.19226771593093872,0.1411595195531845
1772641392843881700,4.5458818359375,0.518918514251709,0.2282576709985733,0.14346635341644287
1772641392853926700,4.5559267578125,0.572490394115448,0.25584694743156433,0.1580767184495926
1772641392863971600,4.5659716796875,0.6236739754676819,0.276940256357193,0.18301163613796234
1772641392874017800,4.576017822265625,0.6599670052528381,0.26111868023872375,0.20880354940891266
1772641392884062500,4.5860625,0.6608996391296387,0.21047121286392212,0.2301517128944397
1772641392894107600,4.596107666015625,0.6254894733428955,0.14697027206420898,0.24101102352142334
1772641392904152600,4.606152587890625,0.5712605714797974,0.11086180061101913,0.24117453396320343
1772641392914197800,4.61619775390625,0.5094576478004456,0.09228625148534775,0.2286587357521057
1772641392924242400,4.626242431640625,0.4457596242427826,0.08087114989757538,0.19599346816539764
1772641392934288400,4.636288330078125,0.3853793740272522,0.07813555002212524,0.1428634077310562
1772641392944333600,4.64633349609375,0.3272921144962311,0.10728384554386139,0.06939105689525604
1772641392954378500,4.65637841796875,0.28244712948799133,0.14426130056381226,-0.026207635179162025
1772641392964423700,4.666423583984375,0.25512176752090454,0.1840614527463913,-0.1411273032426834
1772641392974468600,4.676468505859375,0.23710335791110992,0.2400333732366562,-0.25035765767097473
1772641392984513500,4.686513427734375,0.24331624805927277,0.29891693592071533,-0.32791823148727417
1772641392994559500,4.6965595703125,0.26932868361473083,0.36006149649620056,-0.351358562707901
1772641393004604700,4.706604736328125,0.3187233805656433,0.41068312525749207,-0.3186083436012268
1772641393014649600,4.716649658203125,0.38218945264816284,0.4264003038406372,-0.24018943309783936
1772641393024694800,4.72669482421875,0.4426501393318176,0.4093981683254242,-0.1412692368030548
1772641393034739500,4.736739501953125,0.4823373556137085,0.3654578626155853,-0.03159547597169876
1772641393044785400,4.746785400390625,0.4998724162578583,0.3082185387611389,0.07075486332178116
1772641393054830600,4.75683056640625,0.48302870988845825,0.22983692586421967,0.157597616314888
1772641393064875500,4.76687548828125,0.43588677048683167,0.1529562622308731,0.2358173131942749
1772641393074920700,4.776920654296875,0.37158259749412537,0.0723855197429657,0.29572299122810364
1772641393084965600,4.786965576171875,0.3003510534763336,-0.011387410573661327,0.3419903516769409
1772641393095010600,4.797010498046875,0.23047955334186554,-0.07252187281847,0.3763238191604614
1772641393105056500,4.807056396484375,0.17648209631443024,-0.09975775331258774,0.39497554302215576
1772641393115101700,4.817101806640625,0.1337127834558487,-0.131184384226799,0.3776831030845642
1772641393125146600,4.827146728515625,0.09917771816253662,-0.1392311304807663,0.3353345990180969
1772641393135191600,4.837191650390625,0.08203761279582977,-0.11141414195299149,0.28319254517555237
1772641393145236500,4.847236572265625,0.07592432200908661,-0.0690632238984108,0.2167120724916458
1772641393155281700,4.85728173828125,0.0740252286195755,-0.04433098062872887,0.12682399153709412
1772641393165327600,4.86732763671875,0.08396467566490173,-0.02328375168144703,0.024880316108465195
1772641393175372500,4.87737255859375,0.09259171783924103,-0.020239224657416344,-0.08840309828519821
1772641393185417700,4.887417724609375,0.10280973464250565,-0.04284866526722908,-0.20679499208927155
1772641393195462700,4.897462646484375,0.11341977119445801,-0.06822139769792557,-0.3283400535583496
1772641393205507600,4.907507568359375,0.122956283390522,-0.0668107196688652,-0.42677903175354004
1772641393215553500,4.917553466796875,0.13572508096694946,-0.053100503981113434,-0.5110459327697754
1772641393225598500,4.927598388671875,0.15037991106510162,-0.030571224167943,-0.5723530054092407
1772641393235643600,4.9376435546875,0.16603104770183563,-0.005101284943521023,-0.6036137342453003
1772641393245688600,4.9476884765625,0.17371506989002228,0.01079858560115099,-0.6156743764877319
1772641393255733500,4.9577333984375,0.17067399621009827,0.012878780253231525,-0.614695131778717
1772641393265778400,4.9677783203125,0.16584143042564392,0.014240721240639687,-0.5894632935523987
1772641393275824600,4.97782470703125,0.16571412980556488,0.01212883461266756,-0.5388573408126831
1772641393285869600,4.98786962890625,0.17298242449760437,0.0041587925516068935,-0.4630747139453888
1772641393295914800,4.997914794921875,0.18104222416877747,-0.0014692660188302398,-0.36480778455734253
1772641393305959700,5.007959716796875,0.18810784816741943,-0.013623400591313839,-0.25763899087905884
1772641393316004600,5.018004638671875,0.18308167159557343,-0.03988456726074219,-0.15223561227321625
1772641393326049500,5.028049560546875,0.17255020141601562,-0.08291511982679367,-0.06668395549058914
1772641393336095500,5.038095458984375,0.15564072132110596,-0.1298200488090515,-0.004159058444201946
1772641393346140700,5.048140625,0.13063471019268036,-0.17013071477413177,0.030107835307717323
1772641393356185600,5.058185546875,0.0956178680062294,-0.18991267681121826,0.03879852965474129
1772641393366230500,5.06823046875,0.05705210193991661,-0.19138488173484802,0.026337863877415657
1772641393376275500,5.078275390625,0.009899502620100975,-0.17085084319114685,0.004581702407449484
1772641393386320600,5.088320556640625,-0.04290112853050232,-0.18075886368751526,-0.03942756727337837
1772641393396366600,5.09836669921875,-0.10514505952596664,-0.1779787838459015,-0.08130470663309097
1772641393406411500,5.10841162109375,-0.16663186252117157,-0.16724491119384766,-0.11147406697273254
1772641393416456700,5.118456787109375,-0.21617650985717773,-0.14603284001350403,-0.1230100765824318
1772641393426501600,5.128501708984375,-0.2566104829311371,-0.11835727095603943,-0.11412417143583298
1772641393436546600,5.138546630859375,-0.28087666630744934,-0.10796481370925903,-0.0917525589466095
1772641393446592500,5.148592529296875,-0.2971416711807251,-0.11133477836847305,-0.06197282299399376
1772641393456637700,5.1586376953125,-0.30785343050956726,-0.1242002472281456,-0.03278058394789696
1772641393466682600,5.1686826171875,-0.3150508999824524,-0.12811961770057678,-0.005141764879226685
1772641393476727600,5.1787275390625,-0.31937292218208313,-0.12601038813591003,0.020550282672047615
1772641393486772500,5.1887724609375,-0.3191670775413513,-0.12199701368808746,0.04145875945687294
1772641393496817700,5.198817626953125,-0.31550469994544983,-0.11093717068433762,0.052799299359321594
1772641393506863600,5.208863525390625,-0.31393370032310486,-0.09562958776950836,0.06186709553003311
1772641393516908500,5.218908447265625,-0.3150500953197479,-0.08437879383563995,0.06127667427062988
1772641393526953700,5.22895361328125,-0.31157785654067993,-0.08395908027887344,0.05928942188620567
1772641393536998400,5.238998291015625,-0.3065008223056793,-0.09271342307329178,0.05260622128844261
1772641393547043600,5.249043701171875,-0.2937013804912567,-0.10075058043003082,0.04574565216898918
1772641393557089500,5.259089599609375,-0.28086841106414795,-0.10982397198677063,0.03310655429959297
1772641393567134700,5.269134765625,-0.2703808844089508,-0.11089402437210083,0.007741542998701334
1772641393577179600,5.2791796875,-0.26769429445266724,-0.1017942726612091,-0.0163603313267231
1772641393587224600,5.289224609375,-0.27001285552978516,-0.08060482889413834,-0.0314125157892704
1772641393597269500,5.29926953125,-0.27338066697120667,-0.05216466635465622,-0.03296913579106331
1772641393607314700,5.309314697265625,-0.27278679609298706,-0.020487697795033455,-0.024057399481534958
1772641393617360600,5.319360595703125,-0.2673531472682953,-0.005033907014876604,-0.012235094793140888
1772641393627405600,5.329405517578125,-0.2607056200504303,0.0005874933558516204,0.008853412233293056
1772641393637450800,5.33945068359375,-0.25168922543525696,0.0003760383406188339,0.031854867935180664
1772641393647495400,5.349495361328125,-0.2464079111814499,-0.012794625014066696,0.05880259722471237
1772641393657540600,5.35954052734375,-0.24175643920898438,-0.030170151963829994,0.08930005133152008
1772641393667585500,5.36958544921875,-0.24177321791648865,-0.05685023218393326,0.12817475199699402
1772641393677631700,5.3796318359375,-0.2440560758113861,-0.08255773037672043,0.17160770297050476
1772641393687676700,5.3896767578125,-0.24996696412563324,-0.11241708695888519,0.20998865365982056
1772641393697721600,5.3997216796875,-0.25207245349884033,-0.1537725180387497,0.24017424881458282
1772641393707766500,5.4097666015625,-0.25256940722465515,-0.1961580514907837,0.2668918967247009
1772641393717811700,5.419811767578125,-0.252325177192688,-0.21038013696670532,0.28617236018180847
1772641393727857700,5.429857666015625,-0.24365366995334625,-0.18452218174934387,0.31236350536346436
1772641393737902600,5.439902587890625,-0.23500105738639832,-0.17779822647571564,0.3219793736934662
1772641393747947800,5.44994775390625,-0.2304856777191162,-0.1901443749666214,0.30696287751197815
1772641393757992400,5.459992431640625,-0.2358735054731369,-0.21771395206451416,0.2686711549758911
1772641393768037600,5.47003759765625,-0.24175536632537842,-0.25318166613578796,0.20574596524238586
1772641393778082600,5.48008251953125,-0.2526940405368805,-0.2977912127971649,0.12147662788629532
1772641393788128500,5.49012841796875,-0.27414393424987793,-0.3440346121788025,0.0021057615522295237
1772641393798173700,5.500173583984375,-0.3035593628883362,-0.3186597526073456,-0.1311154067516327
1772641393808218600,5.510218505859375,-0.3363085091114044,-0.21110957860946655,-0.2519715130329132
1772641393818263600,5.520263671875,-0.36225008964538574,-0.05284909904003143,-0.3393607437610626
1772641393828308500,5.53030859375,-0.36347487568855286,0.09362848848104477,-0.3692014813423157
1772641393838355700,5.540355712890625,-0.3321116268634796,0.1829301416873932,-0.33167487382888794
1772641393848401700,5.550401611328125,-0.27515700459480286,0.2238786369562149,-0.23769111931324005
1772641393858446600,5.560446533203125,-0.21093247830867767,0.2052820473909378,-0.1062508076429367
1772641393868491800,5.57049169921875,-0.1574665904045105,0.1609678417444229,0.044735245406627655
1772641393878536700,5.58053662109375,-0.1285467892885208,0.10854911059141159,0.20744134485721588
1772641393888581600,5.59058154296875,-0.13239185512065887,0.039212651550769806,0.3687087893486023
1772641393898626800,5.600626708984375,-0.16317453980445862,-0.04201748967170715,0.5241220593452454
1772641393908672500,5.610672607421875,-0.2078847587108612,-0.12025850266218185,0.6654847860336304
1772641393918717700,5.6207177734375,-0.2537558376789093,-0.19463099539279938,0.783635139465332
1772641393928762600,5.6307626953125,-0.2854629158973694,-0.26628148555755615,0.8638343811035156
1772641393938807800,5.640807861328125,-0.3060517907142639,-0.3674861192703247,0.8893977999687195
1772641393948852700,5.650852783203125,-0.3145499527454376,-0.4514657258987427,0.8658530712127686
1772641393958898700,5.660898681640625,-0.30427947640419006,-0.516750156879425,0.7931671142578125
1772641393968943600,5.670943603515625,-0.27353566884994507,-0.5448598265647888,0.6771728992462158
1772641393978988500,5.680988525390625,-0.2123117297887802,-0.531082808971405,0.5403470993041992
1772641393989033700,5.69103369140625,-0.14122822880744934,-0.4640944302082062,0.39916977286338806
1772641393999078700,5.70107861328125,-0.08114758133888245,-0.3344099521636963,0.24995870888233185
1772641394009123800,5.711123779296875,-0.032775525003671646,-0.1706758737564087,0.09080606698989868
1772641394019169500,5.72116943359375,0.0008524778531864285,0.0030929953791201115,-0.0866566002368927
1772641394029214700,5.731214599609375,0.03063700534403324,0.17357152700424194,-0.2759508788585663
1772641394039259600,5.741259765625,0.06049263849854469,0.31442317366600037,-0.47598785161972046
1772641394049304800,5.751304931640625,0.09968291968107224,0.40777283906936646,-0.6588713526725769
1772641394059349800,5.761349853515625,0.1419835090637207,0.46431413292884827,-0.8017252087593079
1772641394069394700,5.771394775390625,0.17478859424591064,0.48432114720344543,-0.894969642162323
1772641394079440600,5.781440673828125,0.195234477519989,0.481588751077652,-0.9304693341255188
1772641394089485600,5.791485595703125,0.20920781791210175,0.44249671697616577,-0.9242439270019531
1772641394099530800,5.80153076171875,0.21190212666988373,0.4005175828933716,-0.8704012036323547
1772641394109575700,5.81157568359375,0.20014773309230804,0.3510272800922394,-0.7783964276313782
1772641394119620900,5.821620849609375,0.17924459278583527,0.29437464475631714,-0.6521484851837158
1772641394129665500,5.83166552734375,0.1454291045665741,0.2112525850534439,-0.521609902381897
1772641394139711700,5.841711669921875,0.10741700232028961,0.11355026066303253,-0.38948917388916016
1772641394149756700,5.851756591796875,0.07398954033851624,0.01565645821392536,-0.27055904269218445
1772641394159801600,5.861801513671875,0.04891427978873253,-0.07997685670852661,-0.17771406471729279
1772641394169846800,5.8718466796875,0.035763323307037354,-0.14486557245254517,-0.11011878401041031
1772641394179891700,5.8818916015625,0.02917333133518696,-0.1840478628873825,-0.08064291626214981
1772641394189937700,5.891937744140625,0.024411067366600037,-0.19880791008472443,-0.08305174112319946
1772641394199982600,5.901982666015625,0.01546284556388855,-0.19119419157505035,-0.1169993206858635
1772641394210027800,5.91202783203125,-0.0017457021167501807,-0.1617196500301361,-0.1732974797487259
1772641394220072700,5.92207275390625,-0.022903718054294586,-0.10256285965442657,-0.2328108847141266
1772641394230118000,5.932117919921875,-0.049199771136045456,-0.023903468623757362,-0.2824234366416931
1772641394240162600,5.94216259765625,-0.068982794880867,0.04975157603621483,-0.3169739544391632
1772641394250208500,5.95220849609375,-0.07438981533050537,0.08855836093425751,-0.32872700691223145
1772641394260253700,5.962253662109375,-0.07472456991672516,0.08419983088970184,-0.31975695490837097
1772641394270298600,5.972298583984375,-0.06961822509765625,0.07577598839998245,-0.2781751751899719
1772641394280343800,5.98234375,-0.059170112013816833,0.0583176352083683,-0.21834778785705566
1772641394290388500,5.992388427734375,-0.050518833100795746,0.04102146998047829,-0.14812767505645752
1772641394300433700,6.00243359375,-0.035595811903476715,0.03639928624033928,-0.07011543959379196
1772641394310479600,6.012479736328125,-0.021202489733695984,0.0422891341149807,0.0078046596609056
1772641394320524800,6.02252490234375,-0.010585266165435314,0.044322721660137177,0.07130160927772522
1772641394330569700,6.03256982421875,0.003204049076884985,0.04544417932629585,0.12317252904176712
1772641394340615000,6.042614990234375,0.019179552793502808,0.04084516689181328,0.16127118468284607
1772641394350659600,6.05265966796875,0.03856417164206505,0.031914256513118744,0.18660317361354828
1772641394360705500,6.06270556640625,0.0677231177687645,0.03116484358906746,0.20895561575889587
1772641394370750700,6.072750732421875,0.10072208195924759,0.020483704283833504,0.2154233604669571
1772641394380795600,6.082795654296875,0.13668674230575562,0.011787417344748974,0.2129753828048706
1772641394390840800,6.0928408203125,0.16936425864696503,0.006489857099950314,0.21453839540481567
1772641394400885500,6.102885498046875,0.202315554022789,-0.005927131045609713,0.20854122936725616
1772641394410930700,6.1129306640625,0.22436705231666565,0.002554770326241851,0.20037144422531128
1772641394420976600,6.1229765625,0.23207344114780426,0.030190126970410347,0.18558476865291595
1772641394431021600,6.133021484375,0.2310476005077362,0.0604228638112545,0.1640603095293045
1772641394441066800,6.143066650390625,0.2227768898010254,0.08374469727277756,0.1390332579612732
1772641394451111700,6.153111572265625,0.21379004418849945,0.09821338206529617,0.11210229992866516
1772641394461156600,6.163156494140625,0.21344196796417236,0.12167397141456604,0.08894931524991989
1772641394471201500,6.173201416015625,0.21417567133903503,0.15434695780277252,0.0746806263923645
1772641394481247700,6.183247802734375,0.22087964415550232,0.18501965701580048,0.06692071259021759
1772641394491292700,6.193292724609375,0.23171764612197876,0.2182828038930893,0.07326462864875793
1772641394501337900,6.203337890625,0.25397154688835144,0.2523134648799896,0.09753295034170151
1772641394511382500,6.213382568359375,0.28196510672569275,0.2867148518562317,0.13556528091430664
1772641394521427700,6.223427734375,0.30994346737861633,0.32573574781417847,0.17879292368888855
1772641394531473700,6.2334736328125,0.3167332112789154,0.3443762958049774,0.19880737364292145
1772641394541518600,6.2435185546875,0.2904384732246399,0.3241809904575348,0.19365201890468597
1772641394551563800,6.253563720703125,0.23991912603378296,0.28244447708129883,0.16417722404003143
1772641394561608700,6.263608642578125,0.1961684376001358,0.23384365439414978,0.130157470703125
1772641394571653600,6.273653564453125,0.1833764761686325,0.17655159533023834,0.11343015730381012
1772641394581698600,6.283698486328125,0.1960587203502655,0.11004500836133957,0.1028190553188324
1772641394591744800,6.293744873046875,0.22881054878234863,0.050401654094457626,0.0953235924243927
1772641394601789700,6.303789794921875,0.2800356447696686,0.009109608829021454,0.0881439745426178
1772641394611835000,6.3138349609375,0.34832310676574707,0.0028940571937710047,0.09127478301525116
1772641394621879600,6.323879638671875,0.4324861764907837,0.06424929201602936,0.09878969192504883
1772641394631924700,6.3339248046875,0.524285614490509,0.12935346364974976,0.09149902313947678
1772641394641969700,6.3439697265625,0.5997606515884399,0.17629487812519073,0.0653100311756134
1772641394652015600,6.354015625,0.6345958709716797,0.20644904673099518,0.03142370283603668
1772641394662060800,6.364060791015625,0.6361855268478394,0.2038245052099228,0.003707120195031166
1772641394672105700,6.374105712890625,0.622535228729248,0.18525534868240356,-0.0017068199813365936
1772641394682150700,6.384150634765625,0.597146213054657,0.1420586109161377,0.023120498284697533
1772641394692195600,6.394195556640625,0.5661624670028687,0.08739802241325378,0.07839920371770859
1772641394702240800,6.40424072265625,0.5280526280403137,0.024929052218794823,0.1550348550081253
1772641394712286700,6.41428662109375,0.47978684306144714,-0.024386033415794373,0.24287763237953186
1772641394722331600,6.42433154296875,0.41698816418647766,-0.05910220369696617,0.3267594873905182
1772641394732376600,6.43437646484375,0.3397269546985626,-0.08380941301584244,0.3983455002307892
1772641394742421500,6.44442138671875,0.25393640995025635,-0.10910704731941223,0.4455937147140503
1772641394752466700,6.454466796875,0.1587129533290863,-0.13700339198112488,0.47363919019699097
1772641394762512600,6.4645126953125,0.06887360662221909,-0.1643545925617218,0.4937034547328949
1772641394772557800,6.474557861328125,-0.01612197794020176,-0.19617164134979248,0.5013110637664795
1772641394782602800,6.484602783203125,-0.08670266717672348,-0.23371581733226776,0.49140647053718567
1772641394792647700,6.494647705078125,-0.13981249928474426,-0.27609336376190186,0.46991345286369324
1772641394802692600,6.504692626953125,-0.1744956374168396,-0.31322821974754333,0.43640580773353577
1772641394812737800,6.51473779296875,-0.19088499248027802,-0.3386688530445099,0.3936935067176819
1772641394822783700,6.52478369140625,-0.19897621870040894,-0.34149369597435,0.3293491303920746
1772641394832828700,6.53482861328125,-0.19953814148902893,-0.3146468997001648,0.2485208660364151
1772641394842872000,6.5448720703125,-0.1931534856557846,-0.27327096462249756,0.1498108059167862
1772641394852917200,6.554917236328125,-0.18264278769493103,-0.21418845653533936,0.031210383400321007
1772641394862962000,6.5649619140625,-0.167107492685318,-0.1482536494731903,-0.09794014692306519
1772641394873007000,6.575007080078125,-0.14499527215957642,-0.07353147864341736,-0.22334706783294678
1772641394883053000,6.585052978515625,-0.112253837287426,-0.0008804410463199019,-0.3328562378883362
1772641394893098200,6.59509814453125,-0.07133756577968597,0.049728408455848694,-0.42226657271385193
1772641394903143200,6.60514306640625,-0.019235214218497276,0.07143796235322952,-0.49236494302749634
1772641394913188000,6.61518798828125,0.038172151893377304,0.07000651210546494,-0.5362250804901123
1772641394923233000,6.62523291015625,0.10080836713314056,0.05188556760549545,-0.5597037672996521
1772641394933278200,6.6352783203125,0.1665325164794922,0.03476863354444504,-0.5717574954032898
1772641394943324200,6.64532421875,0.22271350026130676,0.040410805493593216,-0.5643097162246704
1772641394953369000,6.655369140625,0.2745806872844696,0.060436710715293884,-0.5381883382797241
1772641394963414300,6.665414306640625,0.31705838441848755,0.09002123773097992,-0.5084161162376404
1772641394973459000,6.675458984375,0.345488965511322,0.11388316005468369,-0.47786083817481995
1772641394983504100,6.685504150390625,0.35760554671287537,0.14227618277072906,-0.4476659297943115
1772641394993549000,6.695549072265625,0.3489433526992798,0.16546805202960968,-0.410944402217865
1772641395003595000,6.705594970703125,0.32223477959632874,0.18259671330451965,-0.3768830895423889
1772641395013640200,6.71564013671875,0.2856040596961975,0.1813540756702423,-0.3329150974750519
1772641395023685000,6.72568505859375,0.24463477730751038,0.15660957992076874,-0.2876059412956238
1772641395033730000,6.73572998046875,0.1989583671092987,0.10908147692680359,-0.24159611761569977
1772641395043775000,6.74577490234375,0.1491314321756363,0.04198127239942551,-0.19211165606975555
1772641395053821200,6.7558212890625,0.09374966472387314,-0.036019787192344666,-0.14638224244117737
1772641395063866000,6.7658662109375,0.032776057720184326,-0.10531124472618103,-0.1049804762005806
1772641395073911300,6.775911376953125,-0.02876853197813034,-0.15622848272323608,-0.0707245022058487
1772641395083956000,6.7859560546875,-0.0885210782289505,-0.18819227814674377,-0.04476933553814888
1772641395094001200,6.796001220703125,-0.14147457480430603,-0.20879343152046204,-0.03327832743525505
1772641395104046000,6.806046142578125,-0.1865573674440384,-0.21911583840847015,-0.035718582570552826
1772641395114092000,6.816092041015625,-0.21660581231117249,-0.22348129749298096,-0.04646816477179527
1772641395124137200,6.82613720703125,-0.23034025728702545,-0.20966960489749908,-0.05180221050977707
1772641395134182100,6.83618212890625,-0.23095040023326874,-0.1900801956653595,-0.05144534632563591
1772641395144227000,6.84622705078125,-0.21892940998077393,-0.1728154569864273,-0.04751665145158768
1772641395154272000,6.85627197265625,-0.19981777667999268,-0.15289287269115448,-0.03969920799136162
1772641395164317200,6.866317138671875,-0.18008561432361603,-0.13775040209293365,-0.02533092349767685
1772641395174363100,6.876363037109375,-0.1723392754793167,-0.13593706488609314,-0.015117966569960117
1772641395184408000,6.886407958984375,-0.1743001639842987,-0.13113005459308624,-0.010518686845898628
1772641395194453000,6.896452880859375,-0.18481938540935516,-0.11092358827590942,-0.010407633148133755
1772641395204498200,6.906498291015625,-0.19819137454032898,-0.06975750625133514,-0.011257181875407696
1772641395214543000,6.916543212890625,-0.20725251734256744,-0.03254729136824608,-0.015149923972785473
1772641395224589000,6.926589111328125,-0.21579886972904205,0.005478388629853725,-0.016386963427066803
1772641395234634200,6.93663427734375,-0.22500862181186676,0.030948327854275703,-0.013540309853851795
1772641395244679200,6.94667919921875,-0.2336636185646057,0.0566912405192852,-0.0012210593558847904
1772641395254724000,6.95672412109375,-0.2544921934604645,0.07399353384971619,0.009668073616921902
1772641395264769000,6.96676904296875,-0.2894778847694397,0.06760088354349136,0.021441642194986343
1772641395274814200,6.976814208984375,-0.33255264163017273,0.04189098998904228,0.03538009524345398
1772641395284860200,6.986860107421875,-0.38167306780815125,0.0021377194207161665,0.06035149097442627
1772641395294905000,6.996905029296875,-0.4305247664451599,-0.05115479603409767,0.10050450265407562
1772641395304950000,7.006949951171875,-0.47131186723709106,-0.11067591607570648,0.15090322494506836
1772641395314995000,7.016994873046875,-0.4971754252910614,-0.15362577140331268,0.20246575772762299
1772641395325040000,7.0270400390625,-0.5121580958366394,-0.1880069226026535,0.24142087996006012
1772641395335085000,7.0370849609375,-0.5175496935844421,-0.1989530473947525,0.2607831358909607
1772641395345131300,7.04713134765625,-0.5156785249710083,-0.18807882070541382,0.2645528316497803
1772641395355176200,7.05717626953125,-0.5013440847396851,-0.15606683492660522,0.2553228437900543
1772641395365221000,7.06722119140625,-0.48029816150665283,-0.14724697172641754,0.24283261597156525
1772641395375266000,7.07726611328125,-0.4508571922779083,-0.15461140871047974,0.23533742129802704
1772641395385311200,7.087311279296875,-0.42207106947898865,-0.16910353302955627,0.22708961367607117
1772641395395356200,7.097356201171875,-0.40724977850914,-0.1855458915233612,0.22309540212154388
1772641395405402000,7.107402099609375,-0.4103286862373352,-0.206295907497406,0.19874265789985657
1772641395415447000,7.117447021484375,-0.4194324314594269,-0.20823869109153748,0.17148493230342865
1772641395425492000,7.127491943359375,-0.42981022596359253,-0.19512927532196045,0.12326334416866302
1772641395435537200,7.137537109375,-0.43206194043159485,-0.19196224212646484,0.06544478982686996
1772641395445582000,7.14758203125,-0.4510103166103363,-0.21099638938903809,-0.019179819151759148
1772641395455628000,7.1576279296875,-0.5056256055831909,-0.18774539232254028,-0.12103401124477386
1772641395465673200,7.167673095703125,-0.5854349732398987,-0.07435519248247147,-0.20555688440799713
1772641395475718100,7.17771826171875,-0.664010763168335,0.10574986785650253,-0.24459989368915558
1772641395485763000,7.18776318359375,-0.7022289633750916,0.26571956276893616,-0.2213377207517624
1772641395495808000,7.19780810546875,-0.6887333989143372,0.3239365220069885,-0.15480263531208038
1772641395505853200,7.207853271484375,-0.6448042988777161,0.29555922746658325,-0.06358163803815842
1772641395515899100,7.217899169921875,-0.5828945636749268,0.24285872280597687,0.03775323927402496
1772641395525944000,7.227944091796875,-0.5172524452209473,0.16400571167469025,0.13140356540679932
1772641395535989000,7.237989013671875,-0.451290488243103,0.09757901728153229,0.22477106750011444
1772641395546034200,7.2480341796875,-0.39782193303108215,0.04271071031689644,0.31694331765174866
1772641395556079000,7.2580791015625,-0.3644549250602722,0.025795377790927887,0.4127660095691681
1772641395566124300,7.268124267578125,-0.3619566261768341,0.01002094242721796,0.4957309067249298
1772641395576170200,7.278170166015625,-0.3913094401359558,-0.009397230111062527,0.5557356476783752
1772641395586215000,7.28821484375,-0.4275835454463959,-0.03690102696418762,0.5993987321853638
1772641395596260000,7.298260009765625,-0.46475568413734436,-0.11067431420087814,0.6089685559272766
1772641395606305000,7.308304931640625,-0.5013312697410583,-0.21106857061386108,0.5833345651626587
1772641395616350200,7.31835009765625,-0.5268132090568542,-0.29517385363578796,0.5323741436004639
1772641395626395000,7.328394775390625,-0.5407604575157166,-0.3595970571041107,0.45805516839027405
1772641395636441000,7.338441162109375,-0.5332365036010742,-0.3933558166027069,0.36884835362434387
1772641395646486000,7.348486083984375,-0.5081833004951477,-0.39321333169937134,0.2775101661682129
1772641395656531200,7.35853125,-0.46674880385398865,-0.350909560918808,0.1854468286037445
1772641395666576100,7.368576171875,-0.41860097646713257,-0.2609546184539795,0.09331849217414856
1772641395676621300,7.378621337890625,-0.36563417315483093,-0.1390383094549179,-0.008611598052084446
1772641395686666000,7.388666015625,-0.3105304539203644,-0.01347612775862217,-0.1232694685459137
1772641395696712000,7.3987119140625,-0.25376302003860474,0.08604087680578232,-0.2562192678451538
1772641395706757000,7.408757080078125,-0.20626288652420044,0.15159937739372253,-0.3906271457672119
1772641395716802000,7.418802001953125,-0.16409093141555786,0.19956530630588531,-0.5086981058120728
1772641395726847200,7.42884716796875,-0.12915079295635223,0.2455727458000183,-0.5988000631332397
1772641395736892000,7.438891845703125,-0.08920204639434814,0.2895796298980713,-0.6386529207229614
1772641395746937000,7.44893701171875,-0.0490407794713974,0.31026625633239746,-0.6328528523445129
1772641395756983000,7.458983154296875,-0.00836498849093914,0.3179153800010681,-0.5903594493865967
1772641395767028000,7.469028076171875,0.03413799777626991,0.3324437141418457,-0.5132979154586792
1772641395777073200,7.4790732421875,0.07677759975194931,0.33797430992126465,-0.4156408905982971
1772641395787118000,7.4891181640625,0.10689955204725266,0.31617021560668945,-0.31634438037872314
1772641395797163000,7.4991630859375,0.12349876761436462,0.25927338004112244,-0.22472205758094788
1772641395807209000,7.509208984375,0.119856096804142,0.1846686452627182,-0.14241546392440796
1772641395817254100,7.519254150390625,0.10272105038166046,0.10089492052793503,-0.07196633517742157
1772641395827299000,7.529299072265625,0.07311628758907318,0.02154577150940895,-0.016322514042258263
1772641395837343700,7.53934375,0.038299985229969025,-0.03803020715713501,0.027237480506300926
1772641395847388700,7.549388671875,-0.0009052084642462432,-0.08856581896543503,0.05644756183028221
1772641395857433900,7.559433837890625,-0.03362267464399338,-0.12546896934509277,0.06342371553182602
1772641395867479800,7.569479736328125,-0.05433008447289467,-0.146426722407341,0.04477759078145027
1772641395877524700,7.579524658203125,-0.06797798722982407,-0.147138312458992,0.0043774377554655075
1772641395887569700,7.589569580078125,-0.07656028866767883,-0.11511939764022827,-0.05006183683872223
1772641395897614600,7.599614501953125,-0.08703822642564774,-0.049430131912231445,-0.12254535406827927
1772641395907659800,7.60965966796875,-0.10050370544195175,0.022612102329730988,-0.2068628966808319
1772641395917704700,7.61970458984375,-0.10476822406053543,0.08752664923667908,-0.28921744227409363
1772641395927750700,7.629750732421875,-0.10642737150192261,0.14122450351715088,-0.35692402720451355
1772641395937795600,7.639795654296875,-0.10102248936891556,0.18557092547416687,-0.40302202105522156
1772641395947840800,7.6498408203125,-0.084532730281353,0.22635723650455475,-0.42169052362442017
1772641395957885700,7.6598857421875,-0.06392252445220947,0.26769694685935974,-0.4156384766101837
1772641395967931000,7.669930908203125,-0.03742486983537674,0.3268934190273285,-0.3856310546398163
1772641395977975600,7.6799755859375,-0.009227853268384933,0.3682914674282074,-0.339293897151947
1772641395988021500,7.690021484375,0.012258264236152172,0.3879120349884033,-0.285947322845459
1772641395998066700,7.700066650390625,0.026801254600286484,0.38341715931892395,-0.22022664546966553
1772641396008111600,7.710111572265625,0.03221173211932182,0.3719538450241089,-0.14607597887516022
1772641396018156800,7.72015673828125,0.027284884825348854,0.3530675172805786,-0.06557847559452057
1772641396028201500,7.730201416015625,0.01714250072836876,0.3194866478443146,0.01841922104358673
1772641396038246700,7.74024658203125,0.0026647590566426516,0.27496472001075745,0.09817823022603989
1772641396048292600,7.750292724609375,-0.010987670160830021,0.20883576571941376,0.17505916953086853
1772641396058337800,7.760337890625,-0.022776952013373375,0.1221458837389946,0.23663251101970673
1772641396068382700,7.7703828125,-0.02420094422996044,0.034143853932619095,0.2876957058906555
1772641396078428000,7.780427978515625,-0.01762826181948185,-0.037048034369945526,0.3232789933681488
1772641396088472600,7.79047265625,-0.002689526416361332,-0.07376370579004288,0.3443896174430847
1772641396098518500,7.8005185546875,0.014445784501731396,-0.06702563911676407,0.3478564918041229
1772641396108563700,7.810563720703125,0.03214515373110771,-0.037815555930137634,0.32604309916496277
1772641396118608600,7.820608642578125,0.05112443491816521,-0.010365555062890053,0.2876139283180237
1772641396128653800,7.83065380859375,0.0820932686328888,-0.003820038167759776,0.22917327284812927
1772641396138698500,7.840698486328125,0.11882199347019196,0.001657018787227571,0.1612594574689865
1772641396148743700,7.85074365234375,0.16171352565288544,0.02172420360147953,0.09772096574306488
1772641396158789600,7.86078955078125,0.20581308007240295,0.062002383172512054,0.04561382532119751
1772641396168834600,7.87083447265625,0.2497863918542862,0.11213639378547668,0.00836632028222084
1772641396178879700,7.880879638671875,0.29463404417037964,0.16250741481781006,-0.011768242344260216
1772641396188924700,7.890924560546875,0.3437831997871399,0.21148641407489777,-0.013788250274956226
1772641396198969600,7.900969482421875,0.38814079761505127,0.2529526352882385,-0.026690466329455376
1772641396209014500,7.9110146484375,0.42208999395370483,0.2514878809452057,-0.0513840951025486
1772641396219060700,7.921060791015625,0.4173080325126648,0.2254810631275177,-0.09515101462602615
1772641396229105700,7.931105712890625,0.3863477110862732,0.1909846067428589,-0.14386768639087677
1772641396239150800,7.94115087890625,0.33341312408447266,0.14117176830768585,-0.18616826832294464
1772641396249195500,7.951195556640625,0.2679622173309326,0.08913839608430862,-0.21320708096027374
1772641396259240700,7.96124072265625,0.19984467327594757,0.041958633810281754,-0.22542007267475128
1772641396269285600,7.97128564453125,0.1399451196193695,0.0008612662786617875,-0.21443480253219604
1772641396279331600,7.98133154296875,0.0897464007139206,-0.039810262620449066,-0.19476549327373505
1772641396289376800,7.991376708984375,0.04403776675462723,-0.06610605120658875,-0.1693405658006668
1772641396299421700,8.001421630859374,0.013188240118324757,-0.038353513926267624,-0.1309169977903366
1772641396309466600,8.011466552734374,0.021577730774879456,0.03472442552447319,-0.0770561695098877
1772641396319511600,8.021511474609374,0.05227838456630707,0.06437419354915619,-0.03598436713218689
1772641396329556700,8.031556640625,0.08665073662996292,0.12945865094661713,0.021871743723750114
1772641396339602700,8.041602783203125,0.12847276031970978,0.13483291864395142,0.07477570325136185
1772641396349648000,8.05164794921875,0.16700522601604462,0.1301497519016266,0.12553448975086212
1772641396359692500,8.061692626953125,0.1966475397348404,0.0967334657907486,0.17833192646503448
1772641396369737700,8.07173779296875,0.21370908617973328,0.05143895745277405,0.22697003185749054
1772641396379782700,8.08178271484375,0.21823406219482422,0.0035396073944866657,0.2781144380569458
1772641396389827800,8.091827880859375,0.21258950233459473,-0.04360686615109444,0.32908496260643005
1772641396399873800,8.101873779296875,0.20184576511383057,-0.07658825069665909,0.3797135055065155
1772641396409918700,8.111918701171875,0.18573497235774994,-0.11254731565713882,0.43049174547195435
1772641396419963600,8.121963623046875,0.15619440376758575,-0.17918653786182404,0.4767974317073822
1772641396430008600,8.132008544921876,0.10979653894901276,-0.2814370095729828,0.5073159337043762
1772641396440053800,8.1420537109375,0.07635655999183655,-0.3722052574157715,0.5147741436958313
1772641396450099700,8.152099609375,0.053159359842538834,-0.43333011865615845,0.506205141544342
1772641396460144600,8.16214453125,0.04150616377592087,-0.4510484039783478,0.4788070619106293
1772641396470189600,8.172189453125,0.03594361990690231,-0.426037073135376,0.4348220229148865
1772641396480234500,8.182234375,0.03831116855144501,-0.35524144768714905,0.3747949004173279
1772641396490279700,8.19227978515625,0.04953346401453018,-0.25656068325042725,0.3011380136013031
1772641396500324600,8.20232470703125,0.05895892530679703,-0.13575410842895508,0.22357504069805145
1772641396510370800,8.212370849609375,0.07128936052322388,-0.013962420634925365,0.13737116754055023
1772641396520415700,8.222415771484375,0.08231857419013977,0.11191508173942566,0.054121557623147964
1772641396530460700,8.232460693359375,0.09850367158651352,0.19788698852062225,-0.014689730480313301
