time,seconds_elapsed,z,y,x
1772641305417579800,0.074579833984375,-0.09685644616484641,-0.09851210441738366,-0.2686320127788931
1772641305427625700,0.084625732421875,-0.02140226899087429,-0.09233144302107393,-0.272900703074038
1772641305437670700,0.094670654296875,0.054007484519481654,-0.08799399833865464,-0.27900477383648975
1772641305447715600,0.104715576171875,0.07772387567162513,-0.09402867539301514,-0.2936085052610375
1772641305457761500,0.114761474609375,0.08069616948068141,-0.09888225290402769,-0.3362825669972226
1772641305467806500,0.124806396484375,0.06047989540398121,-0.09410349419489503,-0.3705360246568918
1772641305477851600,0.1348515625,0.03318856837451458,-0.10335822927430272,-0.4020562214277684
1772641305487897600,0.144897705078125,0.003081599402427673,-0.11419789545759558,-0.41532852158546446
1772641305497942800,0.15494287109375,-0.03438274659514427,-0.1538709304805845,-0.4230059243455529
1772641305507987500,0.164987548828125,-0.049559272938966746,-0.20170038395226,-0.452391410642676
1772641305518033400,0.175033447265625,-0.04387596660554409,-0.22781397243924437,-0.5128027708550915
1772641305528078600,0.18507861328125,-0.0455529599070549,-0.2369933041948825,-0.5575163938611746
1772641305538123500,0.19512353515625,-0.006646598407626152,-0.2617143423449248,-0.5786752825502306
1772641305548168700,0.205168701171875,0.06692541828155517,-0.27127405172027647,-0.6117577236691489
1772641305558214700,0.215214599609375,0.14582301390767097,-0.24454240440018474,-0.6518363072857261
1772641305568259800,0.225259765625,0.2118126126438379,-0.2172868062712252,-0.673499784496054
1772641305578304500,0.235304443359375,0.2542565006196499,-0.16533216262832284,-0.7049084106512368
1772641305588350500,0.2453505859375,0.27219547741413114,-0.10984072316139935,-0.6734778649251908
1772641305598395600,0.255395751953125,0.23301205253899096,-0.09828048761859536,-0.6541483836203813
1772641305608440600,0.265440673828125,0.16309972740113735,-0.061729237877950066,-0.6187885356213897
1772641305618486500,0.275486572265625,0.1081768816024065,-0.02848017148785293,-0.5794972299249842
1772641305628531700,0.28553173828125,0.02905015339553356,-0.039177141264826056,-0.5484542222118005
1772641305638576400,0.295576416015625,0.004599018228054046,-0.05176365111544728,-0.5356043121846392
1772641305648622600,0.30562255859375,0.07532675140202046,-0.10722893322780727,-0.5107604879051446
1772641305658667500,0.31566748046875,0.19014730880260466,-0.19647351614944636,-0.401593755015172
1772641305668712700,0.325712646484375,0.2718792510718107,-0.2940761775717139,-0.30615081064375116
1772641305678758700,0.335758544921875,0.30246786608099935,-0.3866724820740521,-0.21181637550350277
1772641305688803600,0.345803466796875,0.34989947934150695,-0.47076720795184374,-0.16149742503734305
1772641305698848800,0.355848876953125,0.4199672873020172,-0.5680434138987213,-0.12001384259420446
1772641305708893400,0.3658935546875,0.4724252042919397,-0.6595600334055721,-0.10634272497780621
1772641305718939600,0.375939697265625,0.49216976920366284,-0.7363239049386233,-0.1486727773156017
1772641305728984600,0.385984619140625,0.44707098280489443,-0.786810229594633,-0.1741647267729044
1772641305739029800,0.39602978515625,0.4202238924115896,-0.8411644086599349,-0.197097913391795
1772641305749074700,0.40607470703125,0.4967465755999088,-0.8970810878016054,-0.16702236247127875
1772641305759120000,0.416119873046875,0.5735311245948076,-0.9433833317060023,-0.12304499958418309
1772641305769164800,0.426164794921875,0.6695528735011815,-0.9464054560061543,-0.04816455804440192
1772641305779210800,0.436210693359375,0.6378180110663175,-0.942958018966019,0.05223233720627613
1772641305789255700,0.446255615234375,0.537826774007082,-0.9598371114440262,0.1608543048282154
1772641305799300600,0.456300537109375,0.42621641082465644,-0.908839768525958,0.21936448932811617
1772641305809346600,0.4663466796875,0.3302677271544933,-0.8319381690226495,0.24357067329119889
1772641305819391700,0.476391845703125,0.25983400849103927,-0.7746059970598668,0.25086990865496916
1772641305829436700,0.486436767578125,0.2075000101417303,-0.7137701278250664,0.25811776089137417
1772641305839481900,0.49648193359375,0.11703764892816543,-0.6837481337226927,0.23518828233322128
1772641305849527800,0.50652783203125,0.03661503569185733,-0.6485165882784872,0.20531950603118165
1772641305859572700,0.51657275390625,0.0066571198016405105,-0.6204650905314832,0.1955239968722686
1772641305869617700,0.52661767578125,0.018666706547141074,-0.598964402667433,0.20312060774741694
1772641305879663600,0.53666357421875,-0.02773088749051094,-0.5708790026508271,0.22062322068493811
1772641305889708800,0.546708740234375,-0.09266074804067612,-0.555024357849732,0.20334334712000562
1772641305899753700,0.556753662109375,-0.1552630424261093,-0.5745503115747124,0.14174150761454365
1772641305909800000,0.566800048828125,-0.21829788300991057,-0.6306721578996628,0.1386815081225708
1772641305919844600,0.5768447265625,-0.12455518495142459,-0.6330925899796187,0.08259716253010556
1772641305929889800,0.586889892578125,-0.037653731089830396,-0.6576310381043702,0.01556978171141818
1772641305939935700,0.596935791015625,0.044724692389369006,-0.6959285469904541,-0.018054620797093957
1772641305949980700,0.606980712890625,0.15265315218865871,-0.7386798934802412,0.012074194680619984
1772641305960025900,0.61702587890625,0.2549608494967222,-0.7440933698963373,0.01725689454814419
1772641305970071800,0.62707177734375,0.36878538159728047,-0.7649671580336987,0.03148094247272238
1772641305980116700,0.63711669921875,0.43821664521992204,-0.7961092422071844,0.03654511226080358
1772641305990161700,0.64716162109375,0.4742459899783134,-0.804923101651296,0.010742051027715206
1772641306000206600,0.65720654296875,0.5119733708262443,-0.8172587054807692,-0.055528940199408676
1772641306010252800,0.667252685546875,0.4809148002177477,-0.8398404665797948,-0.13175738054835237
1772641306020297700,0.677297607421875,0.3979278894513845,-0.8316248652897774,-0.1660644224256277
1772641306030343000,0.687343017578125,0.34093934329450126,-0.7999000127922743,-0.16552761213518677
1772641306040388900,0.697388916015625,0.3112929775714874,-0.7494530702985823,-0.19088736831387504
1772641306050433500,0.70743359375,0.22822715635001659,-0.686393972056359,-0.1773357945570722
1772641306060478700,0.717478759765625,0.1168517709672451,-0.6303054434791207,-0.13072754431026987
1772641306070524700,0.727524658203125,-0.027984569990634915,-0.5591726366356015,-0.0766717088707257
1772641306080569900,0.73756982421875,-0.222291921082139,-0.4898926180519163,-0.006260667829960584
1772641306090614800,0.74761474609375,-0.4069780418694019,-0.4102691923692822,0.06605776860155164
1772641306100660700,0.75766064453125,-0.6568821924984455,-0.5127756271198392,0.19937438869010657
1772641306110706000,0.767705810546875,-0.7377507959365844,-0.6021070846073329,0.3104194096073508
1772641306120750600,0.77775048828125,-0.588213729941845,-0.6975285295329987,0.34158260963410136
1772641306130795800,0.787795654296875,-0.37792730395197865,-0.8183835447922349,0.35337007806152104
1772641306140841700,0.797841796875,-0.21391513788104055,-0.848596312226355,0.3168873635124415
1772641306150886700,0.80788671875,0.002757774275541305,-0.7697156677350402,0.1848682358885184
1772641306160931800,0.817931884765625,-0.048291444960236546,-0.6297260361559689,0.018181672109710053
1772641306170977800,0.827977783203125,-0.22314356947541236,-0.4998251062624156,-0.11569958699112758
1772641306181022700,0.838022705078125,-0.4910813894450664,-0.34440701940506696,-0.24015522055821492
1772641306191067600,0.848067626953125,-0.8149731518268585,-0.12182137607336044,-0.3685780955221504
1772641306201113600,0.858113525390625,-1.1804437097877263,0.1063292079091072,-0.44867118454314764
1772641306211158800,0.86815869140625,-1.5288754546642302,0.3798778534978628,-0.5342541031520813
1772641306221203700,0.87820361328125,-1.6651234154969452,0.581335368604958,-0.5681075286434963
1772641306231250000,0.88825,-1.7192951506674288,0.7456849499367177,-0.5735894306533038
1772641306241294600,0.898294677734375,-1.6436469122260808,0.8158386826150119,-0.6395208694614469
1772641306251339800,0.90833984375,-1.4455512747675179,0.8387269523799419,-0.6954563994340598
1772641306261384700,0.918384765625,-1.1594763250827789,0.777500330261886,-0.710590913267061
1772641306271430700,0.9284306640625,-0.7302788526207208,0.6255401287734508,-0.7270931352566927
1772641306281475800,0.938475830078125,-0.27663024499118327,0.37927053525447846,-0.6745612031824887
1772641306291520800,0.948520751953125,0.20496026253104208,0.21887349094077943,-0.6427639430359006
1772641306301566700,0.958566650390625,0.5968120469391346,0.16350567785352468,-0.6195150232650339
1772641306311611600,0.968611572265625,0.8611725929439067,0.1265676938176155,-0.5602590071002022
1772641306321656600,0.978656494140625,1.107695868963003,0.14207462115958333,-0.4868176675859838
1772641306331702800,0.988702880859375,1.2621025868207216,0.11498700000867247,-0.30034261755533515
1772641306341747700,0.998747802734375,1.4521610482960938,0.11307108338475226,-0.09155298772817477
1772641306351793000,1.00879296875,1.6629244441479443,0.17013050282076,0.031964890064764766
1772641306361838800,1.0188388671875,1.840773996913433,0.19662761073261498,0.17373497531982138
1772641306371883500,1.028883544921875,1.925329179909825,0.21452917812615632,0.32249833526201543
1772641306381928700,1.0389287109375,1.8658394645869731,0.2372910450324416,0.4636476582702249
1772641306391973600,1.0489736328125,1.7439713267624377,0.27565876961052416,0.5358829464629292
1772641306402019800,1.059019775390625,1.5693033266425132,0.33899069344475863,0.5750056541267782
1772641306412064800,1.069064697265625,1.424868552222848,0.37835663527995345,0.6083597152613103
1772641306422110000,1.07910986328125,1.2815619050502776,0.38494624280333517,0.6831508984819055
1772641306432156000,1.089156005859375,1.0447247412651777,0.4326753777056932,0.7441222306646407
1772641306442200600,1.09920068359375,0.6470885282367468,0.478492395376414,0.808266128468886
1772641306452245800,1.109245849609375,0.25657880608737466,0.583818563722819,0.8069610372196883
1772641306462291700,1.119291748046875,-0.12181611537635326,0.7113900277554989,0.7407800075646489
1772641306472337000,1.1293369140625,-0.4532587315291166,0.8526048172153532,0.6395418391842395
1772641306482381800,1.1393818359375,-0.5678729527026415,1.0076648113500326,0.5546241064857691
1772641306492427800,1.149427734375,-0.686163816562295,1.114054078883305,0.6244056448508054
1772641306502472700,1.15947265625,-0.7970189774632453,1.2103265876803546,0.7902506523720919
1772641306512517600,1.169517578125,-0.8221335449755192,1.2909399742484091,0.8225675524786115
1772641306522562800,1.179562744140625,-0.7666472200751304,1.3168927461504936,0.6788353733703494
1772641306532608800,1.18960888671875,-0.6945107891470194,1.0481053966794163,0.5775447441503405
1772641306542653700,1.19965380859375,-0.6670265698939561,0.7404853354670107,0.4822853579185903
1772641306552699000,1.209698974609375,-0.5639578250855207,0.6308086437609046,0.21854422245379537
1772641306562744800,1.219744873046875,-0.40122985360622404,0.5480777535822242,-0.0792247269549407
1772641306572789800,1.229789794921875,-0.21453356204032897,0.4289846334289759,-0.2455989459821023
1772641306582834700,1.239834716796875,-0.023845570489764212,0.23000717163458465,-0.33304135658629236
1772641306592880600,1.249880615234375,0.16442834565639494,-0.0122791974671185,-0.39243228770978744
1772641306602925800,1.25992578125,0.33325872566401954,-0.20356047873571514,-0.38983259007278825
1772641306612970800,1.269970703125,0.47137364941239357,-0.35142208579890427,-0.41998036597929894
1772641306623015700,1.280015625,0.5402162994921207,-0.4033476494777947,-0.4677575778070837
1772641306633061600,1.2900615234375,0.6053928282797336,-0.43387028657868504,-0.4639958871860057
1772641306643106800,1.30010693359375,0.6759387751460075,-0.4534416868805885,-0.4358757811821997
1772641306653151700,1.31015185546875,0.7446937469422816,-0.473234547913447,-0.3666580141797662
1772641306663197700,1.32019775390625,0.789563400760293,-0.4637429353382438,-0.285411919198744
1772641306673243000,1.330242919921875,0.866237475118041,-0.440888348647207,-0.18468895206516608
1772641306683287600,1.34028759765625,0.8550181619673967,-0.4343759710785001,-0.12041910806000232
1772641306693333500,1.35033349609375,0.7968196554988622,-0.41663719303123653,-0.07953163747964427
1772641306703378700,1.360378662109375,0.6246089854031801,-0.4151194819446653,0.028733379063941536
1772641306713423600,1.370423583984375,0.49631402940154073,-0.42382038253359494,0.08989047960974275
1772641306723469800,1.3804697265625,0.3578302723407745,-0.4028094509478658,0.12230466607827692
1772641306733514800,1.3905146484375,0.2263999409228563,-0.37909101396910844,0.10606527800960466
1772641306743560000,1.400559814453125,0.04324935913980007,-0.33734767547808586,0.08489890013383701
1772641306753605400,1.41060546875,-0.1711222903370857,-0.3225188665933907,0.04573779668835923
1772641306763651300,1.4206513671875,-0.33334231229424477,-0.29581936797723174,0.045198356049414724
1772641306773696500,1.430696533203125,-0.4466179783403873,-0.29776714104413987,0.04959701113346964
1772641306783741400,1.440741455078125,-0.4766998128712177,-0.3122632108431309,0.0740380084994249
1772641306793787400,1.450787353515625,-0.39674598619043827,-0.34692638181485236,0.04047859751852229
1772641306803832300,1.460832275390625,-0.2705103008061647,-0.3971845237381756,0.03133450147304684
1772641306813877200,1.470877197265625,-0.08744096756577491,-0.48225087112709875,0.03326040976801887
1772641306823923500,1.48092333984375,0.1163806463241577,-0.6209511204827577,-0.05296045968458056
1772641306833968400,1.490968505859375,0.2969114009976387,-0.7124522501595318,-0.12723916333839297
1772641306844013600,1.501013671875,0.4684621458798647,-0.767556151613593,-0.21847470088154075
1772641306854059500,1.5110595703125,0.6043453650534153,-0.792959107613191,-0.2624934186923317
1772641306864104200,1.521104248046875,0.6705775403738021,-0.8134678618304431,-0.25595300233922896
1772641306874149400,1.5311494140625,0.7118903784930706,-0.8295921904183924,-0.21077782623600214
1772641306884194300,1.5411943359375,0.7946481566786766,-0.850936007220298,-0.15767255125325172
1772641306894240300,1.551240234375,0.850606775265932,-0.8712602717161179,-0.09027820028569548
1772641306904285400,1.561285400390625,0.8894751428425312,-0.8455841247983277,-0.08859656734168529
1772641306914330400,1.571330322265625,0.7875485538065433,-0.8128621510222553,-0.07628317534402013
1772641306924376300,1.581376220703125,0.6145476101160049,-0.714946258932352,-0.039932160883210596
1772641306934421200,1.591421142578125,0.4449047446817159,-0.6245634657610207,-0.02020736011788249
1772641306944466400,1.601466552734375,0.24293021996319292,-0.5704276056215166,0.030615977940149603
1772641306954512400,1.611512451171875,0.03114624889194965,-0.5040042185779661,0.1110250375751406
1772641306964557300,1.621557373046875,-0.22298633308708665,-0.4942785049859434,0.216063694217056
1772641306974602500,1.6316025390625,-0.4415291307687759,-0.5990841565895825,0.3491835496244952
1772641306984647200,1.641647216796875,-0.5621902308911085,-0.7939160430118442,0.48974356497004623
1772641306994693400,1.651693359375,-0.5797521910667419,-0.8902672430682926,0.5144450216367841
1772641307004738300,1.66173828125,-0.6955734499424695,-0.9329831529185175,0.4840722778679803
1772641307014783500,1.671783447265625,-0.976220529359579,-0.9847719384752214,0.4359061397878453
1772641307024829400,1.681829345703125,-1.2395774512797593,-1.0512236017651855,0.384978428039886
1772641307034874400,1.691874267578125,-1.347372055566311,-0.9988913569815456,0.33983408546634014
1772641307044919300,1.701919189453125,-1.3784031536459922,-0.8295746547617018,0.25779245619345453
1772641307054965200,1.71196533203125,-1.3670651825517415,-0.5758612845754251,0.16476196152493355
1772641307065010400,1.722010498046875,-1.359143741902709,-0.23892829084545372,0.0024469182280823587
1772641307075055400,1.732055419921875,-1.4598141933977602,0.15938202205225824,-0.18114282215721905
1772641307085100300,1.742100341796875,-1.7296394345492123,0.5532734590617939,-0.24887639675019307
1772641307095146500,1.752146484375,-2.02828745008111,0.8395654490306973,-0.20087361427191644
1772641307105191400,1.76219140625,-2.3600948078930375,1.077266170842573,-0.09354614343992435
1772641307115236400,1.772236328125,-2.6767443440616128,1.310066553392261,-0.05097294826232828
1772641307125282300,1.7822822265625,-2.8176205492168664,1.482039761470258,-0.039835733037721366
1772641307135327200,1.7923271484375,-2.675796834078431,1.586077643571794,-0.10623721877671778
1772641307145372400,1.802372314453125,-2.1759207282811404,1.6420963217832147,-0.25517628234568984
1772641307155418400,1.81241845703125,-1.6755483633995054,1.6127426553964614,-0.26848948076935486
1772641307165463600,1.822463623046875,-1.0969938576847313,1.4477709966436028,-0.19284758073724806
1772641307175508200,1.83250830078125,-0.4719634319990873,1.321308224505186,-0.17431016312558203
1772641307185553400,1.842553466796875,0.24406243886351583,1.2084880471415818,-0.177154464907106
1772641307195599400,1.852599365234375,0.9860673851132392,1.0826384384654462,-0.19618395861834287
1772641307205644300,1.862644287109375,1.6299118168622255,0.9851822728417813,-0.20911630449825896
1772641307215689500,1.872689453125,2.03574711843729,0.9192564600568264,-0.24455522734913973
1772641307225735400,1.8827353515625,2.2739713526666163,0.8774353070892393,-0.25904019123222677
1772641307235780400,1.8927802734375,2.3462825556397435,0.8291071833804249,-0.24526341215111314
1772641307245825300,1.9028251953125,2.295340888431668,0.8013284381601959,-0.23228647821079937
1772641307255871200,1.912871337890625,2.227266300114989,0.8019254542052745,-0.2663908645222895
1772641307265916400,1.92291650390625,2.1715204474955794,0.8044425515927374,-0.34049569118022915
1772641307275961300,1.93296142578125,2.1278870574742554,0.7388913442738354,-0.39011210113391276
1772641307286007300,1.94300732421875,2.081182004922628,0.7015282666936516,-0.4368386348649859
1772641307296052500,1.953052490234375,1.9833248572826385,0.7067568149968981,-0.4143168603248894
1772641307306097200,1.96309716796875,1.846100160372257,0.7087354215934872,-0.31938305278569457
1772641307316142300,1.973142333984375,1.6331944917947052,0.6882476370990276,-0.1475633365026675
1772641307326188300,1.983188232421875,1.3885802642673253,0.6934991278864443,0.004214475889876485
1772641307336233500,1.9932333984375,1.1540747583001851,0.7369028008051216,0.09838822230938822
1772641307346278400,2.0032783203125,0.8338976325273514,0.8242696071561425,0.19138408405594526
1772641307356324400,2.013324462890625,0.5056979438185691,0.9094496440526098,0.2799066728459671
1772641307366369300,2.023369384765625,0.21748247497379777,0.9824662918813526,0.3856201234769076
1772641307376414200,2.033414306640625,-0.04134206421375274,1.038457862890139,0.47818796906974165
1772641307386460400,2.04346044921875,-0.21521394551992415,1.0587680988606065,0.5061620541989803
1772641307396505300,2.05350537109375,-0.29607261208593844,1.016112613960728,0.49240255504623054
1772641307406550500,2.063550537109375,-0.33541736500263214,0.92370489083305,0.4684588579442352
1772641307416596500,2.073596435546875,-0.3136731507062912,0.8042658067863434,0.4164680835420266
1772641307426641400,2.083641357421875,-0.1900152068555355,0.6311864640973508,0.31966935891378667
1772641307436686300,2.093686279296875,0.00741173756122589,0.45019766345806417,0.21342687944006172
1772641307446731300,2.103731201171875,0.21871815424859523,0.28739903789535165,0.09976093543469905
1772641307456777200,2.113777099609375,0.3541752569645643,0.162611286297068,0.026911643529497084
1772641307466822400,2.123822509765625,0.5133183556944132,0.0365796721175313,-0.012851992386393249
1772641307476867300,2.133867431640625,0.6964478946894407,-0.050521907426044343,-0.01217785598449409
1772641307486913500,2.14391357421875,0.8094295462250709,-0.12513218112178146,-0.019163257892429827
1772641307496958200,2.153958251953125,0.8660907601237297,-0.17959983049891887,-0.045145584682561454
1772641307507003400,2.16400341796875,0.7973509858965874,-0.20918913227245212,-0.07238587564453482
1772641307517049300,2.17404931640625,0.6900456264317035,-0.2419802257619798,-0.05949504908509552
1772641307527094300,2.18409423828125,0.5729547860115766,-0.25363047767579555,-0.06899798677191138
1772641307537139500,2.194139404296875,0.437599390104413,-0.26580519185513257,-0.0981768445810303
1772641307547184400,2.204184326171875,0.31515608274042606,-0.3038992140583694,-0.10638247246630489
1772641307557230600,2.214230712890625,0.1838327188283205,-0.2956822975941002,-0.13346673261635006
1772641307567275300,2.224275146484375,0.10449790082871914,-0.30317586821988224,-0.17710848860722034
1772641307577320400,2.234320556640625,0.03255553116798401,-0.3734063193961978,-0.19065686575993895
1772641307587366400,2.244366455078125,0.022066870379447937,-0.4428710103644058,-0.21258367008157072
1772641307597411300,2.254411376953125,0.06849193694591522,-0.5133247489025816,-0.2524790791509673
1772641307607456500,2.26445654296875,0.06427811864316463,-0.5639577520202845,-0.2712663068052381
1772641307617502500,2.27450244140625,0.029455227065086364,-0.6061242843594402,-0.3004533844534307
1772641307627547400,2.28454736328125,0.00007014262676239014,-0.6303777780629695,-0.33619127198457716
1772641307637592300,2.29459228515625,-0.024388591325283048,-0.672011591764912,-0.3520858469372615
1772641307647638300,2.30463818359375,-0.02390928337574005,-0.7132036530487239,-0.3070658979283646
1772641307657683500,2.314683349609375,0.034929859083890916,-0.7263451664336025,-0.2728424335481599
1772641307667728400,2.324728271484375,0.09739654439091681,-0.7773594604864716,-0.23186785093992948
1772641307677773600,2.334773681640625,0.15694471190273762,-0.8616566501338034,-0.21593721829317508
1772641307687819500,2.344819580078125,0.24312486575245856,-0.9638553341094404,-0.2296247481882572
1772641307697864200,2.3548642578125,0.26541969966888423,-1.0146810467876493,-0.25991686446890233
1772641307707909400,2.364909423828125,0.24982816278338432,-1.0078956974964588,-0.25601419447455553
1772641307717955300,2.374955322265625,0.23541852915883063,-0.9793305511388927,-0.22148487901557234
1772641307728000500,2.38500048828125,0.2075648920714855,-0.9356386358633637,-0.16663338142000136
1772641307738045400,2.39504541015625,0.1208639292180538,-0.9035128744147718,-0.10681647996939718
1772641307748091400,2.40509130859375,0.06132394501268863,-0.8471664255537092,-0.06702208358906209
1772641307758136300,2.41513623046875,-0.01225157880783081,-0.8110299671590327,-0.021999906090460715
1772641307768181200,2.42518115234375,-0.10705869122743605,-0.742581869354844,0.03310731983184814
1772641307778226200,2.43522607421875,-0.14463292734026909,-0.6426072911694646,0.06645758157409727
1772641307788272000,2.445272216796875,-0.23647709830105304,-0.5117503026600927,0.0817126895794645
1772641307798317300,2.4553173828125,-0.4049900829225778,-0.37465851141437884,0.1129822360575199
1772641307808362200,2.4653623046875,-0.5968097088515758,-0.2811721262045204,0.18549374737571925
1772641307818408200,2.475408203125,-0.7688140427201986,-0.24591208531819284,0.2756737114513293
1772641307828453400,2.485453369140625,-0.6884007818341255,-0.2318544800017029,0.3670057681715116
1772641307838498300,2.495498291015625,-0.5131465062588453,-0.20380846214741466,0.38763171902764587
1772641307848544000,2.5055439453125,-0.44553661284446716,-0.10005663044564425,0.36409923307504505
1772641307858589200,2.515589111328125,-0.4756184473752975,-0.03729286188818514,0.31258597652409226
1772641307868634000,2.525634033203125,-0.5288935259670019,-0.0057231268871575595,0.1850911213915795
1772641307878680300,2.535680419921875,-0.693883012637496,0.13028693353645504,-0.013470781871862708
1772641307888725200,2.545725341796875,-0.86924191763103,0.3691705815225839,-0.23558551975619046
1772641307898770400,2.5557705078125,-1.0106377627462149,0.5730612420607358,-0.39897031117640436
1772641307908815000,2.565815185546875,-1.158688974097371,0.6785263074211776,-0.5050793004635721
1772641307918861000,2.575861083984375,-1.341360832452774,0.7403808521792292,-0.6067378862131386
1772641307928906200,2.58590625,-1.4477081605404614,0.7909061936713755,-0.7036332761488855
1772641307938951200,2.595951171875,-1.506395327308774,0.813628605350107,-0.8134004226174205
1772641307948997400,2.605997314453125,-1.4898328995645045,0.8017884568873792,-0.8546018362514675
1772641307959042300,2.616042236328125,-1.3242811028361319,0.7307000737074762,-0.8928123244412243
1772641307969087200,2.626087158203125,-1.1338654984861611,0.6238271143104881,-0.8930515400245785
1772641307979133200,2.63613330078125,-0.9268740223884582,0.5080258753094822,-0.858734552142024
1772641307989178000,2.64617822265625,-0.594418429800868,0.36531039896309375,-0.8909145279958843
1772641307999223300,2.656223388671875,-0.2134469358474016,0.27536007892489434,-0.9606072920989245
1772641308009268200,2.666268310546875,0.038602410116791726,0.24002090838775036,-1.009428240825981
1772641308019314200,2.676314208984375,0.17611001562178133,0.2352096356485039,-1.018764224448055
1772641308029359400,2.686359375,0.2959749969303608,0.2442828036159277,-0.9889332959383725
1772641308039404000,2.696404052734375,0.32944179772436616,0.2849213226702064,-0.897556450228393
1772641308049450200,2.7064501953125,0.38831191984415053,0.35115466703437265,-0.7813545945372432
1772641308059495200,2.7164951171875,0.565796146428585,0.42631103030554945,-0.6724957220200449
1772641308069540400,2.726540283203125,0.7203022330075503,0.5012872877694666,-0.5706948782555759
1772641308079586300,2.73658642578125,0.8393009528756141,0.5798403808068484,-0.4556843512408435
1772641308089631200,2.74663134765625,0.9162199419051408,0.7011047805845737,-0.3237259773608297
1772641308099676200,2.75667626953125,0.981228128388524,0.8202670204512774,-0.15714520291090012
1772641308109722000,2.76672216796875,1.0257833094298838,0.9325956149056553,-0.008955240676179527
1772641308119767300,2.776767333984375,1.0511521439641713,1.0364661776162682,0.10901274790465831
1772641308129812200,2.786812255859375,1.0264555096030235,1.0735555528216063,0.22412322816252708
1772641308139857400,2.796857421875,1.0111047957360744,1.1564515704341232,0.2639965349979698
1772641308149903400,2.8069033203125,1.0078840801239013,1.2122842245541512,0.3072707363180816
1772641308159948300,2.8169482421875,0.9644675477236508,1.2075653793387113,0.3385763404902071
1772641308169993200,2.8269931640625,0.903349354416132,1.20339013948068,0.373622665560618
1772641308180039200,2.8370390625,0.8483961134791373,1.2067035018123686,0.4080187100287527
1772641308190084000,2.847083984375,0.7973615072906017,1.2483067011803388,0.4175522620495409
1772641308200129300,2.85712939453125,0.710787385687232,1.2728330935411154,0.4039933269701898
1772641308210175200,2.86717529296875,0.5658405700922012,1.261846566233039,0.4129077241793275
1772641308220220400,2.877220458984375,0.39194413886666296,1.28905971345976,0.4112005549352616
1772641308230265000,2.88726513671875,0.17237492074668406,1.2723632840722798,0.4128457648590207
1772641308240311000,2.89731103515625,0.042455578413605685,1.234360447283834,0.42058739196173844
1772641308250356200,2.907356201171875,-0.03660217621028423,1.1652603153117,0.39891017848700283
1772641308260401200,2.917401123046875,-0.1011228714376688,1.0619444638743996,0.3287890329040587
1772641308270446300,2.9274462890625,-0.11768997535705565,0.9327419645737856,0.18925152900665998
1772641308280492300,2.9374921875,-0.16334347302913665,0.7939397892136126,0.05026259890273213
1772641308290537200,2.947537109375,-0.147163907122612,0.6635081865094602,-0.06974054876752198
1772641308300582100,2.95758203125,-0.06659457889199256,0.5397394026953727,-0.12110804017223417
1772641308310628000,2.967628173828125,0.011647767695784569,0.4092035358991474,-0.13001242744401095
1772641308320673300,2.97767333984375,0.06878536693453788,0.2894463258139789,-0.1442794377274811
1772641308330718200,2.98771826171875,0.13284838152229786,0.16967041102834046,-0.15970767381004988
1772641308340764200,2.99776416015625,0.1734668076366186,0.06106346744559705,-0.16544289299380033
1772641308350809300,3.007809326171875,0.2231546753913164,-0.02642791513316333,-0.20263317129034547
1772641308360854300,3.017854248046875,0.2750251478821039,-0.06642667497918009,-0.2110564970469102
1772641308370899200,3.027899169921875,0.29546997001767156,-0.11375555851757525,-0.20877079726252704
1772641308380945200,3.037945068359375,0.19200959554314612,-0.1386450120370835,-0.21969693615287542
1772641308390990300,3.047990234375,0.03597089256942272,-0.11970723346360027,-0.2114689868379384
1772641308401035300,3.05803515625,-0.10043488917350768,-0.08359386368356644,-0.18843378288298845
1772641308411081200,3.068081298828125,-0.19713234538435934,-0.0497520190320909,-0.1274662866251543
1772641308421126100,3.078126220703125,-0.18362872068881989,-0.04009586354494095,-0.05822992452010512
1772641308431171000,3.088171142578125,-0.07685995231866836,-0.06384929877184331,0.00404269951954484
1772641308441217300,3.09821728515625,-0.0093850834608078,-0.09142382665686309,0.06412756772395223
1772641308451262200,3.10826220703125,0.01745733075737953,-0.10213708998151123,0.07758055821079761
1772641308461307400,3.118307373046875,0.06652092913389206,-0.12857589183486998,0.059777848081849515
1772641308471352300,3.128352294921875,0.11266600971519947,-0.1578101696256548,0.047950047644041476
1772641308481398300,3.138398193359375,0.21789280934035776,-0.17631883606687188,0.07364606830608099
1772641308491443200,3.148443115234375,0.3021218291223049,-0.243520806267485,0.12596859541330485
1772641308501488000,3.158488037109375,0.4030693439930677,-0.342450989966467,0.1846921486692503
1772641308511534300,3.168534423828125,0.5486556265354157,-0.4500957374535501,0.20960143940038978
1772641308521579300,3.178579345703125,0.6821177560418844,-0.5247323146343231,0.2030335687847808
1772641308531624200,3.188624267578125,0.7986503780573606,-0.572232316955924,0.1475704055642709
1772641308541670400,3.19867041015625,0.8988269085556269,-0.6183660724256187,0.11775613592844456
1772641308551715000,3.208715087890625,0.9263374312937259,-0.6443973894566297,0.17329415448345242
1772641308561760300,3.21876025390625,0.8990110329508781,-0.6610550212036818,0.25841239645639436
1772641308571806200,3.22880615234375,0.7867296386390924,-0.6615192777145653,0.3347467722646892
1772641308581851100,3.23885107421875,0.6753197664648294,-0.6576692512229084,0.4014328653650358
1772641308591896300,3.248896240234375,0.5166285031557083,-0.6434925495713949,0.4469046132620424
1772641308601941200,3.258941162109375,0.35622459070980544,-0.6722995418608189,0.4590246381120756
1772641308611987500,3.268987548828125,0.25597850210666656,-0.7394700209446251,0.4697455732865259
1772641308622032100,3.2790322265625,0.12871814984977245,-0.8119578956589102,0.4567804759144783
1772641308632077300,3.289077392578125,0.04190788140296936,-0.8549345022719353,0.41988421212844546
1772641308642123300,3.299123291015625,-0.051181905704736706,-0.8671749751638621,0.3742188778880983
1772641308652168200,3.309168212890625,-0.13652736229598522,-0.8276821920786053,0.3691270711744204
1772641308662213400,3.31921337890625,-0.19725977115631102,-0.7859034900132567,0.40439613561742005
1772641308672259300,3.32925927734375,-0.23715748178064822,-0.7447899738583713,0.45754444602429867
1772641308682304300,3.33930419921875,-0.25909692638814447,-0.6952541548602282,0.5402837387051433
1772641308692349200,3.34934912109375,-0.20527707339525222,-0.6800640383824705,0.580904247178696
1772641308702394400,3.359394287109375,-0.08925181638002395,-0.641234322315827,0.5765030530776828
1772641308712440300,3.3694404296875,-0.0035989012748003004,-0.6118008686911315,0.5770127926981077
1772641308722485200,3.3794853515625,0.037059856849908826,-0.598320478740707,0.5534425685510039
1772641308732530400,3.389530517578125,0.0506809704452753,-0.5892604625158011,0.5168188015634194
1772641308742576000,3.399576171875,-0.012461422166228293,-0.555881413070485,0.475861206622608
1772641308752620800,3.409620849609375,-0.08210545175671577,-0.5297312919653951,0.46566732752956447
1772641308762665700,3.419665771484375,-0.1587356869727373,-0.5345670415587723,0.4395305773627013
1772641308772711700,3.429711669921875,-0.24897125369310377,-0.5447858724299818,0.38895799919534474
1772641308782756600,3.439756591796875,-0.302712780752778,-0.5371645107060671,0.32095128848310556
1772641308792801500,3.449801513671875,-0.4177145399391651,-0.582455824002251,0.31964553964678194
1772641308802847700,3.45984765625,-0.5067489141762256,-0.7855208473712205,0.4076928390752524
1772641308812892700,3.469892578125,-0.44578035847246644,-0.9348807301681488,0.48266807362586256
1772641308822937600,3.4799375,-0.3441191423743963,-0.9829857126455753,0.4051322678722441
1772641308832982500,3.489982421875,-0.3786830907553434,-0.9972189667899161,0.2874163543563336
1772641308843028500,3.500028564453125,-0.4125508735656738,-1.027908484890312,0.2714385763659142
1772641308853073700,3.51007373046875,-0.43585050061047076,-1.054483991800621,0.19080288663450629
1772641308863118600,3.52011865234375,-0.3718424310803413,-0.867788065560907,-0.058824291950371116
1772641308873164500,3.53016455078125,-0.46054128975272174,-0.5947359713174403,-0.3601329597925767
1772641308883209700,3.540209716796875,-0.8039590058594942,-0.3353928150832653,-0.5751164210248738
1772641308893254700,3.550254638671875,-1.2242092017561197,-0.051136751388758415,-0.6503085131965577
1772641308903300900,3.56030078125,-1.627204895991087,0.23743366837352514,-0.5993562149966135
1772641308913345500,3.570345458984375,-1.851083794003725,0.45730581496283407,-0.45665082165282217
1772641308923390700,3.580390625,-1.8431576771795748,0.6338576560679823,-0.3378206632846966
1772641308933435600,3.590435546875,-1.7005454420119523,0.7682828584529459,-0.2915404120163992
1772641308943481600,3.600481689453125,-1.4605284791469573,0.8397210779838263,-0.2536598864333704
1772641308953526800,3.61052685546875,-1.1858943764090537,0.8394800357695669,-0.2280851723297499
1772641308963571500,3.620571533203125,-0.8346575109839439,0.809207062580809,-0.1707525254429318
1772641308973617700,3.63061767578125,-0.5081517667114734,0.810815520690754,-0.11789691437231375
1772641308983662600,3.64066259765625,-0.18378595707714557,0.8239894750405102,-0.0557150921549648
1772641308993707800,3.650707763671875,0.17274258501529693,0.8321105299148708,0.04337530534071848
1772641309003753700,3.660753662109375,0.565902529412508,0.8319776973154396,0.17824103630110621
1772641309013798700,3.670798583984375,1.0172311696618794,0.8368204611714929,0.3138341864868998
1772641309023843800,3.68084375,1.4074778569608926,0.853928320904076,0.36513230244982986
1772641309033889800,3.690889892578125,1.6725158638358115,0.889142696017772,0.35169860118534413
1772641309043934500,3.7009345703125,1.7906787174016237,0.9482358863037079,0.30038583564255383
1772641309053979600,3.710979736328125,1.7235913865566252,0.9776290809832513,0.170547084265016
1772641309064024600,3.721024658203125,1.5610843643516301,1.0318662826053797,-0.038877792992070316
1772641309074070800,3.73107080078125,1.406947111085057,1.093861404877901,-0.24112357240002602
1772641309084115700,3.74111572265625,1.2632283759802578,1.1078802856191992,-0.3977011314908042
1772641309094160600,3.75116064453125,1.115002977105975,1.0774253799922764,-0.48690465174969283
1772641309104206600,3.76120654296875,1.0114145923376083,1.0389948193110525,-0.5528734634261578
1772641309114251500,3.77125146484375,0.9021884939432143,0.9866122325796634,-0.587788526799716
1772641309124296700,3.781296630859375,0.7930167560845613,0.9454640835028141,-0.5333783797634766
1772641309134342700,3.7913427734375,0.6781605428487062,0.9145688867624848,-0.46034357522353525
1772641309144387800,3.801387939453125,0.5178419705986976,0.9140485161501913,-0.3800231071874499
1772641309154432800,3.811432861328125,0.2578933958172798,0.9525660975277424,-0.30106937919361515
1772641309164477700,3.821477783203125,-0.08579086227118969,0.9634316288046538,-0.2592300877811387
1772641309174523600,3.831523681640625,-0.4934405197918415,0.9137205993700772,-0.22780429129544644
1772641309184568600,3.841568603515625,-0.8695786022394895,0.8054747441846877,-0.24295940952505915
1772641309194613800,3.85161376953125,-1.0251175389975309,0.6482532611671835,-0.3225358907934278
1772641309204659700,3.86165966796875,-0.8686123875558376,0.531328205768019,-0.5742172802280634
1772641309214704600,3.87170458984375,-0.6049953533947467,0.3811393248010427,-0.7981969352014362
1772641309224749600,3.88174951171875,-0.3003232552677393,0.1989304808475077,-0.9039810764484107
1772641309234795500,3.89179541015625,0.02439560558795929,0.04768734158724546,-0.8824305580932646
1772641309244840700,3.9018408203125,0.3118985422492027,-0.043980376828089356,-0.7825818713098764
1772641309254885600,3.9118857421875,0.535460044875741,-0.10074468577504157,-0.645583822762221
1772641309264931600,3.921931640625,0.7392582778900861,-0.1800185673676431,-0.5132162104941904
1772641309274976800,3.931976806640625,0.8802934729993342,-0.1678149924200028,-0.36990386423319577
1772641309285021400,3.942021484375,0.7901537678688764,-0.013443345875665544,-0.20472048069210722
1772641309295066600,3.952066650390625,0.7735042463630437,0.0759651223707944,-0.10587189259566367
1772641309305112600,3.962112548828125,0.7153396421641111,0.12651033760719,-0.08381587240379303
1772641309315157800,3.97215771484375,0.602195493543148,0.18721388569921255,-0.09026598012493922
1772641309325202700,3.98220263671875,0.5638900205463171,0.271627395202592,-0.11058352261902764
1772641309335248600,3.99224853515625,0.5161445190310477,0.3148884447801858,-0.14064221373628824
1772641309345293800,4.0022939453125,0.4077028490126133,0.3211809690531343,-0.11296068181283771
1772641309355338500,4.01233837890625,0.3292787161171436,0.34832141636982555,-0.034516364645864814
1772641309365384700,4.022384765625,0.2234633029490709,0.3661700845323503,0.03431908850809559
1772641309375429600,4.0324296875,0.08255787169933318,0.35168168658316135,0.08326021128240972
1772641309385474600,4.042474609375,-0.018164017722010612,0.29799415473304686,0.12572170798014848
1772641309395520800,4.052520751953125,-0.05935819789767265,0.2457134209409356,0.13761110241208224
1772641309405565700,4.062565673828125,-0.10094809939265251,0.19795447542220354,0.15389979124888778
1772641309415610600,4.072610595703125,-0.12453180407583712,0.10788220950476825,0.1197624890484847
1772641309425655600,4.082655517578125,-0.15761398946642874,-0.01654109269529581,0.08903077577417716
1772641309435701500,4.092701416015625,-0.16624620873332022,-0.1671876543018967,0.08405875951526685
1772641309445746700,4.10274658203125,-0.09170154761970042,-0.267251591271162,0.07527878407444805
1772641309455791600,4.11279150390625,-0.04818623102009296,-0.36644064510203894,0.019844865214731545
1772641309465837800,4.122837890625,-0.041083705538511275,-0.4612921081200242,-0.09066223116721957
1772641309475882800,4.1328828125,0.009828735575079918,-0.5270408838376403,-0.1978690073621459
1772641309485927700,4.142927734375,0.0850578718215227,-0.6042318216763436,-0.2838128865042701
1772641309495973600,4.1529736328125,0.2143009223282337,-0.7051892003539949,-0.2994285897166468
1772641309506018600,4.1630185546875,0.29588498055934903,-0.7632775975115597,-0.3105919531626627
1772641309516063700,4.173063720703125,0.344649303728342,-0.8196354445494711,-0.29976953037511556
1772641309526108700,4.183108642578125,0.3072849109739065,-0.8543107443504036,-0.2828497405605391
1772641309536154600,4.193154541015625,0.26540917827486993,-0.8543442812938242,-0.27853381359018387
1772641309546199600,4.203199462890625,0.232583013471961,-0.8315010927796364,-0.312128770808503
1772641309556244700,4.21324462890625,0.20601532454192636,-0.7850398589212447,-0.31781448829472064
1772641309566290700,4.223290771484375,0.1393611244171858,-0.698541286772117,-0.3013631014431827
1772641309576335600,4.233335693359375,0.0651771133095026,-0.6302561244446784,-0.27334983508102595
1772641309586380800,4.243380859375,-0.006574117693305015,-0.535899824532494,-0.21692843955392016
1772641309596426800,4.2534267578125,-0.04866027827262878,-0.4452334651794284,-0.15154539187615737
1772641309606471400,4.263471435546875,-0.06675707597732544,-0.3358077525597066,-0.12912523281332106
1772641309616516600,4.2735166015625,-0.06126841543316841,-0.22130517506711184,-0.07301323202895
1772641309626561500,4.2835615234375,-0.037319969090819353,-0.12222937235236167,-0.029362413665500933
1772641309636607700,4.293607666015625,-0.0075134443700313564,-0.07348558051474392,-0.01259442829559557
1772641309646652700,4.303652587890625,0.002520458388328552,-0.0523592058558017,-0.05035239607803523
1772641309656697900,4.31369775390625,-0.009555179330706596,-0.02433876083418727,-0.09499210446453653
1772641309666743800,4.323743896484375,-0.0025607903987169265,-0.062387847917154425,-0.10597036626776679
1772641309676788500,4.33378857421875,-0.046879824596643443,-0.15908588864989578,-0.08028168866196647
1772641309686833700,4.343833740234375,-0.06510813972651958,-0.3327493148371577,-0.052936055895686146
1772641309696879600,4.353879638671875,-0.017965280279517173,-0.5040896318390965,-0.07530072191162035
1772641309706924800,4.3639248046875,-0.02561199564039707,-0.5671059869181364,-0.1554256491092965
1772641309716969700,4.3739697265625,-0.14316343930959702,-0.5677247764036059,-0.2175481971537694
1772641309727015700,4.384015625,-0.3517179269403219,-0.6093180388994515,-0.2680014963230118
1772641309737060600,4.394060546875,-0.5687666866719723,-0.579677006938681,-0.32504374542851
1772641309747105500,4.40410546875,-0.7024667165875434,-0.45647805890180165,-0.372736822636798
1772641309757151200,4.414151123046875,-0.772250446909666,-0.2797556104701012,-0.4057243154812604
1772641309767197200,4.424197265625,-0.8788198933154344,-0.03369856372326612,-0.37118586686775085
1772641309777241900,4.434241943359375,-1.0149860210835933,0.18651311701871454,-0.2789459197887219
1772641309787287000,4.444287109375,-1.1105892523169516,0.3783065125279128,-0.17100597048103808
1772641309797333000,4.4543330078125,-1.1614391495883465,0.6551012273658067,-0.16048207398233935
1772641309807378200,4.464378173828125,-1.215355448693037,0.7706066252253949,-0.0753703850477701
1772641309817423000,4.474423095703125,-1.1977373744159936,0.8564793205611407,0.01170340687315911
1772641309827469000,4.484468994140625,-1.0859060619592666,0.9111076403927058,0.04326968954177573
1772641309837514000,4.494513916015625,-0.8998317016839981,0.93379914547652,0.07245457523288205
1772641309847559000,4.504558837890625,-0.720220399942994,0.9449182861883193,0.06196049848371185
1772641309857604000,4.51460400390625,-0.5896516537904739,0.9807261702157556,0.05715004772837273
1772641309867650000,4.524650146484375,-0.4573153134435415,1.0028462320871652,0.018276574718393383
1772641309877695000,4.534695068359375,-0.35412966425716874,0.9956766327187418,0.021608723948942497
1772641309887740200,4.544740234375,-0.2250806750178337,0.947746933742985,0.00255544750331901
1772641309897786000,4.5547861328125,-0.04682312597334384,0.8995132833845912,-0.02121983422921039
1772641309907831000,4.5648310546875,0.17938158463835716,0.8698783158384263,-0.06863133628345094
1772641309917876000,4.5748759765625,0.38738194551765914,0.8437350628655403,-0.12200283358749002
1772641309927922000,4.584921875,0.61847325912714,0.831997644124925,-0.13517902556010522
1772641309937967000,4.594967041015625,0.7951122670590877,0.7857472765382378,-0.1258159804011695
1772641309948012000,4.605011962890625,0.9916793797761201,0.731692226549983,-0.04661080753006972
1772641309958058200,4.615058349609375,1.150723694306612,0.6708201169580221,0.012026743376278317
1772641309968103000,4.62510302734375,1.3332289639234542,0.6279477744370698,0.04954713041002396
1772641309978148000,4.635148193359375,1.4988859745919703,0.595407879229635,0.021873731560679153
1772641309988193000,4.645193115234375,1.6293880852490663,0.5496845311917364,-0.000841371311142575
1772641309998239000,4.655239013671875,1.6723913606733083,0.5349538489192724,-0.030666239972796754
1772641310008284200,4.6652841796875,1.66895671004951,0.5343538371995091,-0.06611370917302556
1772641310018329000,4.6753291015625,1.5613637658149002,0.5389772592164576,-0.051849484501685944
1772641310028375000,4.685375,1.4743372242689132,0.5704913185074925,0.007706591180310351
1772641310038420000,4.695419921875,1.3817068713665008,0.6207749601982534,0.08115479083522223
1772641310048465000,4.70546484375,1.341918466335535,0.6725703216262161,0.15151604705066418
1772641310058511000,4.715510986328125,1.3296645494401453,0.7305003133516759,0.22320004890300332
1772641310068556000,4.72555615234375,1.2909674467772245,0.7783100392095744,0.2947569081111811
1772641310078601200,4.735601318359375,1.1174825189620257,0.7958817170616239,0.3426156790088862
1772641310088647200,4.745647216796875,0.8528490012347698,0.7766118569895625,0.3445329838722944
1772641310098691800,4.75569189453125,0.5674830766022205,0.7362940943222492,0.28412429054100063
1772641310108737000,4.765737060546875,0.33272388813495635,0.6762369543749839,0.22108126665074376
1772641310118782000,4.775781982421875,0.1300397538423538,0.5529986972410231,0.18285295054335146
1772641310128828200,4.785828125,-0.04309679892659187,0.5019475052438676,0.03228820373499766
1772641310138873000,4.795873046875,-0.22600714221298693,0.44376521925777196,-0.12981553489873185
1772641310148918000,4.80591796875,-0.3792500769883394,0.3504736259676516,-0.25948424520529806
1772641310158964000,4.8159638671875,-0.4907283382236957,0.2675546658709645,-0.37396990809570996
1772641310169009000,4.8260087890625,-0.6126987673789263,0.17283070169016718,-0.43389907428175206
1772641310179054000,4.83605419921875,-0.6931038449585437,0.09349314374420792,-0.4747435642369091
1772641310189100000,4.84610009765625,-0.7287567576199769,0.001250292322039604,-0.46705023325532674
1772641310199145000,4.85614501953125,-0.6791629978895187,-0.07642831943575293,-0.4458724572027102
1772641310209190100,4.866190185546875,-0.5347825840055942,-0.13045498357973992,-0.43025523788668213
1772641310219234800,4.87623486328125,-0.3998153106331825,-0.19428057268243282,-0.431172571927309
1772641310229281000,4.886281005859375,-0.2274900742471218,-0.25031934383381155,-0.3965450933234766
1772641310239326000,4.896325927734375,-0.09016367052793502,-0.3083158249242231,-0.34972178468704224
1772641310249371100,4.90637109375,0.04273907153010368,-0.32042134632486846,-0.31805293669309465
1772641310259417000,4.9164169921875,0.17635434577167033,-0.3626495822560042,-0.22195171107603237
1772641310269462000,4.9264619140625,0.2682277428269386,-0.37981815919987855,-0.1549895227143541
1772641310279507000,4.9365068359375,0.35038112537860866,-0.37069172667525707,-0.0813005833809264
1772641310289553000,4.946552978515625,0.39518355917930603,-0.36455084930006415,-0.009011966698942706
1772641310299598000,4.95659814453125,0.40652737549245355,-0.3636981779934838,0.05737101526898332
1772641310309643000,4.96664306640625,0.35359248864054676,-0.3594221811747178,0.11448418331937864
1772641310319688200,4.976688232421875,0.22468203108906745,-0.36619130998346955,0.12915675132959148
1772641310329734100,4.986734130859375,0.09637596917152404,-0.37841654877364633,0.11593123118937947
1772641310339779000,4.996779052734375,-0.025823592564463614,-0.3578108369879424,0.048655136306630445
1772641310349824000,5.006823974609375,-0.07520575537085533,-0.3414444432724267,-0.01565287515129894
1772641310359870000,5.016869873046875,-0.07198913141191006,-0.32113822588995095,-0.032373196871019895
1772641310369915100,5.0269150390625,-0.1582481957167387,-0.320332462465018,-0.009995105117931962
1772641310379960000,5.0369599609375,-0.135582190400362,-0.34769890055730934,0.07802508710790425
1772641310390006000,5.047006103515625,-0.08348901506960392,-0.4056517982343211,0.274234983885102
1772641310400051200,5.05705126953125,0.04774491699337959,-0.47229858223758636,0.4705589720286429
1772641310410095900,5.067095947265625,0.18260872999131678,-0.5075395896298811,0.6082201606601476
1772641310420141800,5.077141845703125,0.26398586747348307,-0.5168760847086087,0.6668922759898006
1772641310430187000,5.08718701171875,0.28666882392466064,-0.5329828411072493,0.7095552866090089
1772641310440232000,5.09723193359375,0.29770342815816403,-0.5452671531409025,0.6932183381836861
1772641310450277000,5.107277099609375,0.2798971378326416,-0.5199105205010622,0.6592724486358463
1772641310460323000,5.117322998046875,0.23747312360107897,-0.5004884655419737,0.6349179787758737
1772641310470368300,5.1273681640625,0.2334375844746828,-0.46509208492487664,0.5954593902211636
1772641310480413000,5.137412841796875,0.250778010854125,-0.4378374366439879,0.5606485544070601
1772641310490459000,5.147458984375,0.27304011154472824,-0.4302103027664125,0.5158731912763789
1772641310500504000,5.157504150390625,0.2638753928363323,-0.42090960965342816,0.45393480415977533
1772641310510549000,5.167549072265625,0.19796528907716274,-0.4211894495081156,0.39564003424253313
1772641310520595200,5.17759521484375,0.08347031036913394,-0.3903889453139156,0.35911048487704245
1772641310530640100,5.18764013671875,-0.12404781995117664,-0.3477349217187613,0.30930848922338333
1772641310540685000,5.19768505859375,-0.37358898248672484,-0.31417934666275976,0.26292452185228465
1772641310550730000,5.20772998046875,-0.5948217499047518,-0.29961897945590316,0.2307467379555106
1772641310560776000,5.21777587890625,-0.7386065359830856,-0.31303024969287213,0.1682626265896484
1772641310570821000,5.227821044921875,-0.7352630707740784,-0.2864493359550834,0.05924413393079303
1772641310580866000,5.237865966796875,-0.6486801813423633,-0.308842223418504,0.001369863581098616
1772641310590912000,5.247912109375,-0.5635509978502988,-0.3712855278499424,-0.01110836815603543
1772641310600957000,5.25795703125,-0.5785147582262754,-0.4877773063983768,0.03334463115248363
1772641310611001900,5.268001953125,-0.5914198325067758,-0.670334890724346,0.053686874262988564
1772641310621048000,5.278048095703125,-0.588970685788989,-0.7538220060978085,-0.031518488870980216
1772641310631093000,5.288093017578125,-0.5826449898988009,-0.7479445654317736,-0.09271155577930622
1772641310641138200,5.29813818359375,-0.6437766272097826,-0.8129206032112241,0.00886756239272654
1772641310651183000,5.30818310546875,-0.627082097518444,-0.83201875997819,0.11532638803087174
1772641310661229000,5.31822900390625,-0.4926590140253305,-0.5978154518280178,0.03908227518876083
1772641310671274000,5.32827392578125,-0.36339725881814955,-0.2660931419510394,-0.11693606998352334
1772641310681319000,5.33831884765625,-0.3784294082552194,-0.035488369749486444,-0.2107763649312779
1772641310691365000,5.348365234375,-0.48214404975175856,0.1963002784743905,-0.2807229941975325
1772641310701410000,5.35841015625,-0.7008195339024067,0.42758521495983004,-0.23752204077672212
1772641310711455200,5.368455322265625,-0.8160410733193159,0.6581942249450832,-0.10131536180246621
1772641310721501200,5.378501220703125,-1.021461939099431,0.7808872692864388,0.00838642781227827
1772641310731545900,5.3885458984375,-1.1629688433736562,0.8698227862589061,-0.008603723824769259
1772641310741591000,5.398591064453125,-1.2814713041573762,0.8993888532873242,-0.10201655060807242
1772641310751637000,5.408636962890625,-1.2596890959382057,0.8354338291186839,-0.26308137464812026
1772641310761682400,5.418682373046875,-1.1590157218337058,0.7688361814867705,-0.512853879987821
1772641310771727600,5.4287275390625,-0.9708633862406015,0.5979711538463831,-0.6413387325383723
1772641310781772300,5.438772216796875,-0.6292518427729606,0.4927938193861395,-0.7009434525430203
1772641310791818500,5.448818603515625,-0.1952080993235111,0.45222792717665433,-0.6285021203842014
1772641310801863400,5.458863525390625,0.2970230446785688,0.4193509089693427,-0.49738735772147774
1772641310811908600,5.46890869140625,0.7914332862854003,0.43812765176221724,-0.3987046094449237
1772641310821954600,5.47895458984375,1.1852344511955977,0.4256602382466197,-0.2943655707060359
1772641310831999500,5.48899951171875,1.5515905598193407,0.4641371222876012,-0.18300565688703208
1772641310842044700,5.499044677734375,1.8329735522955655,0.5699354381904006,-0.13178599472148342
1772641310852090600,5.509090576171875,1.9122306288838384,0.6453028138637542,-0.14019285340043716
1772641310862135300,5.51913525390625,1.9033838900834321,0.6653177201494574,-0.16994104466326534
1772641310872180500,5.529180419921875,1.8748276576846836,0.6255310686841606,-0.23905491289980707
1772641310882225400,5.539225341796875,1.7383482261836527,0.6032983402185141,-0.3520574245603755
1772641310892271600,5.549271728515625,1.6974813782662153,0.597357698123157,-0.4793371025722474
1772641310902316500,5.559316650390625,1.7032605461895465,0.5865609942987561,-0.5845940050747245
1772641310912361500,5.569361572265625,1.6671347553193567,0.590863659928739,-0.6692027448892593
1772641310922407400,5.579407470703125,1.5824007086247205,0.62330374802351,-0.7247925301641225
1772641310932452400,5.589452392578125,1.43542034137547,0.7171687572874128,-0.7468209682293235
1772641310942497500,5.59949755859375,1.2442255693465472,0.859829361641407,-0.6819294669281691
1772641310952543500,5.60954345703125,0.9433791669875383,1.043419357755035,-0.6275119403030723
1772641310962588700,5.619588623046875,0.5981815817266702,1.156581772685051,-0.5452910454731434
1772641310972633600,5.629633544921875,0.11430676265954971,1.2227632407315074,-0.45171040610857305
1772641310982679600,5.639679443359375,-0.40184827776551246,1.2458556547664106,-0.3621080227252096
1772641310992724500,5.649724365234375,-0.7213204701393843,1.2357805432148277,-0.27434655450079587
1772641311002769400,5.659769287109375,-0.9184516464799642,1.155852654692903,-0.2413349501283839
1772641311012814600,5.669814697265625,-0.935721930232644,1.0112906736969947,-0.3215212703907862
1772641311022860500,5.679860595703125,-0.7802665801048279,0.8086471636757254,-0.4322256246441975
1772641311032905500,5.689905517578125,-0.5449731386303901,0.605557590387389,-0.5172027959123253
1772641311042950400,5.699950439453125,-0.2327618771702051,0.3760022541735321,-0.5169664298731833
1772641311052996400,5.709996337890625,0.0880383489370346,0.12340543039441108,-0.48312129728607833
1772641311063041500,5.72004150390625,0.40445758348107336,-0.07134374618045985,-0.4458982126984745
1772641311073086500,5.73008642578125,0.7775427080988884,-0.19876798376217483,-0.42217590326219795
1772641311083132400,5.74013232421875,0.9412415704369544,-0.26447591601274906,-0.4254369508847594
1772641311093177600,5.750177490234375,0.8866431342869997,-0.25233627314679324,-0.4453839795660227
1772641311103222300,5.76022216796875,0.7090536937624216,-0.21522738952338694,-0.42297107222788033
1772641311113267500,5.770267333984375,0.46094227176904673,-0.17501630210094152,-0.3944887818481773
1772641311123313400,5.7803134765625,0.2699450681388378,-0.09378566041737794,-0.38433446758054196
1772641311133358600,5.790358642578125,0.1861111851543188,-0.011199366341158748,-0.3482317653249949
1772641311143403500,5.800403564453125,0.1413075823098421,0.021101678609102965,-0.26917083236332984
1772641311153449500,5.810449462890625,0.04790273790359497,0.05680551774017512,-0.20512001967001706
1772641311163494700,5.82049462890625,-0.007950666743516922,0.07594225295186043,-0.12455191528210416
1772641311173539300,5.830539306640625,-0.05515548551082611,0.07906988345310091,-0.023648751009721306
1772641311183585300,5.840585205078125,-0.0977460884809494,0.061859513194113966,0.05015356730399653
1772641311193630500,5.85063037109375,-0.06039923138320446,0.015937573844194412,0.10210621991921216
1772641311203675400,5.86067529296875,-0.05681669672131538,-0.06245806360915303,0.1357144750105217
1772641311213721600,5.8707216796875,-0.03683247783482074,-0.14889602814484387,0.07757727027516811
1772641311223766500,5.8807666015625,-0.033247605085372924,-0.2424316958565265,0.015464220711402594
1772641311233811500,5.8908115234375,-0.03213292184174061,-0.3585867167312652,-0.05247567184232175
1772641311243856400,5.9008564453125,-0.03359247300028801,-0.4687587542062625,-0.10098382829315959
1772641311253902300,5.91090234375,-0.05915712236762046,-0.5484439565461129,-0.12222502497080713
1772641311263947500,5.920947509765625,-0.08965805909335613,-0.604149805948697,-0.15067706634271888
1772641311273992400,5.930992431640625,-0.07611819404065609,-0.6595015812166035,-0.15119981157518922
1772641311284038700,5.94103857421875,-0.034976036313176154,-0.7253443188279867,-0.18932492303643375
1772641311294083600,5.95108349609375,-0.020984920361638067,-0.7547150824800133,-0.25291648418754337
1772641311304128500,5.96112841796875,-0.0019569792866706848,-0.7530097398668527,-0.3209589603329077
1772641311314174500,5.971174560546875,-0.0013747954845428467,-0.7396591868411749,-0.35685138083864
1772641311324219400,5.981219482421875,-0.031954642665386196,-0.7194361176975071,-0.352697037638165
1772641311334264600,5.9912646484375,-0.026921909195184706,-0.6884061886616051,-0.33591903091445563
1772641311344309500,6.0013095703125,-0.07565934435725212,-0.6346213339168578,-0.3163559965820983
1772641311354355500,6.01135546875,-0.142165660443902,-0.5518807991269976,-0.29460695998016745
1772641311364400400,6.021400390625,-0.19460487273335456,-0.48216216993033884,-0.2883581652510911
1772641311374445300,6.0314453125,-0.2112391966700554,-0.43833442638069386,-0.2560863098626956
1772641311384491500,6.041491455078125,-0.20238602812886236,-0.41893370647057887,-0.26385935501698404
1772641311394536400,6.051536376953125,-0.22251462392210958,-0.3684467242274433,-0.3168806415107101
1772641311404581600,6.06158154296875,-0.29104221670329566,-0.3224142371751368,-0.37899854991268367
1772641311414627600,6.071627685546875,-0.3823836988389492,-0.30445261015743014,-0.4142090160362422
1772641311424672500,6.081672607421875,-0.426467170715332,-0.3003922288507223,-0.4375649398455396
1772641311434717400,6.091717529296875,-0.4295470165520906,-0.2976936374165118,-0.37830384564679115
1772641311444762400,6.101762451171875,-0.3682692487686872,-0.35404805038832127,-0.3034336789058521
1772641311454808600,6.11180859375,-0.3456739706009626,-0.45888314728215335,-0.2166791227016598
1772641311464853500,6.121853515625,-0.32279519931674,-0.5495470954824239,-0.19349541365411133
1772641311474898700,6.131898681640625,-0.3836374982923269,-0.5543720314208418,-0.25833788818176834
1772641311484944600,6.141944580078125,-0.5059709155410528,-0.483478147899732,-0.2799153310764581
1772641311494989300,6.1519892578125,-0.6942991922229528,-0.402273371309787,-0.23052841902971266
1772641311505034500,6.162034423828125,-0.8526122698694467,-0.33445027353614565,-0.12787888601403682
1772641311515080400,6.17208056640625,-0.9416460595846176,-0.23703904303275047,-0.027557101826183497
1772641311525125400,6.18212548828125,-0.888257583746314,-0.10356821876317263,0.05342318182550371
1772641311535170600,6.192170654296875,-0.8068249166846275,0.01013794765472412,0.10915628456119447
1772641311545216500,6.202216552734375,-0.6853793881863355,0.10190247750803828,0.18093367291856555
1772641311555261400,6.212261474609375,-0.5390379033625126,0.21247633724957704,0.1967499219380319
1772641311565306400,6.222306396484375,-0.400289942407608,0.39321138232350344,0.11151753379981964
1772641311575351600,6.2323515625,-0.3998632414281368,0.5519587597340345,0.038528906489163635
1772641311585397500,6.2423974609375,-0.5111684841841458,0.7496855638802051,-0.035044096580706535
1772641311595442400,6.2524423828125,-0.7171347088873385,1.008698465246707,-0.06844824393466115
1772641311605487600,6.262487548828125,-0.978428853058815,1.203631985412538,-0.05027976923324167
1772641311615533600,6.272533447265625,-1.1516928315997124,1.3499348917916416,0.03324318463858217
1772641311625578500,6.28257861328125,-1.2052438045233487,1.405883719637245,0.1273610361523926
1772641311635623400,6.29262353515625,-1.1717314110219479,1.424648187470436,0.21001502516996115
1772641311645669400,6.30266943359375,-0.9587240356355905,1.4301917930722237,0.23642029007989912
1772641311655714600,6.312714599609375,-0.6631167029738426,1.438089268323779,0.19381814280245452
1772641311665759500,6.322759521484375,-0.33687107094228264,1.3982606774128972,0.12565646072421222
1772641311675804400,6.332804443359375,-0.009383914417028426,1.3037388116754591,0.04327562609221786
1772641311685850400,6.342850341796875,0.29764906762242316,1.1886651562966406,0.010188435732945799
1772641311695895600,6.3528955078125,0.5973194119393825,1.0806631928697228,0.019517587755434215
1772641311705940500,6.3629404296875,0.9542752395331859,0.974828344348818,0.06740867175385355
1772641311715986400,6.372986328125,1.3413953192442656,0.8745924848787486,0.12487915620878338
1772641311726031600,6.383031494140625,1.599477515631914,0.7700887388311326,0.23861053013317285
1772641311736076500,6.39307666015625,1.8348709103494882,0.7022511741407215,0.3187809952393174
1772641311746122500,6.40312255859375,2.020631382369995,0.6311031697280705,0.4416953176485374
1772641311756167200,6.413167236328125,2.1002695672303435,0.5241479388751089,0.5317858498750254
1772641311766212400,6.42321240234375,2.1135633485674856,0.4590604035452008,0.5412153935320675
1772641311776257000,6.433257080078125,2.0486241356670853,0.39458822363466023,0.5305230633975938
1772641311786303000,6.443302978515625,1.8864117124944924,0.41832507305294275,0.4662980266485363
1772641311796348200,6.45334814453125,1.6396715788543224,0.5069624107964337,0.3588420431992039
1772641311806393000,6.46339306640625,1.4450012396693228,0.5910644431978463,0.3254463714126497
1772641311816439000,6.47343896484375,1.2430121019035576,0.6849331057235598,0.32143516300991176
1772641311826484200,6.483484130859375,1.0618623385488986,0.8149939023539423,0.3506788296835497
1772641311836529000,6.49352880859375,0.8517436703413724,0.9149053521752357,0.38331469607874746
1772641311846575000,6.5035751953125,0.6064321081995964,0.9656700553812086,0.4784468757342547
1772641311856620000,6.5136201171875,0.3789940564006567,0.9639695350736379,0.5597854347717016
1772641311866665200,6.523665283203125,0.1812187369376421,0.9559967295635491,0.5960089138627052
1772641311876711200,6.533711181640625,0.004615384840965271,0.9356377590805292,0.5992459595551713
1772641311886756000,6.543756103515625,-0.24135259538292883,0.8614397925127297,0.5787914562758057
1772641311896801000,6.553801025390625,-0.5219827236652373,0.7406839267790317,0.5012265705581754
1772641311906846000,6.563845947265625,-0.730401602217555,0.5906740556407719,0.3683554292147979
1772641311916892200,6.57389208984375,-0.7452081262052058,0.4314540922824293,0.19618918278273195
1772641311926937000,6.58393701171875,-0.5251671989202499,0.2377433919098228,-0.0005635521668940782
1772641311936982300,6.593982177734375,-0.309079977697134,0.09456022498644888,-0.15899368032179773
1772641311947028200,6.6040283203125,-0.20156711296141147,-0.05620053758434951,-0.24038977823276073
1772641311957073200,6.6140732421875,-0.1632230615198612,-0.17841142443194985,-0.28652612751834095
1772641311967118000,6.6241181640625,-0.1282020170211792,-0.2593304428830743,-0.33792883636690674
1772641311977164000,6.6341640625,-0.10026537782549858,-0.323264789589867,-0.3860833936071023
1772641311987209000,6.644208984375,-0.010203414106369019,-0.38198563943207264,-0.4156957839952782
1772641311997254100,6.654254150390625,0.061650108227133744,-0.4313411334272474,-0.39827633756287395
1772641312007299000,6.664299072265625,0.13643559235930441,-0.46716377663239833,-0.36896190720796584
1772641312017345300,6.67434521484375,0.1855623190999031,-0.5128142786297947,-0.3112274015219882
1772641312027390000,6.684389892578125,0.24721125828325746,-0.5479827687751502,-0.24048991413898765
1772641312037435100,6.69443505859375,0.30197745221555233,-0.560517840699479,-0.1933312360683456
1772641312047481000,6.704481201171875,0.35728315985202785,-0.5584777131740003,-0.11826222228705882
1772641312057526000,6.714526123046875,0.40971711144447326,-0.567052430099994,-0.013749288285989314
1772641312067571200,6.7245712890625,0.38850188945829867,-0.5426327860493213,0.10457829085486009
1772641312077617200,6.7346171875,0.3933008141726255,-0.46046617868989703,0.15286208223160355
1772641312087662300,6.744662353515625,0.3091366763204336,-0.41147995639853174,0.19366455967593937
1772641312097707000,6.75470703125,0.2518155372083187,-0.38138708901703355,0.23137407607361674
1772641312107752200,6.764752197265625,0.22042554268836972,-0.38189153140783305,0.2969643915602006
1772641312117798100,6.774798095703125,0.1625175435990095,-0.3887153860785067,0.37302283650394524
1772641312127843000,6.784843017578125,0.04267769673168659,-0.38063678210638463,0.37934484259970486
1772641312137888300,6.79488818359375,-0.09040040189325808,-0.39887496104314923,0.33664771051518616
1772641312147934200,6.804934326171875,-0.14611410580873488,-0.446522920468077,0.30784488294422624
1772641312157979100,6.814979248046875,-0.06889876418113708,-0.5330768030010163,0.33151674083489924
1772641312168024000,6.825024169921875,0.05663958658874035,-0.6429987747050822,0.3037701808512211
1772641312178070000,6.835070068359375,0.09675649292171001,-0.7819874856133013,0.273789669536706
1772641312188115200,6.845115234375,0.09546119241416454,-0.891223228618875,0.2737520957389846
1772641312198160100,6.85516015625,0.10953764856159687,-0.9340876070290803,0.26413009824976325
1772641312208205300,6.865205322265625,0.10416530787348746,-0.9659572748247534,0.26358579877261074
1772641312218251300,6.875251220703125,0.1161462530463934,-0.9562992927066981,0.2932275065868161
1772641312228296000,6.8852958984375,0.12243512405753135,-0.9348888404093683,0.3904668693883344
1772641312238341000,6.895341064453125,0.11239362251460551,-0.8692246742352843,0.45590530051514505
1772641312248387000,6.905386962890625,0.02818915265202522,-0.7957683198150247,0.5419171485932543
1772641312258432300,6.915432373046875,-0.028465631505846977,-0.7219828065056353,0.5886926725652069
1772641312268477200,6.925477294921875,-0.02629647077322006,-0.6558027266986668,0.6044335913261398
1772641312278523100,6.935523193359375,-0.007619242832064628,-0.6215251940436661,0.5990293211298063
1772641312288568000,6.945568115234375,0.008892916029691696,-0.6273809343345463,0.5557913966994732
1772641312298613000,6.955613037109375,-0.02627250537574291,-0.6134015818860381,0.47494358032103623
1772641312308658200,6.965658203125,-0.07678688708245754,-0.5763342723820358,0.4054158705865964
1772641312318704000,6.9757041015625,-0.16694938856661318,-0.5548125417299569,0.33226160438545044
1772641312328749000,6.9857490234375,-0.3491249878376722,-0.5498063309404999,0.2632665950219147
1772641312338794200,6.995794189453125,-0.546778726747632,-0.6069972678016871,0.2713342940075323
1772641312348840000,7.00583984375,-0.5932569848060607,-0.7686389784142375,0.3358551718980074
1772641312358885000,7.015885009765625,-0.5270423451423645,-0.8805558502625673,0.31315047853905703
1772641312368930000,7.025929931640625,-0.48030514388680456,-0.8833768259674311,0.19047398347370326
1772641312378976000,7.03597607421875,-0.5555898097127676,-0.8490773737415671,0.07708275562333874
1772641312389021200,7.046021240234375,-0.7280524087429047,-0.7892870680369436,-0.029040919776307416
1772641312399066000,7.056066162109375,-0.8500432961642742,-0.6704176736369729,-0.11489695623819715
1772641312409112300,7.0661123046875,-0.9493903901010751,-0.3914332667350769,-0.23531318735452367
1772641312419157000,7.076156982421875,-1.0611755253285169,-0.07110087733529508,-0.3017389307519421
1772641312429202200,7.0862021484375,-1.099838725721836,0.1699333728134632,-0.24682149178069082
1772641312439247000,7.0962470703125,-1.0630097550183535,0.3225303378354758,-0.0647231407306157
1772641312449293000,7.10629296875,-0.8791349506139755,0.45074799081720407,0.0913255082483869
1772641312459338200,7.116338134765625,-0.6492495056629181,0.5260049649186432,0.11884525547255761
1772641312469383000,7.1263828125,-0.4226683629542589,0.5793449985053389,0.05270360797983594
1772641312479429000,7.13642919921875,-0.23350012831687925,0.5702905352383851,-0.04328802891606465
1772641312489474000,7.14647412109375,-0.2033563344657421,0.5448803457804023,-0.1637749780478887
1772641312499519200,7.156519287109375,-0.17930442774891853,0.5675265504177659,-0.2955888836896047
1772641312509565200,7.166565185546875,-0.13343874863088132,0.6439339366633444,-0.3986871833860874
1772641312519610000,7.176610107421875,-0.023919220247864723,0.727784624652192,-0.43473603656254706
1772641312529655300,7.1866552734375,0.1538292102307081,0.7606894076492637,-0.36833427682891484
1772641312539700000,7.196699951171875,0.33669805246293544,0.8045208044607192,-0.267490368463099
1772641312549746000,7.206745849609375,0.4903507370829582,0.86580112952739,-0.20410408409312367
1772641312559791000,7.216791015625,0.7178168459326029,0.8526625387519597,-0.15223306361306457
1772641312569836000,7.2268359375,0.8816822970092296,0.949906376799196,-0.06946838076263666
1772641312579882200,7.23688232421875,0.9638596449583768,0.9840838100805878,0.02219825994046405
1772641312589927200,7.24692724609375,1.0218751960754393,0.9460996779926121,0.07372412024466321
1772641312599972000,7.25697216796875,1.0519523544311522,0.9459545704334974,0.07514027065290138
1772641312610018000,7.26701806640625,1.0813245793879032,0.9167594556093216,0.05409963804865256
1772641312620063000,7.27706298828125,1.0884048930376768,0.8797039826735854,0.058248300427012144
1772641312630108200,7.287108154296875,1.0303998633146285,0.8368722644239663,0.09973238519364967
1772641312640153000,7.297153076171875,0.9624000937998294,0.8653305894061922,0.13370890734177082
1772641312650199300,7.30719921875,0.9037713792204857,0.9186420544855296,0.12968348775058983
1772641312660244200,7.317244140625,0.8305079900890588,0.9685542325153946,0.07796820582151412
1772641312670289200,7.3272890625,0.755726597610116,0.9891897549174725,0.030359756423067298
1772641312680335000,7.337335205078125,0.7012006421744823,1.0371668732315302,0.010170918342564254
1772641312690380000,7.347380126953125,0.7175228314220905,1.0818497723057865,-0.019758045447804032
1772641312700425200,7.35742529296875,0.6942044996768236,1.1275704899951815,-0.08118092079032212
1772641312710471200,7.36747119140625,0.6049228726804257,1.1077187383819371,-0.07520438539767638
1772641312720516000,7.37751611328125,0.478538134214282,1.2194623725552112,-0.23860559822972863
1772641312730561000,7.38756103515625,0.21707155608534812,1.2705188252493738,-0.40037528260350225
1772641312740607000,7.39760693359375,-0.08284136481583118,1.132781721837446,-0.43876156575158237
1772641312750652200,7.407652099609375,-0.25195406889617444,1.0372886729802935,-0.5284226570522412
1772641312760696800,7.41769677734375,-0.4013981959104538,0.9638500734124332,-0.5812858303748071
1772641312770742000,7.427741943359375,-0.49202188516557216,0.8717700478691607,-0.5536510967351496
1772641312780788000,7.4377880859375,-0.5689782835960387,0.7552757851026952,-0.4491954641455784
1772641312790832600,7.44783251953125,-0.5809142205834389,0.6471969570472836,-0.3952048942282796
1772641312800877800,7.4578779296875,-0.4330933108568191,0.552362006772682,-0.3848270368704572
1772641312810923800,7.467923828125,-0.216588741004467,0.45976131835617123,-0.3355541796574369
1772641312820969000,7.477968994140625,-0.05904021798968315,0.2697411430645734,-0.241635796238482
1772641312831014000,7.488013916015625,0.13578151236474514,0.11269172867834568,-0.19373539642244575
1772641312841059000,7.49805908203125,0.24314766210615635,0.03673676237538457,-0.1832588644631207
1772641312851105000,7.50810498046875,0.35517478939592834,-0.024126944714412093,-0.15846114434767514
1772641312861149700,7.518149658203125,0.3810936590284109,-0.06866546688191592,-0.1653669416807592
1772641312871195000,7.52819482421875,0.39213995369970794,-0.07074811837486922,-0.14706068421015514
1772641312881240800,7.53824072265625,0.43311902981996536,-0.07759162759408354,-0.0967756542799063
1772641312891286000,7.5482861328125,0.4597311424136162,-0.09223923469297587,-0.07326430244687944
1772641312901331000,7.5583310546875,0.4610322881400585,-0.07931428666822612,-0.057446701720543204
1772641312911377000,7.568376953125,0.4299561818748712,-0.04445924638621509,-0.06004970555948093
1772641312921421800,7.578421875,0.4118237283349037,-0.016574994964897633,-0.050043786786589765
1772641312931466800,7.588466796875,0.3193418439924717,0.00015950141064822673,-0.02411943726139143
1772641312941512700,7.5985126953125,0.26875790418088435,0.038489597392082214,0.0017664068843238055
1772641312951558000,7.608557861328125,0.2524339613676071,0.09303659561574458,-0.010009681632556021
1772641312961602800,7.618602783203125,0.2029810714125633,0.10773388707526027,-0.07856372402925044
1772641312971648000,7.62864794921875,0.09273381327688693,0.08164163363724947,-0.15088327470561488
1772641312981693700,7.638693603515625,-0.06045885261595249,0.006872516117990017,-0.15981995681179686
1772641312991739000,7.64873876953125,-0.0014081132322549819,-0.01774045854769647,-0.23178415471184996
1772641313001783800,7.65878369140625,0.08682488149404526,-0.05174326591454446,-0.1998363071134314
1772641313011829800,7.668829833984375,0.22278642660081385,-0.09740765030682086,-0.24854089945182203
1772641313021875000,7.678875,0.2309621342718601,-0.14646204246357084,-0.328309505758807
1772641313031919900,7.688919921875,0.2586550278395414,-0.18858700068332254,-0.2889331886600703
1772641313041966000,7.698966064453125,0.15835516322255133,-0.15557788052894175,-0.26939167203977704
1772641313052010800,7.7090107421875,0.12008359249532222,-0.1387509566295892,-0.3291265212301165
1772641313062056000,7.719055908203125,0.09054536332190036,-0.21043628278933466,-0.29209883135044945
1772641313072100900,7.729100830078125,0.12788929781019687,-0.2554306589655578,-0.2748800037903711
1772641313082146800,7.739146728515625,0.21158990980386733,-0.31623627919256686,-0.27565807549078014
1772641313092192000,7.74919189453125,0.13231179042756558,-0.3564244241308421,-0.3042354054764844
1772641313102236700,7.759236572265625,-0.02149403892755508,-0.41387437725439663,-0.36875937037318945
1772641313112283000,7.769282958984375,-0.06417232018113136,-0.4719347173612565,-0.4274512133166194
1772641313122327800,7.779327880859375,-0.13901450293660164,-0.5624389449551701,-0.47250181319210677
1772641313132372700,7.789372802734375,-0.21353227604329586,-0.533604480136931,-0.4494568184955045
1772641313142419000,7.7994189453125,-0.2203530619740486,-0.496216048919782,-0.38425953918080774
