time,seconds_elapsed,z,y,x
1772641305417579800,0.074579833984375,-0.1894896775484085,0.043654169887304306,-0.08759051561355591
1772641305427625700,0.084625732421875,-0.19116781651973724,0.032350312918424606,-0.08462020754814148
1772641305437670700,0.094670654296875,-0.19153666496276855,0.019522130489349365,-0.0816851407289505
1772641305447715600,0.104715576171875,-0.19005370140075684,0.0032825737725943327,-0.07334654778242111
1772641305457761500,0.114761474609375,-0.18919456005096436,-0.003987323492765427,-0.05990903824567795
1772641305467806500,0.124806396484375,-0.18883521854877472,-0.012288798578083515,-0.04210459068417549
1772641305477851600,0.1348515625,-0.18674622476100922,-0.022006139159202576,-0.015961935743689537
1772641305487897600,0.144897705078125,-0.1835268884897232,-0.032830290496349335,0.02054481953382492
1772641305497942800,0.15494287109375,-0.180293008685112,-0.04700256884098053,0.05562743544578552
1772641305507987500,0.164987548828125,-0.18787826597690582,-0.06123490259051323,0.08645566552877426
1772641305518033400,0.175033447265625,-0.19741877913475037,-0.06471353024244308,0.1086062416434288
1772641305528078600,0.18507861328125,-0.20721615850925446,-0.06922505050897598,0.1233968660235405
1772641305538123500,0.19512353515625,-0.22179536521434784,-0.07820309698581696,0.1303916573524475
1772641305548168700,0.205168701171875,-0.24100951850414276,-0.09308511018753052,0.12480335682630539
1772641305558214700,0.215214599609375,-0.26140639185905457,-0.09658557176589966,0.10290178656578064
1772641305568259800,0.225259765625,-0.2740964889526367,-0.08997433632612228,0.06504727154970169
1772641305578304500,0.235304443359375,-0.283638596534729,-0.07988175749778748,0.017612110823392868
1772641305588350500,0.2453505859375,-0.2848952114582062,-0.06333620101213455,-0.0351855494081974
1772641305598395600,0.255395751953125,-0.2800365388393402,-0.03436899930238724,-0.08023425191640854
1772641305608440600,0.265440673828125,-0.2683973014354706,0.009734814055263996,-0.1127699688076973
1772641305618486500,0.275486572265625,-0.25089898705482483,0.05377897247672081,-0.13812220096588135
1772641305628531700,0.28553173828125,-0.2392052710056305,0.10902158170938492,-0.14600934088230133
1772641305638576400,0.295576416015625,-0.2294144332408905,0.15320394933223724,-0.14669270813465118
1772641305648622600,0.30562255859375,-0.22211821377277374,0.17940780520439148,-0.14820364117622375
1772641305658667500,0.31566748046875,-0.21095184981822968,0.1808222085237503,-0.14372047781944275
1772641305668712700,0.325712646484375,-0.19646643102169037,0.16487891972064972,-0.12424564361572266
1772641305678758700,0.335758544921875,-0.18718931078910828,0.13531330227851868,-0.09105467051267624
1772641305688803600,0.345803466796875,-0.18189744651317596,0.0866936445236206,-0.0464695505797863
1772641305698848800,0.355848876953125,-0.18469803035259247,0.021090930327773094,0.0025986596010625362
1772641305708893400,0.3658935546875,-0.19282734394073486,-0.04645848646759987,0.050530195236206055
1772641305718939600,0.375939697265625,-0.21186333894729614,-0.08829648047685623,0.09363158792257309
1772641305728984600,0.385984619140625,-0.22722728550434113,-0.09611126035451889,0.13201355934143066
1772641305739029800,0.39602978515625,-0.2508569657802582,-0.09789371490478516,0.15866167843341827
1772641305749074700,0.40607470703125,-0.2716337740421295,-0.1001235768198967,0.16736486554145813
1772641305759120000,0.416119873046875,-0.2935579717159271,-0.1097349226474762,0.15967577695846558
1772641305769164800,0.426164794921875,-0.3090306222438812,-0.10812178254127502,0.13983295857906342
1772641305779210800,0.436210693359375,-0.31370818614959717,-0.0865512415766716,0.11447885632514954
1772641305789255700,0.446255615234375,-0.3049282729625702,-0.045617926865816116,0.07930035889148712
1772641305799300600,0.456300537109375,-0.2845335304737091,0.010051460936665535,0.04168906807899475
1772641305809346600,0.4663466796875,-0.2578579783439636,0.07269726693630219,0.002770432736724615
1772641305819391700,0.476391845703125,-0.22539696097373962,0.13256779313087463,-0.03149886056780815
1772641305829436700,0.486436767578125,-0.18744097650051117,0.1958180069923401,-0.05968161299824715
1772641305839481900,0.49648193359375,-0.15137404203414917,0.25671571493148804,-0.07488000392913818
1772641305849527800,0.50652783203125,-0.12046655267477036,0.295644074678421,-0.07821070402860641
1772641305859572700,0.51657275390625,-0.08572695404291153,0.30139169096946716,-0.07064386457204819
1772641305869617700,0.52661767578125,-0.053296301513910294,0.2806009352207184,-0.04588978365063667
1772641305879663600,0.53666357421875,-0.015689007937908173,0.2353500872850418,-0.004163107369095087
1772641305889708800,0.546708740234375,0.017540615051984787,0.1859245002269745,0.04905145615339279
1772641305899753700,0.556753662109375,0.044789813458919525,0.15332527458667755,0.11407626420259476
1772641305909800000,0.566800048828125,0.0644916296005249,0.11468939483165741,0.17767755687236786
1772641305919844600,0.5768447265625,0.08292390406131744,0.07803497463464737,0.22658731043338776
1772641305929889800,0.586889892578125,0.09381286799907684,0.05751904472708702,0.2637021541595459
1772641305939935700,0.596935791015625,0.10934575647115707,0.042076706886291504,0.2845158278942108
1772641305949980700,0.606980712890625,0.13088339567184448,0.025064963847398758,0.2940438389778137
1772641305960025900,0.61702587890625,0.15695440769195557,0.002839821157976985,0.290242999792099
1772641305970071800,0.62707177734375,0.186096653342247,-0.02031383477151394,0.2869352400302887
1772641305980116700,0.63711669921875,0.21044035255908966,-0.03999725729227066,0.2732630968093872
1772641305990161700,0.64716162109375,0.23054976761341095,-0.053101539611816406,0.255324125289917
1772641306000206600,0.65720654296875,0.23992888629436493,-0.06271501630544662,0.23109787702560425
1772641306010252800,0.667252685546875,0.2459855079650879,-0.05675426870584488,0.21165186166763306
1772641306020297700,0.677297607421875,0.25181302428245544,-0.033915795385837555,0.1944960504770279
1772641306030343000,0.687343017578125,0.2610108256340027,-0.017530230805277824,0.17863313853740692
1772641306040388900,0.697388916015625,0.27601587772369385,0.00044424249790608883,0.1693275272846222
1772641306050433500,0.70743359375,0.2981921434402466,0.015224785543978214,0.17157483100891113
1772641306060478700,0.717478759765625,0.3265633285045624,0.010740821249783039,0.1920609325170517
1772641306070524700,0.727524658203125,0.3603893518447876,-0.02177657186985016,0.2343551069498062
1772641306080569900,0.73756982421875,0.39478063583374023,-0.07380381971597672,0.29598093032836914
1772641306090614800,0.74761474609375,0.4273153245449066,-0.1026863381266594,0.37907618284225464
1772641306100660700,0.75766064453125,0.45639970898628235,-0.11706262081861496,0.4666481018066406
1772641306110706000,0.767705810546875,0.47596362233161926,-0.14609333872795105,0.5261262059211731
1772641306120750600,0.77775048828125,0.47483471035957336,-0.1938544660806656,0.5367093682289124
1772641306130795800,0.787795654296875,0.4630858600139618,-0.23547248542308807,0.5054911375045776
1772641306140841700,0.797841796875,0.4458536207675934,-0.31328821182250977,0.4210718274116516
1772641306150886700,0.80788671875,0.42275527119636536,-0.4015970230102539,0.3010348081588745
1772641306160931800,0.817931884765625,0.40021800994873047,-0.469097763299942,0.16227319836616516
1772641306170977800,0.827977783203125,0.38605615496635437,-0.5115988850593567,0.014030279591679573
1772641306181022700,0.838022705078125,0.36909741163253784,-0.4996223747730255,-0.12523546814918518
1772641306191067600,0.848067626953125,0.36612528562545776,-0.43000921607017517,-0.24712389707565308
1772641306201113600,0.858113525390625,0.38389548659324646,-0.27176177501678467,-0.31965669989585876
1772641306211158800,0.86815869140625,0.4187425971031189,-0.08939896523952484,-0.3504347503185272
1772641306221203700,0.87820361328125,0.4729485809803009,0.08697553724050522,-0.3301153779029846
1772641306231250000,0.88825,0.5392851829528809,0.22816994786262512,-0.26653817296028137
1772641306241294600,0.898294677734375,0.5914117693901062,0.34082937240600586,-0.17741839587688446
1772641306251339800,0.90833984375,0.6281160116195679,0.4259931445121765,-0.06196663901209831
1772641306261384700,0.918384765625,0.6379779577255249,0.45117679238319397,0.050368160009384155
1772641306271430700,0.9284306640625,0.6239015460014343,0.4256454110145569,0.15378345549106598
1772641306281475800,0.938475830078125,0.5949865579605103,0.36455780267715454,0.23131074011325836
1772641306291520800,0.948520751953125,0.5449129343032837,0.27474677562713623,0.28050246834754944
1772641306301566700,0.958566650390625,0.48494869470596313,0.18909578025341034,0.30907687544822693
1772641306311611600,0.968611572265625,0.4189812242984772,0.11354589462280273,0.32425791025161743
1772641306321656600,0.978656494140625,0.35904306173324585,0.057114578783512115,0.3257705867290497
1772641306331702800,0.988702880859375,0.3093147575855255,0.02358105406165123,0.3137846887111664
1772641306341747700,0.998747802734375,0.266910582780838,-0.00786129105836153,0.28399351239204407
1772641306351793000,1.00879296875,0.2325412929058075,-0.025339148938655853,0.2210203856229782
1772641306361838800,1.0188388671875,0.20204676687717438,-0.042208410799503326,0.13248972594738007
1772641306371883500,1.028883544921875,0.18341317772865295,-0.03903132677078247,0.032343462109565735
1772641306381928700,1.0389287109375,0.1654251217842102,-0.012340329587459564,-0.0811317041516304
1772641306391973600,1.0489736328125,0.1497603803873062,0.03208805248141289,-0.19383084774017334
1772641306402019800,1.059019775390625,0.12862978875637054,0.09072446823120117,-0.3058929443359375
1772641306412064800,1.069064697265625,0.10477863997220993,0.13839830458164215,-0.42899036407470703
1772641306422110000,1.07910986328125,0.07965757697820663,0.16440434753894806,-0.554132342338562
1772641306432156000,1.089156005859375,0.05771099030971527,0.1907854825258255,-0.6485888361930847
1772641306442200600,1.09920068359375,0.04045344144105911,0.2243565022945404,-0.713636040687561
1772641306452245800,1.109245849609375,0.02667241171002388,0.26962143182754517,-0.7498874664306641
1772641306462291700,1.119291748046875,0.012572837993502617,0.3388151526451111,-0.7476394772529602
1772641306472337000,1.1293369140625,-0.012968062423169613,0.39384374022483826,-0.7257195115089417
1772641306482381800,1.1393818359375,-0.019975371658802032,0.41533467173576355,-0.6847150921821594
1772641306492427800,1.149427734375,0.005629714112728834,0.41601723432540894,-0.6097646355628967
1772641306502472700,1.15947265625,0.0688859149813652,0.3997112214565277,-0.5006408095359802
1772641306512517600,1.169517578125,0.14341965317726135,0.3602113425731659,-0.3697781562805176
1772641306522562800,1.179562744140625,0.20068001747131348,0.32792794704437256,-0.23833388090133667
1772641306532608800,1.18960888671875,0.24207133054733276,0.29744529724121094,-0.1215740442276001
1772641306542653700,1.19965380859375,0.2697860598564148,0.25757190585136414,-0.01573628932237625
1772641306552699000,1.209698974609375,0.2726130783557892,0.21256962418556213,0.06862431764602661
1772641306562744800,1.219744873046875,0.2587478756904602,0.16057725250720978,0.13174602389335632
1772641306572789800,1.229789794921875,0.2398291528224945,0.10574044287204742,0.17374737560749054
1772641306582834700,1.239834716796875,0.2060011476278305,0.05605224519968033,0.19330669939517975
1772641306592880600,1.249880615234375,0.17730498313903809,0.007625121623277664,0.19516600668430328
1772641306602925800,1.25992578125,0.13744384050369263,-0.03602755069732666,0.1809615045785904
1772641306612970800,1.269970703125,0.09925183653831482,-0.04503389075398445,0.15321208536624908
1772641306623015700,1.280015625,0.06935199350118637,-0.017442744225263596,0.11328064650297165
1772641306633061600,1.2900615234375,0.04873570054769516,0.027596499770879745,0.06424695998430252
1772641306643106800,1.30010693359375,0.03214527294039726,0.07118579000234604,0.01183408498764038
1772641306653151700,1.31015185546875,0.023669136688113213,0.10001210868358612,-0.03763569891452789
1772641306663197700,1.32019775390625,0.018449608236551285,0.10566946119070053,-0.09224115312099457
1772641306673243000,1.330242919921875,0.006288072559982538,0.08952472358942032,-0.13995695114135742
1772641306683287600,1.34028759765625,-0.020705195143818855,0.05896760895848274,-0.18414758145809174
1772641306693333500,1.35033349609375,-0.024747515097260475,0.012262417003512383,-0.21046309173107147
1772641306703378700,1.360378662109375,-0.029184341430664062,-0.040423162281513214,-0.22672195732593536
1772641306713423600,1.370423583984375,-0.03611510246992111,-0.09178369492292404,-0.23627234995365143
1772641306723469800,1.3804697265625,-0.04193171113729477,-0.1429283618927002,-0.23543639481067657
1772641306733514800,1.3905146484375,-0.050497207790613174,-0.18407920002937317,-0.229622945189476
1772641306743560000,1.400559814453125,-0.05644591152667999,-0.20258790254592896,-0.21523495018482208
1772641306753605400,1.41060546875,-0.061597373336553574,-0.18745741248130798,-0.19245122373104095
1772641306763651300,1.4206513671875,-0.06260218471288681,-0.1432928889989853,-0.16332024335861206
1772641306773696500,1.430696533203125,-0.05417837202548981,-0.07736067473888397,-0.12923748791217804
1772641306783741400,1.440741455078125,-0.04319949075579643,0.001422286732122302,-0.10092008858919144
1772641306793787400,1.450787353515625,-0.023286860436201096,0.06527549773454666,-0.06641264259815216
1772641306803832300,1.460832275390625,0.0005324515514075756,0.12185116112232208,-0.036756474524736404
1772641306813877200,1.470877197265625,0.007958410307765007,0.1590680330991745,-0.017075980082154274
1772641306823923500,1.48092333984375,-0.0017613290110602975,0.1799384355545044,-0.007875025272369385
1772641306833968400,1.490968505859375,-0.02265143021941185,0.19488781690597534,-0.010780533775687218
1772641306844013600,1.501013671875,-0.04710271209478378,0.20408105850219727,-0.026608765125274658
1772641306854059500,1.5110595703125,-0.06671908497810364,0.21524262428283691,-0.048232194036245346
1772641306864104200,1.521104248046875,-0.08463310450315475,0.2249317467212677,-0.06617284566164017
1772641306874149400,1.5311494140625,-0.10134875774383545,0.22790449857711792,-0.0841982513666153
1772641306884194300,1.5411943359375,-0.11218622326850891,0.20747938752174377,-0.10811184346675873
1772641306894240300,1.551240234375,-0.12690965831279755,0.16521167755126953,-0.14216971397399902
1772641306904285400,1.561285400390625,-0.14421488344669342,0.12658199667930603,-0.18248464167118073
1772641306914330400,1.571330322265625,-0.15655545890331268,0.10905539989471436,-0.2077554166316986
1772641306924376300,1.581376220703125,-0.159855917096138,0.09890769422054291,-0.2247578501701355
1772641306934421200,1.591421142578125,-0.15868252515792847,0.09146841615438461,-0.23309087753295898
1772641306944466400,1.601466552734375,-0.1498938351869583,0.08821243792772293,-0.23142346739768982
1772641306954512400,1.611512451171875,-0.13071800768375397,0.08197671920061111,-0.21983449161052704
1772641306964557300,1.621557373046875,-0.11468231678009033,0.07292702794075012,-0.1937272697687149
1772641306974602500,1.6316025390625,-0.10169073939323425,0.042913537472486496,-0.15790686011314392
1772641306984647200,1.641647216796875,-0.102775439620018,-0.026349689811468124,-0.13462390005588531
1772641306994693400,1.651693359375,-0.11863537132740021,-0.12377523630857468,-0.12812238931655884
1772641307004738300,1.66173828125,-0.1545582115650177,-0.20312440395355225,-0.12693674862384796
1772641307014783500,1.671783447265625,-0.20732252299785614,-0.25116097927093506,-0.12523522973060608
1772641307024829400,1.681829345703125,-0.2672990560531616,-0.2819841504096985,-0.1276203691959381
1772641307034874400,1.691874267578125,-0.33652350306510925,-0.31741848587989807,-0.1443629413843155
1772641307044919300,1.701919189453125,-0.3938153088092804,-0.3511492908000946,-0.1752883642911911
1772641307054965200,1.71196533203125,-0.4477449655532837,-0.3828122615814209,-0.22598613798618317
1772641307065010400,1.722010498046875,-0.5053281188011169,-0.4005049765110016,-0.28670594096183777
1772641307075055400,1.732055419921875,-0.5555171966552734,-0.3859853446483612,-0.3312778174877167
1772641307085100300,1.742100341796875,-0.5826180577278137,-0.34087857604026794,-0.3339838683605194
1772641307095146500,1.752146484375,-0.5835888385772705,-0.2912939488887787,-0.29005172848701477
1772641307105191400,1.76219140625,-0.5517379641532898,-0.22019632160663605,-0.18151381611824036
1772641307115236400,1.772236328125,-0.49689507484436035,-0.12437213212251663,-0.010219478979706764
1772641307125282300,1.7822822265625,-0.43663787841796875,-0.012573424726724625,0.18932612240314484
1772641307135327200,1.7923271484375,-0.4004557132720947,0.09703563153743744,0.367372065782547
1772641307145372400,1.802372314453125,-0.3601951003074646,0.1638793796300888,0.5499005913734436
1772641307155418400,1.81241845703125,-0.32936593890190125,0.22187957167625427,0.7045992612838745
1772641307165463600,1.822463623046875,-0.30953550338745117,0.2551475167274475,0.8319971561431885
1772641307175508200,1.83250830078125,-0.30516648292541504,0.2700630724430084,0.9250326752662659
1772641307185553400,1.842553466796875,-0.32109883427619934,0.22526603937149048,0.9733535647392273
1772641307195599400,1.852599365234375,-0.34895938634872437,0.12309899181127548,0.9742774367332458
1772641307205644300,1.862644287109375,-0.3829146921634674,-0.0033622807823121548,0.9319986701011658
1772641307215689500,1.872689453125,-0.415107399225235,-0.12592361867427826,0.8570038676261902
1772641307225735400,1.8827353515625,-0.43964335322380066,-0.21805353462696075,0.7649163007736206
1772641307235780400,1.8927802734375,-0.4512490928173065,-0.26161426305770874,0.6629109382629395
1772641307245825300,1.9028251953125,-0.4469781816005707,-0.25550657510757446,0.5559384226799011
1772641307255871200,1.912871337890625,-0.4322149157524109,-0.21147280931472778,0.436271995306015
1772641307265916400,1.92291650390625,-0.41577044129371643,-0.1469380259513855,0.30342739820480347
1772641307275961300,1.93296142578125,-0.4132387936115265,-0.06184656172990799,0.14681850373744965
1772641307286007300,1.94300732421875,-0.4154537320137024,0.04176824912428856,-0.02986331656575203
1772641307296052500,1.953052490234375,-0.41223466396331787,0.1368136703968048,-0.2021300196647644
1772641307306097200,1.96309716796875,-0.3960013687610626,0.2192467600107193,-0.3600826561450958
1772641307316142300,1.973142333984375,-0.3688103258609772,0.27888086438179016,-0.49359065294265747
1772641307326188300,1.983188232421875,-0.3437228202819824,0.3038373589515686,-0.6007226705551147
1772641307336233500,1.9932333984375,-0.315429151058197,0.31237590312957764,-0.6634319424629211
1772641307346278400,2.0032783203125,-0.28442490100860596,0.31768837571144104,-0.6876288652420044
1772641307356324400,2.013324462890625,-0.24150042235851288,0.3113415241241455,-0.6680495142936707
1772641307366369300,2.023369384765625,-0.17998646199703217,0.29352232813835144,-0.6106141805648804
1772641307376414200,2.033414306640625,-0.11085808277130127,0.2466927021741867,-0.5243005156517029
1772641307386460400,2.04346044921875,-0.04363403469324112,0.17982979118824005,-0.41633841395378113
1772641307396505300,2.05350537109375,0.016385391354560852,0.10325237363576889,-0.29572105407714844
1772641307406550500,2.063550537109375,0.07263508439064026,0.022839561104774475,-0.17231467366218567
1772641307416596500,2.073596435546875,0.10958866029977798,-0.05368364229798317,-0.05649467930197716
1772641307426641400,2.083641357421875,0.13028807938098907,-0.11432967334985733,0.0288830678910017
1772641307436686300,2.093686279296875,0.13600191473960876,-0.14823105931282043,0.07813049107789993
1772641307446731300,2.103731201171875,0.13594572246074677,-0.14681105315685272,0.09448576718568802
1772641307456777200,2.113777099609375,0.13824912905693054,-0.11747187376022339,0.08511342853307724
1772641307466822400,2.123822509765625,0.14250566065311432,-0.09491197019815445,0.05140047147870064
1772641307476867300,2.133867431640625,0.1434357464313507,-0.07671312987804413,0.007128578145056963
1772641307486913500,2.14391357421875,0.1438695788383484,-0.06377016752958298,-0.04936053231358528
1772641307496958200,2.153958251953125,0.1512218862771988,-0.0492745116353035,-0.10585150122642517
1772641307507003400,2.16400341796875,0.16796252131462097,-0.017575973644852638,-0.15385577082633972
1772641307517049300,2.17404931640625,0.19104360044002533,0.01567932404577732,-0.1926266998052597
1772641307527094300,2.18409423828125,0.21373799443244934,0.04965326935052872,-0.22227327525615692
1772641307537139500,2.194139404296875,0.23884569108486176,0.08510059863328934,-0.24155062437057495
1772641307547184400,2.204184326171875,0.2608886659145355,0.11428245902061462,-0.24558745324611664
1772641307557230600,2.214230712890625,0.2825232446193695,0.13485923409461975,-0.23365813493728638
1772641307567275300,2.224275146484375,0.30198562145233154,0.14587487280368805,-0.21432837843894958
1772641307577320400,2.234320556640625,0.3149016797542572,0.14337436854839325,-0.18608549237251282
1772641307587366400,2.244366455078125,0.3204916715621948,0.1223369911313057,-0.15181034803390503
1772641307597411300,2.254411376953125,0.3216429352760315,0.08481491357088089,-0.11841192096471786
1772641307607456500,2.26445654296875,0.3180287778377533,0.04821828752756119,-0.07709430903196335
1772641307617502500,2.27450244140625,0.31236302852630615,0.01581927016377449,-0.039474308490753174
1772641307627547400,2.28454736328125,0.30245792865753174,-0.00539387296885252,-0.0006962879560887814
1772641307637592300,2.29459228515625,0.29204192757606506,-0.009951009415090084,0.03652866184711456
1772641307647638300,2.30463818359375,0.28620079159736633,-0.009288148954510689,0.0678333193063736
1772641307657683500,2.314683349609375,0.2847270667552948,-0.009317910298705101,0.0850377231836319
1772641307667728400,2.324728271484375,0.28618621826171875,-0.0008365404792129993,0.09491804987192154
1772641307677773600,2.334773681640625,0.2824085056781769,0.007355146110057831,0.09352961927652359
1772641307687819500,2.344819580078125,0.2745252847671509,0.022061120718717575,0.07705716788768768
1772641307697864200,2.3548642578125,0.2631109952926636,0.05055154860019684,0.057828739285469055
1772641307707909400,2.364909423828125,0.2547484040260315,0.07687582820653915,0.04535529017448425
1772641307717955300,2.374955322265625,0.24916265904903412,0.08097317069768906,0.0367470309138298
1772641307728000500,2.38500048828125,0.24478520452976227,0.08177611976861954,0.03372593969106674
1772641307738045400,2.39504541015625,0.2407435178756714,0.08284498006105423,0.044144611805677414
1772641307748091400,2.40509130859375,0.23777888715267181,0.0830998420715332,0.05405263602733612
1772641307758136300,2.41513623046875,0.2330365926027298,0.08726848661899567,0.07367879897356033
1772641307768181200,2.42518115234375,0.22932255268096924,0.08028780668973923,0.09129854291677475
1772641307778226200,2.43522607421875,0.2284952700138092,0.06642606109380722,0.10931698232889175
1772641307788272000,2.445272216796875,0.23595638573169708,0.05252781882882118,0.13451261818408966
1772641307798317300,2.4553173828125,0.24912016093730927,0.047669947147369385,0.17421776056289673
1772641307808362200,2.4653623046875,0.27266278862953186,0.06263691186904907,0.23084375262260437
1772641307818408200,2.475408203125,0.2947313189506531,0.07124751061201096,0.2775575816631317
1772641307828453400,2.485453369140625,0.3082796037197113,0.05816606059670448,0.29443565011024475
1772641307838498300,2.495498291015625,0.32609713077545166,0.06282572448253632,0.27342337369918823
1772641307848544000,2.5055439453125,0.3440236747264862,0.09828545153141022,0.22480550408363342
1772641307858589200,2.515589111328125,0.3618799149990082,0.1355743110179901,0.138604536652565
1772641307868634000,2.525634033203125,0.376275897026062,0.1833799034357071,0.03548801317811012
1772641307878680300,2.535680419921875,0.39081671833992004,0.25158166885375977,-0.05850891396403313
1772641307888725200,2.545725341796875,0.4020877480506897,0.29494431614875793,-0.13756032288074493
1772641307898770400,2.5557705078125,0.41098731756210327,0.31801602244377136,-0.189316987991333
1772641307908815000,2.565815185546875,0.41622549295425415,0.3298340439796448,-0.2042171061038971
1772641307918861000,2.575861083984375,0.42000463604927063,0.3422190248966217,-0.1909802109003067
1772641307928906200,2.58590625,0.42253783345222473,0.35222503542900085,-0.1474873274564743
1772641307938951200,2.595951171875,0.4261898994445801,0.3605600595474243,-0.07585914433002472
1772641307948997400,2.605997314453125,0.42532995343208313,0.34880220890045166,0.011373497545719147
1772641307959042300,2.616042236328125,0.41961634159088135,0.31465715169906616,0.1008942574262619
1772641307969087200,2.626087158203125,0.41135311126708984,0.2796725332736969,0.1914401352405548
1772641307979133200,2.63613330078125,0.39703330397605896,0.2425391674041748,0.25919944047927856
1772641307989178000,2.64617822265625,0.3718275725841522,0.1934933215379715,0.29327303171157837
1772641307999223300,2.656223388671875,0.33138445019721985,0.13545073568820953,0.30272623896598816
1772641308009268200,2.666268310546875,0.2859937846660614,0.08733779937028885,0.29701507091522217
1772641308019314200,2.676314208984375,0.23641474545001984,0.04512089863419533,0.2868677079677582
1772641308029359400,2.686359375,0.1842426210641861,0.01308919582515955,0.285647988319397
1772641308039404000,2.696404052734375,0.1348683387041092,-0.00858713872730732,0.296121746301651
1772641308049450200,2.7064501953125,0.08448558300733566,-0.04205694794654846,0.3158176839351654
1772641308059495200,2.7164951171875,0.028379026800394058,-0.0842769667506218,0.3253357708454132
1772641308069540400,2.726540283203125,-0.03280816227197647,-0.1274510771036148,0.32306358218193054
1772641308079586300,2.73658642578125,-0.08223371207714081,-0.1555529534816742,0.31459563970565796
1772641308089631200,2.74663134765625,-0.12473616003990173,-0.18455770611763,0.30035412311553955
1772641308099676200,2.75667626953125,-0.151547372341156,-0.21891646087169647,0.2808648645877838
1772641308109722000,2.76672216796875,-0.1737069934606552,-0.2639015316963196,0.25595125555992126
1772641308119767300,2.776767333984375,-0.18681475520133972,-0.2956816852092743,0.22224457561969757
1772641308129812200,2.786812255859375,-0.19176584482192993,-0.30300724506378174,0.1790936440229416
1772641308139857400,2.796857421875,-0.19148413836956024,-0.2849074602127075,0.11967276781797409
1772641308149903400,2.8069033203125,-0.18767394125461578,-0.2450181096792221,0.04553541913628578
1772641308159948300,2.8169482421875,-0.17882493138313293,-0.1848093718290329,-0.04094695672392845
1772641308169993200,2.8269931640625,-0.16598689556121826,-0.1193760335445404,-0.13312961161136627
1772641308180039200,2.8370390625,-0.1500084549188614,-0.057838503271341324,-0.22846944630146027
1772641308190084000,2.847083984375,-0.12868398427963257,-0.014088893309235573,-0.3151521384716034
1772641308200129300,2.85712939453125,-0.10707242041826248,0.013280278071761131,-0.38655781745910645
1772641308210175200,2.86717529296875,-0.0834357962012291,0.0236253272742033,-0.4293428063392639
1772641308220220400,2.877220458984375,-0.055755410343408585,0.035405952483415604,-0.4393826723098755
1772641308230265000,2.88726513671875,-0.027719782665371895,0.036744192242622375,-0.4174044132232666
1772641308240311000,2.89731103515625,0.00922338105738163,0.01647121272981167,-0.3789948523044586
1772641308250356200,2.907356201171875,0.045644503086805344,-0.015165810473263264,-0.3262975513935089
1772641308260401200,2.917401123046875,0.07290109246969223,-0.049429770559072495,-0.27371761202812195
1772641308270446300,2.9274462890625,0.08554551750421524,-0.061282698065042496,-0.22851309180259705
1772641308280492300,2.9374921875,0.08391333371400833,-0.05180251598358154,-0.1840745508670807
1772641308290537200,2.947537109375,0.07866877317428589,-0.0521969348192215,-0.1538524627685547
1772641308300582100,2.95758203125,0.07251311838626862,-0.06077044829726219,-0.13332036137580872
1772641308310628000,2.967628173828125,0.06567038595676422,-0.07637577503919601,-0.12209540605545044
1772641308320673300,2.97767333984375,0.055704515427351,-0.09370183199644089,-0.11338619142770767
1772641308330718200,2.98771826171875,0.03938546031713486,-0.10514676570892334,-0.1130349189043045
1772641308340764200,2.99776416015625,0.017783399671316147,-0.10733421891927719,-0.12241965532302856
1772641308350809300,3.007809326171875,-0.007047914434224367,-0.1123524084687233,-0.13813096284866333
1772641308360854300,3.017854248046875,-0.02886437065899372,-0.13516059517860413,-0.1629277467727661
1772641308370899200,3.027899169921875,-0.05262269824743271,-0.1567084938287735,-0.18348363041877747
1772641308380945200,3.037945068359375,-0.07814641296863556,-0.16017234325408936,-0.19322174787521362
1772641308390990300,3.047990234375,-0.09626495838165283,-0.14839157462120056,-0.1892978549003601
1772641308401035300,3.05803515625,-0.10886044055223465,-0.12044729292392731,-0.1697019338607788
1772641308411081200,3.068081298828125,-0.11490155756473541,-0.09626366198062897,-0.13757063448429108
1772641308421126100,3.078126220703125,-0.11701175570487976,-0.09114465862512589,-0.1011032834649086
1772641308431171000,3.088171142578125,-0.1151757761836052,-0.09883240610361099,-0.06871658563613892
1772641308441217300,3.09821728515625,-0.11229611933231354,-0.10559064894914627,-0.02944023162126541
1772641308451262200,3.10826220703125,-0.11408762633800507,-0.11720681935548782,0.004264733754098415
1772641308461307400,3.118307373046875,-0.11423543840646744,-0.12683747708797455,0.039114244282245636
1772641308471352300,3.128352294921875,-0.12017109245061874,-0.14601117372512817,0.07663338631391525
1772641308481398300,3.138398193359375,-0.12669187784194946,-0.1767377257347107,0.11296766251325607
1772641308491443200,3.148443115234375,-0.13339504599571228,-0.2037869244813919,0.15301041305065155
1772641308501488000,3.158488037109375,-0.14579486846923828,-0.23434589803218842,0.17823006212711334
1772641308511534300,3.168534423828125,-0.16028378903865814,-0.25981637835502625,0.18631435930728912
1772641308521579300,3.178579345703125,-0.17999480664730072,-0.27274182438850403,0.1728605180978775
1772641308531624200,3.188624267578125,-0.2025347352027893,-0.2705966532230377,0.13873450458049774
1772641308541670400,3.19867041015625,-0.22661106288433075,-0.2597963213920593,0.08680526912212372
1772641308551715000,3.208715087890625,-0.240958571434021,-0.24114355444908142,0.028044745326042175
1772641308561760300,3.21876025390625,-0.23956574499607086,-0.21225731074810028,-0.030690208077430725
1772641308571806200,3.22880615234375,-0.22539855539798737,-0.17045433819293976,-0.08411550521850586
1772641308581851100,3.23885107421875,-0.2065906971693039,-0.13276128470897675,-0.12652957439422607
1772641308591896300,3.248896240234375,-0.18232077360153198,-0.10331098735332489,-0.1503898948431015
1772641308601941200,3.258941162109375,-0.16422459483146667,-0.09495658427476883,-0.1639520823955536
1772641308611987500,3.268987548828125,-0.15546120703220367,-0.10994751751422882,-0.15880712866783142
1772641308622032100,3.2790322265625,-0.15511298179626465,-0.13437336683273315,-0.14339883625507355
1772641308632077300,3.289077392578125,-0.16698960959911346,-0.15912878513336182,-0.12758205831050873
1772641308642123300,3.299123291015625,-0.17454035580158234,-0.1735774278640747,-0.10636331886053085
1772641308652168200,3.309168212890625,-0.17823974788188934,-0.176768958568573,-0.08327877521514893
1772641308662213400,3.31921337890625,-0.17404672503471375,-0.17280997335910797,-0.054102782160043716
1772641308672259300,3.32925927734375,-0.16203400492668152,-0.16569188237190247,-0.01922735571861267
1772641308682304300,3.33930419921875,-0.14343102276325226,-0.1618916094303131,0.015352766960859299
1772641308692349200,3.34934912109375,-0.12455692887306213,-0.16779184341430664,0.044464580714702606
1772641308702394400,3.359394287109375,-0.10080762952566147,-0.17906366288661957,0.06447617709636688
1772641308712440300,3.3694404296875,-0.0774674192070961,-0.19416750967502594,0.07695256173610687
1772641308722485200,3.3794853515625,-0.058448903262615204,-0.20435602962970734,0.08660316467285156
1772641308732530400,3.389530517578125,-0.03628234937787056,-0.2131900042295456,0.0953519195318222
1772641308742576000,3.399576171875,-0.014678155072033405,-0.2137078046798706,0.11113967001438141
1772641308752620800,3.409620849609375,0.010740386322140694,-0.216628760099411,0.1321304440498352
1772641308762665700,3.419665771484375,0.03784908726811409,-0.2099827080965042,0.16215167939662933
1772641308772711700,3.429711669921875,0.06168251484632492,-0.20789797604084015,0.18818914890289307
1772641308782756600,3.439756591796875,0.07969805598258972,-0.20496118068695068,0.22165849804878235
1772641308792801500,3.449801513671875,0.0882718414068222,-0.1970129758119583,0.2566119432449341
1772641308802847700,3.45984765625,0.093418188393116,-0.21896953880786896,0.27661821246147156
1772641308812892700,3.469892578125,0.08789186179637909,-0.2626264691352844,0.27021145820617676
1772641308822937600,3.4799375,0.0582071989774704,-0.3046399652957916,0.23550567030906677
1772641308832982500,3.489982421875,0.03095400705933571,-0.30738914012908936,0.17821362614631653
1772641308843028500,3.500028564453125,0.011072322726249695,-0.30585071444511414,0.09392323344945908
1772641308853073700,3.51007373046875,-0.005784154869616032,-0.316471129655838,-0.021493906155228615
1772641308863118600,3.52011865234375,-0.03519100695848465,-0.32574284076690674,-0.16189022362232208
1772641308873164500,3.53016455078125,-0.07319751381874084,-0.28917500376701355,-0.29866349697113037
1772641308883209700,3.540209716796875,-0.10658044368028641,-0.20768825709819794,-0.402637243270874
1772641308893254700,3.550254638671875,-0.11854682862758636,-0.0887829065322876,-0.4425806701183319
1772641308903300900,3.56030078125,-0.10729754716157913,0.04546478018164635,-0.4191226065158844
1772641308913345500,3.570345458984375,-0.07149986922740936,0.14383715391159058,-0.3448781967163086
1772641308923390700,3.580390625,-0.028747787699103355,0.19303886592388153,-0.2393001765012741
1772641308933435600,3.590435546875,0.010139957070350647,0.20040197670459747,-0.11000663787126541
1772641308943481600,3.600481689453125,0.03543389216065407,0.1860787570476532,0.03130099177360535
1772641308953526800,3.61052685546875,0.04226170480251312,0.14613932371139526,0.16929294168949127
1772641308963571500,3.620571533203125,0.03543546050786972,0.09047945588827133,0.3053482174873352
1772641308973617700,3.63061767578125,0.014987176284193993,0.04023998975753784,0.42955005168914795
1772641308983662600,3.64066259765625,-0.013875685632228851,-0.0004915925674140453,0.5371020436286926
1772641308993707800,3.650707763671875,-0.04172249510884285,-0.03663521632552147,0.6227998733520508
1772641309003753700,3.660753662109375,-0.06358261406421661,-0.08791358023881912,0.6663782596588135
1772641309013798700,3.670798583984375,-0.07896929234266281,-0.15191467106342316,0.6606606841087341
1772641309023843800,3.68084375,-0.09406110644340515,-0.21549750864505768,0.6096314191818237
1772641309033889800,3.690889892578125,-0.1036069393157959,-0.2608135938644409,0.5249210596084595
1772641309043934500,3.7009345703125,-0.10564446449279785,-0.27755290269851685,0.4222329556941986
1772641309053979600,3.710979736328125,-0.10718004405498505,-0.24986347556114197,0.31269848346710205
1772641309064024600,3.721024658203125,-0.1080997884273529,-0.17990735173225403,0.20258891582489014
1772641309074070800,3.73107080078125,-0.11602934449911118,-0.0943133607506752,0.09025146067142487
1772641309084115700,3.74111572265625,-0.12109322100877762,0.0032203213777393103,-0.013997361995279789
1772641309094160600,3.75116064453125,-0.13000255823135376,0.10230109840631485,-0.12699449062347412
1772641309104206600,3.76120654296875,-0.14552168548107147,0.20107035338878632,-0.244965061545372
1772641309114251500,3.77125146484375,-0.15787182748317719,0.2930215895175934,-0.3564806878566742
1772641309124296700,3.781296630859375,-0.16487394273281097,0.35558703541755676,-0.45814943313598633
1772641309134342700,3.7913427734375,-0.15996387600898743,0.3790939450263977,-0.5394623875617981
1772641309144387800,3.801387939453125,-0.1476823389530182,0.3634021282196045,-0.586302638053894
1772641309154432800,3.811432861328125,-0.11932206898927689,0.3286430835723877,-0.5832852721214294
1772641309164477700,3.821477783203125,-0.06651139259338379,0.2831185460090637,-0.5226773023605347
1772641309174523600,3.831523681640625,0.0073543149046599865,0.24581006169319153,-0.4074098467826843
1772641309184568600,3.841568603515625,0.08436450362205505,0.2143147736787796,-0.2511601150035858
1772641309194613800,3.85161376953125,0.13201618194580078,0.1628638356924057,-0.08766067028045654
1772641309204659700,3.86165966796875,0.1399688869714737,0.10167904943227768,0.054868705570697784
1772641309214704600,3.87170458984375,0.11349225789308548,0.033407051116228104,0.1735876351594925
1772641309224749600,3.88174951171875,0.07482070475816727,-0.04760310798883438,0.2537486255168915
1772641309234795500,3.89179541015625,0.02893736958503723,-0.13090065121650696,0.30543282628059387
1772641309244840700,3.9018408203125,-0.011631266213953495,-0.21361930668354034,0.33029693365097046
1772641309254885600,3.9118857421875,-0.05124685540795326,-0.2769527733325958,0.32554906606674194
1772641309264931600,3.921931640625,-0.08812826871871948,-0.29450103640556335,0.2554074823856354
1772641309274976800,3.931976806640625,-0.08687738329172134,-0.2806025445461273,0.17422956228256226
1772641309285021400,3.942021484375,-0.06565918028354645,-0.2335328310728073,0.09713615477085114
1772641309295066600,3.952066650390625,-0.04272909089922905,-0.18816934525966644,0.011954679153859615
1772641309305112600,3.962112548828125,-0.020769845694303513,-0.1143597736954689,-0.06476132571697235
1772641309315157800,3.97215771484375,-0.0071144867688417435,-0.03685459494590759,-0.13791514933109283
1772641309325202700,3.98220263671875,-0.004158204887062311,0.026751279830932617,-0.20542360842227936
1772641309335248600,3.99224853515625,-0.005745182745158672,0.08132051676511765,-0.25575947761535645
1772641309345293800,4.0022939453125,-0.0037636389024555683,0.11976411193609238,-0.2933533787727356
1772641309355338500,4.01233837890625,0.010651519522070885,0.13790370523929596,-0.31093502044677734
1772641309365384700,4.022384765625,0.03294217586517334,0.14891059696674347,-0.3078436851501465
1772641309375429600,4.0324296875,0.05666214972734451,0.15279828011989594,-0.28204482793807983
1772641309385474600,4.042474609375,0.08216653764247894,0.14699959754943848,-0.24803821742534637
1772641309395520800,4.052520751953125,0.11045490205287933,0.12623439729213715,-0.19776996970176697
1772641309405565700,4.062565673828125,0.14051476120948792,0.10086765885353088,-0.14364327490329742
1772641309415610600,4.072610595703125,0.1601601094007492,0.0791650265455246,-0.08616773039102554
1772641309425655600,4.082655517578125,0.17356690764427185,0.06013567000627518,-0.026963839307427406
1772641309435701500,4.092701416015625,0.1837463080883026,0.02993994764983654,0.03066909685730934
1772641309445746700,4.10274658203125,0.19844891130924225,-0.005134813953191042,0.0756140872836113
1772641309455791600,4.11279150390625,0.21178415417671204,-0.012716567143797874,0.10628464818000793
1772641309465837800,4.122837890625,0.21556897461414337,0.01084974780678749,0.1239156723022461
1772641309475882800,4.1328828125,0.2192622423171997,0.0469968318939209,0.1258920133113861
1772641309485927700,4.142927734375,0.21567776799201965,0.08004546910524368,0.11633742600679398
1772641309495973600,4.1529736328125,0.20701131224632263,0.10127192735671997,0.09881941974163055
1772641309506018600,4.1630185546875,0.19652965664863586,0.12303806841373444,0.06919477134943008
1772641309516063700,4.173063720703125,0.18567487597465515,0.14231136441230774,0.04328620433807373
1772641309526108700,4.183108642578125,0.17633271217346191,0.1583096981048584,0.024968337267637253
1772641309536154600,4.193154541015625,0.15951378643512726,0.17213469743728638,0.011722574010491371
1772641309546199600,4.203199462890625,0.14169089496135712,0.1746407449245453,0.005331862717866898
1772641309556244700,4.21324462890625,0.12188095599412918,0.16336731612682343,0.012042496353387833
1772641309566290700,4.223290771484375,0.10623779147863388,0.14826825261116028,0.028188630938529968
1772641309576335600,4.233335693359375,0.09543947130441666,0.13294441998004913,0.050089139491319656
1772641309586380800,4.243380859375,0.09075404703617096,0.12023316323757172,0.07812445610761642
1772641309596426800,4.2534267578125,0.0943881943821907,0.1049404963850975,0.10407296568155289
1772641309606471400,4.263471435546875,0.10595845431089401,0.09524711966514587,0.12647053599357605
1772641309616516600,4.2735166015625,0.12955699861049652,0.09244946390390396,0.14066705107688904
1772641309626561500,4.2835615234375,0.1655018925666809,0.09229893237352371,0.14222727715969086
1772641309636607700,4.293607666015625,0.20823150873184204,0.10995569080114365,0.1288779228925705
1772641309646652700,4.303652587890625,0.257122278213501,0.15129700303077698,0.11190863698720932
1772641309656697900,4.31369775390625,0.3018588721752167,0.2005481719970703,0.0829896330833435
1772641309666743800,4.323743896484375,0.34803077578544617,0.24622531235218048,0.05955354869365692
1772641309676788500,4.33378857421875,0.38943493366241455,0.27627456188201904,0.031050803139805794
1772641309686833700,4.343833740234375,0.41494882106781006,0.2703893184661865,0.0040138112381100655
1772641309696879600,4.353879638671875,0.42082536220550537,0.22068646550178528,-0.026031706482172012
1772641309706924800,4.3639248046875,0.4072500467300415,0.14252595603466034,-0.0448014996945858
1772641309716969700,4.3739697265625,0.38468191027641296,0.05982041358947754,-0.05328739434480667
1772641309727015700,4.384015625,0.34993207454681396,-0.014187300577759743,-0.05099407583475113
1772641309737060600,4.394060546875,0.30458563566207886,-0.0757790207862854,-0.04213853180408478
1772641309747105500,4.40410546875,0.24978698790073395,-0.12218780070543289,-0.04084518179297447
1772641309757151200,4.414151123046875,0.20552898943424225,-0.1506604552268982,-0.041346121579408646
1772641309767197200,4.424197265625,0.18408289551734924,-0.15904948115348816,-0.046889644116163254
1772641309777241900,4.434241943359375,0.18343788385391235,-0.13585974276065826,-0.05371452867984772
1772641309787287000,4.444287109375,0.2004902958869934,-0.09145858138799667,-0.06067405268549919
1772641309797333000,4.4543330078125,0.2289608120918274,-0.013177094981074333,-0.061587247997522354
1772641309807378200,4.464378173828125,0.269898384809494,0.07459276914596558,-0.05656244233250618
1772641309817423000,4.474423095703125,0.3122972249984741,0.14831039309501648,-0.04078054800629616
1772641309827469000,4.484468994140625,0.347415566444397,0.19340284168720245,-0.02023448795080185
1772641309837514000,4.494513916015625,0.3708958625793457,0.19778667390346527,0.005192307289689779
1772641309847559000,4.504558837890625,0.3877706527709961,0.1793186515569687,0.04547969251871109
1772641309857604000,4.51460400390625,0.4005189538002014,0.14222827553749084,0.09138194471597672
1772641309867650000,4.524650146484375,0.411263644695282,0.09947475045919418,0.1497924029827118
1772641309877695000,4.534695068359375,0.41868773102760315,0.05561009421944618,0.21318762004375458
1772641309887740200,4.544740234375,0.41735678911209106,0.018941760063171387,0.27569106221199036
1772641309897786000,4.5547861328125,0.40767353773117065,-0.016745664179325104,0.32790419459342957
1772641309907831000,4.5648310546875,0.3919818699359894,-0.049754548817873,0.3651065528392792
1772641309917876000,4.5748759765625,0.373740017414093,-0.06892584264278412,0.3830173909664154
1772641309927922000,4.584921875,0.3520877957344055,-0.07615925371646881,0.3868326246738434
1772641309937967000,4.594967041015625,0.33297693729400635,-0.07428092509508133,0.37760528922080994
1772641309948012000,4.605011962890625,0.31739193201065063,-0.07224560528993607,0.35916778445243835
1772641309958058200,4.615058349609375,0.30005234479904175,-0.07282191514968872,0.3261147439479828
1772641309968103000,4.62510302734375,0.2795204222202301,-0.07347472012042999,0.27472448348999023
1772641309978148000,4.635148193359375,0.24825677275657654,-0.07017985731363297,0.20849832892417908
1772641309988193000,4.645193115234375,0.21019326150417328,-0.05774529650807381,0.12969832122325897
1772641309998239000,4.655239013671875,0.16520901024341583,-0.0380067452788353,0.04333840310573578
1772641310008284200,4.6652841796875,0.11680129915475845,-0.009688755497336388,-0.04106805473566055
1772641310018329000,4.6753291015625,0.071266308426857,0.02695394493639469,-0.11608291417360306
1772641310028375000,4.685375,0.03275007754564285,0.06374891102313995,-0.18762975931167603
1772641310038420000,4.695419921875,0.005050538573414087,0.09969625622034073,-0.25015944242477417
1772641310048465000,4.70546484375,-0.011623460799455643,0.12548092007637024,-0.3193965554237366
1772641310058511000,4.715510986328125,-0.009045254439115524,0.12298420816659927,-0.3873380422592163
1772641310068556000,4.72555615234375,0.005732806399464607,0.11494824290275574,-0.44945377111434937
1772641310078601200,4.735601318359375,0.033701587468385696,0.11258229613304138,-0.5023310780525208
1772641310088647200,4.745647216796875,0.06338372826576233,0.12978386878967285,-0.5440694689750671
1772641310098691800,4.75569189453125,0.09644980728626251,0.16308003664016724,-0.5742521286010742
1772641310108737000,4.765737060546875,0.13066822290420532,0.18444430828094482,-0.5941051244735718
1772641310118782000,4.775781982421875,0.1594759076833725,0.18555031716823578,-0.6033082008361816
1772641310128828200,4.785828125,0.17508330941200256,0.19472835958003998,-0.5957764387130737
1772641310138873000,4.795873046875,0.18194414675235748,0.19512596726417542,-0.5777090191841125
1772641310148918000,4.80591796875,0.17555850744247437,0.1807943731546402,-0.5425068140029907
1772641310158964000,4.8159638671875,0.15727856755256653,0.15769465267658234,-0.4974205493927002
1772641310169009000,4.8260087890625,0.13558682799339294,0.1373622864484787,-0.4295859634876251
1772641310179054000,4.83605419921875,0.11092622578144073,0.10914076119661331,-0.3485454320907593
1772641310189100000,4.84610009765625,0.08360464125871658,0.07759761065244675,-0.2610672116279602
1772641310199145000,4.85614501953125,0.05958745628595352,0.03936154395341873,-0.17692753672599792
1772641310209190100,4.866190185546875,0.02948174811899662,-0.008745192550122738,-0.1001310795545578
1772641310219234800,4.87623486328125,-0.0025443602353334427,-0.052859123796224594,-0.038237087428569794
1772641310229281000,4.886281005859375,-0.03452359512448311,-0.0925653949379921,0.006042583845555782
1772641310239326000,4.896325927734375,-0.06646767258644104,-0.12050222605466843,0.0388476699590683
1772641310249371100,4.90637109375,-0.09329396486282349,-0.1404775232076645,0.05282127484679222
1772641310259417000,4.9164169921875,-0.11778492480516434,-0.156537726521492,0.05496592074632645
1772641310269462000,4.9264619140625,-0.14096498489379883,-0.1628422886133194,0.05246904119849205
1772641310279507000,4.9365068359375,-0.1561969369649887,-0.16583195328712463,0.041560735553503036
1772641310289553000,4.946552978515625,-0.16734366118907928,-0.16171742975711823,0.02558138780295849
1772641310299598000,4.95659814453125,-0.17685221135616302,-0.16083112359046936,0.00928603857755661
1772641310309643000,4.96664306640625,-0.17884142696857452,-0.15044592320919037,-0.00804360955953598
1772641310319688200,4.976688232421875,-0.1811503916978836,-0.1307326704263687,-0.019935956224799156
1772641310329734100,4.986734130859375,-0.18562525510787964,-0.09930825233459473,-0.024722062051296234
1772641310339779000,4.996779052734375,-0.20114164054393768,-0.055860377848148346,-0.02247382327914238
1772641310349824000,5.006823974609375,-0.223013773560524,-0.031241845339536667,-0.019280213862657547
1772641310359870000,5.016869873046875,-0.24352650344371796,0.01994464173913002,-0.0035316101275384426
1772641310369915100,5.0269150390625,-0.26523691415786743,0.062295425683259964,0.015112582594156265
1772641310379960000,5.0369599609375,-0.28474190831184387,0.08992065489292145,0.04347897693514824
1772641310390006000,5.047006103515625,-0.2913418710231781,0.08675969392061234,0.07762184739112854
1772641310400051200,5.05705126953125,-0.2884105443954468,0.041684091091156006,0.10712753981351852
1772641310410095900,5.067095947265625,-0.2858438193798065,-0.013556396588683128,0.12966705858707428
1772641310420141800,5.077141845703125,-0.28029194474220276,-0.05501941591501236,0.14573337137699127
1772641310430187000,5.08718701171875,-0.270367830991745,-0.07740455120801926,0.14483420550823212
1772641310440232000,5.09723193359375,-0.2552088499069214,-0.078786201775074,0.13622607290744781
1772641310450277000,5.107277099609375,-0.23588332533836365,-0.057328108698129654,0.12307097017765045
1772641310460323000,5.117322998046875,-0.21429520845413208,-0.02727433666586876,0.10222028195858002
1772641310470368300,5.1273681640625,-0.18879854679107666,0.003723657224327326,0.08063551783561707
1772641310480413000,5.137412841796875,-0.1623789370059967,0.017237335443496704,0.05694244056940079
1772641310490459000,5.147458984375,-0.14156505465507507,0.01684032753109932,0.03670541197061539
1772641310500504000,5.157504150390625,-0.12708012759685516,0.006954406388103962,0.017088567838072777
1772641310510549000,5.167549072265625,-0.11136998981237411,-0.013164711184799671,0.004474629182368517
1772641310520595200,5.17759521484375,-0.09116645157337189,-0.032642804086208344,0.012063306756317616
1772641310530640100,5.18764013671875,-0.06883978843688965,-0.044741347432136536,0.03925261273980141
1772641310540685000,5.19768505859375,-0.043783437460660934,-0.047320883721113205,0.09330946207046509
1772641310550730000,5.20772998046875,-0.013801449909806252,-0.049328576773405075,0.15814118087291718
1772641310560776000,5.21777587890625,0.008672433905303478,-0.051674287766218185,0.23251421749591827
1772641310570821000,5.227821044921875,0.021897664293646812,-0.06115387752652168,0.30236971378326416
1772641310580866000,5.237865966796875,0.02910044975578785,-0.09928394854068756,0.36095258593559265
1772641310590912000,5.247912109375,0.030977588146924973,-0.15708571672439575,0.42043131589889526
1772641310600957000,5.25795703125,0.024485334753990173,-0.2111223191022873,0.4627004861831665
1772641310611001900,5.268001953125,-0.002926991321146488,-0.26749905943870544,0.47981664538383484
1772641310621048000,5.278048095703125,-0.04342621564865112,-0.31843334436416626,0.4768136739730835
1772641310631093000,5.288093017578125,-0.08994880318641663,-0.3422992527484894,0.4506944715976715
1772641310641138200,5.29813818359375,-0.13105735182762146,-0.35255536437034607,0.4058060944080353
1772641310651183000,5.30818310546875,-0.1649055927991867,-0.36175984144210815,0.3332233130931854
1772641310661229000,5.31822900390625,-0.19396494328975677,-0.3576471209526062,0.23087428510189056
1772641310671274000,5.32827392578125,-0.21647338569164276,-0.31895074248313904,0.10523972660303116
1772641310681319000,5.33831884765625,-0.23272745311260223,-0.24704404175281525,-0.02760460041463375
1772641310691365000,5.348365234375,-0.24157972633838654,-0.128352552652359,-0.14402072131633759
1772641310701410000,5.35841015625,-0.21473851799964905,-0.030205214396119118,-0.22541756927967072
1772641310711455200,5.368455322265625,-0.15379977226257324,0.058914076536893845,-0.258899062871933
1772641310721501200,5.378501220703125,-0.07732124626636505,0.11692411452531815,-0.2410700023174286
1772641310731545900,5.3885458984375,0.004117162898182869,0.1532534956932068,-0.17202800512313843
1772641310741591000,5.398591064453125,0.06737948954105377,0.17146100103855133,-0.06152733042836189
1772641310751637000,5.408636962890625,0.09241239726543427,0.16998474299907684,0.07426393777132034
1772641310761682400,5.418682373046875,0.07684728503227234,0.1751515418291092,0.219455748796463
1772641310771727600,5.4287275390625,0.03426958620548248,0.17186865210533142,0.3587242066860199
1772641310781772300,5.438772216796875,-0.02851230464875698,0.16382244229316711,0.4837265908718109
1772641310791818500,5.448818603515625,-0.08575399965047836,0.1397273689508438,0.5877893567085266
1772641310801863400,5.458863525390625,-0.1440764218568802,0.08364944905042648,0.6546993851661682
1772641310811908600,5.46890869140625,-0.20343074202537537,0.01676449179649353,0.691114068031311
1772641310821954600,5.47895458984375,-0.25509101152420044,-0.058304693549871445,0.6971892714500427
1772641310831999500,5.48899951171875,-0.2922919690608978,-0.14258360862731934,0.6644942760467529
1772641310842044700,5.499044677734375,-0.31358152627944946,-0.2034168690443039,0.6077165007591248
1772641310852090600,5.509090576171875,-0.3211990296840668,-0.2342602163553238,0.5390681028366089
1772641310862135300,5.51913525390625,-0.3252047002315521,-0.2469286024570465,0.460187703371048
1772641310872180500,5.529180419921875,-0.33464667201042175,-0.2265992909669876,0.3704204857349396
1772641310882225400,5.539225341796875,-0.34322869777679443,-0.17320796847343445,0.26542535424232483
1772641310892271600,5.549271728515625,-0.3567514717578888,-0.10037858039140701,0.13667801022529602
1772641310902316500,5.559316650390625,-0.3770841658115387,-0.016548924148082733,-0.020765138790011406
1772641310912361500,5.569361572265625,-0.40139931440353394,0.08370018750429153,-0.19772112369537354
1772641310922407400,5.579407470703125,-0.4221586585044861,0.185869961977005,-0.38712355494499207
1772641310932452400,5.589452392578125,-0.43255895376205444,0.26472508907318115,-0.5662620067596436
1772641310942497500,5.59949755859375,-0.42339903116226196,0.30487918853759766,-0.7157981991767883
1772641310952543500,5.60954345703125,-0.39999687671661377,0.3090325593948364,-0.8200963735580444
1772641310962588700,5.619588623046875,-0.36385485529899597,0.29405975341796875,-0.8721723556518555
1772641310972633600,5.629633544921875,-0.3200004994869232,0.2938314974308014,-0.854789674282074
1772641310982679600,5.639679443359375,-0.2572729289531708,0.2895355522632599,-0.7741113901138306
1772641310992724500,5.649724365234375,-0.18553586304187775,0.26066237688064575,-0.6536495685577393
1772641311002769400,5.659769287109375,-0.126994788646698,0.22194373607635498,-0.509985625743866
1772641311012814600,5.669814697265625,-0.09831864386796951,0.16337470710277557,-0.37031471729278564
1772641311022860500,5.679860595703125,-0.09534309059381485,0.11687538027763367,-0.25061044096946716
1772641311032905500,5.689905517578125,-0.10558315366506577,0.07283501327037811,-0.15383665263652802
1772641311042950400,5.699950439453125,-0.12084892392158508,0.03745598718523979,-0.0933527871966362
1772641311052996400,5.709996337890625,-0.13485084474086761,0.031714413315057755,-0.06821806728839874
1772641311063041500,5.72004150390625,-0.1570214033126831,0.00423059007152915,-0.08578374981880188
1772641311073086500,5.73008642578125,-0.19080960750579834,-0.049319587647914886,-0.13364504277706146
1772641311083132400,5.74013232421875,-0.22612178325653076,-0.08234624564647675,-0.18679162859916687
1772641311093177600,5.750177490234375,-0.2488313913345337,-0.08955655992031097,-0.23618744313716888
1772641311103222300,5.76022216796875,-0.2663920223712921,-0.05605052784085274,-0.27233079075813293
1772641311113267500,5.770267333984375,-0.2742420434951782,0.005787740461528301,-0.2944274842739105
1772641311123313400,5.7803134765625,-0.2773422300815582,0.06875605136156082,-0.30622369050979614
1772641311133358600,5.790358642578125,-0.2724387049674988,0.11154972016811371,-0.3084544837474823
1772641311143403500,5.800403564453125,-0.26443538069725037,0.1424328088760376,-0.3033612072467804
1772641311153449500,5.810449462890625,-0.25107237696647644,0.16321033239364624,-0.28401240706443787
1772641311163494700,5.82049462890625,-0.22905495762825012,0.17736290395259857,-0.2604199945926666
1772641311173539300,5.830539306640625,-0.19641314446926117,0.19413022696971893,-0.23156389594078064
1772641311183585300,5.840585205078125,-0.15365156531333923,0.2031724452972412,-0.20305262506008148
1772641311193630500,5.85063037109375,-0.10228846222162247,0.2146824449300766,-0.18133407831192017
1772641311203675400,5.86067529296875,-0.05114991217851639,0.22023992240428925,-0.16231697797775269
1772641311213721600,5.8707216796875,-0.005123096518218517,0.22616659104824066,-0.14134131371974945
1772641311223766500,5.8807666015625,0.032358232885599136,0.231989324092865,-0.11596858501434326
1772641311233811500,5.8908115234375,0.055842041969299316,0.22045983374118805,-0.08508437126874924
1772641311243856400,5.9008564453125,0.07660191506147385,0.19415126740932465,-0.047958310693502426
1772641311253902300,5.91090234375,0.0950763002038002,0.16294287145137787,-0.004229836631566286
1772641311263947500,5.920947509765625,0.11777468770742416,0.1305423080921173,0.038631878793239594
1772641311273992400,5.930992431640625,0.14058862626552582,0.10142897814512253,0.07074255496263504
1772641311284038700,5.94103857421875,0.1605234593153,0.08457223325967789,0.09338048845529556
1772641311294083600,5.95108349609375,0.1728820651769638,0.08299663662910461,0.1037675067782402
1772641311304128500,5.96112841796875,0.17729412019252777,0.08447975665330887,0.10368628054857254
1772641311314174500,5.971174560546875,0.18357476592063904,0.08966293931007385,0.10662556439638138
1772641311324219400,5.981219482421875,0.1896640807390213,0.08991540223360062,0.10433498024940491
1772641311334264600,5.9912646484375,0.20216786861419678,0.08897950500249863,0.10547264665365219
1772641311344309500,6.0013095703125,0.2201697677373886,0.09638602286577225,0.10625135898590088
1772641311354355500,6.01135546875,0.24522076547145844,0.11405155807733536,0.11436379700899124
1772641311364400400,6.021400390625,0.27528706192970276,0.12057018280029297,0.12419912219047546
1772641311374445300,6.0314453125,0.3030224144458771,0.11308896541595459,0.13891924917697906
1772641311384491500,6.041491455078125,0.33115899562835693,0.1029396578669548,0.15541674196720123
1772641311394536400,6.051536376953125,0.36402326822280884,0.10142544656991959,0.16865701973438263
1772641311404581600,6.06158154296875,0.39032861590385437,0.12668846547603607,0.18592841923236847
1772641311414627600,6.071627685546875,0.42227989435195923,0.16630971431732178,0.2066514790058136
1772641311424672500,6.081672607421875,0.4557204246520996,0.20224453508853912,0.23231637477874756
1772641311434717400,6.091717529296875,0.496406614780426,0.21451498568058014,0.2591305375099182
1772641311444762400,6.101762451171875,0.533980667591095,0.18431100249290466,0.28828948736190796
1772641311454808600,6.11180859375,0.5594090223312378,0.1206255778670311,0.31437376141548157
1772641311464853500,6.121853515625,0.56284099817276,0.037517376244068146,0.33442869782447815
1772641311474898700,6.131898681640625,0.5487823486328125,-0.04241606593132019,0.3495645523071289
1772641311484944600,6.141944580078125,0.5223417282104492,-0.10856340080499649,0.36648520827293396
1772641311494989300,6.1519892578125,0.5040289163589478,-0.15418961644172668,0.38547155261039734
1772641311505034500,6.162034423828125,0.4830983579158783,-0.17783795297145844,0.4083789885044098
1772641311515080400,6.17208056640625,0.4655417203903198,-0.19289691746234894,0.4203011691570282
1772641311525125400,6.18212548828125,0.44917258620262146,-0.2108072191476822,0.4137934744358063
1772641311535170600,6.192170654296875,0.4331547021865845,-0.22557957470417023,0.383637934923172
1772641311545216500,6.202216552734375,0.41928631067276,-0.23733316361904144,0.32873818278312683
1772641311555261400,6.212261474609375,0.40169426798820496,-0.2397107034921646,0.23351384699344635
1772641311565306400,6.222306396484375,0.37985342741012573,-0.21757343411445618,0.11445510387420654
1772641311575351600,6.2323515625,0.35751765966415405,-0.17416618764400482,-0.01658002659678459
1772641311585397500,6.2423974609375,0.34033626317977905,-0.10748834908008575,-0.13222353160381317
1772641311595442400,6.2524423828125,0.3336966931819916,-0.015175333246588707,-0.2109953761100769
1772641311605487600,6.262487548828125,0.33895111083984375,0.08279650658369064,-0.2415788471698761
1772641311615533600,6.272533447265625,0.3577617406845093,0.16010327637195587,-0.2278621345758438
1772641311625578500,6.28257861328125,0.38119277358055115,0.20663882791996002,-0.1700180023908615
1772641311635623400,6.29262353515625,0.4062461256980896,0.21701575815677643,-0.08187495172023773
1772641311645669400,6.30266943359375,0.42426854372024536,0.1916227787733078,0.014373289421200752
1772641311655714600,6.312714599609375,0.4360242187976837,0.14278461039066315,0.10847890377044678
1772641311665759500,6.322759521484375,0.4315791428089142,0.09157707542181015,0.19523590803146362
1772641311675804400,6.332804443359375,0.41864654421806335,0.06450498104095459,0.2690659165382385
1772641311685850400,6.342850341796875,0.4018308222293854,0.06041010469198227,0.3261512815952301
1772641311695895600,6.3528955078125,0.38338959217071533,0.07140184193849564,0.3674054741859436
1772641311705940500,6.3629404296875,0.3591691851615906,0.0551789253950119,0.3789587914943695
1772641311715986400,6.372986328125,0.32942214608192444,0.031206881627440453,0.36945122480392456
1772641311726031600,6.383031494140625,0.2996639907360077,-0.00659882090985775,0.3401700258255005
1772641311736076500,6.39307666015625,0.2703319787979126,-0.05947494879364967,0.2913452386856079
1772641311746122500,6.40312255859375,0.2441331297159195,-0.11241540312767029,0.22815854847431183
1772641311756167200,6.413167236328125,0.2157564014196396,-0.1691499799489975,0.15546980500221252
1772641311766212400,6.42321240234375,0.1780545711517334,-0.22137030959129333,0.0769912451505661
1772641311776257000,6.433257080078125,0.13779088854789734,-0.26301270723342896,-0.00814685970544815
1772641311786303000,6.443302978515625,0.08902174234390259,-0.2669834792613983,-0.09527749568223953
1772641311796348200,6.45334814453125,0.0441746786236763,-0.2328139841556549,-0.18589231371879578
1772641311806393000,6.46339306640625,0.0021273568272590637,-0.17337355017662048,-0.28257039189338684
1772641311816439000,6.47343896484375,-0.027234584093093872,-0.09944374114274979,-0.38200467824935913
1772641311826484200,6.483484130859375,-0.045190680772066116,-0.022809147834777832,-0.4760614037513733
1772641311836529000,6.49352880859375,-0.04676948860287666,0.06118914857506752,-0.5535664558410645
1772641311846575000,6.5035751953125,-0.02767808549106121,0.1285111904144287,-0.6094816327095032
1772641311856620000,6.5136201171875,0.00831550545990467,0.17162677645683289,-0.6421764492988586
1772641311866665200,6.523665283203125,0.04728607460856438,0.18346479535102844,-0.6456068754196167
1772641311876711200,6.533711181640625,0.09226065129041672,0.1659245640039444,-0.6238828301429749
1772641311886756000,6.543756103515625,0.13810722529888153,0.16040915250778198,-0.5638749003410339
1772641311896801000,6.553801025390625,0.17815212905406952,0.17647139728069305,-0.4739375114440918
1772641311906846000,6.563845947265625,0.2101031392812729,0.19097097218036652,-0.37892845273017883
1772641311916892200,6.57389208984375,0.21988403797149658,0.1830824315547943,-0.29640740156173706
1772641311926937000,6.58393701171875,0.2070944607257843,0.13700787723064423,-0.23635581135749817
1772641311936982300,6.593982177734375,0.18067796528339386,0.08142224699258804,-0.18826459348201752
1772641311947028200,6.6040283203125,0.1525254249572754,0.02587217092514038,-0.14328806102275848
1772641311957073200,6.6140732421875,0.1276410073041916,-0.017120901495218277,-0.10745781660079956
1772641311967118000,6.6241181640625,0.09954013675451279,-0.0419871024787426,-0.07309478521347046
1772641311977164000,6.6341640625,0.07082866132259369,-0.058214008808135986,-0.0479048490524292
1772641311987209000,6.644208984375,0.04145878553390503,-0.07898160815238953,-0.028363367542624474
1772641311997254100,6.654254150390625,0.010405558161437511,-0.10234199464321136,-0.009057015180587769
1772641312007299000,6.664299072265625,-0.019702808931469917,-0.1303190290927887,0.008037814870476723
1772641312017345300,6.67434521484375,-0.05077420175075531,-0.1524399220943451,0.025335853919386864
1772641312027390000,6.684389892578125,-0.08357289433479309,-0.17223972082138062,0.029305029660463333
1772641312037435100,6.69443505859375,-0.11721501499414444,-0.18433219194412231,0.02797042950987816
1772641312047481000,6.704481201171875,-0.1523439735174179,-0.20294316112995148,0.013732371851801872
1772641312057526000,6.714526123046875,-0.1752544343471527,-0.20213375985622406,-0.0026621497236192226
1772641312067571200,6.7245712890625,-0.19061101973056793,-0.20167410373687744,-0.024231623858213425
1772641312077617200,6.7346171875,-0.20217996835708618,-0.18149606883525848,-0.04404694586992264
1772641312087662300,6.744662353515625,-0.21437591314315796,-0.14825822412967682,-0.0655708834528923
1772641312097707000,6.75470703125,-0.2187311351299286,-0.12619878351688385,-0.0786215215921402
1772641312107752200,6.764752197265625,-0.21631963551044464,-0.11463267356157303,-0.08476969599723816
1772641312117798100,6.774798095703125,-0.21133066713809967,-0.10505256056785583,-0.08031882345676422
1772641312127843000,6.784843017578125,-0.20543229579925537,-0.0848279818892479,-0.06444398313760757
1772641312137888300,6.79488818359375,-0.20175442099571228,-0.053867802023887634,-0.03780430927872658
1772641312147934200,6.804934326171875,-0.20029981434345245,-0.03860895335674286,-0.005244503263384104
1772641312157979100,6.814979248046875,-0.20190659165382385,-0.0541069470345974,0.021681681275367737
1772641312168024000,6.825024169921875,-0.21633797883987427,-0.07855396717786789,0.04301812872290611
1772641312178070000,6.835070068359375,-0.2367171198129654,-0.08159250766038895,0.060110416263341904
1772641312188115200,6.845115234375,-0.25501489639282227,-0.07111190259456635,0.06590066105127335
1772641312198160100,6.85516015625,-0.27397772669792175,-0.051092252135276794,0.06287816911935806
1772641312208205300,6.865205322265625,-0.2926161289215088,-0.02710569277405739,0.05648045986890793
1772641312218251300,6.875251220703125,-0.3048143982887268,-0.0058394004590809345,0.0565006397664547
1772641312228296000,6.8852958984375,-0.30888795852661133,-0.0008150809444487095,0.05201028287410736
1772641312238341000,6.895341064453125,-0.3035716712474823,0.00611092196777463,0.0586945116519928
1772641312248387000,6.905386962890625,-0.2887354791164398,0.014001868665218353,0.06958630681037903
1772641312258432300,6.915432373046875,-0.2638976275920868,0.01601068302989006,0.085670605301857
1772641312268477200,6.925477294921875,-0.23731635510921478,0.007849693298339844,0.10017897188663483
1772641312278523100,6.935523193359375,-0.21156294643878937,-0.008195579051971436,0.11185280978679657
1772641312288568000,6.945568115234375,-0.1925296038389206,-0.028530145063996315,0.1188364177942276
1772641312298613000,6.955613037109375,-0.17936982214450836,-0.05227689445018768,0.1299811154603958
1772641312308658200,6.965658203125,-0.165873184800148,-0.08042623847723007,0.1429954618215561
1772641312318704000,6.9757041015625,-0.1533655971288681,-0.09317046403884888,0.1647341400384903
1772641312328749000,6.9857490234375,-0.14066630601882935,-0.07606098800897598,0.1958659589290619
1772641312338794200,6.995794189453125,-0.12612473964691162,-0.053628645837306976,0.22463692724704742
1772641312348840000,7.00583984375,-0.12184371054172516,-0.04926691949367523,0.2325233519077301
1772641312358885000,7.015885009765625,-0.1342095285654068,-0.07395841926336288,0.2143063247203827
1772641312368930000,7.025929931640625,-0.16393360495567322,-0.09611192345619202,0.1765030324459076
1772641312378976000,7.03597607421875,-0.20075854659080505,-0.09605766087770462,0.1372166872024536
1772641312389021200,7.046021240234375,-0.24267511069774628,-0.08088456839323044,0.09628656506538391
1772641312399066000,7.056066162109375,-0.2798921763896942,-0.06850026547908783,0.06716714054346085
1772641312409112300,7.0661123046875,-0.3135952949523926,-0.03865422308444977,0.05641675740480423
1772641312419157000,7.076156982421875,-0.3385831415653229,0.003924659453332424,0.06068729609251022
1772641312429202200,7.0862021484375,-0.33756208419799805,0.044512033462524414,0.08595776557922363
1772641312439247000,7.0962470703125,-0.3122979402542114,0.05780573561787605,0.11872412264347076
1772641312449293000,7.10629296875,-0.2781170904636383,0.04075884073972702,0.1462273895740509
1772641312459338200,7.116338134765625,-0.2545580267906189,0.007376648485660553,0.16067834198474884
1772641312469383000,7.1263828125,-0.23545169830322266,-0.03679880127310753,0.1552252471446991
1772641312479429000,7.13642919921875,-0.22709588706493378,-0.06010878458619118,0.14028681814670563
1772641312489474000,7.14647412109375,-0.2291172295808792,-0.05423145368695259,0.11957088857889175
1772641312499519200,7.156519287109375,-0.24164657294750214,-0.02889413945376873,0.10261701792478561
1772641312509565200,7.166565185546875,-0.2575472295284271,0.016995852813124657,0.08920960128307343
1772641312519610000,7.176610107421875,-0.27420300245285034,0.06136012449860573,0.08020149171352386
1772641312529655300,7.1866552734375,-0.28739070892333984,0.09267942607402802,0.08057565987110138
1772641312539700000,7.196699951171875,-0.30162790417671204,0.11265567690134048,0.09240176528692245
1772641312549746000,7.206745849609375,-0.32680195569992065,0.10523344576358795,0.1033172607421875
1772641312559791000,7.216791015625,-0.3412263095378876,0.05711410939693451,0.11887264996767044
1772641312569836000,7.2268359375,-0.3480980694293976,0.012309355661273003,0.1373797506093979
1772641312579882200,7.23688232421875,-0.34648093581199646,-0.029591619968414307,0.1489587128162384
1772641312589927200,7.24692724609375,-0.34777283668518066,-0.04905293509364128,0.1534128487110138
1772641312599972000,7.25697216796875,-0.34849467873573303,-0.057069648057222366,0.1439867615699768
1772641312610018000,7.26701806640625,-0.3510310649871826,-0.063911572098732,0.12186096608638763
1772641312620063000,7.27706298828125,-0.3551371693611145,-0.06863482296466827,0.09755297750234604
1772641312630108200,7.287108154296875,-0.3600483238697052,-0.07119492441415787,0.07559947669506073
1772641312640153000,7.297153076171875,-0.3544371426105499,-0.07013226300477982,0.04527867212891579
1772641312650199300,7.30719921875,-0.3450087606906891,-0.0633300170302391,0.01346561312675476
1772641312660244200,7.317244140625,-0.3306159973144531,-0.04676980525255203,-0.0307728610932827
1772641312670289200,7.3272890625,-0.3114071488380432,-0.017704598605632782,-0.08056358247995377
1772641312680335000,7.337335205078125,-0.28443053364753723,0.007274515926837921,-0.14191584289073944
1772641312690380000,7.347380126953125,-0.24939772486686707,0.026117445901036263,-0.21540923416614532
1772641312700425200,7.35742529296875,-0.20831255614757538,0.037630822509527206,-0.29465436935424805
1772641312710471200,7.36747119140625,-0.16231469810009003,0.03908197954297066,-0.3781958520412445
1772641312720516000,7.37751611328125,-0.12899328768253326,0.07298915088176727,-0.4453332722187042
1772641312730561000,7.38756103515625,-0.0979437604546547,0.11552409827709198,-0.48658111691474915
1772641312740607000,7.39760693359375,-0.0704377144575119,0.15378347039222717,-0.5040163397789001
1772641312750652200,7.407652099609375,-0.052815310657024384,0.18878166377544403,-0.5010128021240234
1772641312760696800,7.41769677734375,-0.04440554603934288,0.19989576935768127,-0.4666515290737152
1772641312770742000,7.427741943359375,-0.029083317145705223,0.1891658902168274,-0.4027564525604248
1772641312780788000,7.4377880859375,-0.01025133766233921,0.16842599213123322,-0.31949999928474426
1772641312790832600,7.44783251953125,0.004599513486027718,0.13330768048763275,-0.23311182856559753
1772641312800877800,7.4578779296875,0.01523558795452118,0.0722021833062172,-0.15363337099552155
1772641312810923800,7.467923828125,0.024537477642297745,0.012660292908549309,-0.08610545843839645
1772641312820969000,7.477968994140625,0.028423646464943886,-0.05227649584412575,-0.03787865862250328
1772641312831014000,7.488013916015625,0.028121910989284515,-0.09951484948396683,-0.007615560200065374
1772641312841059000,7.49805908203125,0.02952752634882927,-0.12418576329946518,0.004373942501842976
1772641312851105000,7.50810498046875,0.027039065957069397,-0.12919384241104126,-0.00531357154250145
1772641312861149700,7.518149658203125,0.026169192045927048,-0.10557573288679123,-0.025039751082658768
1772641312871195000,7.52819482421875,0.034518733620643616,-0.07040629535913467,-0.051197052001953125
1772641312881240800,7.53824072265625,0.04316087067127228,-0.04206639900803566,-0.082274429500103
1772641312891286000,7.5482861328125,0.05098284035921097,-0.017426034435629845,-0.10877953469753265
1772641312901331000,7.5583310546875,0.0611751414835453,0.0063689099624753,-0.1317775696516037
1772641312911377000,7.568376953125,0.06915716826915741,0.017152581363916397,-0.14954006671905518
1772641312921421800,7.578421875,0.07955664396286011,0.02439984120428562,-0.1602366715669632
1772641312931466800,7.588466796875,0.09485650062561035,0.030811667442321777,-0.16830258071422577
1772641312941512700,7.5985126953125,0.11591032147407532,0.02949320524930954,-0.17007644474506378
1772641312951558000,7.608557861328125,0.1379959136247635,0.02654082514345646,-0.1697787046432495
1772641312961602800,7.618602783203125,0.15590956807136536,0.03305911272764206,-0.16201472282409668
1772641312971648000,7.62864794921875,0.17043419182300568,0.07094337791204453,-0.13635064661502838
1772641312981693700,7.638693603515625,0.17730213701725006,0.0768519937992096,-0.1094944104552269
1772641312991739000,7.64873876953125,0.1822630763053894,0.07255364954471588,-0.07481072843074799
1772641313001783800,7.65878369140625,0.18696360290050507,0.030982915312051773,-0.05060972273349762
1772641313011829800,7.668829833984375,0.17580655217170715,-0.006699216086417437,-0.029153697192668915
1772641313021875000,7.678875,0.16348592936992645,-0.06292587518692017,-0.012692496180534363
1772641313031919900,7.688919921875,0.17231537401676178,-0.09571737796068192,-0.004183164797723293
1772641313041966000,7.698966064453125,0.18616658449172974,-0.09025456756353378,0.005168219096958637
1772641313052010800,7.7090107421875,0.19989332556724548,-0.07260020822286606,0.008991719223558903
1772641313062056000,7.719055908203125,0.2201797068119049,-0.04034944996237755,0.006933608092367649
1772641313072100900,7.729100830078125,0.24075475335121155,-0.01659432053565979,-0.011919975280761719
1772641313082146800,7.739146728515625,0.2658490836620331,0.027822207659482956,-0.05237489566206932
1772641313092192000,7.74919189453125,0.2895437479019165,0.1084320992231369,-0.09563421458005905
1772641313102236700,7.759236572265625,0.305001437664032,0.17545945942401886,-0.12063425034284592
1772641313112283000,7.769282958984375,0.29532352089881897,0.1908634603023529,-0.12234827131032944
1772641313122327800,7.779327880859375,0.27316081523895264,0.17638671398162842,-0.08886469900608063
1772641313132372700,7.789372802734375,0.2665031850337982,0.17312701046466827,-0.04158693179488182
1772641313142419000,7.7994189453125,0.25771278142929077,0.12832577526569366,0.0025274348445236683
