time,seconds_elapsed,z,y,x
1772642780299041300,0.061041259765625,0.09402944892644882,0.0680152103304863,-0.1057085171341896
1772642780309086200,0.071086181640625,0.1292622685432434,0.16346104443073273,-0.14246758818626404
1772642780319131400,0.08113134765625,0.14943431317806244,0.22144529223442078,-0.17156164348125458
1772642780329176000,0.091176025390625,0.21967706084251404,0.2389683574438095,-0.2314489483833313
1772642780339221200,0.10122119140625,0.23745562136173248,0.2921488285064697,-0.23420268297195435
1772642780349266200,0.11126611328125,0.18190422654151917,0.3415965437889099,-0.25616708397865295
1772642780359311400,0.121311279296875,0.11327847838401794,0.29631897807121277,-0.262076199054718
1772642780369356300,0.131356201171875,0.08423910290002823,0.20940884947776794,-0.25850996375083923
1772642780379400200,0.141400146484375,0.09060993790626526,0.11288027465343475,-0.22146040201187134
1772642780389445400,0.1514453125,0.08044811338186264,0.03778819367289543,-0.169949010014534
1772642780399490300,0.161490234375,0.04330102354288101,-0.037536513060331345,-0.1443381905555725
1772642780409535200,0.17153515625,0.004290508572012186,-0.10094637423753738,-0.1259770393371582
1772642780419580200,0.181580078125,-0.029680047184228897,-0.15572302043437958,-0.11672449856996536
1772642780429625300,0.191625244140625,-0.05736946314573288,-0.19297371804714203,-0.11868831515312195
1772642780439670300,0.201670166015625,-0.0890439972281456,-0.2038453072309494,-0.11513521522283554
1772642780449715500,0.211715576171875,-0.11534670740365982,-0.21177460253238678,-0.11122462898492813
1772642780459760000,0.221760009765625,-0.1356283724308014,-0.2132905125617981,-0.10659045726060867
1772642780469804300,0.23180419921875,-0.1453680843114853,-0.21815983951091766,-0.09261339157819748
1772642780479849200,0.24184912109375,-0.14631062746047974,-0.2211935967206955,-0.06385393440723419
1772642780489894400,0.251894287109375,-0.14397184550762177,-0.21271835267543793,-0.02455206960439682
1772642780499939300,0.261939208984375,-0.14283880591392517,-0.1944684088230133,0.022069063037633896
1772642780509984300,0.271984375,-0.15424379706382751,-0.14982077479362488,0.06593265384435654
1772642780520029200,0.282029296875,-0.17559190094470978,-0.06643900275230408,0.09774500131607056
1772642780530074400,0.292074462890625,-0.18792925775051117,0.047431107610464096,0.10969433933496475
1772642780540119300,0.302119384765625,-0.19427362084388733,0.1694735884666443,0.11459322273731232
1772642780550163200,0.3121630859375,-0.1925888955593109,0.28028079867362976,0.10745488107204437
1772642780560208400,0.32220849609375,-0.19510561227798462,0.3868362307548523,0.11561162024736404
1772642780570253300,0.33225341796875,-0.19075506925582886,0.4682557284832001,0.14414367079734802
1772642780580298200,0.34229833984375,-0.19377394020557404,0.49368393421173096,0.1878434717655182
1772642780590343200,0.35234326171875,-0.20404255390167236,0.4690355658531189,0.2495798021554947
1772642780600388400,0.362388427734375,-0.2139427214860916,0.42876604199409485,0.36281704902648926
1772642780610433300,0.372433349609375,-0.2141120880842209,0.3577896058559418,0.5126600861549377
1772642780620478500,0.382478515625,-0.20442545413970947,0.2600303590297699,0.6814519762992859
1772642780630523100,0.392523193359375,-0.18985502421855927,0.14957842230796814,0.8428448438644409
1772642780640567300,0.4025673828125,-0.1788635551929474,-0.023504996672272682,0.9629998207092285
1772642780650612500,0.412612548828125,-0.20465600490570068,-0.26729556918144226,1.0185555219650269
1772642780660657200,0.4226572265625,-0.2783280611038208,-0.5356065630912781,1.0193724632263184
1772642780670702300,0.432702392578125,-0.3869189918041229,-0.7534270286560059,1.00588059425354
1772642780680747300,0.442747314453125,-0.5015316605567932,-0.8876696228981018,1.0032862424850464
1772642780690792400,0.45279248046875,-0.6069158911705017,-0.9091858863830566,1.0332233905792236
1772642780700837400,0.46283740234375,-0.6661853790283203,-0.8197489380836487,1.1123074293136597
1772642780710882300,0.47288232421875,-0.6743359565734863,-0.6796243190765381,1.2161369323730469
1772642780720927200,0.48292724609375,-0.6675869822502136,-0.5031013488769531,1.2967612743377686
1772642780730971400,0.492971435546875,-0.6541025638580322,-0.3049541711807251,1.2975904941558838
1772642780741016300,0.503016357421875,-0.6319081783294678,-0.09705973416566849,1.206299901008606
1772642780751061200,0.513061279296875,-0.6022805571556091,0.08938950300216675,1.0495752096176147
1772642780761106200,0.523106201171875,-0.582194983959198,0.23176182806491852,0.8778486847877502
1772642780771151400,0.5331513671875,-0.5720270276069641,0.34262147545814514,0.7292845249176025
1772642780781196300,0.5431962890625,-0.5578920841217041,0.3911305367946625,0.5990162491798401
1772642780791241200,0.5532412109375,-0.5245277285575867,0.37500375509262085,0.48416903614997864
1772642780801286100,0.5632861328125,-0.4737507998943329,0.24487008154392242,0.39016833901405334
1772642780811331300,0.573331298828125,-0.4131114184856415,-0.025935325771570206,0.3339543342590332
1772642780821375500,0.58337548828125,-0.3547035753726959,-0.4535740911960602,0.337395578622818
1772642780831420200,0.593420166015625,-0.30038654804229736,-1.0306787490844727,0.39171260595321655
1772642780841465300,0.60346533203125,-0.2662598192691803,-1.632296085357666,0.5043412446975708
1772642780851510300,0.61351025390625,-0.22805358469486237,-2.1565115451812744,0.6696010231971741
1772642780861555500,0.623555419921875,-0.14574286341667175,-2.5688440799713135,0.862944483757019
1772642780871600400,0.633600341796875,-0.01927201822400093,-2.872648239135742,1.0290114879608154
1772642780881645300,0.643645263671875,0.14587129652500153,-3.042948007583618,1.1077091693878174
1772642780891690200,0.653690185546875,0.3367360532283783,-3.084803581237793,1.0917809009552002
1772642780901735400,0.6637353515625,0.5361796021461487,-3.055563449859619,0.9999629259109497
1772642780911779000,0.673779052734375,0.7096717953681946,-2.973273515701294,0.8423594236373901
1772642780921824300,0.68382421875,0.8395248651504517,-2.8340718746185303,0.6518570780754089
1772642780931869200,0.693869140625,0.9236429333686829,-2.6373789310455322,0.4820173978805542
1772642780941914400,0.703914306640625,0.9705597162246704,-2.3674049377441406,0.38073599338531494
1772642780951959300,0.713959228515625,0.9700606465339661,-2.0084874629974365,0.37801504135131836
1772642780962004200,0.724004150390625,0.9335549473762512,-1.6463651657104492,0.4480997323989868
1772642780972049200,0.734049072265625,0.8878514170646667,-1.3867347240447998,0.5084110498428345
1772642780982094300,0.74409423828125,0.8580195307731628,-1.201630711555481,0.5349904894828796
1772642780992139300,0.75413916015625,0.8727742433547974,-1.0349018573760986,0.5628644824028015
1772642781002183200,0.76418310546875,0.8823812007904053,-0.8166626691818237,0.5957252979278564
1772642781012228400,0.774228271484375,0.8325582146644592,-0.5154985785484314,0.6372527480125427
1772642781022273300,0.784273193359375,0.7074254155158997,-0.14434602856636047,0.7039154767990112
1772642781032318500,0.794318359375,0.5293859243392944,0.24372288584709167,0.80421382188797
1772642781042363100,0.804363037109375,0.3493621349334717,0.5241886973381042,0.9361845254898071
1772642781052408300,0.814408203125,0.12233725190162659,0.8315384984016418,1.0970319509506226
1772642781062453200,0.824453369140625,-0.1193808913230896,1.0173412561416626,1.2360478639602661
1772642781072498400,0.83449853515625,-0.34977710247039795,1.0592905282974243,1.286147952079773
1772642781082543400,0.84454345703125,-0.5161237716674805,0.870741605758667,1.2462023496627808
1772642781092587300,0.854587158203125,-0.6379692554473877,0.5841556787490845,1.1256868839263916
1772642781102632200,0.864632080078125,-0.7529318928718567,0.36883774399757385,0.9606844782829285
1772642781112677400,0.874677490234375,-0.863481342792511,0.28705498576164246,0.7739920616149902
1772642781122722300,0.884722412109375,-0.9608176946640015,0.33911949396133423,0.5656331777572632
1772642781132767200,0.894767333984375,-1.025805115699768,0.4991413950920105,0.3497685492038727
1772642781142812200,0.904812255859375,-1.0504848957061768,0.7417934536933899,0.1487802267074585
1772642781152857300,0.914857421875,-1.0273430347442627,1.0042088031768799,-0.022898593917489052
1772642781162902300,0.92490234375,-0.9729019403457642,1.211435317993164,-0.1660725325345993
1772642781172947200,0.934947265625,-0.9116103649139404,1.3441721200942993,-0.27050891518592834
1772642781182991400,0.944991455078125,-0.8641259074211121,1.416440725326538,-0.3344514071941376
1772642781193036300,0.955036376953125,-0.8252421617507935,1.4236234426498413,-0.3542855679988861
1772642781203081500,0.96508154296875,-0.7854412198066711,1.3744770288467407,-0.3278760612010956
1772642781213126000,0.9751259765625,-0.7411986589431763,1.278749704360962,-0.26436713337898254
1772642781223171000,0.985171142578125,-0.7017331123352051,1.1653916835784912,-0.16579049825668335
1772642781233216000,0.995216064453125,-0.6739137172698975,1.097184658050537,-0.009230175986886024
1772642781243261200,1.00526123046875,-0.6349508166313171,1.0510259866714478,0.1941053569316864
1772642781253306000,1.01530615234375,-0.5764486193656921,1.0076459646224976,0.4224754273891449
1772642781263351000,1.02535107421875,-0.5150781869888306,0.9838963747024536,0.6554625034332275
1772642781273395000,1.03539501953125,-0.4530355632305145,0.9312542080879211,0.8653774261474609
1772642781283440000,1.045440185546875,-0.41272300481796265,0.7676106095314026,1.0096794366836548
1772642781293484800,1.05548486328125,-0.41502103209495544,0.39893803000450134,1.022991418838501
1772642781303530000,1.065530029296875,-0.4709692895412445,-0.062027111649513245,0.9119012951850891
1772642781313575000,1.075574951171875,-0.545307457447052,-0.5167927742004395,0.703971266746521
1772642781323620000,1.0856201171875,-0.5843047499656677,-0.7993404865264893,0.4603191018104553
1772642781333665000,1.0956650390625,-0.561124861240387,-0.8464062809944153,0.20813880860805511
1772642781343710000,1.1057099609375,-0.483281672000885,-0.7436653971672058,-0.08061178028583527
1772642781353754000,1.115754150390625,-0.40227630734443665,-0.5669665336608887,-0.4291287362575531
1772642781363799000,1.125799072265625,-0.3436698615550995,-0.33257973194122314,-0.80196613073349
1772642781373844200,1.13584423828125,-0.2881317734718323,-0.007786748465150595,-1.1355100870132446
1772642781383889000,1.145888916015625,-0.22107180953025818,0.34074556827545166,-1.3605142831802368
1772642781393934000,1.15593408203125,-0.1281711608171463,0.6511242389678955,-1.4287974834442139
1772642781403979000,1.16597900390625,-0.011837825179100037,0.934975266456604,-1.3704413175582886
1772642781414024200,1.176024169921875,0.06499037891626358,1.039861798286438,-1.264237642288208
1772642781424068900,1.18606884765625,0.042373690754175186,0.9158883690834045,-1.1930848360061646
1772642781434114000,1.196114013671875,-0.05400797352194786,0.6839528679847717,-1.121609091758728
1772642781444158000,1.206157958984375,-0.15031789243221283,0.43568384647369385,-0.970833420753479
1772642781454203100,1.216203125,-0.18382950127124786,0.23632144927978516,-0.6997894048690796
1772642781464248000,1.226248046875,-0.13510936498641968,0.07741036266088486,-0.32078754901885986
1772642781474293000,1.23629296875,-0.017596054822206497,-0.03822542354464531,0.13773450255393982
1772642781484338000,1.246337890625,0.1576651781797409,-0.19830916821956635,0.5786699652671814
1772642781494383000,1.256383056640625,0.2900751531124115,-0.47661563754081726,0.8679108619689941
1772642781504428000,1.266427978515625,0.3109794557094574,-0.796766459941864,0.9675618410110474
1772642781514473000,1.276472900390625,0.23927302658557892,-1.014110803604126,0.9458522796630859
1772642781524517000,1.28651708984375,0.1618313491344452,-1.0897411108016968,0.8634005188941956
1772642781534562000,1.29656201171875,0.12559717893600464,-1.045257806777954,0.742167055606842
1772642781544607000,1.30660693359375,0.11770645529031754,-0.8958173990249634,0.5848386883735657
1772642781554652000,1.31665185546875,0.11506779491901398,-0.7646516561508179,0.3939518630504608
1772642781564697000,1.326697021484375,0.07901076972484589,-0.7322696447372437,0.15852303802967072
1772642781574742000,1.336741943359375,0.017264854162931442,-0.7909047603607178,-0.08662492781877518
1772642781584787200,1.346787109375,-0.048459067940711975,-0.9777500033378601,-0.28703781962394714
1772642781594832000,1.356831787109375,-0.09514747560024261,-1.2544399499893188,-0.3954913318157196
1772642781604877000,1.366876953125,-0.11632899194955826,-1.5656569004058838,-0.4270499646663666
1772642781614921200,1.376921142578125,-0.10307817161083221,-1.8127410411834717,-0.4071175158023834
1772642781624966100,1.386966064453125,-0.058671485632658005,-1.8943653106689453,-0.38563212752342224
1772642781635011000,1.397010986328125,0.02776753343641758,-1.793731451034546,-0.4037621319293976
1772642781645056000,1.407055908203125,0.1840670257806778,-1.537275791168213,-0.4471855163574219
1772642781655101200,1.41710107421875,0.3958197832107544,-1.2082983255386353,-0.5088350176811218
1772642781665146000,1.42714599609375,0.6190609931945801,-0.9057689905166626,-0.5883774161338806
1772642781675191000,1.43719091796875,0.8080458045005798,-0.7031919360160828,-0.6762713193893433
1772642781685236000,1.447236083984375,0.9328349828720093,-0.5933757424354553,-0.7421430349349976
1772642781695280000,1.457280029296875,0.966325044631958,-0.5478322505950928,-0.7801204919815063
1772642781705325000,1.467324951171875,0.9342869520187378,-0.5531014204025269,-0.8075121641159058
1772642781715370000,1.477369873046875,0.8566504716873169,-0.5859187841415405,-0.8255077004432678
1772642781725415000,1.487414794921875,0.7609134316444397,-0.5880746245384216,-0.8245078921318054
1772642781735460000,1.497460205078125,0.6352841258049011,-0.5262344479560852,-0.8042585253715515
1772642781745505000,1.507505126953125,0.4717443883419037,-0.3666345179080963,-0.7710717916488647
1772642781755550200,1.51755029296875,0.28626346588134766,-0.12139175832271576,-0.7410997748374939
1772642781765595000,1.527594970703125,0.10990648716688156,0.17263485491275787,-0.7003199458122253
1772642781775640000,1.53764013671875,-0.025718456134200096,0.4752333462238312,-0.6143347024917603
1772642781785685000,1.54768505859375,-0.10013420134782791,0.7256461381912231,-0.48093292117118835
1772642781795729000,1.55772900390625,-0.11994625627994537,0.8893943428993225,-0.30282336473464966
1772642781805774000,1.567774169921875,-0.10539236664772034,0.9599059224128723,-0.09987868368625641
1772642781815819000,1.577819091796875,-0.08346337080001831,0.9566608667373657,0.12834863364696503
1772642781825864200,1.5878642578125,-0.0726749375462532,0.9204176664352417,0.3687101900577545
1772642781835909000,1.5979091796875,-0.08053819090127945,0.8429985046386719,0.612817645072937
1772642781845954000,1.6079541015625,-0.11929871886968613,0.7263056635856628,0.8362727761268616
1772642781855999000,1.6179990234375,-0.18245798349380493,0.5823729634284973,1.0241502523422241
1772642781866044200,1.628044189453125,-0.25031915307044983,0.4294603765010834,1.1554633378982544
1772642781876088000,1.638088134765625,-0.2977202236652374,0.31012651324272156,1.2268216609954834
1772642781886133000,1.648133056640625,-0.3090362846851349,0.23432005941867828,1.2387362718582153
1772642781896178000,1.658177978515625,-0.30743545293807983,0.1971934586763382,1.193565845489502
1772642781906223000,1.66822314453125,-0.3093394637107849,0.18963564932346344,1.1036951541900635
1772642781916268000,1.67826806640625,-0.32295116782188416,0.2133638858795166,0.9746346473693848
1772642781926313000,1.68831298828125,-0.3500783443450928,0.29290449619293213,0.822451114654541
1772642781936358000,1.69835791015625,-0.39124417304992676,0.421428918838501,0.6756752729415894
1772642781946403000,1.708403076171875,-0.43872830271720886,0.5400996208190918,0.5464564561843872
1772642781956447200,1.718447265625,-0.49188873171806335,0.6107767224311829,0.4337821304798126
1772642781966492000,1.728491943359375,-0.5494444370269775,0.6601539850234985,0.3480840027332306
1772642781976537000,1.738537109375,-0.5946356058120728,0.66586834192276,0.2976570427417755
1772642781986582000,1.74858203125,-0.6257109045982361,0.6089318990707397,0.2754629850387573
1772642781996627200,1.758627197265625,-0.6306857466697693,0.5469561219215393,0.3191976845264435
1772642782006672100,1.768672119140625,-0.5857974886894226,0.5418803095817566,0.46486708521842957
1772642782016717000,1.778717041015625,-0.5000284910202026,0.4596365690231323,0.5887823700904846
1772642782026762000,1.788761962890625,-0.40150609612464905,0.11442571133375168,0.5345280170440674
1772642782036807200,1.79880712890625,-0.3342655301094055,-0.5422240495681763,0.2344459444284439
1772642782046850800,1.808850830078125,-0.3364853858947754,-1.2135634422302246,-0.20208795368671417
1772642782056896000,1.81889599609375,-0.41241133213043213,-1.5715495347976685,-0.6522330045700073
1772642782066941000,1.82894091796875,-0.4818100929260254,-1.4586634635925293,-1.002469778060913
1772642782076986000,1.838986083984375,-0.49542951583862305,-0.8841254115104675,-1.1553407907485962
1772642782087031000,1.849031005859375,-0.40277329087257385,-0.2564733028411865,-1.2455387115478516
1772642782097076000,1.859075927734375,-0.23828205466270447,0.1070796325802803,-1.4693899154663086
1772642782107121000,1.869120849609375,-0.0794164165854454,0.5878363847732544,-1.726191520690918
1772642782117166000,1.879166015625,0.022744307294487953,1.1835691928863525,-1.8536407947540283
1772642782127211000,1.8892109375,0.0654619038105011,1.6159471273422241,-1.8273630142211914
1772642782137255000,1.8992548828125,0.11228000372648239,1.8351831436157227,-1.62826669216156
1772642782147300000,1.909300048828125,0.15815630555152893,1.8909480571746826,-1.313501238822937
1772642782157345000,1.919344970703125,0.14594650268554688,1.8083986043930054,-0.9869838356971741
1772642782167390200,1.92939013671875,0.1349189132452011,1.564065933227539,-0.6426917910575867
1772642782177435000,1.939434814453125,0.31948399543762207,1.0443103313446045,-0.26854750514030457
1772642782187480000,1.94947998046875,0.6688834428787231,0.3206324875354767,0.04397827759385109
1772642782197525000,1.95952490234375,0.9006626605987549,-0.4006229043006897,0.1899714320898056
1772642782207570000,1.96956982421875,0.7826128005981445,-0.9501280784606934,0.1390371322631836
1772642782217613800,1.97961376953125,0.3733680248260498,-1.1752122640609741,-0.010782175697386265
1772642782227659000,1.989658935546875,-0.07904305309057236,-1.0268750190734863,-0.08592984825372696
1772642782237703700,1.99970361328125,-0.320973664522171,-0.7315480709075928,-0.07384522259235382
1772642782247748900,2.009748779296875,-0.25338369607925415,-0.539164125919342,-0.08163809031248093
1772642782257793800,2.019793701171875,-0.02298111282289028,-0.2736365497112274,-0.10587045550346375
1772642782267839000,2.0298388671875,0.21013067662715912,0.15232627093791962,-0.09927545487880707
1772642782277884000,2.0398837890625,0.4014202058315277,0.4420830011367798,-0.10163261741399765
1772642782287928800,2.0499287109375,0.5687066912651062,0.4673652946949005,-0.10033976286649704
1772642782297973800,2.059973876953125,0.7071713805198669,0.3322194516658783,-0.06750458478927612
1772642782308018000,2.070017822265625,0.8068246841430664,0.1199965626001358,-0.025117071345448494
1772642782318063000,2.08006298828125,0.8642089366912842,-0.1443948745727539,0.007071224506944418
1772642782328107800,2.090107666015625,0.8769042491912842,-0.4239487946033478,-0.010370803996920586
1772642782338153000,2.100153076171875,0.8512670397758484,-0.6489004492759705,-0.09921518713235855
1772642782348198000,2.110197998046875,0.8116211891174316,-0.7728025913238525,-0.283412367105484
1772642782358243000,2.1202431640625,0.7629324793815613,-0.767684817314148,-0.5548244118690491
1772642782368287700,2.130287841796875,0.7314432263374329,-0.6454600691795349,-0.8897531628608704
1772642782378333000,2.1403330078125,0.7449811697006226,-0.4400741755962372,-1.240882396697998
1772642782388376800,2.150376953125,0.7997789978981018,-0.15072664618492126,-1.5408867597579956
1772642782398422000,2.160422119140625,0.8800022006034851,0.1797809600830078,-1.7361433506011963
1772642782408466700,2.170466796875,0.9412561058998108,0.41640913486480713,-1.7995072603225708
1772642782418512000,2.180511962890625,0.9321582317352295,0.4253365695476532,-1.7212436199188232
1772642782428556800,2.190556884765625,0.8549419045448303,0.1747792810201645,-1.4856767654418945
1772642782438602000,2.20060205078125,0.7351883053779602,-0.33684539794921875,-1.1234991550445557
1772642782448647000,2.21064697265625,0.5914580821990967,-1.0257561206817627,-0.6822843551635742
1772642782458691800,2.22069189453125,0.4420579671859741,-1.734422206878662,-0.21757850050926208
1772642782468736800,2.23073681640625,0.3242535889148712,-2.305476665496826,0.3152206838130951
1772642782478781000,2.240781005859375,0.21808159351348877,-2.616227149963379,0.7987173199653625
1772642782488825900,2.250825927734375,0.14608195424079895,-2.6072499752044678,1.1832457780838013
1772642782498870800,2.260870849609375,0.08839574456214905,-2.2237372398376465,1.5023385286331177
1772642782508916000,2.270916015625,0.01901567541062832,-1.5341752767562866,1.7569935321807861
1772642782518961000,2.2809609375,-0.01900015026330948,-0.8131985068321228,1.9302849769592285
1772642782529006000,2.291006103515625,-0.002276637824252248,-0.28501027822494507,2.006676435470581
1772642782539050800,2.30105078125,0.0404931977391243,0.1295381635427475,2.0080885887145996
1772642782549096000,2.311095947265625,0.11489886790513992,0.3629142940044403,1.9179946184158325
1772642782559139800,2.321139892578125,0.2052314281463623,0.44510743021965027,1.749642014503479
1772642782569185000,2.33118505859375,0.2875460982322693,0.4548342525959015,1.5485775470733643
1772642782579230000,2.34122998046875,0.36118119955062866,0.44394057989120483,1.364126205444336
1772642782589275000,2.35127490234375,0.3998776376247406,0.4189017713069916,1.2167696952819824
1772642782599319800,2.36131982421875,0.3862246870994568,0.4467163681983948,1.0844069719314575
1772642782609365000,2.371364990234375,0.3042435348033905,0.5455747246742249,0.9484179019927979
1772642782619410000,2.381409912109375,0.1783817559480667,0.6746405959129333,0.8409519195556641
1772642782629454800,2.391454833984375,0.03352294862270355,0.8170730471611023,0.7633909583091736
1772642782639499800,2.401499755859375,-0.08523672819137573,0.9199243187904358,0.7141352891921997
1772642782649544000,2.4115439453125,-0.16392186284065247,0.9521702527999878,0.6868100762367249
1772642782659588900,2.4215888671875,-0.20897242426872253,0.9319331645965576,0.695164680480957
1772642782669633800,2.4316337890625,-0.21938040852546692,0.8682555556297302,0.7455390095710754
1772642782679679000,2.441678955078125,-0.18955247104167938,0.7604052424430847,0.8388026356697083
1772642782689724000,2.451723876953125,-0.12359929829835892,0.6183993816375732,0.9529406428337097
1772642782699769000,2.46176904296875,-0.04236729070544243,0.4545060694217682,1.031223177909851
1772642782709813800,2.471813720703125,0.02864711731672287,0.29591307044029236,1.046513319015503
1772642782719859000,2.48185888671875,0.056234270334243774,0.1307680457830429,0.9611586928367615
1772642782729903000,2.491903076171875,0.033895574510097504,-0.12713593244552612,0.71049565076828
1772642782739947800,2.50194775390625,-0.01806429773569107,-0.44229093194007874,0.2958691716194153
1772642782749993000,2.511992919921875,-0.0881289541721344,-0.6403135657310486,-0.14808516204357147
1772642782760038000,2.522037841796875,-0.1547657698392868,-0.6292881369590759,-0.4950673580169678
1772642782770083000,2.5320830078125,-0.15880566835403442,-0.4932895600795746,-0.7637989521026611
1772642782780128000,2.5421279296875,-0.05338950455188751,-0.20582158863544464,-0.9504633545875549
1772642782790173000,2.5521728515625,0.11409910023212433,0.10145789384841919,-1.1805088520050049
1772642782800217900,2.5622177734375,0.25170356035232544,0.26925116777420044,-1.6907607316970825
1772642782810263000,2.572262939453125,0.35025909543037415,0.5155915021896362,-2.2414655685424805
1772642782820307000,2.582306884765625,0.286424458026886,0.7614859342575073,-2.697354316711426
1772642782830352000,2.592351806640625,0.06091660261154175,0.8974642157554626,-3.0969269275665283
1772642782840396800,2.602396728515625,-0.14512817561626434,0.9728007912635803,-3.2623515129089355
1772642782850442000,2.61244189453125,-0.23430581390857697,0.9436487555503845,-3.1062185764312744
1772642782860487000,2.62248681640625,-0.20659296214580536,0.8051851391792297,-2.613426446914673
1772642782870531800,2.63253173828125,-0.12631990015506744,0.5752960443496704,-1.904302954673767
1772642782880576800,2.64257666015625,-0.09513482451438904,0.257431298494339,-1.174747109413147
1772642782890622000,2.6526220703125,-0.1810981035232544,-0.14629487693309784,-0.567572832107544
1772642782900666000,2.662666015625,-0.35542061924934387,-0.5409601330757141,-0.09435837715864182
1772642782910710800,2.672710693359375,-0.5181724429130554,-0.8253873586654663,0.2775062620639801
1772642782920756000,2.682755859375,-0.6374532580375671,-0.9175201654434204,0.5544412136077881
1772642782930801000,2.69280078125,-0.6816704869270325,-0.7901098132133484,0.7869507074356079
1772642782940846000,2.70284619140625,-0.6471239328384399,-0.5347113609313965,0.9773368835449219
1772642782950891000,2.71289111328125,-0.5555455088615417,-0.2969232201576233,1.1075996160507202
1772642782960936000,2.72293603515625,-0.4739798307418823,-0.1285073161125183,1.1507614850997925
1772642782970980900,2.73298095703125,-0.44970524311065674,-0.05819302797317505,1.118855357170105
1772642782981026000,2.743026123046875,-0.47908177971839905,-0.040537066757678986,1.0516886711120605
1772642782991069700,2.753069580078125,-0.5916601419448853,0.05297835171222687,1.0057765245437622
1772642783001115000,2.763114990234375,-0.797829270362854,0.2201486974954605,0.9820696711540222
1772642783011159800,2.773159912109375,-1.0907965898513794,0.31430065631866455,0.9217737317085266
1772642783021205000,2.783205078125,-1.4366530179977417,0.2698780596256256,0.7783731818199158
1772642783031250000,2.79325,-1.7274314165115356,0.09580779820680618,0.5692822933197021
1772642783041294800,2.803294921875,-1.8471386432647705,-0.13905930519104004,0.3490351438522339
1772642783051339800,2.81333984375,-1.7537347078323364,-0.33522099256515503,0.19442503154277802
1772642783061385000,2.823385009765625,-1.448664903640747,-0.4531404376029968,0.14142706990242004
1772642783071430000,2.833429931640625,-1.0345187187194824,-0.4526177644729614,0.1764415204524994
1772642783081473800,2.843473876953125,-0.6293113231658936,-0.29191702604293823,0.2768767774105072
1772642783091519000,2.85351904296875,-0.2981078624725342,-0.059317827224731445,0.414271742105484
1772642783101564000,2.86356396484375,-0.06823231279850006,0.11251145601272583,0.5854477882385254
1772642783111609000,2.873609130859375,0.04908088222146034,0.17519545555114746,0.7892009615898132
1772642783121653800,2.88365380859375,0.0575135163962841,0.1642187088727951,1.0433472394943237
1772642783131699000,2.893698974609375,-0.021144185215234756,0.13679379224777222,1.3292019367218018
1772642783141743900,2.903743896484375,-0.16236576437950134,0.10782419145107269,1.6163774728775024
1772642783151789000,2.9137890625,-0.3206694722175598,0.058996543288230896,1.8705899715423584
1772642783161832700,2.923832763671875,-0.46253421902656555,-0.032363731414079666,2.064857244491577
1772642783171878000,2.9338779296875,-0.5763400197029114,-0.12819622457027435,2.1727755069732666
1772642783181922800,2.9439228515625,-0.6419246196746826,-0.19141700863838196,2.1935503482818604
1772642783191968000,2.953968017578125,-0.6548069715499878,-0.23715507984161377,2.1279456615448
1772642783202013000,2.964012939453125,-0.6548967361450195,-0.27444279193878174,1.9964920282363892
1772642783212058400,2.974058349609375,-0.7504000663757324,-0.3710919916629791,1.8607921600341797
1772642783222103300,2.984103271484375,-0.906659722328186,-0.3190857768058777,1.6743546724319458
1772642783232148500,2.9941484375,-0.9687253832817078,-0.24909137189388275,1.4080734252929688
1772642783242193200,3.004193115234375,-0.9716346263885498,-0.23281678557395935,1.1004778146743774
1772642783252237300,3.0142373046875,-0.9841338992118835,-0.1195918396115303,0.7815666794776917
1772642783262282500,3.024282470703125,-0.9507980346679688,0.021752238273620605,0.4858338236808777
1772642783272327400,3.034327392578125,-0.8531147837638855,0.1727878451347351,0.23555517196655273
1772642783282372400,3.044372314453125,-0.7430865168571472,0.35117197036743164,0.03170457109808922
1772642783292417300,3.054417236328125,-0.6429411172866821,0.532374382019043,-0.12827567756175995
1772642783302462500,3.06446240234375,-0.5675837993621826,0.6884907484054565,-0.24838609993457794
1772642783312507400,3.07450732421875,-0.4917038083076477,0.7975069880485535,-0.3267194628715515
1772642783322552300,3.08455224609375,-0.4191206991672516,0.8820293545722961,-0.3395649492740631
1772642783332596200,3.09459619140625,-0.3449980914592743,0.9620330333709717,-0.2608054280281067
1772642783342641400,3.104641357421875,-0.2847645580768585,0.9713354706764221,-0.09896032512187958
1772642783352686300,3.114686279296875,-0.23975244164466858,0.8032678365707397,0.08032101392745972
1772642783362731300,3.124731201171875,-0.18029949069023132,0.37175261974334717,0.17594154179096222
1772642783372776200,3.134776123046875,-0.10006572306156158,-0.21304921805858612,0.10488227754831314
1772642783382821400,3.1448212890625,-0.006707014981657267,-0.7226354479789734,-0.10785821825265884
1772642783392866300,3.1548662109375,0.08818816393613815,-0.9256154894828796,-0.40212395787239075
1772642783402911500,3.164911376953125,0.1845882087945938,-0.7361400723457336,-0.7041330337524414
1772642783412956200,3.1749560546875,0.2982632517814636,-0.2682020664215088,-0.9775141477584839
1772642783423000300,3.185000244140625,0.4369785189628601,0.20723743736743927,-1.2003488540649414
1772642783433045500,3.19504541015625,0.5610529780387878,0.4372408390045166,-1.438451886177063
1772642783443090400,3.20509033203125,0.6375005841255188,0.32104554772377014,-1.7329574823379517
1772642783453135400,3.21513525390625,0.5823661684989929,-0.07847163826227188,-2.158545732498169
1772642783463180300,3.22518017578125,0.41601496934890747,-0.4227118194103241,-2.631955623626709
1772642783473225500,3.2352255859375,0.22097067534923553,-0.5598076581954956,-2.9547033309936523
1772642783483270400,3.2452705078125,0.03839394450187683,-0.44587624073028564,-3.086437225341797
1772642783493315300,3.2553154296875,-0.08836906403303146,-0.06363595277070999,-3.049042224884033
1772642783503359200,3.265359130859375,-0.1665448248386383,0.43397971987724304,-2.902621030807495
1772642783513404400,3.275404296875,-0.2054457813501358,0.8316899538040161,-2.6886212825775146
1772642783523449300,3.285449462890625,-0.14909061789512634,0.9703322052955627,-2.3768436908721924
1772642783533494300,3.295494384765625,0.08513221144676208,0.7219383120536804,-1.9282501935958862
1772642783543539200,3.305539306640625,0.38119634985923767,0.06099602207541466,-1.4234048128128052
1772642783553584400,3.31558447265625,0.5234018564224243,-0.6782266497612,-0.9389846920967102
1772642783563629300,3.32562939453125,0.442288339138031,-1.2168751955032349,-0.533505916595459
1772642783573674500,3.335674560546875,0.21455776691436768,-1.3589507341384888,-0.16862852871418
1772642783583719200,3.34571923828125,-0.0078364172950387,-1.171478033065796,0.14995983242988586
1772642783593763300,3.355763427734375,-0.10822293907403946,-0.7695484757423401,0.41120660305023193
1772642783603808500,3.36580859375,-0.07700803130865097,-0.30668336153030396,0.599187433719635
1772642783613853200,3.375853271484375,0.023012494668364525,0.0554744154214859,0.6925192475318909
1772642783623898400,3.3858984375,0.13723094761371613,0.28692734241485596,0.7156559824943542
1772642783633943300,3.395943359375,0.24258778989315033,0.33426418900489807,0.6873866319656372
1772642783643988500,3.405988525390625,0.30694815516471863,0.22573503851890564,0.6043423414230347
1772642783654033400,3.416033447265625,0.3054690659046173,0.06909822672605515,0.4891703128814697
1772642783664078300,3.426078369140625,0.2599465847015381,-0.0945916399359703,0.36868518590927124
1772642783674122200,3.436122314453125,0.21103599667549133,-0.24467645585536957,0.257619172334671
1772642783684167400,3.44616748046875,0.17918752133846283,-0.3689134418964386,0.16441573202610016
1772642783694212400,3.45621240234375,0.1677321195602417,-0.4555600881576538,0.07921002805233002
1772642783704257300,3.46625732421875,0.17435674369335175,-0.49496927857398987,-0.014631778933107853
1772642783714302200,3.47630224609375,0.19333675503730774,-0.4793926775455475,-0.1498834192752838
1772642783724347400,3.486347412109375,0.24393947422504425,-0.4172627329826355,-0.3315024971961975
1772642783734392300,3.496392333984375,0.33219826221466064,-0.3510480523109436,-0.5452497601509094
1772642783744437200,3.506437255859375,0.42894160747528076,-0.27514874935150146,-0.7663009166717529
1772642783754481400,3.5164814453125,0.49203670024871826,-0.16356971859931946,-0.9641885757446289
1772642783764526300,3.5265263671875,0.5089181661605835,0.049492765218019485,-1.1012301445007324
1772642783774571500,3.536571533203125,0.48301392793655396,0.34554314613342285,-1.150194764137268
1772642783784616200,3.5466162109375,0.42956480383872986,0.669131875038147,-1.109795331954956
1772642783794661400,3.556661376953125,0.3519761562347412,0.9889910221099854,-0.9901137948036194
1772642783804706300,3.566706298828125,0.2570842504501343,1.2786505222320557,-0.797968864440918
1772642783814751500,3.57675146484375,0.16530682146549225,1.4861114025115967,-0.5396221280097961
1772642783824796400,3.58679638671875,0.09249065816402435,1.566041350364685,-0.23763564229011536
1772642783834841300,3.59684130859375,0.051466621458530426,1.5053844451904297,0.07131499797105789
1772642783844885200,3.60688525390625,0.04260202497243881,1.3326363563537598,0.3793522119522095
1772642783854930400,3.616930419921875,0.06264180690050125,1.0785529613494873,0.6537433862686157
1772642783864975000,3.62697509765625,0.08961191028356552,0.7956005930900574,0.8788537383079529
1772642783875020300,3.637020263671875,0.12101274728775024,0.5384097695350647,1.0522164106369019
1772642783885065200,3.647065185546875,0.16805030405521393,0.3377376198768616,1.186693787574768
1772642783895110400,3.6571103515625,0.2267986387014389,0.17412249743938446,1.2736254930496216
1772642783905155300,3.6671552734375,0.26928430795669556,0.05849044770002365,1.3017746210098267
1772642783915200300,3.6772001953125,0.26055940985679626,0.004653965122997761,1.2858316898345947
1772642783925245200,3.6872451171875,0.18561115860939026,0.001631277147680521,1.2274527549743652
1772642783935289300,3.697289306640625,0.07899314910173416,0.021989619359374046,1.1392351388931274
1772642783945334500,3.70733447265625,-0.029621480032801628,0.06611526757478714,1.0209802389144897
1772642783955379200,3.717379150390625,-0.12347050756216049,0.13606294989585876,0.8894935250282288
1772642783965424400,3.72742431640625,-0.18921516835689545,0.20733658969402313,0.740630030632019
1772642783975469300,3.73746923828125,-0.2294732630252838,0.276845782995224,0.5726207494735718
1772642783985514500,3.747514404296875,-0.2396947294473648,0.339191198348999,0.4202825725078583
1772642783995559200,3.75755908203125,-0.20400641858577728,0.3658406734466553,0.29436060786247253
1772642784005604400,3.767604248046875,-0.14632155001163483,0.37411564588546753,0.219124436378479
1772642784015648300,3.777648193359375,-0.0928490087389946,0.39103180170059204,0.22424834966659546
1772642784025693400,3.787693359375,-0.04165852814912796,0.4051673114299774,0.30963462591171265
1772642784035738000,3.797738037109375,0.005802895873785019,0.3261989951133728,0.4120337665081024
1772642784045783300,3.807783203125,0.021287579089403152,0.02803228050470352,0.468692809343338
1772642784055828200,3.817828125,-0.0009121139300987124,-0.4912334084510803,0.45064306259155273
1772642784065873400,3.827873291015625,-0.012122424319386482,-1.1053553819656372,0.31264710426330566
1772642784075918300,3.83791845703125,0.03367508947849274,-1.5877259969711304,0.09029224514961243
1772642784085963300,3.84796337890625,0.09777950495481491,-1.7653478384017944,-0.2013619840145111
1772642784096007400,3.85800732421875,0.15166611969470978,-1.6816246509552002,-0.590414822101593
1772642784106052400,3.86805224609375,0.1954309195280075,-1.4406967163085938,-1.0324132442474365
1772642784116097300,3.87809716796875,0.25608325004577637,-1.1524900197982788,-1.4469382762908936
1772642784126142200,3.88814208984375,0.3543751835823059,-0.9018831253051758,-1.7742199897766113
1772642784136187400,3.8981875,0.4229864180088043,-0.573774516582489,-2.0573811531066895
1772642784146232300,3.908232421875,0.4001460671424866,-0.15158522129058838,-2.253131628036499
1772642784156277500,3.918277587890625,0.2551623284816742,0.10137762874364853,-2.481511354446411
1772642784166322200,3.928322265625,0.07826773822307587,0.1359180212020874,-2.6920692920684814
1772642784176367400,3.938367431640625,-0.11094846576452255,0.013767233118414879,-2.804720401763916
1772642784186411300,3.948411376953125,-0.2743062376976013,0.00040668644942343235,-2.6424903869628906
1772642784196456400,3.95845654296875,-0.2482329159975052,0.08467403799295425,-2.11844539642334
1772642784206501000,3.968501220703125,0.05441776663064957,0.06947777420282364,-1.3450459241867065
1772642784216545800,3.9785458984375,0.4723731279373169,-0.11572451889514923,-0.5036977529525757
1772642784226591000,3.988591064453125,0.7131628394126892,-0.44000324606895447,0.18644709885120392
1772642784236636000,3.998635986328125,0.65475994348526,-0.7669508457183838,0.624006450176239
1772642784246681000,4.00868115234375,0.35104188323020935,-0.947661280632019,0.8401570916175842
1772642784256725800,4.018725830078125,-0.030731476843357086,-0.8636190891265869,0.9349679350852966
1772642784266770000,4.02877001953125,-0.3017224967479706,-0.5664483904838562,0.984552800655365
1772642784276814800,4.03881494140625,-0.3976694643497467,-0.16209164261817932,0.9991195797920227
1772642784286860000,4.048860107421875,-0.37158992886543274,0.1959858238697052,0.994827389717102
1772642784296904700,4.05890478515625,-0.26476022601127625,0.3215824067592621,0.9401443004608154
1772642784306950000,4.068949951171875,-0.1566995233297348,0.15944330394268036,0.7905644178390503
1772642784316994800,4.078994873046875,-0.13288231194019318,-0.1845969259738922,0.5168097615242004
1772642784327040000,4.0890400390625,-0.21030598878860474,-0.5319767594337463,0.1435389518737793
1772642784337085000,4.0990849609375,-0.3520265817642212,-0.7547459602355957,-0.27751585841178894
1772642784347128800,4.10912890625,-0.4998179078102112,-0.8536597490310669,-0.6874232292175293
1772642784357174000,4.119174072265625,-0.5886409282684326,-0.8559465408325195,-1.0798068046569824
1772642784367219000,4.129218994140625,-0.5834192633628845,-0.773133397102356,-1.4411402940750122
1772642784377264000,4.13926416015625,-0.45356276631355286,-0.5926735401153564,-1.715428352355957
1772642784387308800,4.149308837890625,-0.224784716963768,-0.3924402892589569,-1.872585654258728
1772642784397354000,4.15935400390625,0.04154093563556671,-0.18759384751319885,-1.9075798988342285
1772642784407399000,4.16939892578125,0.2964390218257904,-0.023384928703308105,-1.826321005821228
1772642784417444000,4.179444091796875,0.49876540899276733,0.082310751080513,-1.6545417308807373
1772642784427488800,4.18948876953125,0.6250588893890381,0.13994714617729187,-1.4238903522491455
1772642784437533000,4.199532958984375,0.6897684335708618,0.17004825174808502,-1.1501398086547852
1772642784447577900,4.209577880859375,0.7209466099739075,0.1884608119726181,-0.8532137870788574
1772642784457623000,4.219623046875,0.7351226210594177,0.2492324709892273,-0.5362135767936707
1772642784467667700,4.229667724609375,0.7345670461654663,0.35623323917388916,-0.22145728766918182
1772642784477713000,4.239712890625,0.7146596908569336,0.4842687249183655,0.032852739095687866
1772642784487757800,4.2497578125,0.6690307259559631,0.5903871655464172,0.3008279800415039
1772642784497803000,4.259802978515625,0.5785104036331177,0.7107075452804565,0.5267593264579773
1772642784507848000,4.269847900390625,0.45998695492744446,0.8017657995223999,0.71148681640625
1772642784517891800,4.279891845703125,0.3356873095035553,0.8538358807563782,0.8645922541618347
1772642784527937000,4.28993701171875,0.2195335328578949,0.8688574433326721,0.9846190214157104
1772642784537982000,4.29998193359375,0.12226814031600952,0.8605019450187683,1.0701212882995605
1772642784548027000,4.31002685546875,0.055488310754299164,0.819669246673584,1.1227383613586426
1772642784558071800,4.32007177734375,0.02309110388159752,0.7379946112632751,1.1339948177337646
1772642784568117000,4.330116943359375,0.0035514894407242537,0.6201246976852417,1.103803038597107
1772642784578162000,4.340161865234375,-0.01334722526371479,0.46829646825790405,1.037554144859314
1772642784588207000,4.35020703125,-0.043816983699798584,0.28423845767974854,0.9257254600524902
1772642784598250800,4.360250732421875,-0.09955195337533951,0.10771777480840683,0.777034342288971
1772642784608296000,4.3702958984375,-0.19072791934013367,0.020832406356930733,0.6322515606880188
1772642784618340900,4.3803408203125,-0.296569287776947,0.03574373200535774,0.5066165924072266
1772642784628386000,4.390385986328125,-0.3935568332672119,0.11797336488962173,0.4234018623828888
1772642784638430700,4.4004306640625,-0.46894919872283936,0.23912149667739868,0.38556623458862305
1772642784648476000,4.410475830078125,-0.5328218936920166,0.37917181849479675,0.3815009295940399
1772642784658520800,4.420520751953125,-0.5969036221504211,0.5207381248474121,0.41444626450538635
1772642784668566000,4.43056591796875,-0.6590823531150818,0.5850539803504944,0.4614872932434082
1772642784678610000,4.44060986328125,-0.7055788636207581,0.5743624567985535,0.5304678678512573
1772642784688654800,4.45065478515625,-0.6853641271591187,0.5292506217956543,0.6550260186195374
1772642784698700000,4.460699951171875,-0.6029243469238281,0.43592625856399536,0.8053719997406006
1772642784708745000,4.470744873046875,-0.5253562927246094,0.2826259136199951,0.931921124458313
1772642784718790000,4.480789794921875,-0.5026738047599792,0.004530373495072126,0.9828614592552185
1772642784728834800,4.490834716796875,-0.5470463037490845,-0.41333743929862976,0.9323135614395142
1772642784738880000,4.5008798828125,-0.649483323097229,-0.937985360622406,0.7432987689971924
1772642784748925000,4.510925048828125,-0.8149614930152893,-1.4914203882217407,0.37692737579345703
1772642784758970000,4.52097021484375,-1.009308934211731,-1.8845620155334473,-0.10713055729866028
1772642784769013800,4.531013671875,-1.1355600357055664,-1.984580159187317,-0.5951124429702759
1772642784779059000,4.541058837890625,-1.1447809934616089,-1.6845752000808716,-0.9823996424674988
1772642784789103900,4.551103759765625,-1.0455515384674072,-1.0120974779129028,-1.1995993852615356
1772642784799148800,4.561148681640625,-0.8554487824440002,-0.22414086759090424,-1.297646403312683
1772642784809193700,4.57119384765625,-0.6323032975196838,0.5212273001670837,-1.3295584917068481
1772642784819239000,4.581239013671875,-0.423207551240921,1.1352885961532593,-1.3038071393966675
1772642784829283800,4.591283935546875,-0.24102522432804108,1.4859027862548828,-1.2916892766952515
1772642784839329000,4.6013291015625,-0.11489728093147278,1.5813837051391602,-1.3474704027175903
1772642784849373000,4.611373046875,-0.09697926789522171,1.405800700187683,-1.4479455947875977
1772642784859417900,4.62141796875,-0.19328434765338898,1.041530728340149,-1.5317018032073975
1772642784869463000,4.631463134765625,-0.3313937783241272,0.6435546875,-1.5176695585250854
1772642784879508000,4.641508056640625,-0.4133460223674774,0.2458907663822174,-1.3971279859542847
1772642784889553000,4.651552978515625,-0.25386449694633484,-0.030910998582839966,-1.0816477537155151
1772642784899597800,4.661597900390625,0.20720894634723663,-0.22902297973632812,-0.5923600792884827
1772642784909643000,4.67164306640625,0.6711739897727966,-0.2469196766614914,-0.07979559153318405
1772642784919688000,4.68168798828125,0.8651385307312012,-0.21549643576145172,0.3102174401283264
1772642784929732900,4.69173291015625,0.8129019141197205,-0.237533301115036,0.5201355218887329
1772642784939777000,4.701777099609375,0.6666936278343201,-0.2463648021221161,0.6421211361885071
1772642784949822000,4.711822021484375,0.51815265417099,-0.2935831844806671,0.7366870641708374
1772642784959867000,4.721866943359375,0.3855768144130707,-0.4195573329925537,0.8103165626525879
1772642784969911800,4.731911865234375,0.2792911231517792,-0.5768702030181885,0.8670451045036316
1772642784979957000,4.74195703125,0.2060025930404663,-0.7021819353103638,0.9041149020195007
1772642784990002000,4.752001953125,0.16143806278705597,-0.7776079773902893,0.9068223237991333
1772642785000046800,4.762046875,0.16864685714244843,-0.8372533917427063,0.857601523399353
1772642785010092000,4.772092041015625,0.22484727203845978,-0.9094399809837341,0.7112075686454773
1772642785020136000,4.782135986328125,0.3173430860042572,-1.013856053352356,0.4389879107475281
1772642785030180900,4.792180908203125,0.43347448110580444,-1.1270588636398315,0.06407370418310165
1772642785040226000,4.80222607421875,0.566202700138092,-1.2175451517105103,-0.35425034165382385
1772642785050270700,4.812270751953125,0.7036287784576416,-1.2434817552566528,-0.7584353685379028
1772642785060316000,4.82231591796875,0.8439000844955444,-1.161057949066162,-1.1075146198272705
1772642785070360800,4.83236083984375,0.9733576774597168,-0.9906056523323059,-1.4021673202514648
1772642785080406000,4.842406005859375,1.0324337482452393,-0.7587506771087646,-1.6631661653518677
1772642785090451000,4.852450927734375,0.9932505488395691,-0.4597035348415375,-1.9007973670959473
1772642785100494800,4.862494873046875,0.8636134266853333,-0.173145592212677,-2.1142404079437256
1772642785110540000,4.8725400390625,0.6696410775184631,0.006365581415593624,-2.259791135787964
1772642785120585000,4.8825849609375,0.4447716772556305,0.024580296128988266,-2.3059563636779785
1772642785130630100,4.892630126953125,0.20628799498081207,-0.12694372236728668,-2.2286715507507324
1772642785140674800,4.9026748046875,-0.01762077771127224,-0.4038354158401489,-2.0344808101654053
1772642785150720000,4.912719970703125,-0.19554923474788666,-0.6833434700965881,-1.757797122001648
1772642785160765000,4.922764892578125,-0.31168854236602783,-0.8065683245658875,-1.393225908279419
1772642785170810000,4.93281005859375,-0.3604898750782013,-0.7064403891563416,-0.9853587746620178
1772642785180853800,4.942853759765625,-0.34907716512680054,-0.4051488935947418,-0.513867199420929
1772642785190899000,4.95289892578125,-0.2946903705596924,0.01361799892038107,0.03085680678486824
1772642785200943900,4.96294384765625,-0.23079390823841095,0.3822033405303955,0.582485020160675
1772642785210989600,4.972989501953125,-0.16940778493881226,0.583756148815155,1.1038788557052612
1772642785221034500,4.983034423828125,-0.10838036984205246,0.6308324337005615,1.580392837524414
1772642785231079700,4.99307958984375,-0.052516572177410126,0.5436583757400513,1.9622576236724854
1772642785241124600,5.00312451171875,0.014660059474408627,0.41659530997276306,2.204360008239746
1772642785251169500,5.01316943359375,0.09621644020080566,0.3358154892921448,2.318869113922119
1772642785261213400,5.02321337890625,0.17480693757534027,0.3647407591342926,2.3166537284851074
1772642785271258600,5.033258544921875,0.23253601789474487,0.525833249092102,2.209402322769165
1772642785281303600,5.043303466796875,0.25496435165405273,0.7834480404853821,2.0170817375183105
1772642785291348500,5.053348388671875,0.23870308697223663,1.0727180242538452,1.769972801208496
1772642785301393400,5.063393310546875,0.18982523679733276,1.3156206607818604,1.4977272748947144
1772642785311438600,5.0734384765625,0.1117032840847969,1.4590457677841187,1.2197774648666382
1772642785321483500,5.0834833984375,0.012684512883424759,1.4971445798873901,0.9640085101127625
1772642785331528400,5.093528564453125,-0.08413151651620865,1.451448678970337,0.7448772192001343
1772642785341573400,5.103573486328125,-0.1812746375799179,1.3729171752929688,0.5976879000663757
1772642785351617500,5.113617431640625,-0.26435568928718567,1.3224122524261475,0.5625413656234741
1772642785361662700,5.123662841796875,-0.3296991288661957,1.2580723762512207,0.6376945972442627
1772642785371707400,5.133707275390625,-0.4038495123386383,1.1096277236938477,0.7671471238136292
1772642785381752600,5.143752685546875,-0.5182098746299744,0.8735345005989075,0.9008496403694153
1772642785391797500,5.153797607421875,-0.6490363478660583,0.5036187767982483,0.9726045727729797
1772642785401842700,5.1638427734375,-0.7712385058403015,-0.016952719539403915,0.9338027834892273
1772642785411887600,5.1738876953125,-0.855711042881012,-0.5749648809432983,0.7820380330085754
1772642785421932500,5.1839326171875,-0.9109366536140442,-1.0040647983551025,0.5297086238861084
1772642785431976400,5.1939765625,-0.9882996082305908,-1.2748444080352783,0.2208109349012375
1772642785442021600,5.204021728515625,-1.1113790273666382,-1.3593264818191528,-0.12153895944356918
1772642785452066300,5.21406640625,-1.2355291843414307,-1.2449067831039429,-0.45120474696159363
1772642785462111500,5.224111572265625,-1.2664839029312134,-0.9825920462608337,-0.7265061736106873
1772642785472156400,5.234156494140625,-1.147722840309143,-0.7214246392250061,-0.9087894558906555
1772642785482201600,5.24420166015625,-0.9145583510398865,-0.6142792701721191,-1.0641260147094727
1772642785492246500,5.25424658203125,-0.6730977892875671,-0.6611160039901733,-1.346840500831604
1772642785502291500,5.26429150390625,-0.5299035906791687,-0.6458296179771423,-1.778555154800415
1772642785512335600,5.274335693359375,-0.5262244343757629,-0.40376636385917664,-2.290044069290161
1772642785522380500,5.284380615234375,-0.5224179625511169,0.02912691794335842,-2.7090682983398438
1772642785532425700,5.29442578125,-0.3920525014400482,0.41991546750068665,-2.9463295936584473
1772642785542470400,5.304470458984375,-0.08611683547496796,0.6928214430809021,-2.963644504547119
1772642785552515600,5.314515625,0.35498252511024475,0.8263877630233765,-2.7584357261657715
1772642785562560500,5.324560546875,0.8438200950622559,0.7964180707931519,-2.428809404373169
1772642785572605700,5.334605712890625,1.1814240217208862,0.5877072215080261,-2.0883524417877197
1772642785582650400,5.344650390625,1.2523069381713867,0.31973931193351746,-1.7403031587600708
1772642785592694500,5.354694580078125,1.1176048517227173,-0.023158658295869827,-1.3784711360931396
1772642785602739500,5.364739501953125,0.859701931476593,-0.3330811858177185,-1.014075517654419
1772642785612784600,5.37478466796875,0.553146243095398,-0.5529586672782898,-0.6739400029182434
1772642785622829300,5.384829345703125,0.22046342492103577,-0.6285098791122437,-0.35831037163734436
1772642785632874500,5.39487451171875,-0.10181048512458801,-0.5187436938285828,-0.0545949749648571
1772642785642919400,5.40491943359375,-0.31652915477752686,-0.3105611503124237,0.2293054312467575
1772642785652964600,5.414964599609375,-0.3834224343299866,-0.17119209468364716,0.44526755809783936
1772642785663009500,5.425009521484375,-0.34043973684310913,-0.07459146529436111,0.6078585982322693
1772642785673053400,5.435053466796875,-0.24234643578529358,-0.07023027539253235,0.689094066619873
1772642785683098600,5.4450986328125,-0.18053770065307617,-0.11058113723993301,0.6888640522956848
1772642785693143600,5.4551435546875,-0.16065214574337006,-0.1664113849401474,0.6607086062431335
1772642785703188500,5.4651884765625,-0.14632847905158997,-0.19690150022506714,0.6360918283462524
1772642785713233400,5.4752333984375,-0.118820421397686,-0.1722603291273117,0.6328867077827454
1772642785723278600,5.485278564453125,-0.07690779864788055,-0.12302405387163162,0.6573446393013
1772642785733323500,5.495323486328125,-0.03567247465252876,-0.060044821351766586,0.7243327498435974
1772642785743368700,5.50536865234375,0.003301303368061781,-0.03832686319947243,0.8379809856414795
1772642785753412600,5.51541259765625,0.047623228281736374,-0.07900930941104889,0.9838186502456665
1772642785763457500,5.52545751953125,0.11149632185697556,-0.1640445739030838,1.1551159620285034
1772642785773502500,5.53550244140625,0.19750337302684784,-0.22462697327136993,1.3629310131072998
1772642785783547600,5.545547607421875,0.2971733510494232,-0.2742765247821808,1.5883698463439941
1772642785793592600,5.555592529296875,0.4025450646877289,-0.3377518951892853,1.7810347080230713
1772642785803637500,5.565637451171875,0.5174044370651245,-0.4300660192966461,1.884670615196228
1772642785813682400,5.575682373046875,0.6545881628990173,-0.526878297328949,1.877153754234314
1772642785823727600,5.5857275390625,0.7998237609863281,-0.5979209542274475,1.7610656023025513
1772642785833772500,5.5957724609375,0.9567180275917053,-0.6167013049125671,1.5430430173873901
1772642785843816400,5.60581640625,1.109553337097168,-0.5470871925354004,1.228272557258606
1772642785853861600,5.615861572265625,1.2142655849456787,-0.36324945092201233,0.8479194045066833
1772642785863906600,5.625906494140625,1.2521908283233643,-0.05952441319823265,0.44383710622787476
1772642785873951500,5.635951416015625,1.2443054914474487,0.3169935643672943,0.06646557152271271
1772642785883996400,5.645996337890625,1.202360987663269,0.7055626511573792,-0.23932071030139923
1772642785894041600,5.65604150390625,1.1252187490463257,1.0698281526565552,-0.4348286986351013
1772642785904086500,5.66608642578125,1.0318373441696167,1.3791346549987793,-0.4843338429927826
1772642785914131700,5.676131591796875,0.9594516158103943,1.5868330001831055,-0.359336793422699
1772642785924175600,5.686175537109375,0.914330005645752,1.6655250787734985,-0.09112188965082169
1772642785934220500,5.696220458984375,0.8713092803955078,1.6409201622009277,0.26292458176612854
1772642785944265700,5.706265625,0.8085982799530029,1.4988162517547607,0.642862856388092
1772642785954310400,5.716310302734375,0.729470431804657,1.2751916646957397,1.0002007484436035
1772642785964355600,5.72635546875,0.6354442834854126,1.0024274587631226,1.3038491010665894
1772642785974400500,5.736400390625,0.5192961096763611,0.7112210988998413,1.5302233695983887
1772642785984445700,5.74644580078125,0.37024587392807007,0.448530912399292,1.6671690940856934
1772642785994490600,5.75649072265625,0.20168375968933105,0.22492045164108276,1.6942018270492554
1772642786004534500,5.766534423828125,0.03163689002394676,0.04147355258464813,1.6043764352798462
1772642786014579500,5.776579345703125,-0.12067275494337082,-0.07615427672863007,1.4131529331207275
1772642786024624600,5.786624755859375,-0.23820848762989044,-0.11504156142473221,1.1515518426895142
1772642786034669600,5.796669677734375,-0.31325292587280273,-0.08170837163925171,0.8403207063674927
1772642786044714500,5.806714599609375,-0.34829992055892944,-0.01678387261927128,0.5203062295913696
1772642786054759400,5.816759521484375,-0.37849271297454834,0.0848655253648758,0.24627894163131714
1772642786064804600,5.8268046875,-0.41283556818962097,0.18998099863529205,0.05386419594287872
1772642786074849500,5.836849609375,-0.41962528228759766,0.194302499294281,-0.06418947130441666
1772642786084893400,5.8468935546875,-0.40761372447013855,0.0005795974284410477,-0.12518517673015594
1772642786094938600,5.856938720703125,-0.40093931555747986,-0.3329634666442871,-0.14779648184776306
1772642786104983600,5.866983642578125,-0.413195937871933,-0.7224047780036926,-0.18262086808681488
1772642786115028700,5.87702880859375,-0.44021397829055786,-1.017225742340088,-0.2343602329492569
1772642786125073400,5.887073486328125,-0.4608672559261322,-1.0008143186569214,-0.2599353492259979
1772642786135118600,5.89711865234375,-0.44135934114456177,-0.698857843875885,-0.25746312737464905
1772642786145163500,5.90716357421875,-0.3720782697200775,-0.34520193934440613,-0.28925788402557373
1772642786155208700,5.917208740234375,-0.2821766138076782,-0.10970446467399597,-0.4272432029247284
1772642786165252400,5.92725244140625,-0.19223059713840485,-0.06212813779711723,-0.697318971157074
1772642786175297500,5.937297607421875,-0.08684372156858444,-0.2467517852783203,-1.062227487564087
1772642786185342500,5.947342529296875,0.02153642848134041,-0.5141106247901917,-1.403800129890442
1772642786195387600,5.9573876953125,0.13500119745731354,-0.6324425935745239,-1.5931850671768188
1772642786205432300,5.967432373046875,0.2524898946285248,-0.5892203450202942,-1.6362731456756592
1772642786215477200,5.977477294921875,0.3509981036186218,-0.4108889102935791,-1.5561277866363525
1772642786225522000,5.98752197265625,0.39944520592689514,-0.1908012330532074,-1.407213568687439
1772642786235567000,5.997567138671875,0.3792717754840851,-0.03414718061685562,-1.2365310192108154
1772642786245611300,6.007611328125,0.2867295742034912,0.029043488204479218,-1.0653839111328125
1772642786255656200,6.01765625,0.15565544366836548,0.025373652577400208,-0.8907235264778137
1772642786265701000,6.027701171875,0.045470383018255234,-0.05129452049732208,-0.7224823832511902
1772642786275746000,6.03774609375,0.0007897339528426528,-0.13438354432582855,-0.553852379322052
1772642786285791200,6.047791259765625,0.0503062941133976,-0.18652400374412537,-0.3988097012042999
1772642786295836200,6.057836181640625,0.18722686171531677,-0.18882711231708527,-0.26606282591819763
1772642786305881300,6.06788134765625,0.3676240146160126,-0.22856128215789795,-0.18512919545173645
1772642786315926000,6.077926025390625,0.5202271342277527,-0.31781205534935,-0.1662263423204422
1772642786325970200,6.08797021484375,0.6095088124275208,-0.4065505862236023,-0.15717294812202454
1772642786336015000,6.09801513671875,0.6195513606071472,-0.45048049092292786,-0.10825253278017044
1772642786346060000,6.10806005859375,0.5266749858856201,-0.45976945757865906,-0.008737457916140556
1772642786356105200,6.118105224609375,0.34430545568466187,-0.3831274211406708,0.16628387570381165
1772642786366150100,6.128150146484375,0.11335454136133194,-0.23326575756072998,0.41393256187438965
1772642786376195000,6.138195068359375,-0.11298245191574097,-0.15105584263801575,0.6638753414154053
1772642786386240300,6.148240234375,-0.3193857669830322,-0.18717694282531738,0.8490625023841858
1772642786396285200,6.15828515625,-0.5029348134994507,-0.25249895453453064,0.9411522150039673
1772642786406329000,6.1683291015625,-0.6399421691894531,-0.29231682419776917,0.94298255443573
1772642786416374300,6.178374267578125,-0.7212844491004944,-0.3044142425060272,0.8700944781303406
1772642786426419200,6.188419189453125,-0.7408599853515625,-0.30734017491340637,0.752548098564148
1772642786436464000,6.198464111328125,-0.6915278434753418,-0.3276481032371521,0.6217173337936401
1772642786446509000,6.208509033203125,-0.58723384141922,-0.3925378918647766,0.5005637407302856
1772642786456554200,6.21855419921875,-0.4450450539588928,-0.5227992534637451,0.43254712224006653
1772642786466599200,6.22859912109375,-0.2880234122276306,-0.7479755878448486,0.4643345773220062
1772642786476644000,6.23864404296875,-0.14844901859760284,-1.1270339488983154,0.6160870790481567
1772642786486688300,6.248688232421875,-0.07033200562000275,-1.5800899267196655,0.8244157433509827
1772642786496733200,6.258733154296875,-0.09826696664094925,-2.007223606109619,0.9495062828063965
1772642786506778400,6.2687783203125,-0.19422447681427002,-2.304131507873535,0.9166162014007568
1772642786516823000,6.278822998046875,-0.3027384281158447,-2.4618120193481445,0.7308090329170227
1772642786526868200,6.2888681640625,-0.38054195046424866,-2.483898639678955,0.4555635452270508
1772642786536913200,6.2989130859375,-0.396360844373703,-2.379836082458496,0.1508752703666687
1772642786546958300,6.308958251953125,-0.3388819098472595,-2.121415376663208,-0.17252710461616516
1772642786557003300,6.319003173828125,-0.2194519191980362,-1.7165170907974243,-0.4809475243091583
1772642786567047200,6.329047119140625,-0.044783249497413635,-1.2334914207458496,-0.7196679711341858
1772642786577092000,6.339092041015625,0.14927330613136292,-0.7664275169372559,-0.8533115386962891
1772642786587137300,6.34913720703125,0.3159145414829254,-0.3870675265789032,-0.8740026354789734
1772642786597182200,6.35918212890625,0.40684258937835693,-0.09313575178384781,-0.7685403823852539
1772642786607227100,6.36922705078125,0.39130663871765137,0.14332810044288635,-0.5346776247024536
1772642786617272000,6.37927197265625,0.2809923589229584,0.3253660798072815,-0.2027771770954132
1772642786627317200,6.389317138671875,0.10619485378265381,0.45551592111587524,0.18936246633529663
1772642786637362200,6.399362060546875,-0.09948214143514633,0.5008267164230347,0.6200539469718933
1772642786647407000,6.409406982421875,-0.30493468046188354,0.44519534707069397,1.046304702758789
1772642786657451300,6.419451171875,-0.487663209438324,0.3301236033439636,1.4317600727081299
1772642786667496200,6.42949609375,-0.6262008547782898,0.19158487021923065,1.7469717264175415
1772642786677541400,6.439541259765625,-0.7071947455406189,0.05058753862977028,1.941629409790039
1772642786687586000,6.4495859375,-0.7272018194198608,-0.07186557352542877,1.987949252128601
1772642786697631200,6.45963134765625,-0.7101852893829346,-0.10984624177217484,1.8929486274719238
1772642786707676200,6.46967626953125,-0.7126446962356567,0.06692114472389221,1.6866270303726196
1772642786717721300,6.479721435546875,-0.4538480341434479,0.48178917169570923,1.4346592426300049
1772642786727766300,6.489766357421875,-0.31011438369750977,0.7753309607505798,1.1535437107086182
1772642786737810200,6.49981005859375,-0.388774037361145,0.9054732918739319,0.8197206854820251
1772642786747855000,6.509855224609375,-0.518276572227478,1.1054638624191284,0.530249297618866
1772642786757900300,6.519900390625,-0.5846763849258423,1.339430809020996,0.3170754909515381
1772642786767945000,6.529945068359375,-0.6122827529907227,1.5176364183425903,0.17413683235645294
1772642786777990100,6.539990234375,-0.6330834031105042,1.6044578552246094,0.09218257665634155
1772642786788035000,6.55003515625,-0.6918094158172607,1.6065552234649658,0.05265132337808609
1772642786798080300,6.560080322265625,-0.7795336842536926,1.515184998512268,0.030302608385682106
1772642786808125200,6.570125244140625,-0.8427889943122864,1.2490776777267456,0.012777592055499554
1772642786818169000,6.580169189453125,-0.84454745054245,0.7697989344596863,-0.00833195447921753
1772642786828214300,6.59021435546875,-0.7816176414489746,0.16754335165023804,-0.05139315500855446
1772642786838259200,6.60025927734375,-0.6953016519546509,-0.313337504863739,-0.09781204909086227
1772642786848304400,6.610304443359375,-0.6164949536323547,-0.41514113545417786,-0.0977490246295929
1772642786858349000,6.62034912109375,-0.5696243643760681,-0.11754672229290009,-0.0630219355225563
1772642786868394200,6.630394287109375,-0.5455172657966614,0.3268805146217346,-0.06931808590888977
1772642786878439200,6.640439208984375,-0.4971098303794861,0.667873203754425,-0.1969950944185257
1772642786888484400,6.650484375,-0.4031537175178528,0.7212763428688049,-0.44580188393592834
1772642786898528000,6.660528076171875,-0.29271644353866577,0.5039355158805847,-0.7508051991462708
1772642786908573200,6.6705732421875,-0.17923642694950104,0.09804683923721313,-1.0496907234191895
1772642786918618000,6.6806181640625,-0.0629308670759201,-0.3140283524990082,-1.271022081375122
1772642786928663300,6.690663330078125,0.05024173483252525,-0.624902069568634,-1.396188735961914
1772642786938708000,6.7007080078125,0.18502990901470184,-0.6442997455596924,-1.398939609527588
1772642786948753200,6.710753173828125,0.33766472339630127,-0.28350698947906494,-1.22940993309021
1772642786958798000,6.720798095703125,0.451212078332901,0.2835950553417206,-0.9013374447822571
1772642786968843300,6.73084326171875,0.47649312019348145,0.46723151206970215,-0.6512477993965149
1772642786978887200,6.74088720703125,0.48043274879455566,0.08316879719495773,-0.730216383934021
1772642786988932000,6.75093212890625,0.4728950560092926,-0.4164443612098694,-1.0377274751663208
1772642786998977300,6.760977294921875,0.4071562588214874,-0.6290839314460754,-1.3564789295196533
1772642787009022200,6.771022216796875,0.34901097416877747,-0.5959936380386353,-1.5685856342315674
1772642787019067100,6.781067138671875,0.34124812483787537,-0.49984848499298096,-1.6732523441314697
1772642787029112000,6.791112060546875,0.328254759311676,-0.39585304260253906,-1.6538734436035156
1772642787039157200,6.8011572265625,0.2756674587726593,-0.22182027995586395,-1.4952260255813599
1772642787049202200,6.8112021484375,0.21527259051799774,0.07615865767002106,-1.1929304599761963
1772642787059246000,6.82124609375,0.17172591388225555,0.35810112953186035,-0.7846497297286987
1772642787069291000,6.831291015625,0.15233784914016724,0.4903106987476349,-0.3249409794807434
1772642787079336200,6.841336181640625,0.1106945276260376,0.43282049894332886,0.12134087830781937
1772642787089381000,6.851381103515625,0.04461159557104111,0.31250783801078796,0.5328129529953003
1772642787099426300,6.86142626953125,-0.04212915897369385,0.2198050618171692,0.8617210388183594
1772642787109471000,6.871470947265625,-0.1403721123933792,0.22252900898456573,1.0521119832992554
1772642787119516200,6.88151611328125,-0.22582761943340302,0.3027913570404053,1.089025616645813
1772642787129561000,6.89156103515625,-0.2737763822078705,0.39736035466194153,1.0032414197921753
1772642787139605000,6.90160498046875,-0.262714147567749,0.48960983753204346,0.8340902328491211
1772642787149650200,6.911650146484375,-0.1893472522497177,0.5827645063400269,0.6093156337738037
1772642787159695000,6.921695068359375,-0.06009019911289215,0.6868000626564026,0.38833320140838623
1772642787169740300,6.931740234375,0.1100178137421608,0.761917769908905,0.20253421366214752
1772642787179785200,6.94178515625,0.30952024459838867,0.7721288800239563,0.07719786465167999
1772642787189830100,6.951830078125,0.5059640407562256,0.7366811037063599,-0.01023188792169094
1772642787199875000,6.961875,0.6676400303840637,0.6480790972709656,-0.07972440868616104
1772642787209920300,6.971920166015625,0.7819589972496033,0.48459142446517944,-0.16360808908939362
1772642787219963600,6.981963623046875,0.8322221636772156,0.29171010851860046,-0.27862441539764404
1772642787230008600,6.992008544921875,0.8245380520820618,0.17123006284236908,-0.4154295325279236
1772642787240053500,7.002053466796875,0.769453763961792,0.18648384511470795,-0.5385650396347046
1772642787250098400,7.012098388671875,0.7015734314918518,0.3201228380203247,-0.6165792942047119
1772642787260143600,7.0221435546875,0.6834466457366943,0.45921066403388977,-0.6232345104217529
1772642787270188500,7.0321884765625,0.7202638983726501,0.5314271450042725,-0.570149838924408
1772642787280233700,7.042233642578125,0.7832295298576355,0.5194942951202393,-0.4776771366596222
1772642787290278400,7.0522783203125,0.8386828899383545,0.4388192594051361,-0.39069095253944397
1772642787300322600,7.062322509765625,0.858677327632904,0.3323138654232025,-0.33142179250717163
1772642787310367500,7.072367431640625,0.8293071985244751,0.2701982855796814,-0.29268506169319153
1772642787320412700,7.08241259765625,0.7533389329910278,0.3098610043525696,-0.29026156663894653
1772642787330457300,7.092457275390625,0.6299538612365723,0.5196452140808105,-0.28945019841194153
1772642787340502500,7.10250244140625,0.49998411536216736,0.8488665223121643,-0.22768856585025787
1772642787350547500,7.11254736328125,0.4230114221572876,1.1797995567321777,-0.07555714249610901
1772642787360592600,7.122592529296875,0.4069858491420746,1.4069056510925293,0.166990265250206
1772642787370637300,7.13263720703125,0.42545998096466064,1.479803204536438,0.4622761309146881
1772642787380681500,7.142681396484375,0.4650864899158478,1.3856526613235474,0.7865553498268127
1772642787390726700,7.1527265625,0.5038123726844788,1.135219693183899,1.1064794063568115
1772642787400771600,7.162771484375,0.5151720643043518,0.803547203540802,1.3764570951461792
1772642787410816500,7.17281640625,0.4696291983127594,0.5262623429298401,1.5640223026275635
1772642787420861400,7.182861328125,0.3752196133136749,0.36433467268943787,1.6686840057373047
1772642787430906600,7.19290673828125,0.25378140807151794,0.31814301013946533,1.6892504692077637
1772642787440951600,7.20295166015625,0.13609126210212708,0.38892796635627747,1.6465070247650146
1772642787450995500,7.212995361328125,0.032233770936727524,0.5370148420333862,1.5664547681808472
1772642787461040400,7.223040283203125,-0.04440375044941902,0.7041103839874268,1.4750274419784546
1772642787471085600,7.23308544921875,-0.07771072536706924,0.8166972994804382,1.396803855895996
1772642787481130500,7.243130615234375,-0.08604269474744797,0.8389631509780884,1.290566325187683
1772642787491175400,7.253175537109375,-0.08460620045661926,0.7871206402778625,1.150810718536377
1772642787501220400,7.263220458984375,-0.09028352797031403,0.6994996666908264,1.00065016746521
1772642787511265500,7.273265625,-0.12582822144031525,0.6354012489318848,0.8707864880561829
1772642787521310500,7.283310546875,-0.18976885080337524,0.6371064782142639,0.7943809628486633
1772642787531355600,7.293355712890625,-0.2580438554286957,0.6997064352035522,0.772858738899231
1772642787541399600,7.303399658203125,-0.3103129267692566,0.6525071859359741,0.7196725010871887
1772642787551444500,7.313444580078125,-0.35671642422676086,0.4305945634841919,0.5477595329284668
1772642787561489700,7.32348974609375,-0.4331158697605133,0.15569773316383362,0.24624919891357422
1772642787571534600,7.33353466796875,-0.5243428349494934,0.044665250927209854,-0.08800850808620453
1772642787581579500,7.34357958984375,-0.5920518040657043,0.15128809213638306,-0.3455604314804077
1772642787591624400,7.35362451171875,-0.6164535284042358,0.392520010471344,-0.4549157917499542
1772642787601669600,7.363669677734375,-0.6025856733322144,0.7062619924545288,-0.43275269865989685
1772642787611713500,7.373713623046875,-0.5860796570777893,0.8196806907653809,-0.35953614115715027
1772642787621758500,7.383758544921875,-0.6089026927947998,0.5684351921081543,-0.3123510479927063
1772642787631803400,7.393803466796875,-0.6746178865432739,0.013448960147798061,-0.3221033215522766
1772642787641848600,7.4038486328125,-0.787578284740448,-0.6406217813491821,-0.43015095591545105
1772642787651893500,7.4138935546875,-0.903811514377594,-1.1644257307052612,-0.6193299889564514
1772642787661938400,7.4239384765625,-0.9810541272163391,-1.3202285766601562,-0.8516162037849426
1772642787671983400,7.4339833984375,-1.007030725479126,-0.9867518544197083,-1.0772733688354492
1772642787682028500,7.444028564453125,-0.9495248794555664,-0.2643299698829651,-1.2661553621292114
1772642787692072700,7.45407275390625,-0.7706916332244873,0.510480523109436,-1.3769536018371582
1772642787702117400,7.464117431640625,-0.5261124968528748,1.0857042074203491,-1.4150669574737549
1772642787712162600,7.47416259765625,-0.3165726959705353,1.3057246208190918,-1.3951821327209473
1772642787722207500,7.48420751953125,-0.13891029357910156,1.1175997257232666,-1.3055428266525269
1772642787732252700,7.494252685546875,-0.02548455260694027,0.5646858811378479,-1.1544266939163208
1772642787742297600,7.504297607421875,-0.021655991673469543,-0.1899183988571167,-0.9557863473892212
1772642787752342500,7.514342529296875,-0.1336323320865631,-0.869857132434845,-0.7065855264663696
1772642787762387500,7.524387451171875,-0.2579026520252228,-1.3145450353622437,-0.42211785912513733
1772642787772431600,7.534431640625,-0.33848991990089417,-1.4862384796142578,-0.10462847352027893
1772642787782476500,7.5444765625,-0.3799886405467987,-1.3889633417129517,0.17541863024234772
1772642787792521500,7.554521484375,-0.3727048635482788,-1.0758875608444214,0.36623415350914
1772642787802566700,7.564566650390625,-0.26873186230659485,-0.7238640189170837,0.4419795274734497
1772642787812611600,7.574611572265625,-0.06815311312675476,-0.4466189444065094,0.421693354845047
1772642787822656500,7.584656494140625,0.15560221672058105,-0.25495415925979614,0.3116646111011505
1772642787832701400,7.594701416015625,0.33406180143356323,-0.13369795680046082,0.1624927818775177
1772642787842746600,7.60474658203125,0.4269656538963318,-0.1338990181684494,0.021016618236899376
1772642787852790500,7.61479052734375,0.40392613410949707,-0.254192590713501,-0.07299811393022537
1772642787862835700,7.624835693359375,0.2886940836906433,-0.46733176708221436,-0.09780518710613251
1772642787872880400,7.63488037109375,0.13377977907657623,-0.722001850605011,-0.07534847408533096
1772642787882925600,7.644925537109375,0.007073498331010342,-0.9168466925621033,-0.0611351802945137
1772642787892970500,7.654970458984375,-0.0483260452747345,-0.9756231307983398,-0.09033432602882385
1772642787903015700,7.665015625,-0.024729905650019646,-0.8652327060699463,-0.18788936734199524
1772642787913060400,7.675060302734375,0.05736397206783295,-0.6572997570037842,-0.3454991579055786
1772642787923105500,7.68510546875,0.16286350786685944,-0.46370476484298706,-0.5221487283706665
1772642787933149700,7.695149658203125,0.25811097025871277,-0.35056954622268677,-0.6629780530929565
1772642787943194600,7.705194580078125,0.31133344769477844,-0.3674377501010895,-0.7342655658721924
1772642787953239600,7.715239501953125,0.3218782842159271,-0.511935830116272,-0.7192307710647583
1772642787963284500,7.725284423828125,0.32788532972335815,-0.7261120080947876,-0.6125857830047607
1772642787973329700,7.73532958984375,0.3476572334766388,-0.9468907713890076,-0.4233438968658447
1772642787983374600,7.74537451171875,0.36845600605010986,-1.1057336330413818,-0.21265405416488647
1772642787993419500,7.75541943359375,0.3596023917198181,-1.1355869770050049,-0.07719507813453674
1772642788003464400,7.76546435546875,0.3298266530036926,-1.02386474609375,-0.04981511831283569
1772642788013508600,7.775508544921875,0.27827733755111694,-0.818679928779602,-0.09298408776521683
1772642788023553500,7.785553466796875,0.21795354783535004,-0.5524815320968628,-0.20010735094547272
1772642788033598500,7.795598388671875,0.13389365375041962,-0.26962247490882874,-0.3434663712978363
1772642788043643400,7.805643310546875,0.04176957905292511,-0.016459744423627853,-0.4872315227985382
1772642788053688600,7.8156884765625,-0.05300816521048546,0.19362904131412506,-0.6062598824501038
1772642788063733500,7.8257333984375,-0.12011103332042694,0.39628520607948303,-0.6704327464103699
1772642788073778700,7.83577880859375,-0.15271735191345215,0.6092839241027832,-0.6390718817710876
1772642788083823400,7.8458232421875,-0.15720051527023315,0.781512439250946,-0.53070467710495
1772642788093867500,7.855867431640625,-0.13274089992046356,0.8624405264854431,-0.35329023003578186
1772642788103912700,7.86591259765625,-0.07392232120037079,0.885157585144043,-0.10588312149047852
1772642788113957600,7.87595751953125,0.01732371188700199,0.8602801561355591,0.1796196550130844
1772642788124002600,7.88600244140625,0.12225358188152313,0.7608848810195923,0.4541524350643158
1772642788134047500,7.896047607421875,0.19345438480377197,0.6174399256706238,0.688967227935791
1772642788144092700,7.9060927734375,0.20553900301456451,0.5133151412010193,0.8628423810005188
1772642788154137600,7.9161376953125,0.16621117293834686,0.4419606328010559,0.9826712608337402
1772642788164182500,7.9261826171875,0.11043284833431244,0.3527340888977051,1.0654466152191162
1772642788174226400,7.936226318359375,0.06402745097875595,0.24150653183460236,1.089767575263977
1772642788184271600,7.946271728515625,0.024590829387307167,0.11848314106464386,1.0497405529022217
1772642788194316500,7.956316650390625,-0.031886596232652664,0.027050184085965157,0.945164144039154
1772642788204361500,7.966361572265625,-0.10556507855653763,-0.0026182285510003567,0.792900025844574
1772642788214407200,7.9764072265625,-0.15805216133594513,0.06256721168756485,0.6285457015037537
1772642788224452400,7.986452392578125,-0.16729706525802612,0.20981231331825256,0.484832763671875
1772642788234497000,7.9964970703125,-0.13432319462299347,0.36331692337989807,0.3554595410823822
1772642788244542200,8.006542236328125,-0.06292437762022018,0.4929436147212982,0.23086276650428772
1772642788254586000,8.016586181640625,0.007183703128248453,0.5907684564590454,0.11591826379299164
1772642788264631300,8.02663134765625,0.03385739400982857,0.6551394462585449,0.017585568130016327
1772642788274676000,8.036676025390625,0.018641401082277298,0.621026337146759,-0.11076592653989792
1772642788284721200,8.04672119140625,-0.029534120112657547,0.5964701771736145,-0.28783899545669556
1772642788294766000,8.05676611328125,-0.11499420553445816,0.47560808062553406,-0.5355508923530579
1772642788304811300,8.066811279296875,-0.2712559998035431,0.11321496963500977,-0.8654859662055969
1772642788314856000,8.07685595703125,-0.49800053238868713,0.030520306900143623,-1.1438087224960327
1772642788324901000,8.086901123046875,-0.6473674178123474,0.13781213760375977,-1.3189338445663452
1772642788334945300,8.0969453125,-0.6769275069236755,0.1880093365907669,-1.381677508354187
1772642788344990200,8.106990234375,-0.6201467514038086,0.32160869240760803,-1.280734658241272
1772642788355035100,8.11703515625,-0.46156439185142517,0.4503825008869171,-1.0764727592468262
1772642788365080000,8.127080078125,-0.2694210410118103,0.45228826999664307,-0.849104642868042
1772642788375125200,8.137125244140625,-0.08955858647823334,0.2585505545139313,-0.6210891008377075
1772642788385170200,8.147170166015625,0.05689369887113571,-0.09425035864114761,-0.4229690730571747
1772642788395215400,8.15721533203125,0.10999207198619843,-0.5270321369171143,-0.2884104549884796
1772642788405259000,8.167259033203125,0.07339677959680557,-0.8898343443870544,-0.27349862456321716
1772642788415304200,8.17730419921875,0.03794938325881958,-1.0518473386764526,-0.4044840633869171
1772642788425349000,8.18734912109375,0.06326645612716675,-1.0126831531524658,-0.6548526287078857
1772642788435394000,8.19739404296875,0.10527676343917847,-0.8439370393753052,-0.9789659380912781
1772642788445439000,8.20743896484375,0.1751149743795395,-0.6608988046646118,-1.3265875577926636
1772642788455484200,8.217484130859376,0.2986335754394531,-0.5615611672401428,-1.6051039695739746
