time,seconds_elapsed,z,y,x
1772732474086113500,0.067113525390625,-0.13037101924419403,-0.06790135055780411,-0.1365124136209488
1772732474096141600,0.0771416015625,-0.10512745380401611,-0.13083158433437347,-0.13941818475723267
1772732474106169300,0.08716943359375,-0.08989506214857101,-0.17605318129062653,-0.15764786303043365
1772732474116197600,0.09719775390625,-0.08591470122337341,-0.17995284497737885,-0.20803354680538177
1772732474126224600,0.107224609375,-0.08436383306980133,-0.1483699083328247,-0.2710913121700287
1772732474136252700,0.117252685546875,-0.05410926043987274,-0.10960467159748077,-0.3067267835140228
1772732474146280400,0.127280517578125,-0.008111339062452316,-0.12667450308799744,-0.2890666723251343
1772732474156307500,0.137307373046875,0.038589589297771454,-0.17052771151065826,-0.26041772961616516
1772732474166335500,0.14733544921875,0.07684604823589325,-0.1776971071958542,-0.24376049637794495
1772732474176363500,0.157363525390625,0.09671083837747574,-0.14004133641719818,-0.23525196313858032
1772732474186391600,0.1673916015625,0.09449324011802673,-0.10180562734603882,-0.18668794631958008
1772732474196417000,0.1774169921875,0.062472183257341385,-0.14381033182144165,-0.10860379040241241
1772732474206445300,0.1874453125,0.024686239659786224,-0.19542068243026733,-0.0679565817117691
1772732474216473000,0.19747314453125,-0.01799863949418068,-0.23605971038341522,-0.082786925137043
1772732474226501000,0.207501220703125,-0.06740723550319672,-0.2680770456790924,-0.11786682158708572
1772732474236528000,0.217528076171875,-0.10700923949480057,-0.263621062040329,-0.15949256718158722
1772732474246556200,0.22755615234375,-0.12524764239788055,-0.23368889093399048,-0.18877503275871277
1772732474256584200,0.237584228515625,-0.11943954974412918,-0.1989080160856247,-0.19335247576236725
1772732474266611200,0.247611083984375,-0.10445205122232437,-0.17162950336933136,-0.17630325257778168
1772732474276639200,0.25763916015625,-0.10489679872989655,-0.13384883105754852,-0.14448407292366028
1772732474286667000,0.2676669921875,-0.11572480946779251,-0.09428092837333679,-0.09991051256656647
1772732474296695300,0.2776953125,-0.14384672045707703,-0.030566394329071045,-0.05129024386405945
1772732474306722000,0.28772216796875,-0.17539167404174805,0.02652880921959877,0.008544721640646458
1772732474316750300,0.297750244140625,-0.20553626120090485,0.026681674644351006,0.09486310184001923
1772732474326778000,0.307778076171875,-0.24592556059360504,-0.05508603900671005,0.20394739508628845
1772732474336806400,0.317806396484375,-0.3097982704639435,-0.12338387221097946,0.2797819674015045
1772732474346833200,0.327833251953125,-0.38271909952163696,-0.132856547832489,0.3158363997936249
1772732474356861200,0.337861083984375,-0.4493686854839325,-0.10168024897575378,0.30256158113479614
1772732474366889200,0.34788916015625,-0.47996675968170166,-0.0386456660926342,0.26740264892578125
1772732474376917200,0.357917236328125,-0.4692866802215576,0.025822272524237633,0.22759850323200226
1772732474386944300,0.3679443359375,-0.42499011754989624,0.07517005503177643,0.17254076898097992
1772732474396972300,0.37797216796875,-0.3656706213951111,0.13017897307872772,0.08521359413862228
1772732474407000000,0.388,-0.3041730225086212,0.1933298259973526,-0.010532427579164505
1772732474417027300,0.39802734375,-0.23975726962089539,0.24573683738708496,-0.07495056092739105
1772732474427055000,0.40805517578125,-0.17607465386390686,0.2563413977622986,-0.09061829000711441
1772732474437083100,0.418083251953125,-0.13852888345718384,0.18800069391727448,-0.06678833067417145
1772732474447111200,0.428111083984375,-0.12410294264554977,0.0767565369606018,-0.030997032299637794
1772732474457138200,0.43813818359375,-0.13712340593338013,-0.020650174468755722,-0.000056958553614094853
1772732474467166200,0.448166259765625,-0.1581438034772873,-0.08821852505207062,0.03956678509712219
1772732474477194000,0.458194091796875,-0.18014124035835266,-0.11484108120203018,0.08193395286798477
1772732474487222300,0.46822216796875,-0.18257363140583038,-0.11678668111562729,0.12341955304145813
1772732474497249000,0.4782490234375,-0.1716482788324356,-0.13018319010734558,0.13773323595523834
1772732474507277300,0.48827734375,-0.16295690834522247,-0.15231546759605408,0.12609949707984924
1772732474517305000,0.49830517578125,-0.14173869788646698,-0.13447867333889008,0.09035852551460266
1772732474527332000,0.50833203125,-0.10851028561592102,-0.0965421050786972,0.04336939752101898
1772732474537360100,0.518360107421875,-0.06187434494495392,-0.06662948429584503,-0.00437175901606679
1772732474547388200,0.52838818359375,-0.015381830744445324,-0.03685810789465904,-0.06921035796403885
1772732474557416200,0.538416259765625,0.015911908820271492,0.00011801812797784805,-0.14493201673030853
1772732474567443200,0.548443115234375,0.015018901787698269,0.047901127487421036,-0.2110438346862793
1772732474577471200,0.55847119140625,0.010500849224627018,0.08711963891983032,-0.2460324466228485
1772732474587499300,0.568499267578125,0.009440007619559765,0.11311450600624084,-0.2417123019695282
1772732474597527300,0.57852734375,0.01304592750966549,0.13017578423023224,-0.2084731161594391
1772732474607554300,0.58855419921875,0.011493725702166557,0.1372058391571045,-0.17587368190288544
1772732474617582000,0.59858203125,0.0016349698416888714,0.13346409797668457,-0.1604638248682022
1772732474627610000,0.608610107421875,-0.013710901141166687,0.15562430024147034,-0.15744420886039734
1772732474637638100,0.61863818359375,-0.023759275674819946,0.20636524260044098,-0.1450812816619873
1772732474647665200,0.6286650390625,-0.009741256013512611,0.2039787322282791,-0.11409128457307816
1772732474657693200,0.638693115234375,0.00756449718028307,0.16888466477394104,-0.09878049790859222
1772732474667721200,0.64872119140625,0.013443500734865665,0.1321982443332672,-0.11315321922302246
1772732474677748200,0.658748291015625,0.014295978471636772,0.1102982759475708,-0.13634243607521057
1772732474687776000,0.66877587890625,0.016334237530827522,0.10008310526609421,-0.15209369361400604
1772732474697804300,0.67880419921875,0.028373323380947113,0.10301151871681213,-0.1630488783121109
1772732474707832000,0.68883203125,0.03953729569911957,0.10765340924263,-0.16144831478595734
1772732474717859300,0.698859375,0.0504290908575058,0.12732698023319244,-0.15583783388137817
1772732474727887000,0.70888720703125,0.06079862639307976,0.16434580087661743,-0.149021178483963
1772732474737915400,0.718915283203125,0.06037145480513573,0.20830313861370087,-0.14685335755348206
1772732474747943200,0.728943115234375,0.07090166956186295,0.248090460896492,-0.14755819737911224
1772732474757970200,0.73897021484375,0.07754386216402054,0.2695091962814331,-0.14008191227912903
1772732474767998200,0.748998291015625,0.08800261467695236,0.27357009053230286,-0.13259278237819672
1772732474778026000,0.75902587890625,0.09805232286453247,0.26653560996055603,-0.12612104415893555
1772732474788053200,0.76905322265625,0.10216747224330902,0.25995761156082153,-0.1104561984539032
1772732474798081300,0.779081298828125,0.1128760427236557,0.24989965558052063,-0.08544645458459854
1772732474808109300,0.789109375,0.12932300567626953,0.25046658515930176,-0.04997910559177399
1772732474818137000,0.79913720703125,0.14772836863994598,0.26633477210998535,-0.019751161336898804
1772732474828164000,0.8091640625,0.17398537695407867,0.2668234407901764,0.013530988246202469
1772732474838192000,0.819192138671875,0.2214977741241455,0.24821940064430237,0.04788123816251755
1772732474848220200,0.82922021484375,0.2733844220638275,0.23089449107646942,0.06241244450211525
1772732474858248200,0.839248291015625,0.32268965244293213,0.21337701380252838,0.05524507910013199
1772732474868275200,0.849275146484375,0.35788586735725403,0.20092593133449554,0.03509584069252014
1772732474878303200,0.85930322265625,0.3796952962875366,0.1754506677389145,0.006564597133547068
1772732474888331300,0.869331298828125,0.38660216331481934,0.13301876187324524,-0.008281129412353039
1772732474898359300,0.879359375,0.37924569845199585,0.11939296871423721,-0.011930192820727825
1772732474908386300,0.88938623046875,0.3655347228050232,0.13172033429145813,-0.013876251876354218
1772732474918414000,0.8994140625,0.34277215600013733,0.1473163366317749,-0.00704231346026063
1772732474928442000,0.909442138671875,0.32245662808418274,0.16967497766017914,0.007131903897970915
1772732474938469000,0.91946923828125,0.30383312702178955,0.17814968526363373,0.021174218505620956
1772732474948497400,0.929497314453125,0.2855874300003052,0.1836724728345871,0.024952104315161705
1772732474958525200,0.939525146484375,0.26797035336494446,0.21867252886295319,0.011902082711458206
1772732474968553000,0.949552978515625,0.2467210739850998,0.25015994906425476,-0.005852007772773504
1772732474978580200,0.959580322265625,0.22212278842926025,0.2611960768699646,-0.007651505991816521
1772732474988608000,0.96960791015625,0.20860087871551514,0.258953720331192,0.006384354550391436
1772732474998636300,0.97963623046875,0.19365574419498444,0.2183769941329956,0.03859901800751686
1772732475008664000,0.9896640625,0.1816001832485199,0.1244247630238533,0.07814427465200424
1772732475018691000,0.999691162109375,0.1762048900127411,0.04651426151394844,0.10311353951692581
1772732475028719000,1.009718994140625,0.15873852372169495,0.0015218344051390886,0.11170201003551483
1772732475038747100,1.0197470703125,0.14293985068798065,-0.012721283361315727,0.12585723400115967
1772732475048774100,1.029774169921875,0.13282285630702972,0.03146149590611458,0.15241381525993347
1772732475058802200,1.03980224609375,0.11654534935951233,0.09569614380598068,0.19075746834278107
1772732475068830200,1.049830322265625,0.09711837768554688,0.1878296136856079,0.2220347374677658
1772732475078858200,1.059858154296875,0.09078564494848251,0.3052995204925537,0.21088674664497375
1772732475088885000,1.069885009765625,0.08557648956775665,0.39301222562789917,0.1596992164850235
1772732475098913300,1.079913330078125,0.05666494742035866,0.39613187313079834,0.12007030844688416
1772732475108941000,1.089941162109375,0.024809809401631355,0.3259173631668091,0.12902624905109406
1772732475118969000,1.099968994140625,0.01366295013576746,0.1952354609966278,0.19771413505077362
1772732475128996000,1.10999609375,0.01771991141140461,0.04961968585848808,0.29884064197540283
1772732475139024400,1.1200244140625,0.021583624184131622,-0.08266431838274002,0.38517847657203674
1772732475149052200,1.13005224609375,0.002485081786289811,-0.17092081904411316,0.42909231781959534
1772732475159079200,1.1400791015625,-0.05056801438331604,-0.21776209771633148,0.44417804479599
1772732475169107200,1.150107177734375,-0.10824386030435562,-0.2495725005865097,0.4538227617740631
1772732475179135000,1.160135009765625,-0.1245245635509491,-0.25333261489868164,0.47358205914497375
1772732475189164000,1.1701640625,-0.09513022005558014,-0.24183844029903412,0.49763262271881104
1772732475199191000,1.18019091796875,-0.023573212325572968,-0.21917493641376495,0.5054745674133301
1772732475209219000,1.190218994140625,0.06523607671260834,-0.1789153665304184,0.4742986559867859
1772732475219247000,1.2002470703125,0.1524261087179184,-0.13057872653007507,0.39474552869796753
1772732475229275000,1.21027490234375,0.22440002858638763,-0.09918396174907684,0.27860137820243835
1772732475239302000,1.220302001953125,0.2884429395198822,-0.06954191625118256,0.13741520047187805
1772732475249330000,1.230329833984375,0.3252808451652527,-0.04850001633167267,0.003661932423710823
1772732475259358000,1.24035791015625,0.34544843435287476,-0.020542951300740242,-0.08697742223739624
1772732475269386000,1.250385986328125,0.35928475856781006,-0.017073998227715492,-0.11782882362604141
1772732475279413000,1.2604130859375,0.35335573554039,-0.05696122348308563,-0.11506951600313187
1772732475289441000,1.27044091796875,0.329731285572052,-0.0702497661113739,-0.12151415646076202
1772732475299469000,1.280468994140625,0.2867974042892456,-0.03954911231994629,-0.13190394639968872
1772732475309495800,1.290495849609375,0.2401628941297531,0.006892503704875708,-0.12653712928295135
1772732475319524000,1.300524169921875,0.20982415974140167,0.015622612088918686,-0.10540095716714859
1772732475329552000,1.3105517578125,0.17869235575199127,-0.004610033240169287,-0.07779434323310852
1772732475339580200,1.320580078125,0.1478327214717865,-0.013965718448162079,-0.06345242261886597
1772732475349607000,1.33060693359375,0.12166285514831543,-0.017969191074371338,-0.04633650928735733
1772732475359635200,1.34063525390625,0.10238263010978699,-0.036290671676397324,-0.02420138008892536
1772732475369663000,1.3506630859375,0.08043315261602402,-0.07019855082035065,0.0030996862333267927
1772732475379691000,1.36069091796875,0.049560192972421646,-0.09642749279737473,0.031180590391159058
1772732475389718000,1.370718017578125,0.018862878903746605,-0.10534144192934036,0.04659255966544151
1772732475399746000,1.38074609375,-0.0030219140462577343,-0.09376974403858185,0.04658643528819084
1772732475409774000,1.390774169921875,-0.028181031346321106,-0.0620189793407917,0.03464182838797569
1772732475419801000,1.400801025390625,-0.054485075175762177,-0.022157851606607437,0.020338254049420357
1772732475429829000,1.4108291015625,-0.06270822882652283,0.015711333602666855,0.007191505283117294
1772732475439857000,1.42085693359375,-0.057585638016462326,0.029846329241991043,-0.024581603705883026
1772732475449885200,1.43088525390625,-0.04208052158355713,0.01789064332842827,-0.06850521266460419
1772732475459912000,1.440911865234375,-0.015177801251411438,0.003713838756084442,-0.10597269237041473
1772732475469940000,1.45093994140625,0.013579885475337505,-0.0015821673441678286,-0.13394245505332947
1772732475479968000,1.460968017578125,0.033640678972005844,-0.003320146119222045,-0.14625237882137299
1772732475489996000,1.47099609375,0.03955477848649025,-0.017370879650115967,-0.1434539556503296
1772732475500023000,1.48102294921875,0.028821973130106926,-0.028195563703775406,-0.1372424066066742
1772732475510051000,1.491051025390625,0.0037614544853568077,-0.04991890862584114,-0.11202245205640793
1772732475520078800,1.501078857421875,-0.027561580762267113,-0.08187417685985565,-0.0855271965265274
1772732475530106000,1.511106201171875,-0.04821259528398514,-0.10380668193101883,-0.05939266458153725
1772732475540134000,1.5211337890625,-0.06266876310110092,-0.11957046389579773,-0.050431929528713226
1772732475550162200,1.531162109375,-0.07003919035196304,-0.1192014291882515,-0.053458355367183685
1772732475560190000,1.54118994140625,-0.07154520601034164,-0.10763931274414062,-0.07328958064317703
1772732475570217200,1.55121728515625,-0.07541549950838089,-0.08948272466659546,-0.10212992876768112
1772732475580245000,1.561244873046875,-0.07006281614303589,-0.07026083022356033,-0.12307009845972061
1772732475590273000,1.57127294921875,-0.06363675743341446,-0.038462523370981216,-0.1370423138141632
1772732475600301000,1.581301025390625,-0.07081850618124008,0.0049368832260370255,-0.1388266235589981
1772732475610328000,1.591328125,-0.09232199192047119,0.041715819388628006,-0.13569992780685425
1772732475620356000,1.601356201171875,-0.12350893765687943,0.06278488039970398,-0.11600852012634277
1772732475630383900,1.6113837890625,-0.13769114017486572,0.07481051236391068,-0.08898448199033737
1772732475640412200,1.621412109375,-0.13252700865268707,0.07225813716650009,-0.06726853549480438
1772732475650439000,1.63143896484375,-0.12018627673387527,0.06346450001001358,-0.06109756976366043
1772732475660467000,1.641467041015625,-0.10550826042890549,0.05883459374308586,-0.06987987458705902
1772732475670495000,1.651494873046875,-0.09852787852287292,0.04613396152853966,-0.08291012793779373
1772732475680522000,1.66152197265625,-0.08720065653324127,0.018245868384838104,-0.09458409249782562
1772732475690550000,1.671550048828125,-0.07579965889453888,-0.00662938691675663,-0.10060390084981918
1772732475700578000,1.681578125,-0.07714003324508667,-0.01661331206560135,-0.10268250107765198
1772732475710606000,1.691606201171875,-0.06768808513879776,-0.010355334728956223,-0.08680286258459091
1772732475720633000,1.701633056640625,-0.022395972162485123,0.02276213839650154,-0.07980860024690628
1772732475730660900,1.711660888671875,0.019414246082305908,0.05580063909292221,-0.08824481070041656
1772732475740689200,1.721689208984375,0.05943623185157776,0.08091796934604645,-0.08266895264387131
1772732475750717000,1.731717041015625,0.11288214474916458,0.049256451427936554,-0.0709715485572815
1772732475760744200,1.741744140625,0.12272518873214722,-0.016404584050178528,-0.03995903953909874
1772732475770772000,1.75177197265625,0.06838107109069824,-0.05464743450284004,-0.009863868355751038
1772732475780800000,1.761800048828125,-0.008163506165146828,-0.09170904755592346,0.015906209126114845
1772732475790827000,1.771826904296875,-0.06310052424669266,-0.1391354203224182,0.020187772810459137
1772732475800855000,1.78185498046875,-0.0627892017364502,-0.14513365924358368,0.008630719967186451
1772732475810883000,1.791883056640625,-0.0260777547955513,-0.10976213961839676,0.025240274146199226
1772732475820910800,1.801910888671875,0.015826817601919174,-0.09890150278806686,0.10547678917646408
1772732475830938000,1.811938232421875,0.02525242790579796,-0.10994119197130203,0.2528403401374817
1772732475840966000,1.8219658203125,0.005340770818293095,-0.1482129544019699,0.4091130495071411
1772732475850994200,1.831994140625,-0.022802866995334625,-0.1874614655971527,0.5274117588996887
1772732475861022000,1.84202197265625,-0.057405851781368256,-0.22351081669330597,0.5828771591186523
1772732475871049000,1.852049072265625,-0.08740521967411041,-0.25676122307777405,0.5803187489509583
1772732475881077000,1.862076904296875,-0.11307623237371445,-0.27699777483940125,0.5301709175109863
1772732475891105000,1.87210498046875,-0.13284680247306824,-0.2549031674861908,0.4541764259338379
1772732475901132000,1.882132080078125,-0.15209293365478516,-0.19132205843925476,0.3696197271347046
1772732475911160000,1.89216015625,-0.16170501708984375,-0.10591843724250793,0.3097839653491974
1772732475921188000,1.90218798828125,-0.1657322496175766,-0.04790227860212326,0.29691505432128906
1772732475931216100,1.912216064453125,-0.17339445650577545,-0.053188756108284,0.326472669839859
1772732475941243000,1.922242919921875,-0.2065015435218811,-0.10611908882856369,0.3637404143810272
1772732475951271200,1.932271240234375,-0.271693617105484,-0.14763671159744263,0.3755635917186737
1772732475961299000,1.942298828125,-0.3477199375629425,-0.15082451701164246,0.3455335199832916
1772732475971327000,1.952326904296875,-0.42565733194351196,-0.10042915493249893,0.27923011779785156
1772732475981354000,1.96235400390625,-0.4928155839443207,-0.009906712919473648,0.2013411521911621
1772732475991382000,1.972382080078125,-0.5619231462478638,0.10929709672927856,0.13521485030651093
1772732476001410000,1.98241015625,-0.6216442584991455,0.22817395627498627,0.09656254202127457
1772732476011437000,1.99243701171875,-0.6697052121162415,0.3079614043235779,0.08871010690927505
1772732476021465000,2.002465087890625,-0.7078427672386169,0.319685161113739,0.11464156955480576
1772732476031492900,2.012492919921875,-0.7390448451042175,0.2726256251335144,0.15246796607971191
1772732476041521200,2.022521240234375,-0.7635800242424011,0.19649411737918854,0.17002086341381073
1772732476051548000,2.0325478515625,-0.8094854950904846,0.09219314157962799,0.16871041059494019
1772732476061576200,2.042576171875,-0.84972083568573,-0.015019329264760017,0.16188152134418488
1772732476071604000,2.05260400390625,-0.88832688331604,-0.09195520728826523,0.14502477645874023
1772732476081632000,2.062632080078125,-0.9095573425292969,-0.12257622927427292,0.12234608829021454
1772732476091659000,2.072658935546875,-0.9028447270393372,-0.13810408115386963,0.10048077255487442
1772732476101687000,2.08268701171875,-0.8508305549621582,-0.13125549256801605,0.10029914230108261
1772732476111715000,2.092715087890625,-0.7518959641456604,-0.12140212953090668,0.12003818154335022
1772732476121742000,2.1027421875,-0.686174213886261,-0.1448507308959961,0.10365840792655945
1772732476131769900,2.112769775390625,-0.6387463808059692,-0.1735844761133194,0.07114946097135544
1772732476141798100,2.122798095703125,-0.6201436519622803,-0.182748943567276,0.03946103900671005
1772732476151826000,2.132825927734375,-0.5774570107460022,-0.18851135671138763,0.000515448278747499
1772732476161853200,2.142853271484375,-0.5134039521217346,-0.18914811313152313,-0.04848112165927887
1772732476171881000,2.152880859375,-0.45267224311828613,-0.153263121843338,-0.10096743702888489
1772732476181909000,2.162908935546875,-0.3966670334339142,-0.09868908673524857,-0.15499764680862427
1772732476191936500,2.1729365234375,-0.3419611155986786,-0.042700186371803284,-0.202300027012825
1772732476201963500,2.182963623046875,-0.28008735179901123,0.018774893134832382,-0.2383059561252594
1772732476211991600,2.192991455078125,-0.21234558522701263,0.07047246396541595,-0.2801307141780853
1772732476222019300,2.203019287109375,-0.1520039439201355,0.08340556919574738,-0.3022298812866211
1772732476232046300,2.21304638671875,-0.15281037986278534,0.0443795882165432,-0.2865195572376251
1772732476242074400,2.223074462890625,-0.2426324039697647,0.00022091716527938843,-0.2519517242908478
1772732476252102400,2.233102294921875,-0.3790004551410675,-0.01707158051431179,-0.2617216110229492
1772732476262130400,2.24313037109375,-0.4798743426799774,0.023897957056760788,-0.3300199806690216
1772732476272157400,2.253157470703125,-0.5179058909416199,0.04114006087183952,-0.3862400949001312
1772732476282185200,2.263185302734375,-0.48614928126335144,0.02684607543051243,-0.3973875641822815
1772732476292213500,2.273213623046875,-0.42018580436706543,-0.020618706941604614,-0.3386945128440857
1772732476302241300,2.2832412109375,-0.3289427161216736,-0.09664610028266907,-0.25608912110328674
1772732476312268500,2.2932685546875,-0.24221879243850708,-0.12455268949270248,-0.18254102766513824
1772732476322296300,2.30329638671875,-0.18897287547588348,-0.0675669014453888,-0.11003300547599792
1772732476332324600,2.31332470703125,-0.1626846045255661,0.024541683495044708,-0.034863024950027466
1772732476342351400,2.323351318359375,-0.1412528157234192,0.11935527622699738,0.035244688391685486
1772732476352379400,2.33337939453125,-0.11347140371799469,0.204567551612854,0.07468163222074509
1772732476362407400,2.343407470703125,-0.07084964215755463,0.2840496003627777,0.06105183809995651
1772732476372435500,2.353435546875,-0.028255347162485123,0.3256835639476776,0.0278494730591774
1772732476382462500,2.36346240234375,0.00302134919911623,0.29220283031463623,0.013876133598387241
1772732476392490500,2.373490478515625,0.030831830576062202,0.20471249520778656,0.024012871086597443
1772732476402518500,2.3835185546875,0.06764843314886093,0.08467823266983032,0.050874046981334686
1772732476412546300,2.39354638671875,0.09380927681922913,-0.05485253781080246,0.06434254348278046
1772732476422573300,2.4035732421875,0.12035166472196579,-0.18419986963272095,0.05088426172733307
1772732476432601300,2.413601318359375,0.13716523349285126,-0.25784075260162354,-0.011911637149751186
1772732476442629400,2.42362939453125,0.15137425065040588,-0.28926578164100647,-0.1399814635515213
1772732476452656400,2.433656494140625,0.16208547353744507,-0.25897276401519775,-0.3142850399017334
1772732476462684400,2.443684326171875,0.16809968650341034,-0.12772873044013977,-0.47849875688552856
1772732476472712400,2.45371240234375,0.170619934797287,0.048468731343746185,-0.5694469809532166
1772732476482740500,2.463740478515625,0.17932447791099548,0.1442631632089615,-0.5650543570518494
1772732476492767200,2.473767333984375,0.1822393536567688,0.1928020715713501,-0.46951115131378174
1772732476502795500,2.48379541015625,0.1817173808813095,0.23133215308189392,-0.3135484457015991
1772732476512823300,2.4938232421875,0.1796930581331253,0.26405471563339233,-0.1575012505054474
1772732476522851600,2.5038515625,0.15635311603546143,0.29417428374290466,-0.05454424023628235
1772732476532878300,2.51387841796875,0.10571549087762833,0.2577227056026459,-0.015612742863595486
1772732476542906600,2.52390673828125,0.02588963508605957,0.15455876290798187,-0.0033914968371391296
1772732476552934400,2.533934326171875,-0.09081722795963287,-0.0043190945871174335,0.03680002689361572
1772732476562962400,2.54396240234375,-0.2146073430776596,-0.17991141974925995,0.13261844217777252
1772732476572989400,2.553989501953125,-0.3278854489326477,-0.2790108621120453,0.28130146861076355
1772732476583017500,2.564017578125,-0.4085976183414459,-0.27022483944892883,0.45159435272216797
1772732476593045500,2.57404541015625,-0.4430913031101227,-0.22954043745994568,0.5979140400886536
1772732476603072500,2.584072509765625,-0.45285099744796753,-0.15755465626716614,0.6828007102012634
1772732476613100500,2.5941005859375,-0.45746687054634094,-0.055813975632190704,0.6954814791679382
1772732476623128300,2.60412841796875,-0.4526057839393616,0.027199415490031242,0.6481334567070007
1772732476633156600,2.614156494140625,-0.41888687014579773,0.08292747288942337,0.5470265746116638
1772732476643183400,2.624183349609375,-0.35543784499168396,0.10397922992706299,0.4011780023574829
1772732476653211400,2.63421142578125,-0.2812754809856415,0.07980819791555405,0.24196787178516388
1772732476663239400,2.644239501953125,-0.19712278246879578,0.02742248773574829,0.09437841922044754
1772732476673266400,2.654266357421875,-0.10496759414672852,-0.04216665402054787,-0.03350945934653282
1772732476683294500,2.66429443359375,-0.019807960838079453,-0.11032813042402267,-0.1375221461057663
1772732476693322500,2.674322509765625,0.05727805569767952,-0.16221705079078674,-0.2039525806903839
1772732476703350500,2.6843505859375,0.1243489682674408,-0.19537819921970367,-0.23674222826957703
1772732476713377500,2.69437744140625,0.1823749840259552,-0.24027137458324432,-0.22899535298347473
1772732476723405300,2.7044052734375,0.21321731805801392,-0.28308460116386414,-0.20519095659255981
1772732476733433600,2.71443359375,0.21830986440181732,-0.3127169609069824,-0.17404989898204803
1772732476743461400,2.72446142578125,0.20447580516338348,-0.34921106696128845,-0.1471322625875473
1772732476753488600,2.734488525390625,0.18397213518619537,-0.39839741587638855,-0.12170016765594482
1772732476763516400,2.744516357421875,0.166142538189888,-0.42926478385925293,-0.11168242245912552
1772732476773544200,2.754544189453125,0.14190590381622314,-0.4264375865459442,-0.10812097787857056
1772732476783571500,2.764571533203125,0.11919153481721878,-0.3869895040988922,-0.11111117154359818
1772732476793599500,2.774599609375,0.09519706666469574,-0.3082695007324219,-0.10853736847639084
1772732476803627500,2.78462744140625,0.06112271547317505,-0.2132282257080078,-0.08777111023664474
1772732476813655300,2.7946552734375,0.027771200984716415,-0.14879770576953888,-0.04024149477481842
1772732476823682600,2.8046826171875,-0.010089094750583172,-0.12994812428951263,0.006459432654082775
1772732476833710300,2.81471044921875,-0.04981912299990654,-0.12381863594055176,0.02115032449364662
1772732476843738400,2.82473828125,-0.09958934038877487,-0.12204550951719284,0.024799121543765068
1772732476853766400,2.834766357421875,-0.14850644767284393,-0.12015441060066223,0.022715559229254723
1772732476863793400,2.84479345703125,-0.18496859073638916,-0.09619554877281189,0.035612981766462326
1772732476873821400,2.854821533203125,-0.2088707536458969,-0.07568524032831192,0.06245504319667816
1772732476883849500,2.864849365234375,-0.2176131159067154,-0.05983196943998337,0.09245635569095612
1772732476893876200,2.874876220703125,-0.21274837851524353,-0.02660268358886242,0.12056854367256165
1772732476903904500,2.884904541015625,-0.20968574285507202,0.030296817421913147,0.14957888424396515
1772732476913932300,2.894932373046875,-0.1983189731836319,0.0794433206319809,0.19173084199428558
1772732476923960300,2.904960205078125,-0.17002421617507935,0.04602331295609474,0.21193544566631317
1772732476933987300,2.9149873046875,-0.14084969460964203,-0.044385332614183426,0.20312945544719696
1772732476944015600,2.925015625,-0.13785789906978607,-0.13078093528747559,0.17493936419487
1772732476954043400,2.93504345703125,-0.14649681746959686,-0.20936399698257446,0.14782017469406128
1772732476964071400,2.945071533203125,-0.1401161551475525,-0.26582327485084534,0.1090373545885086
1772732476974098400,2.955098388671875,-0.13654521107673645,-0.2949017584323883,0.0730723962187767
1772732476984126200,2.965126220703125,-0.1427684873342514,-0.2730228304862976,0.04693533480167389
1772732476994154500,2.975154541015625,-0.14924247562885284,-0.20035554468631744,0.024014214053750038
1772732477004181500,2.985181396484375,-0.13702310621738434,-0.12156646698713303,0.012224134057760239
1772732477014209500,2.99520947265625,-0.1102241799235344,-0.04684264212846756,-0.011684732511639595
1772732477024237300,3.0052373046875,-0.07979543507099152,0.003112399484962225,-0.04390019550919533
1772732477034265600,3.015265625,-0.04280930757522583,0.011051727458834648,-0.0778270736336708
1772732477044292400,3.025292236328125,-0.009176244027912617,-0.046611569821834564,-0.09940027445554733
1772732477054320400,3.0353203125,0.009236027486622334,-0.15470965206623077,-0.11094339936971664
1772732477064348400,3.045348388671875,0.0003389389021322131,-0.30612286925315857,-0.1054394394159317
1772732477074376400,3.05537646484375,-0.035307254642248154,-0.4827268123626709,-0.08854053169488907
1772732477084403500,3.065403564453125,-0.05918489024043083,-0.6592767834663391,-0.08456923067569733
1772732477094431500,3.075431396484375,-0.08405502140522003,-0.7777925729751587,-0.12755568325519562
1772732477104459500,3.08545947265625,-0.12875191867351532,-0.800778329372406,-0.22632621228694916
1772732477114486500,3.095486572265625,-0.20700645446777344,-0.7137608528137207,-0.3192594349384308
1772732477124514300,3.105514404296875,-0.283023476600647,-0.49242958426475525,-0.3604089915752411
1772732477134542600,3.11554248046875,-0.3087845742702484,-0.17265084385871887,-0.3087690770626068
1772732477144570400,3.1255703125,-0.29513800144195557,0.12868823111057281,-0.1765548437833786
1772732477154597600,3.13559765625,-0.2641639709472656,0.29304608702659607,-0.04271266236901283
1772732477164625400,3.14562548828125,-0.23003529012203217,0.3377872109413147,0.03521622344851494
1772732477174653400,3.1556533203125,-0.23758597671985626,0.2203892469406128,0.06993549317121506
1772732477184681500,3.165681396484375,-0.27405422925949097,-0.04738335311412811,0.07420799881219864
1772732477194709200,3.175709228515625,-0.3407028317451477,-0.34352779388427734,0.04996592551469803
1772732477204737300,3.1857373046875,-0.435650110244751,-0.547701895236969,0.008408362045884132
1772732477214765300,3.195765380859375,-0.5125630497932434,-0.6579670310020447,-0.03839787468314171
1772732477224792300,3.205792236328125,-0.5511384010314941,-0.669069766998291,-0.07577268034219742
1772732477234820400,3.2158203125,-0.5453163385391235,-0.5616758465766907,-0.09528844058513641
1772732477244848000,3.22584814453125,-0.5046088099479675,-0.36527010798454285,-0.10169360786676407
1772732477254876400,3.23587646484375,-0.4536568522453308,-0.12330374866724014,-0.09344258904457092
1772732477264903400,3.2459033203125,-0.4120582938194275,0.11255831271409988,-0.07311521470546722
1772732477274931200,3.25593115234375,-0.38550612330436707,0.2846201956272125,-0.03781799226999283
1772732477284959200,3.265959228515625,-0.36168256402015686,0.3768824636936188,0.0008361910004168749
1772732477294987300,3.2759873046875,-0.34310001134872437,0.3925272226333618,0.03563980385661125
1772732477305014300,3.28601416015625,-0.34386512637138367,0.31603217124938965,0.07578136771917343
1772732477315042300,3.296042236328125,-0.34983083605766296,0.22885166108608246,0.12273252010345459
1772732477325070300,3.3060703125,-0.3641543686389923,0.13573209941387177,0.17223110795021057
1772732477335097300,3.316097412109375,-0.39737653732299805,0.04299122467637062,0.2108973264694214
1772732477345125000,3.326125,-0.4256611764431,-0.029304279014468193,0.2260424643754959
1772732477355153400,3.3361533203125,-0.4403396546840668,-0.06741417199373245,0.2368021160364151
1772732477365181200,3.34618115234375,-0.44966766238212585,-0.06808795034885406,0.23573605716228485
1772732477375208400,3.35620849609375,-0.44735977053642273,-0.04016399011015892,0.2395390123128891
1772732477385236200,3.366236328125,-0.4310729503631592,-0.0009558696765452623,0.24629785120487213
1772732477395264300,3.37626416015625,-0.3972403109073639,0.049242012202739716,0.2462172508239746
1772732477405292300,3.386292236328125,-0.34052032232284546,0.11916569620370865,0.23594464361667633
1772732477415319300,3.3963193359375,-0.2895282208919525,0.19702571630477905,0.22178885340690613
1772732477425347300,3.406347412109375,-0.2518538236618042,0.2589902877807617,0.21170425415039062
1772732477435375000,3.416375,-0.21309751272201538,0.2958216071128845,0.19650374352931976
1772732477445402000,3.426402099609375,-0.17699410021305084,0.3242338299751282,0.16833069920539856
1772732477455430100,3.43643017578125,-0.15015573799610138,0.3485240340232849,0.13609640300273895
1772732477465458200,3.446458251953125,-0.1338673084974289,0.3655072748661041,0.12342721223831177
1772732477475486200,3.456486328125,-0.09153811633586884,0.35753127932548523,0.0854567140340805
1772732477485513200,3.46651318359375,-0.05635802447795868,0.34120771288871765,0.014616897329688072
1772732477495541200,3.476541259765625,-0.031901419162750244,0.3113020062446594,-0.06875655800104141
1772732477505569300,3.4865693359375,-0.0137660913169384,0.27438873052597046,-0.1338694989681244
1772732477515596000,3.496595947265625,-0.002255437895655632,0.23666340112686157,-0.1587449014186859
1772732477525624300,3.506624267578125,0.0194099098443985,0.19743023812770844,-0.15087632834911346
1772732477535652000,3.516652099609375,0.048105038702487946,0.14936256408691406,-0.1193622574210167
1772732477545680400,3.526680419921875,0.08597545325756073,0.06725279241800308,-0.09475411474704742
1772732477555707100,3.53670703125,0.13748584687709808,-0.05513319373130798,-0.11237000674009323
1772732477565735400,3.5467353515625,0.18576708436012268,-0.17331576347351074,-0.1877710074186325
1772732477575763200,3.55676318359375,0.21756522357463837,-0.19526571035385132,-0.293893963098526
1772732477585791200,3.566791259765625,0.24275340139865875,-0.11290159821510315,-0.3947222828865051
1772732477595818200,3.576818359375,0.2524122893810272,0.04920591786503792,-0.4549923539161682
1772732477605846300,3.58684619140625,0.24198469519615173,0.2478066384792328,-0.4413207471370697
1772732477615874300,3.596874267578125,0.21741247177124023,0.4112560749053955,-0.3386653661727905
1772732477625902000,3.606902099609375,0.20017488300800323,0.4961414039134979,-0.1859906017780304
1772732477635929300,3.616929443359375,0.18339402973651886,0.5351602435112,-0.052569445222616196
1772732477645957000,3.62695703125,0.1794954240322113,0.5376524329185486,0.035824865102767944
1772732477655985400,3.6369853515625,0.19551484286785126,0.523287296295166,0.05496160686016083
1772732477666012200,3.64701220703125,0.22516435384750366,0.5108612775802612,0.010929699055850506
1772732477676040200,3.657040283203125,0.25920382142066956,0.4928452670574188,-0.07053746283054352
1772732477686068200,3.667068115234375,0.2687840759754181,0.4430325925350189,-0.14552423357963562
1772732477696096300,3.67709619140625,0.2368442565202713,0.34858933091163635,-0.16881251335144043
1772732477706123300,3.687123291015625,0.17873595654964447,0.21104641258716583,-0.12964273989200592
1772732477716151300,3.6971513671875,0.13001585006713867,0.09047188609838486,-0.056376587599515915
1772732477726179300,3.707179443359375,0.09002475440502167,0.010822860524058342,0.013984663411974907
1772732477736206300,3.717206298828125,0.05887646973133087,-0.015560685656964779,0.06974637508392334
1772732477746234000,3.727234130859375,0.05090216547250748,-0.004018278792500496,0.12478513270616531
1772732477756262400,3.737262451171875,0.09350956231355667,0.03703133389353752,0.14959083497524261
1772732477766290200,3.747290283203125,0.1863287091255188,0.10149181634187698,0.11341685056686401
1772732477776317400,3.7573173828125,0.29595375061035156,0.1711844503879547,0.010965553112328053
1772732477786345200,3.76734521484375,0.40787574648857117,0.22539788484573364,-0.12679870426654816
1772732477796373200,3.777373291015625,0.5071971416473389,0.2006479650735855,-0.24887289106845856
1772732477806401300,3.7874013671875,0.5927706360816956,0.09614872187376022,-0.3180708587169647
1772732477816428300,3.79742822265625,0.636459469795227,-0.07528428733348846,-0.3121008574962616
1772732477826456300,3.807456298828125,0.633542001247406,-0.29669469594955444,-0.2423473447561264
1772732477836484000,3.817484130859375,0.5873508453369141,-0.5132139325141907,-0.14459529519081116
1772732477846511400,3.827511474609375,0.5172604322433472,-0.631401538848877,-0.053881097584962845
1772732477856539100,3.8375390625,0.428085058927536,-0.6598816514015198,0.04509761556982994
1772732477866567400,3.8475673828125,0.3293667435646057,-0.6583735346794128,0.14855502545833588
1772732477876595200,3.85759521484375,0.24575656652450562,-0.5982643365859985,0.23422805964946747
1772732477886622200,3.867622314453125,0.17128419876098633,-0.46874284744262695,0.28780606389045715
1772732477896650200,3.877650146484375,0.12978799641132355,-0.31077471375465393,0.2956361174583435
1772732477906678300,3.88767822265625,0.11902189254760742,-0.15545383095741272,0.2526737153530121
1772732477916706300,3.897706298828125,0.12138666957616806,-0.024345779791474342,0.16367723047733307
1772732477926733300,3.9077333984375,0.12727278470993042,0.07519945502281189,0.04720200225710869
1772732477936761300,3.91776123046875,0.12895487248897552,0.13515575230121613,-0.06121081858873367
1772732477946789400,3.927789306640625,0.13914678990840912,0.14556071162223816,-0.1349170058965683
1772732477956816100,3.937816162109375,0.16176486015319824,0.13528482615947723,-0.15978527069091797
1772732477966844400,3.947844482421875,0.17589107155799866,0.09402046352624893,-0.14390644431114197
1772732477976872200,3.9578720703125,0.17194987833499908,0.022819092497229576,-0.10098030418157578
1772732477986900200,3.967900146484375,0.16632501780986786,-0.045306164771318436,-0.05704294517636299
1772732477996927200,3.97792724609375,0.16522054374217987,-0.09641528129577637,-0.034749001264572144
1772732478006955300,3.987955322265625,0.16518326103687286,-0.12388312816619873,-0.04244979843497276
1772732478016983300,3.9979833984375,0.1657487004995346,-0.13011310994625092,-0.07140672206878662
1772732478027011000,4.008010986328125,0.17268437147140503,-0.1413782835006714,-0.10405175387859344
1772732478037038300,4.018038330078125,0.19346006214618683,-0.14742909371852875,-0.14386621117591858
1772732478047066000,4.028066162109375,0.22057557106018066,-0.1429123729467392,-0.18001915514469147
1772732478057094400,4.038094482421875,0.2436026930809021,-0.13153502345085144,-0.21410568058490753
1772732478067121200,4.04812109375,0.26108527183532715,-0.10445493459701538,-0.24652060866355896
1772732478077149200,4.058149169921875,0.24880613386631012,-0.08343138545751572,-0.26863741874694824
1772732478087177200,4.06817724609375,0.22855837643146515,-0.06571603566408157,-0.2657119333744049
1772732478097205200,4.078205322265625,0.20335626602172852,-0.04447339475154877,-0.24588316679000854
1772732478107232300,4.088232177734375,0.17424525320529938,-0.00862165354192257,-0.2045447826385498
1772732478117260300,4.09826025390625,0.1638033390045166,0.017910310998558998,-0.15807411074638367
1772732478127288300,4.108288330078125,0.15389132499694824,0.022039541974663734,-0.10573874413967133
1772732478137315300,4.1183154296875,0.15089653432369232,-0.0021096919663250446,-0.06707586348056793
1772732478147343000,4.128343017578125,0.1656898558139801,-0.0331277959048748,-0.051162682473659515
1772732478157371400,4.138371337890625,0.1849193572998047,-0.061231765896081924,-0.06581704318523407
1772732478167399200,4.148399169921875,0.1986764520406723,-0.10843336582183838,-0.08293371647596359
1772732478177426400,4.158426513671875,0.2237662374973297,-0.15250450372695923,-0.11072620749473572
1772732478187454200,4.1684541015625,0.2616553008556366,-0.17834356427192688,-0.13527043163776398
1772732478197481200,4.178481201171875,0.2937270700931549,-0.19760148227214813,-0.1657431274652481
1772732478207509200,4.18850927734375,0.30062785744667053,-0.24630457162857056,-0.18599221110343933
1772732478217536300,4.198536376953125,0.28420355916023254,-0.28668010234832764,-0.1803976148366928
1772732478227564300,4.208564208984375,0.250582218170166,-0.2946735620498657,-0.1562395542860031
1772732478237592300,4.21859228515625,0.20622479915618896,-0.2687995135784149,-0.12353232502937317
1772732478247619000,4.228619140625,0.15034183859825134,-0.22794662415981293,-0.09980010241270065
1772732478257647400,4.2386474609375,0.10082191228866577,-0.16972434520721436,-0.08119332790374756
1772732478267675100,4.248675048828125,0.053437355905771255,-0.1265140175819397,-0.07123976200819016
1772732478277703200,4.258703125,0.022123347967863083,-0.09198490530252457,-0.06561882048845291
1772732478287730200,4.268730224609375,-0.007502720225602388,-0.03355994075536728,-0.06085415557026863
1772732478297758500,4.278758544921875,-0.04258519038558006,0.049692779779434204,-0.04398735612630844
1772732478307786200,4.2887861328125,-0.07111430913209915,0.10838725417852402,-0.0019549517892301083
1772732478317814300,4.298814208984375,-0.08525025099515915,0.1537884622812271,0.030488260090351105
1772732478327841300,4.30884130859375,-0.09646322578191757,0.16898979246616364,0.03839199244976044
1772732478337869000,4.318869140625,-0.08929416537284851,0.1662619709968567,0.013885391876101494
1772732478347897300,4.3288974609375,-0.07464944571256638,0.15327399969100952,-0.04257522150874138
1772732478357924000,4.338924072265625,-0.05335431918501854,0.17437641322612762,-0.1217769980430603
1772732478367952400,4.348952392578125,-0.050384096801280975,0.23966221511363983,-0.18380147218704224
1772732478377980200,4.358980224609375,-0.040690675377845764,0.32025250792503357,-0.2235276848077774
1772732478388008400,4.369008544921875,0.0031683924607932568,0.4289523661136627,-0.2427852749824524
1772732478398035200,4.37903515625,0.05377474054694176,0.4903484284877777,-0.2431563436985016
1772732478408063200,4.389063232421875,0.10306984931230545,0.4455926716327667,-0.20418284833431244
1772732478418091300,4.39909130859375,0.1410595178604126,0.29236286878585815,-0.11328765004873276
1772732478428118300,4.4091181640625,0.16039139032363892,0.05518682673573494,0.009978624992072582
1772732478438146300,4.419146240234375,0.14480842649936676,-0.21213792264461517,0.10710333287715912
1772732478448174300,4.42917431640625,0.10693347454071045,-0.43390652537345886,0.12731964886188507
1772732478458202400,4.439202392578125,0.06840803474187851,-0.555914044380188,0.06577885150909424
1772732478468229400,4.4492294921875,0.021133730188012123,-0.6047233939170837,-0.01574823446571827
1772732478478257200,4.459257080078125,-0.0038701253943145275,-0.5935322046279907,-0.07558739930391312
1772732478488285200,4.46928515625,-0.018291408196091652,-0.5154778957366943,-0.10528483986854553
1772732478498313200,4.479313232421875,-0.042448852211236954,-0.37526002526283264,-0.09805241972208023
1772732478508340500,4.489340576171875,-0.08264979720115662,-0.218176931142807,-0.04515617713332176
1772732478518368300,4.4993681640625,-0.132808119058609,-0.05494154617190361,0.03960706293582916
1772732478528396300,4.509396240234375,-0.20061059296131134,0.09586314857006073,0.14423520863056183
1772732478538423300,4.51942333984375,-0.2787415385246277,0.2175295352935791,0.2520768344402313
1772732478548451000,4.529451171875,-0.3518732786178589,0.3184276521205902,0.3269081711769104
1772732478558479400,4.539479248046875,-0.4024812877178192,0.41505861282348633,0.3600340485572815
1772732478568507100,4.549507080078125,-0.4256875216960907,0.47239407896995544,0.3427378833293915
1772732478578534400,4.559534423828125,-0.43928220868110657,0.4707368016242981,0.3002307116985321
1772732478588562200,4.569562255859375,-0.43497347831726074,0.45485344529151917,0.23480457067489624
1772732478598590500,4.579590576171875,-0.4254584014415741,0.4193756580352783,0.1736036092042923
1772732478608618200,4.5896181640625,-0.41357192397117615,0.3170900344848633,0.14736269414424896
1772732478618645200,4.599645263671875,-0.38515836000442505,0.16912750899791718,0.17373375594615936
1772732478628673300,4.60967333984375,-0.35623615980148315,0.026533348485827446,0.216891348361969
1772732478638701300,4.619701416015625,-0.34261268377304077,-0.10980509966611862,0.2553965151309967
1772732478648728300,4.629728271484375,-0.3426409065723419,-0.21600210666656494,0.25113385915756226
1772732478658756400,4.63975634765625,-0.33446699380874634,-0.2993760108947754,0.2050798088312149
1772732478668784400,4.649784423828125,-0.3249911963939667,-0.32215961813926697,0.12807105481624603
1772732478678812200,4.659812255859375,-0.3103208839893341,-0.28653040528297424,0.05163823813199997
1772732478688839200,4.669839111328125,-0.2842450737953186,-0.21693800389766693,-0.002256951993331313
1772732478698867200,4.6798671875,-0.23898451030254364,-0.12404623627662659,-0.028234556317329407
1772732478708895200,4.689895263671875,-0.19520853459835052,-0.023401914164423943,-0.024673378095030785
1772732478718922500,4.699922607421875,-0.16122400760650635,0.0646294504404068,0.006325718481093645
1772732478728950300,4.7099501953125,-0.13845397531986237,0.1433735340833664,0.04817356541752815
1772732478738978000,4.71997802734375,-0.11861833184957504,0.21939517557621002,0.08216769993305206
1772732478749006300,4.73000634765625,-0.0893387421965599,0.2832663059234619,0.09895573556423187
1772732478759033000,4.740033203125,-0.05729246139526367,0.31526660919189453,0.10692434757947922
1772732478769061400,4.750061279296875,-0.01641799882054329,0.32602444291114807,0.09332437813282013
1772732478779089200,4.760089111328125,0.021159637719392776,0.30615437030792236,0.06278076767921448
1772732478789117400,4.770117431640625,0.04454139247536659,0.27272289991378784,0.0337778702378273
1772732478799144200,4.780144287109375,0.06668749451637268,0.24642163515090942,0.014915947802364826
1772732478809172200,4.790172119140625,0.0828358381986618,0.2199934870004654,0.016629425808787346
1772732478819200300,4.8002001953125,0.10124222934246063,0.19359098374843597,0.04024883359670639
1772732478829227300,4.810227294921875,0.1290735900402069,0.18166321516036987,0.06955026835203171
1772732478839255300,4.82025537109375,0.15095625817775726,0.1922689974308014,0.10076890885829926
1772732478849283300,4.830283447265625,0.18058471381664276,0.22034484148025513,0.11722058802843094
1772732478859311400,4.840311279296875,0.20865494012832642,0.24627521634101868,0.11115790158510208
1772732478869338400,4.85033837890625,0.23522450029850006,0.2772544026374817,0.08259549736976624
1772732478879366100,4.8603662109375,0.26791656017303467,0.3087317645549774,0.03524317219853401
1772732478889394200,4.870394287109375,0.3076554536819458,0.3103187382221222,-0.0077799297869205475
1772732478899421200,4.880421142578125,0.3546508252620697,0.291544109582901,-0.03451152145862579
1772732478909449200,4.89044921875,0.3878500759601593,0.2736726999282837,-0.04197236895561218
1772732478919477200,4.900477294921875,0.4291223883628845,0.2650269865989685,-0.0399315245449543
1772732478929505300,4.91050537109375,0.47096940875053406,0.2500016987323761,-0.05640903487801552
1772732478939532300,4.9205322265625,0.48337700963020325,0.22947373986244202,-0.11330541223287582
1772732478949560000,4.93056005859375,0.45711931586265564,0.17852559685707092,-0.1905253678560257
1772732478959588400,4.94058837890625,0.4130862057209015,0.09039805829524994,-0.25879019498825073
1772732478969616100,4.9506162109375,0.3749270737171173,-0.0020775487646460533,-0.28456002473831177
1772732478979643400,4.960643310546875,0.3553721606731415,-0.018658146262168884,-0.29227566719055176
1772732478989671200,4.970671142578125,0.33899450302124023,0.027733584865927696,-0.2987886965274811
1772732478999699500,4.980699462890625,0.32743319869041443,0.07811003923416138,-0.2964768409729004
1772732479009726200,4.990726318359375,0.33610978722572327,0.1258022040128708,-0.2845189869403839
1772732479019754200,5.000754150390625,0.35432344675064087,0.1968541294336319,-0.2528551518917084
1772732479029782300,5.0107822265625,0.37500157952308655,0.26483798027038574,-0.19863317906856537
1772732479039810300,5.020810302734375,0.38555610179901123,0.31549060344696045,-0.14711785316467285
1772732479049837300,5.03083740234375,0.3790082037448883,0.38818079233169556,-0.14154039323329926
1772732479059865300,5.040865234375,0.3367309272289276,0.41458237171173096,-0.17650747299194336
1772732479069893400,5.050893310546875,0.2685856819152832,0.32937562465667725,-0.19452589750289917
1772732479079920400,5.06092041015625,0.2047758400440216,0.1417728066444397,-0.17265763878822327
1772732479089948200,5.0709482421875,0.1138928085565567,-0.11520465463399887,-0.08417970687150955
1772732479099976200,5.08097607421875,0.01166965439915657,-0.4031205177307129,0.05243241786956787
1772732479110004200,5.091004150390625,-0.10329501330852509,-0.595066487789154,0.207327201962471
1772732479120031200,5.10103125,-0.2158469557762146,-0.6514574885368347,0.3349335491657257
1772732479130059300,5.111059326171875,-0.299079030752182,-0.5995751023292542,0.42676815390586853
1772732479140087300,5.12108740234375,-0.3310578465461731,-0.4623635709285736,0.4723905026912689
1772732479150115300,5.131115234375,-0.33824172616004944,-0.27662912011146545,0.4892834424972534
1772732479160142000,5.14114208984375,-0.3252297341823578,-0.05766460672020912,0.479371577501297
1772732479170170400,5.15117041015625,-0.30242720246315,0.17549940943717957,0.4504789412021637
1772732479180198100,5.1611982421875,-0.29139041900634766,0.36878594756126404,0.4314565062522888
1772732479190225400,5.171225341796875,-0.28808489441871643,0.47827303409576416,0.4469324052333832
1772732479200254000,5.18125390625,-0.25062796473503113,0.5150283575057983,0.4687131643295288
1772732479210281700,5.19128173828125,-0.17548073828220367,0.5038436651229858,0.4560823440551758
1772732479220310000,5.20131005859375,-0.10417243838310242,0.4296461045742035,0.3958524763584137
1772732479230337000,5.2113369140625,-0.03578220307826996,0.32588616013526917,0.30204451084136963
1772732479240364800,5.22136474609375,0.02336571365594864,0.20562654733657837,0.19644661247730255
1772732479250392800,5.231392822265625,0.07108236849308014,0.08486497402191162,0.08624634146690369
1772732479260419800,5.241419921875,0.12362977117300034,-0.059327155351638794,-0.012246773578226566
1772732479270447900,5.25144775390625,0.1773127168416977,-0.2098468840122223,-0.09764076769351959
1772732479280476000,5.261475830078125,0.2290077656507492,-0.3696218729019165,-0.1633508950471878
1772732479290504000,5.27150390625,0.27483516931533813,-0.520807683467865,-0.2224259227514267
1772732479300531000,5.281531005859375,0.31343215703964233,-0.6217117309570312,-0.283412903547287
1772732479310558700,5.291558837890625,0.34575387835502625,-0.6657747626304626,-0.33764737844467163
1772732479320587000,5.3015869140625,0.36628738045692444,-0.649407684803009,-0.3770432770252228
1772732479330614800,5.31161474609375,0.3667989671230316,-0.5724737644195557,-0.3931026756763458
1772732479340640800,5.321640869140625,0.34991082549095154,-0.4478444755077362,-0.36551791429519653
1772732479350668800,5.331668701171875,0.32200658321380615,-0.30787718296051025,-0.28382062911987305
1772732479360695800,5.34169580078125,0.2857779264450073,-0.1653074026107788,-0.1747828871011734
1772732479370723800,5.351723876953125,0.2578727900981903,-0.061010558158159256,-0.07299234718084335
1772732479380752000,5.361751953125,0.2379263937473297,-0.03083045221865177,-0.014808456413447857
1772732479390779000,5.37177880859375,0.21986030042171478,-0.04941612109541893,-0.004839444998651743
1772732479400807000,5.381806884765625,0.20166389644145966,-0.06272505968809128,-0.04325375705957413
1772732479410834700,5.391834716796875,0.19249463081359863,-0.06317034363746643,-0.09149505198001862
1772732479420863000,5.401863037109375,0.1962834894657135,-0.0759781152009964,-0.12178555876016617
1772732479430889700,5.4118896484375,0.19767259061336517,-0.10616158694028854,-0.1327149122953415
1772732479440918000,5.42191796875,0.20230023562908173,-0.150166854262352,-0.11852342635393143
1772732479450945800,5.43194580078125,0.19687244296073914,-0.1937955617904663,-0.09520026296377182
1772732479460974000,5.44197412109375,0.19065389037132263,-0.22472049295902252,-0.0833493322134018
1772732479471000800,5.452000732421875,0.1914224773645401,-0.2257479429244995,-0.10358189791440964
1772732479481028900,5.46202880859375,0.19122914969921112,-0.2083943486213684,-0.13739874958992004
1772732479491057000,5.472056884765625,0.2206602692604065,-0.1467624008655548,-0.1775331199169159
1772732479501084000,5.482083984375,0.24975301325321198,-0.052000146359205246,-0.20422245562076569
1772732479511112000,5.49211181640625,0.2689141631126404,0.019613588228821754,-0.20334626734256744
1772732479521140000,5.502139892578125,0.25841084122657776,0.12305176258087158,-0.1867191642522812
1772732479531168000,5.51216796875,0.24695312976837158,0.28932464122772217,-0.1763959527015686
1772732479541195000,5.522195068359375,0.24531947076320648,0.465375155210495,-0.18215276300907135
1772732479551222800,5.532222900390625,0.22944970428943634,0.6440247893333435,-0.18222706019878387
1772732479561250800,5.542250732421875,0.19388794898986816,0.7850115895271301,-0.15572799742221832
1772732479571277800,5.55227783203125,0.13266853988170624,0.8685318231582642,-0.08938572555780411
1772732479581305900,5.562305908203125,0.044967155903577805,0.8662989139556885,0.012534002773463726
1772732479591334000,5.572333984375,-0.06175103411078453,0.7484763860702515,0.12750959396362305
1772732479601362000,5.58236181640625,-0.14879219233989716,0.5502960085868835,0.22986076772212982
1772732479611389000,5.592388916015625,-0.19382917881011963,0.33773425221443176,0.27570682764053345
1772732479621416700,5.602416748046875,-0.21017438173294067,0.14795230329036713,0.24446213245391846
1772732479631445000,5.612445068359375,-0.20046555995941162,-0.009608822874724865,0.12767960131168365
1772732479641472800,5.62247265625,-0.15038947761058807,-0.10024277120828629,-0.0486442856490612
1772732479651500000,5.6325,-0.07575678080320358,-0.1025376170873642,-0.2419293224811554
1772732479661527800,5.64252783203125,-0.004264427814632654,-0.04589933156967163,-0.3880784213542938
1772732479671556000,5.65255615234375,0.016318345442414284,-0.003905009711161256,-0.4258548319339752
1772732479681582800,5.662582763671875,-0.005544596817344427,-0.018856080248951912,-0.3485179841518402
1772732479691612000,5.67261181640625,-0.04510398954153061,-0.08613445609807968,-0.19777055084705353
1772732479701639000,5.682638916015625,-0.10100646317005157,-0.16951628029346466,-0.04084497690200806
1772732479711667000,5.6926669921875,-0.1883924901485443,-0.2479679435491562,0.08406127244234085
1772732479721695000,5.702695068359375,-0.30179956555366516,-0.31696486473083496,0.15523630380630493
1772732479731722800,5.71272265625,-0.42373427748680115,-0.35205572843551636,0.19873583316802979
1772732479741750000,5.72275,-0.5176524519920349,-0.3620443046092987,0.23292088508605957
1772732479751777800,5.73277783203125,-0.5716853141784668,-0.33184805512428284,0.26104041934013367
1772732479761805800,5.742805908203125,-0.5867209434509277,-0.2746516466140747,0.28607073426246643
1772732479771832800,5.752832763671875,-0.5841014385223389,-0.20056171715259552,0.3085728585720062
1772732479781860900,5.76286083984375,-0.5690476298332214,-0.10852471739053726,0.33486244082450867
1772732479791889000,5.772888916015625,-0.5602775812149048,-0.011631457135081291,0.36348503828048706
1772732479801917000,5.7829169921875,-0.5591145753860474,0.07349953800439835,0.38158753514289856
1772732479811944000,5.79294384765625,-0.5657628774642944,0.14518624544143677,0.38791120052337646
1772732479821972000,5.802971923828125,-0.5825130343437195,0.1933917999267578,0.3762568533420563
1772732479831999700,5.812999755859375,-0.5921201109886169,0.22777053713798523,0.33729082345962524
1772732479842027000,5.823027099609375,-0.5920829772949219,0.2541913092136383,0.2720032334327698
1772732479852054800,5.8330546875,-0.5777649879455566,0.2709314227104187,0.19721977412700653
1772732479862083000,5.8430830078125,-0.5426555871963501,0.2803597152233124,0.12600752711296082
1772732479872110800,5.85311083984375,-0.482256144285202,0.29926976561546326,0.06305546313524246
1772732479882137900,5.863137939453125,-0.41541457176208496,0.3125685155391693,0.009170722216367722
1772732479892166000,5.873165771484375,-0.3633519113063812,0.28781017661094666,-0.030512243509292603
1772732479902193700,5.883193603515625,-0.32490891218185425,0.2448360025882721,-0.050525352358818054
1772732479912222000,5.893221923828125,-0.3048257529735565,0.18505869805812836,-0.058766502887010574
1772732479922249000,5.9032490234375,-0.2943006157875061,0.09807322919368744,-0.05709176883101463
1772732479932277000,5.913277099609375,-0.2978236973285675,0.01605558767914772,-0.04268033802509308
1772732479942304800,5.9233046875,-0.3129290044307709,-0.084786057472229,-0.012132905423641205
1772732479952331800,5.933331787109375,-0.32636409997940063,-0.15758702158927917,-0.000014989753253757954
1772732479962359800,5.94335986328125,-0.34086889028549194,-0.17649811506271362,-0.008419900201261044
1772732479972387800,5.953387939453125,-0.3457837402820587,-0.14125092327594757,-0.04971647262573242
1772732479982416000,5.963415771484375,-0.33644983172416687,-0.0692843645811081,-0.10810244828462601
1772732479992443000,5.97344287109375,-0.3072749078273773,0.05229479447007179,-0.17894333600997925
1772732480002471000,5.983470947265625,-0.2676643133163452,0.23339936137199402,-0.2731207311153412
1772732480012499000,5.9934990234375,-0.2240135371685028,0.39632144570350647,-0.3559921681880951
1772732480022525700,6.003525634765625,-0.2107129991054535,0.494273841381073,-0.39896339178085327
1772732480032554000,6.013553955078125,-0.21230824291706085,0.5725622773170471,-0.38285180926322937
1772732480042581800,6.023581787109375,-0.21248094737529755,0.6100682020187378,-0.312907874584198
1772732480052610000,6.033610107421875,-0.22640475630760193,0.5529947876930237,-0.2091977298259735
1772732480062636800,6.04363671875,-0.24206990003585815,0.4558163583278656,-0.08698253333568573
1772732480072665000,6.0536650390625,-0.2716352641582489,0.31507253646850586,0.02842928282916546
1772732480082692900,6.06369287109375,-0.29411497712135315,0.14820261299610138,0.10648780316114426
1772732480092721000,6.073720947265625,-0.3121371269226074,-0.005270291119813919,0.1492224782705307
1772732480102748000,6.083747802734375,-0.3265605866909027,-0.1298530101776123,0.18719422817230225
1772732480112775700,6.093775634765625,-0.3315950334072113,-0.2241041362285614,0.23706725239753723
1772732480122804000,6.103803955078125,-0.3212932050228119,-0.3068316578865051,0.3055202066898346
1772732480132831000,6.1138310546875,-0.31551414728164673,-0.3867001235485077,0.389578640460968
1772732480142859000,6.12385888671875,-0.3219679892063141,-0.44985222816467285,0.4797137379646301
1772732480152886800,6.13388671875,-0.3245357871055603,-0.4691590964794159,0.5491021871566772
1772732480162915000,6.1439150390625,-0.3193209171295166,-0.4534922242164612,0.5583642721176147
1772732480172941800,6.15394189453125,-0.31944793462753296,-0.3927633464336395,0.5009372234344482
1772732480182969900,6.163969970703125,-0.3316875994205475,-0.3130733370780945,0.41576695442199707
1772732480192998000,6.173997802734375,-0.341218501329422,-0.25061503052711487,0.3357163369655609
1772732480203025400,6.184025390625,-0.35167714953422546,-0.2021109014749527,0.2701438069343567
1772732480213053200,6.19405322265625,-0.3913191258907318,-0.189310684800148,0.22588978707790375
1772732480223081500,6.20408154296875,-0.4452277719974518,-0.18789014220237732,0.19004522264003754
1772732480233109200,6.214109130859375,-0.4929417669773102,-0.21357154846191406,0.16499392688274384
1772732480243136500,6.224136474609375,-0.5380024313926697,-0.2814243733882904,0.14602608978748322
1772732480253164300,6.234164306640625,-0.5595645904541016,-0.376779168844223,0.09756820648908615
1772732480263192300,6.2441923828125,-0.5667951107025146,-0.479426771402359,0.013568502850830555
1772732480273220400,6.254220458984375,-0.5627992749214172,-0.556506335735321,-0.08060699701309204
1772732480283247400,6.264247314453125,-0.5325431227684021,-0.5922808647155762,-0.1737412065267563
1772732480293275400,6.274275390625,-0.4891279935836792,-0.5499778389930725,-0.2756979465484619
1772732480303303200,6.28430322265625,-0.4409877061843872,-0.44784635305404663,-0.38062021136283875
1772732480313330400,6.294330322265625,-0.36697232723236084,-0.30453500151634216,-0.4784255921840668
1772732480323358200,6.304358154296875,-0.25305649638175964,-0.13323989510536194,-0.5691481828689575
1772732480333386500,6.314386474609375,-0.11074329167604446,0.037212539464235306,-0.6371266841888428
1772732480343414300,6.324414306640625,0.035713862627744675,0.1698427051305771,-0.6581053137779236
1772732480353441300,6.334441162109375,0.16119907796382904,0.26588669419288635,-0.6451495885848999
1772732480363469300,6.34446923828125,0.25040632486343384,0.27583321928977966,-0.6084173917770386
1772732480373497300,6.354497314453125,0.31755873560905457,0.21287637948989868,-0.5569507479667664
1772732480383524400,6.3645244140625,0.3741913437843323,0.10887537151575089,-0.49090903997421265
1772732480393552400,6.374552490234375,0.4090302884578705,-0.030727529898285866,-0.38799145817756653
1772732480403580200,6.384580078125,0.41389894485473633,-0.19879649579524994,-0.2472391426563263
1772732480413608200,6.394608154296875,0.3998768627643585,-0.35140976309776306,-0.08135589212179184
1772732480423635200,6.40463525390625,0.37331870198249817,-0.45514214038848877,0.07581117749214172
1772732480433663500,6.41466357421875,0.34052908420562744,-0.5108663439750671,0.1943245232105255
1772732480443691300,6.424691162109375,0.3151150643825531,-0.5008329153060913,0.27016574144363403
1772732480453719300,6.43471923828125,0.3155131936073303,-0.4457169473171234,0.2924817204475403
1772732480463746300,6.444746337890625,0.3515268862247467,-0.31729787588119507,0.2540700435638428
1772732480473774000,6.454774169921875,0.40428492426872253,-0.13396424055099487,0.1765776425600052
1772732480483802400,6.46480224609375,0.4715940058231354,0.06066974624991417,0.07329421490430832
1772732480493829400,6.474829345703125,0.5517445206642151,0.2348090559244156,-0.04412402585148811
1772732480503857400,6.484857421875,0.6542559266090393,0.3744772970676422,-0.18459177017211914
1772732480513885200,6.49488525390625,0.7622284889221191,0.4528869092464447,-0.33656853437423706
1772732480523913500,6.50491357421875,0.8479689359664917,0.46871140599250793,-0.4902119040489197
1772732480533940200,6.514940185546875,0.892321765422821,0.4461621642112732,-0.6217123866081238
1772732480543968300,6.52496826171875,0.8926640152931213,0.43217408657073975,-0.7116049528121948
1772732480553996300,6.534996337890625,0.8698309063911438,0.4070972204208374,-0.7337267398834229
1772732480564023300,6.545023193359375,0.8340193033218384,0.35325297713279724,-0.6847760081291199
1772732480574051300,6.55505126953125,0.8090558648109436,0.251054972410202,-0.5792999267578125
1772732480584079400,6.565079345703125,0.7791298031806946,0.1175895631313324,-0.44944754242897034
1772732480594107400,6.575107421875,0.7380161881446838,0.005775947589427233,-0.3337409198284149
1772732480604134400,6.585134521484375,0.6799193024635315,-0.06455709040164948,-0.2554769217967987
1772732480614162200,6.595162109375,0.6217529773712158,-0.06103053316473961,-0.22855131328105927
1772732480624190200,6.605190185546875,0.5750134587287903,-0.010919779539108276,-0.21965427696704865
1772732480634218200,6.61521826171875,0.5429868102073669,0.052209921181201935,-0.2160576730966568
1772732480644245500,6.62524560546875,0.5321827530860901,0.14436858892440796,-0.22165820002555847
1772732480654273300,6.635273193359375,0.5208006501197815,0.23371897637844086,-0.23936796188354492
1772732480664301300,6.64530126953125,0.5009121298789978,0.2922446131706238,-0.25409334897994995
1772732480674328300,6.655328369140625,0.4764030873775482,0.32327044010162354,-0.24694278836250305
1772732480684356000,6.665356201171875,0.4432467520236969,0.33469024300575256,-0.2265472710132599
1772732480694384400,6.67538427734375,0.4028620421886444,0.32238563895225525,-0.19963017106056213
1772732480704412200,6.685412109375,0.36613914370536804,0.2905239164829254,-0.1504143327474594
1772732480714439400,6.695439453125,0.33225226402282715,0.2179490625858307,-0.078123077750206
1772732480724467200,6.70546728515625,0.305490642786026,0.1250661015510559,-0.0017764923395588994
1772732480734495500,6.71549560546875,0.2857840359210968,0.027211178094148636,0.07356832921504974
1772732480744522200,6.725522216796875,0.28735262155532837,-0.06719692051410675,0.12629549205303192
1772732480754550300,6.73555029296875,0.3031212091445923,-0.16341532766819,0.13841047883033752
1772732480764578300,6.745578369140625,0.33194512128829956,-0.2198345810174942,0.08503809571266174
1772732480774606300,6.7556064453125,0.3557588458061218,-0.1987956166267395,-0.022067053243517876
1772732480784633300,6.76563330078125,0.37524276971817017,-0.1335321068763733,-0.12273822724819183
1772732480794661400,6.775661376953125,0.4137744605541229,-0.0821533352136612,-0.16284145414829254
1772732480804689400,6.785689453125,0.47488051652908325,-0.038381002843379974,-0.1358361840248108
1772732480814717200,6.79571728515625,0.536232590675354,0.019321976229548454,-0.08821059763431549
1772732480824744200,6.805744140625,0.5687670707702637,0.06829589605331421,-0.03935884311795235
1772732480834772200,6.815772216796875,0.5663779377937317,0.07214229553937912,0.016607487574219704
1772732480844800300,6.82580029296875,0.5522454380989075,0.01538082491606474,0.07363270223140717
1772732480854827500,6.83582763671875,0.5132535696029663,-0.12908446788787842,0.12777210772037506
1772732480864855300,6.845855224609375,0.4259473383426666,-0.3475642502307892,0.15291282534599304
1772732480874883300,6.85588330078125,0.3268106281757355,-0.6066504120826721,0.14412198960781097
1772732480884911400,6.865911376953125,0.24523690342903137,-0.8340534567832947,0.07906955480575562
1772732480894938000,6.875938232421875,0.19937168061733246,-0.9978293776512146,0.0015641134232282639
1772732480904966400,6.88596630859375,0.17262370884418488,-1.0917620658874512,-0.07572219520807266
1772732480914994200,6.895994140625,0.1400870680809021,-1.0866650342941284,-0.16244404017925262
1772732480925021400,6.906021484375,0.12062079459428787,-0.9579638838768005,-0.2624446153640747
1772732480935049200,6.91604931640625,0.14077134430408478,-0.7296169996261597,-0.37423932552337646
1772732480945077500,6.926077392578125,0.21165138483047485,-0.39911383390426636,-0.4981139004230499
1772732480955105300,6.936105224609375,0.31180086731910706,-0.05343206226825714,-0.6144591569900513
1772732480965132300,6.94613232421875,0.38034701347351074,0.14827342331409454,-0.6659659147262573
1772732480975160300,6.956160400390625,0.4067048728466034,0.18163830041885376,-0.6156665682792664
1772732480985188400,6.966188232421875,0.3670593500137329,0.04818963631987572,-0.4472552537918091
1772732480995216400,6.97621630859375,0.2646075189113617,-0.23075704276561737,-0.19479341804981232
1772732481005243400,6.986243408203125,0.07219833135604858,-0.5379961729049683,0.06783466041088104
1772732481015271200,6.996271240234375,-0.17215389013290405,-0.7496562004089355,0.28019165992736816
1772732481025299200,7.00629931640625,-0.3851654529571533,-0.8339782953262329,0.4201712906360626
1772732481035326200,7.016326171875,-0.5526005029678345,-0.8509013652801514,0.4930635988712311
1772732481045354200,7.026354248046875,-0.69432133436203,-0.7715776562690735,0.5115646123886108
1772732481055382300,7.03638232421875,-0.7892771363258362,-0.6070720553398132,0.4838400185108185
1772732481065410300,7.046410400390625,-0.8368323445320129,-0.381381630897522,0.448773056268692
1772732481075437300,7.056437255859375,-0.833244800567627,-0.1075759083032608,0.42887523770332336
1772732481085465000,7.066465087890625,-0.7856054306030273,0.19589661061763763,0.4074285924434662
1772732481095493400,7.076493408203125,-0.731835126876831,0.4627186954021454,0.40462881326675415
1772732481105520000,7.08652001953125,-0.6890751123428345,0.6462767124176025,0.4137296676635742
1772732481115548400,7.09654833984375,-0.6456853151321411,0.7391619086265564,0.3926992118358612
1772732481125576200,7.106576171875,-0.5988486409187317,0.7563223242759705,0.3294111490249634
1772732481135604500,7.1166044921875,-0.5578370094299316,0.733264148235321,0.22923101484775543
1772732481145631200,7.12663134765625,-0.5198598504066467,0.6765874028205872,0.13665083050727844
1772732481155659300,7.1366591796875,-0.4889485538005829,0.5638174414634705,0.09377288073301315
1772732481165687300,7.146687255859375,-0.4709155261516571,0.42839738726615906,0.09510429948568344
1772732481175715300,7.15671533203125,-0.4769103229045868,0.28934523463249207,0.14033275842666626
1772732481185742300,7.166742431640625,-0.48531630635261536,0.16976210474967957,0.20835494995117188
1772732481195770400,7.176770263671875,-0.4825756549835205,0.07015135139226913,0.2819058895111084
1772732481205797600,7.186797607421875,-0.4783407747745514,-0.020211176946759224,0.3331257998943329
1772732481215825000,7.196824951171875,-0.4684348702430725,-0.07038193941116333,0.33933496475219727
1772732481225852700,7.206852783203125,-0.45365631580352783,-0.07588658481836319,0.3123703896999359
1772732481235881000,7.216880859375,-0.4301659166812897,-0.06525764614343643,0.2644958198070526
1772732481245908700,7.22690869140625,-0.41090813279151917,-0.036659885197877884,0.22122417390346527
1772732481255935700,7.236935791015625,-0.38263946771621704,-0.010313499718904495,0.17996329069137573
1772732481265963800,7.2469638671875,-0.35267001390457153,0.03377539664506912,0.13727864623069763
1772732481275991600,7.256991455078125,-0.32410281896591187,0.08349448442459106,0.09651070833206177
1772732481286018800,7.267018798828125,-0.2902217507362366,0.12487596273422241,0.050948504358530045
1772732481296046800,7.277046875,-0.2639715075492859,0.14722387492656708,0.011515877209603786
1772732481306075000,7.287074951171875,-0.24893349409103394,0.1488727629184723,-0.020639309659600258
1772732481316102700,7.2971025390625,-0.22955606877803802,0.15816427767276764,-0.04976842924952507
1772732481326129700,7.307129638671875,-0.2152232527732849,0.14331738650798798,-0.0709577426314354
1772732481336157700,7.31715771484375,-0.19350437819957733,0.08193231374025345,-0.07329333573579788
1772732481346185700,7.327185791015625,-0.17632173001766205,0.021180778741836548,-0.08769132196903229
1772732481356213800,7.3372138671875,-0.16608959436416626,-0.023912131786346436,-0.12394120544195175
1772732481366240800,7.34724072265625,-0.16279421746730804,-0.04792390763759613,-0.1697041392326355
1772732481376268800,7.357268798828125,-0.153700053691864,-0.062221355736255646,-0.19281770288944244
1772732481386296800,7.367296875,-0.13690060377120972,-0.07599108666181564,-0.19185274839401245
1772732481396323600,7.377323486328125,-0.10897897183895111,-0.07188369333744049,-0.17875398695468903
1772732481406352000,7.387351806640625,-0.0872311219573021,-0.060216955840587616,-0.16418930888175964
1772732481416379600,7.397379638671875,-0.06746087968349457,-0.05186102166771889,-0.1406019628047943
1772732481426408000,7.407407958984375,-0.05491316318511963,-0.0303227286785841,-0.11224322021007538
1772732481436434700,7.4174345703125,-0.0457628071308136,0.013036729767918587,-0.059219151735305786
1772732481446463000,7.427462890625,-0.030481476336717606,0.0642356351017952,0.02831367775797844
1772732481456490800,7.43749072265625,0.01817713864147663,0.11530175060033798,0.0882643610239029
1772732481466517800,7.447517822265625,0.05665348097681999,0.19536128640174866,0.0900149792432785
1772732481476545800,7.4575458984375,0.0907139778137207,0.28247010707855225,0.04801400005817413
1772732481486573800,7.46757373046875,0.12306806445121765,0.38958048820495605,-0.03109494224190712
1772732481496601900,7.477601806640625,0.14700216054916382,0.4958004057407379,-0.12106931209564209
1772732481506628900,7.48762890625,0.12970565259456635,0.5372107028961182,-0.17223352193832397
1772732481516657000,7.497656982421875,0.09171779453754425,0.5238882303237915,-0.1559128612279892
1772732481526684700,7.5076845703125,0.036348480731248856,0.4855874478816986,-0.08624552190303802
1772732481536712700,7.517712646484375,-0.04405421391129494,0.4072020947933197,0.016758359968662262
1772732481546739700,7.52773974609375,-0.10764992982149124,0.27901315689086914,0.12023404985666275
1772732481556767700,7.537767822265625,-0.14737309515476227,0.14982375502586365,0.1975834220647812
1772732481566795800,7.547795654296875,-0.19431568682193756,0.03865356743335724,0.24501770734786987
1772732481576822800,7.55782275390625,-0.24075721204280853,-0.12472257763147354,0.2811621129512787
1772732481586850800,7.567850830078125,-0.2628265917301178,-0.3613710105419159,0.2707247734069824
1772732481596878800,7.57787890625,-0.25615352392196655,-0.5449917316436768,0.1737436205148697
1772732481606906600,7.58790673828125,-0.233293816447258,-0.649973452091217,0.0022332898806780577
1772732481616934000,7.597933837890625,-0.19944265484809875,-0.6945547461509705,-0.20743659138679504
1772732481626961700,7.607961669921875,-0.1398582011461258,-0.6391693353652954,-0.4227117598056793
1772732481636990000,7.617989990234375,-0.05610019341111183,-0.4654417335987091,-0.6060943603515625
1772732481647016700,7.6280166015625,0.02487526275217533,-0.20807337760925293,-0.6979841589927673
1772732481657044700,7.638044677734375,0.1148027554154396,0.018428191542625427,-0.6952765583992004
1772732481667072800,7.64807275390625,0.18371587991714478,0.2273467779159546,-0.6226861476898193
1772732481677100500,7.6581005859375,0.1917860507965088,0.4297832250595093,-0.4883853495121002
1772732481687127800,7.6681279296875,0.13843238353729248,0.563336193561554,-0.3050825297832489
1772732481697155800,7.67815576171875,0.05429327115416527,0.6230897903442383,-0.09754612296819687
1772732481707183900,7.688183837890625,-0.06548968702554703,0.6167717576026917,0.0965082123875618
1772732481717211600,7.698211669921875,-0.22527562081813812,0.5097268223762512,0.26556938886642456
1772732481727238700,7.70823876953125,-0.39408570528030396,0.28106510639190674,0.3952595591545105
1772732481737266700,7.7182666015625,-0.535308837890625,-0.01956263743340969,0.4560704231262207
1772732481747294700,7.728294677734375,-0.6727264523506165,-0.2717936635017395,0.4514288902282715
1772732481757321700,7.73832177734375,-0.7978987693786621,-0.4356238842010498,0.43997862935066223
1772732481767349800,7.748349853515625,-0.8772961497306824,-0.5944631099700928,0.44428545236587524
1772732481777377800,7.758377685546875,-0.9037283062934875,-0.6559456586837769,0.4549817740917206
1772732481787405800,7.76840576171875,-0.9075665473937988,-0.5987817645072937,0.46896326541900635
1772732481797432600,7.7784326171875,-0.8959445357322693,-0.46911856532096863,0.48673826456069946
1772732481807460900,7.7884609375,-0.8359869122505188,-0.2972535192966461,0.5072243213653564
1772732481817488600,7.798488525390625,-0.7511423230171204,-0.09353314340114594,0.5327107906341553
1772732481827516000,7.808515869140625,-0.6390929818153381,0.11319360136985779,0.5371317863464355
1772732481837543700,7.818543701171875,-0.49589109420776367,0.2899545133113861,0.5011287927627563
1772732481847572000,7.828572021484375,-0.3240315616130829,0.42224571108818054,0.39128756523132324
1772732481857599700,7.838599853515625,-0.15211813151836395,0.5169285535812378,0.19967150688171387
1772732481867626800,7.848626708984375,0.01775248721241951,0.5706690549850464,-0.040461115539073944
1772732481877654800,7.85865478515625,0.2026435136795044,0.5966548919677734,-0.2999880313873291
1772732481887682600,7.8686826171875,0.3920787572860718,0.5490814447402954,-0.5301694869995117
1772732481897710800,7.8787109375,0.5700780749320984,0.43264538049697876,-0.6911274790763855
1772732481907737900,7.88873779296875,0.6946626305580139,0.26260948181152344,-0.7548604011535645
1772732481917766000,7.898765869140625,0.752191960811615,0.04660447686910629,-0.7081139087677002
1772732481927793700,7.908793701171875,0.733623743057251,-0.20250579714775085,-0.5583652257919312
1772732481937820700,7.918820556640625,0.6452824473381042,-0.44566091895103455,-0.3429242968559265
1772732481947848700,7.9288486328125,0.4988343119621277,-0.6042997241020203,-0.11968379467725754
1772732481957876700,7.938876708984375,0.33277928829193115,-0.6444308757781982,0.06494304537773132
1772732481967904800,7.94890478515625,0.18675263226032257,-0.5772364735603333,0.1966349184513092
1772732481977931800,7.958931884765625,0.07335416972637177,-0.4461040198802948,0.29770854115486145
1772732481987959800,7.968959716796875,0.01582290418446064,-0.2846565544605255,0.37263724207878113
1772732481997987800,7.97898779296875,0.0037617140915244818,-0.15531057119369507,0.42724481225013733
1772732482008014600,7.9890146484375,0.021713798865675926,-0.05214594304561615,0.45013925433158875
1772732482018043000,7.99904296875,0.04990815371274948,0.03467204421758652,0.4519592523574829
1772732482028070700,8.009070556640625,0.08394712954759598,0.11608579754829407,0.44141146540641785
1772732482038098700,8.0190986328125,0.13373838365077972,0.16097605228424072,0.4339796304702759
1772732482048125700,8.029125732421875,0.2024245262145996,0.1698407381772995,0.41467002034187317
1772732482058154000,8.039154052734375,0.2637997269630432,0.1461884081363678,0.37936314940452576
1772732482068181800,8.049181640625,0.30799877643585205,0.07463131844997406,0.3335948884487152
1772732482078209800,8.059209716796875,0.35283443331718445,-0.02278018742799759,0.2722598910331726
1772732482088236800,8.06923681640625,0.3903951346874237,-0.12379921227693558,0.19063985347747803
1772732482098264600,8.0792646484375,0.4199777841567993,-0.2081921249628067,0.08471394330263138
1772732482108292900,8.08929296875,0.4492522180080414,-0.25801175832748413,-0.04539729654788971
1772732482118319900,8.09931982421875,0.47399911284446716,-0.2699855864048004,-0.1869211345911026
1772732482128348000,8.109347900390626,0.47556498646736145,-0.2523548901081085,-0.29483306407928467
1772732482138375700,8.119375732421876,0.4673387408256531,-0.20262648165225983,-0.3415587544441223
1772732482148404000,8.129404052734374,0.4653761684894562,-0.13828226923942566,-0.32892024517059326
1772732482158430700,8.1394306640625,0.4608040452003479,-0.08362995833158493,-0.28827425837516785
1772732482168458800,8.149458740234374,0.4352419078350067,-0.04850030317902565,-0.2402966171503067
1772732482178486800,8.15948681640625,0.3952670693397522,-0.03694351390004158,-0.2037295550107956
1772732482188514800,8.169514892578125,0.33047032356262207,-0.06126708537340164,-0.16676022112369537
1772732482198542000,8.1795419921875,0.2532525062561035,-0.08886914700269699,-0.12668630480766296
1772732482208570000,8.189570068359375,0.16865313053131104,-0.14941242337226868,-0.08699549734592438
1772732482218598100,8.19959814453125,0.08800169080495834,-0.19839541614055634,-0.04569971561431885
1772732482228625200,8.209625244140625,0.032498691231012344,-0.22972621023654938,-0.00046979403123259544
1772732482238653000,8.21965283203125,0.01300541590899229,-0.2555921971797943,0.061202626675367355
1772732482248681000,8.229680908203125,0.01985562965273857,-0.28521397709846497,0.11749885976314545
1772732482258709000,8.239708984375,0.04284563660621643,-0.3271813988685608,0.1637989729642868
1772732482268736000,8.249736083984375,0.06267613917589188,-0.3900691270828247,0.1951088160276413
1772732482278764000,8.259763916015626,0.06962618976831436,-0.46677643060684204,0.19930969178676605
1772732482288791800,8.269791748046876,0.06902573257684708,-0.5367388725280762,0.1918604075908661
1772732482298819000,8.279819091796876,0.05490884929895401,-0.6171948313713074,0.1680930256843567
1772732482308846800,8.289846923828126,0.029573950916528702,-0.7159894704818726,0.13662002980709076
1772732482318875100,8.299875244140624,-0.018975742161273956,-0.8313711881637573,0.09109674394130707
1772732482328903000,8.30990283203125,-0.08684732764959335,-0.9657505750656128,0.047028329223394394
1772732482338930200,8.31993017578125,-0.14513114094734192,-1.0796387195587158,-0.0223198514431715
1772732482348958000,8.3299580078125,-0.1408746838569641,-1.0738205909729004,-0.1670880913734436
1772732482358986000,8.339986083984375,-0.06123976781964302,-0.8646771907806396,-0.3993956446647644
1772732482369013000,8.350012939453125,0.07531803101301193,-0.5390601754188538,-0.6616178154945374
1772732482379041000,8.360041015625,0.24276135861873627,-0.19484901428222656,-0.8411561250686646
1772732482389069000,8.370069091796875,0.42381876707077026,0.09037437289953232,-0.9017266035079956
1772732482399097000,8.38009716796875,0.5656787157058716,0.32694774866104126,-0.861577570438385
1772732482409123800,8.390123779296875,0.6253678798675537,0.46851396560668945,-0.7691835165023804
1772732482419152100,8.400152099609375,0.5818390250205994,0.4755580425262451,-0.6052390933036804
1772732482429180000,8.410179931640625,0.44912970066070557,0.3359052240848541,-0.37393519282341003
1772732482439208000,8.4202080078125,0.2267770618200302,0.09468326717615128,-0.10358519852161407
1772732482449235000,8.43023486328125,-0.062377192080020905,-0.17877061665058136,0.18061284720897675
1772732482459263000,8.440262939453126,-0.3730493187904358,-0.3866971731185913,0.4512656331062317
1772732482469291000,8.450291015625,-0.6015838980674744,-0.4612290561199188,0.6670768857002258
1772732482479318000,8.460318115234376,-0.7436390519142151,-0.434203565120697,0.8045604228973389
1772732482489346000,8.470345947265624,-0.7918702960014343,-0.2777785062789917,0.8534650206565857
1772732482499373800,8.480373779296874,-0.7668336629867554,-0.03547533601522446,0.8321989178657532
1772732482509402000,8.490402099609375,-0.6730710864067078,0.2000819593667984,0.7538514137268066
1772732482519428900,8.500428955078124,-0.5273171067237854,0.43222489953041077,0.6411730647087097
1772732482529457200,8.51045703125,-0.3661443889141083,0.6575632691383362,0.5334041118621826
1772732482539485000,8.52048486328125,-0.20287103950977325,0.7916118502616882,0.4357489347457886
1772732482549513200,8.53051318359375,-0.07169841229915619,0.8215909004211426,0.34443458914756775
1772732482559540000,8.5405400390625,0.030506789684295654,0.789199948310852,0.2604973614215851
1772732482569568000,8.550568115234375,0.09945587813854218,0.7018457055091858,0.19729286432266235
1772732482579596000,8.560595947265625,0.12137182801961899,0.5736161470413208,0.1494976431131363
1772732482589623000,8.570623046875,0.11676455289125443,0.4447796642780304,0.10245580971240997
1772732482599651000,8.580651123046875,0.0776435136795044,0.32300931215286255,0.05292794108390808
1772732482609679000,8.59067919921875,0.02203226089477539,0.2114751935005188,0.025366201996803284
1772732482619707100,8.60070703125,-0.045816291123628616,0.11144046485424042,0.036394886672496796
1772732482629734100,8.610734130859376,-0.11346861720085144,0.03401205316185951,0.06777581572532654
1772732482639762000,8.620761962890626,-0.16317199170589447,0.02616291679441929,0.11106549948453903
1772732482649790000,8.6307900390625,-0.17885160446166992,0.04316072538495064,0.15699459612369537
1772732482659817000,8.64081689453125,-0.17239636182785034,0.04798317700624466,0.21059870719909668
1772732482669845000,8.650844970703124,-0.15904712677001953,0.0722387433052063,0.24833166599273682
1772732482679873000,8.660873046875,-0.1401839554309845,0.10629870742559433,0.25316479802131653
1772732482689901000,8.670901123046875,-0.13180984556674957,0.13684457540512085,0.21592861413955688
1772732482699928000,8.680927978515625,-0.12464302778244019,0.1523449718952179,0.13042010366916656
1772732482709955800,8.690955810546875,-0.1308867484331131,0.1548164188861847,0.01437007449567318
1772732482719984000,8.700984130859375,-0.13632971048355103,0.15832991898059845,-0.09455640614032745
1772732482730011000,8.711010986328125,-0.13002778589725494,0.17118993401527405,-0.17145054042339325
1772732482740039200,8.7210390625,-0.10961386561393738,0.18912872672080994,-0.19879667460918427
1772732482750067000,8.73106689453125,-0.0757281482219696,0.20742689073085785,-0.17972509562969208
1772732482760095200,8.74109521484375,-0.03701164573431015,0.21465684473514557,-0.1307317167520523
1772732482770122000,8.7511220703125,-0.015658404678106308,0.2106664627790451,-0.06406057626008987
1772732482780150000,8.76114990234375,-0.004525591153651476,0.19931501150131226,0.0017623795429244637
1772732482790178000,8.771177978515626,0.008624361827969551,0.17286241054534912,0.043806374073028564
1772732482800205800,8.781205810546876,0.029102206230163574,0.1510942578315735,0.060486018657684326
1772732482810233000,8.791233154296876,0.05495857074856758,0.1583883911371231,0.049615528434515
1772732482820261000,8.80126123046875,0.08945191651582718,0.1495031714439392,0.016117336228489876
1772732482830289200,8.8112890625,0.11720351129770279,0.12629565596580505,-0.015022991225123405
1772732482840316200,8.821316162109374,0.12775494158267975,0.09582430869340897,-0.03936375305056572
1772732482850344000,8.831343994140624,0.13384060561656952,0.06921457499265671,-0.046932850033044815
1772732482860372000,8.8413720703125,0.15602900087833405,0.05500954017043114,-0.04231972247362137
1772732482870400000,8.85139990234375,0.1904682070016861,0.045563410967588425,-0.02595781721174717
1772732482880427000,8.861427001953125,0.2277705818414688,0.06330113112926483,0.01260874979197979
1772732482890455000,8.871455078125,0.27203530073165894,0.10824068635702133,0.05659365653991699
1772732482900483000,8.881483154296875,0.31615376472473145,0.18298229575157166,0.08824586123228073
1772732482910510000,8.891510009765625,0.36184781789779663,0.28331679105758667,0.0819571241736412
1772732482920537900,8.901537841796875,0.4009283781051636,0.4025382399559021,0.05725577846169472
1772732482930566100,8.911566162109375,0.42913857102394104,0.5107504725456238,0.033154264092445374
1772732482940594000,8.921593994140625,0.41388317942619324,0.5809569954872131,0.04058075323700905
1772732482950621200,8.93162109375,0.3819037675857544,0.5588167905807495,0.08258576691150665
1772732482960649000,8.94164892578125,0.35409319400787354,0.42865046858787537,0.14647606015205383
1772732482970677000,8.951677001953126,0.3092769384384155,0.22463376820087433,0.19069023430347443
1772732482980705000,8.961705078125,0.26971620321273804,0.007831682451069355,0.22029206156730652
1772732482990732000,8.97173193359375,0.21936286985874176,-0.2569734454154968,0.2469887137413025
1772732483000760000,8.981760009765624,0.18852852284908295,-0.5042367577552795,0.25930821895599365
1772732483010787800,8.991787841796874,0.20914681255817413,-0.6521225571632385,0.22653305530548096
1772732483020814800,9.00181494140625,0.20573823153972626,-0.71246337890625,0.19388510286808014
1772732483030843100,9.011843017578125,0.3681424558162689,-0.4919864237308502,0.028277454897761345
1772732483040871000,9.021870849609375,0.5317832827568054,-0.13991068303585052,-0.16885292530059814
1772732483050899000,9.03189892578125,0.5967249274253845,0.040916748344898224,-0.32931721210479736
1772732483060926000,9.041926025390625,0.5681928992271423,0.1041758805513382,-0.46616294980049133
1772732483070954000,9.0519541015625,0.44062864780426025,0.11346406489610672,-0.5504883527755737
1772732483080982000,9.06198193359375,0.2720646560192108,0.05557014048099518,-0.5799309611320496
1772732483091009000,9.072009033203125,0.07552386820316315,-0.041774019598960876,-0.5459929704666138
1772732483101037000,9.082037109375,-0.09909240901470184,-0.10791015625,-0.44087958335876465
1772732483111064800,9.09206494140625,-0.22619104385375977,-0.18724755942821503,-0.28615400195121765
1772732483121093000,9.102093017578126,-0.331601619720459,-0.26161524653434753,-0.10340657085180283
1772732483131119900,9.112119873046876,-0.4121273159980774,-0.2877512276172638,0.08827085047960281
1772732483141148200,9.122148193359376,-0.47050565481185913,-0.2515476644039154,0.27802371978759766
1772732483151176000,9.132176025390624,-0.5102205276489258,-0.1679779440164566,0.44054368138313293
1772732483161204200,9.142204345703124,-0.5335335731506348,-0.049860887229442596,0.5597419738769531
1772732483171231000,9.15223095703125,-0.5308802723884583,0.05951746925711632,0.6015119552612305
1772732483181259000,9.162259033203124,-0.5005583167076111,0.13217809796333313,0.5654905438423157
1772732483191287000,9.172287109375,-0.4375900626182556,0.2010883390903473,0.45774829387664795
1772732483201313800,9.182313720703124,-0.3589687645435333,0.2565279006958008,0.31574055552482605
1772732483211341800,9.192341796875,-0.2504231631755829,0.2657059133052826,0.17240747809410095
1772732483221369900,9.202369873046875,-0.11953971534967422,0.2398010641336441,0.04010934755206108
1772732483231398000,9.21239794921875,0.01553819328546524,0.18536275625228882,-0.07309121638536453
1772732483241425000,9.2224248046875,0.15276716649532318,0.09608214348554611,-0.1707269549369812
1772732483251452700,9.23245263671875,0.25956135988235474,-0.03772953152656555,-0.25221705436706543
1772732483261480700,9.242480712890625,0.33807963132858276,-0.1923457384109497,-0.30996423959732056
1772732483271507700,9.2525078125,0.39873969554901123,-0.3394796848297119,-0.3384295403957367
1772732483281535700,9.26253564453125,0.43745726346969604,-0.43871599435806274,-0.35594674944877625
1772732483291563800,9.272563720703126,0.4619821310043335,-0.48511770367622375,-0.37194451689720154
1772732483301591800,9.282591796875,0.48052892088890076,-0.465973824262619,-0.38909074664115906
1772732483311618800,9.292618896484376,0.47330620884895325,-0.40917566418647766,-0.38294851779937744
1772732483321646600,9.302646484375,0.4450492858886719,-0.32660725712776184,-0.3502664566040039
1772732483331675000,9.3126748046875,0.39953628182411194,-0.19553862512111664,-0.2984579801559448
1772732483341701600,9.32270166015625,0.3496971130371094,-0.03447676822543144,-0.2343413084745407
1772732483351730000,9.33272998046875,0.30156341195106506,0.09238673001527786,-0.17740753293037415
1772732483361757700,9.3427578125,0.25798770785331726,0.16394667327404022,-0.14742086827754974
1772732483371784700,9.35278466796875,0.22299374639987946,0.1950201541185379,-0.15342484414577484
1772732483381812700,9.362812744140625,0.18581841886043549,0.18501652777194977,-0.17589659988880157
1772732483391840800,9.3728408203125,0.1370856612920761,0.15061062574386597,-0.18041500449180603
1772732483401867800,9.38286767578125,0.09789618104696274,0.102264404296875,-0.16013608872890472
1772732483411895800,9.392895751953125,0.05985095724463463,0.05131709203124046,-0.12225640565156937
1772732483421923800,9.402923828125,0.020067326724529266,-0.008083650842308998,-0.05158223584294319
1772732483431952000,9.412951904296875,-0.0009042555466294289,-0.07307179272174835,0.035144366323947906
1772732483441978600,9.422978515625,-0.0047474633902311325,-0.12875981628894806,0.11920785158872604
1772732483452007000,9.4330068359375,0.025215309113264084,-0.1820324808359146,0.19831529259681702
1772732483462034700,9.44303466796875,0.07411813735961914,-0.20917461812496185,0.24737659096717834
1772732483472062000,9.45306201171875,0.11246710270643234,-0.2157956063747406,0.2683252990245819
1772732483482089700,9.46308984375,0.13419291377067566,-0.19456994533538818,0.2484879493713379
1772732483492117800,9.47311767578125,0.13552279770374298,-0.15539944171905518,0.21150721609592438
1772732483502145800,9.483145751953124,0.13291344046592712,-0.11909443140029907,0.1818009912967682
1772732483512172800,9.4931728515625,0.12542712688446045,-0.09922079741954803,0.1683744639158249
1772732483522200800,9.503200927734374,0.12356183677911758,-0.08602537214756012,0.15725311636924744
1772732483532228600,9.513228515625,0.10972797870635986,-0.07210239768028259,0.13805769383907318
1772732483542257000,9.5232568359375,0.09038304537534714,-0.074547179043293,0.12913158535957336
1772732483552283600,9.53328369140625,0.0869988277554512,-0.06750810146331787,0.1319476217031479
1772732483562311700,9.543311767578125,0.08576897531747818,-0.058141227811574936,0.14908187091350555
1772732483572339700,9.553339599609375,0.09544093906879425,-0.056563738733530045,0.1731184422969818
1772732483582366700,9.56336669921875,0.10380752384662628,-0.06883585453033447,0.1779041439294815
1772732483592394800,9.573394775390625,0.09543153643608093,-0.10060837864875793,0.15617477893829346
1772732483602422800,9.5834228515625,0.09092440456151962,-0.13280627131462097,0.11874911189079285
1772732483612450800,9.593450927734375,0.08815629780292511,-0.16824612021446228,0.09440677613019943
1772732483622477800,9.603477783203125,0.08453413099050522,-0.21678462624549866,0.10028143972158432
1772732483632505600,9.613505615234375,0.08898907154798508,-0.2503676116466522,0.13591641187667847
1772732483642534000,9.623533935546876,0.07791884243488312,-0.28129491209983826,0.17210210859775543
1772732483652560600,9.633560546875,0.039851460605859756,-0.3361864686012268,0.20263929665088654
1772732483662589000,9.6435888671875,-0.011836234480142593,-0.40520602464675903,0.2296767681837082
1772732483672616700,9.65361669921875,-0.05157585069537163,-0.4373001158237457,0.23285934329032898
1772732483682645800,9.663645751953124,-0.07336157560348511,-0.4136781394481659,0.19961990416049957
1772732483692673800,9.673673828125,-0.0934888944029808,-0.3341110348701477,0.13256435096263885
1772732483702700800,9.68370068359375,-0.09786979854106903,-0.21794019639492035,0.036035943776369095
1772732483712728800,9.693728759765625,-0.07778563350439072,-0.08104071021080017,-0.07782445102930069
1772732483722756900,9.7037568359375,-0.030512122437357903,0.07347243279218674,-0.1913784295320511
1772732483732784600,9.71378466796875,0.04053163155913353,0.21253333985805511,-0.2914007902145386
1772732483742811600,9.723811767578125,0.11282607167959213,0.3330667018890381,-0.3600778579711914
1772732483752839700,9.733839599609375,0.17272129654884338,0.41602304577827454,-0.3845979869365692
1772732483762867700,9.74386767578125,0.2066747397184372,0.40243664383888245,-0.3584854304790497
1772732483772895700,9.753895751953126,0.20989952981472015,0.33058831095695496,-0.31096258759498596
1772732483782922800,9.7639228515625,0.18255072832107544,0.21059715747833252,-0.23180171847343445
1772732483792950800,9.77395068359375,0.11684782803058624,0.04331670328974724,-0.1305312067270279
1772732483802978800,9.783978759765626,0.03127434477210045,-0.12318278849124908,-0.01701422594487667
1772732483813005600,9.794005615234376,-0.07380907237529755,-0.2069581151008606,0.08766880631446838
1772732483823033900,9.804033935546874,-0.1745937466621399,-0.1974080204963684,0.18150821328163147
1772732483833061600,9.8140615234375,-0.250274121761322,-0.12274470180273056,0.25579893589019775
1772732483843090000,9.82408984375,-0.3080553710460663,-0.026292728260159492,0.31076446175575256
1772732483853116700,9.83411669921875,-0.34389927983283997,0.07054539769887924,0.34329652786254883
1772732483863145000,9.84414501953125,-0.3495156168937683,0.1400994509458542,0.36082279682159424
1772732483873172700,9.8541728515625,-0.3316096365451813,0.16936977207660675,0.35994061827659607
1772732483883199700,9.86419970703125,-0.3074890971183777,0.16240054368972778,0.32707640528678894
1772732483893227800,9.874227783203125,-0.2762981057167053,0.13159207999706268,0.2774176597595215
1772732483903255800,9.884255859375,-0.25117623805999756,0.09637763351202011,0.21369245648384094
1772732483913283800,9.894283935546875,-0.2301040142774582,0.08033739030361176,0.12858295440673828
1772732483923310800,9.904310791015625,-0.21299666166305542,0.07588697969913483,0.05133530870079994
1772732483933339000,9.9143388671875,-0.20085501670837402,0.05783165618777275,0.0014833046589046717
1772732483943366700,9.92436669921875,-0.1848592758178711,0.0655183419585228,-0.03636367619037628
1772732483953394700,9.934394775390626,-0.16253520548343658,0.07980699092149734,-0.05791107192635536
1772732483963421700,9.944421630859376,-0.14400465786457062,0.08826892077922821,-0.0719509869813919
1772732483973449700,9.95444970703125,-0.12846562266349792,0.09046852588653564,-0.07916072756052017
1772732483983477800,9.964477783203124,-0.12563201785087585,0.07381498068571091,-0.07279204577207565
1772732483993504800,9.9745048828125,-0.1253122240304947,0.028394561260938644,-0.059108667075634
1772732484003532500,9.984532470703124,-0.12838949263095856,-0.029482850804924965,-0.04326898604631424
1772732484013560800,9.994560791015624,-0.14985743165016174,-0.09365654736757278,-0.03153787553310394
1772732484023588600,10.004588623046875,-0.17159868776798248,-0.15790051221847534,-0.04230503737926483
1772732484033616000,10.014615966796875,-0.18197812139987946,-0.21416665613651276,-0.08923681080341339
1772732484043643600,10.0246435546875,-0.18116320669651031,-0.2533572018146515,-0.16930900514125824
1772732484053672000,10.034671875,-0.17549043893814087,-0.25283434987068176,-0.2554888129234314
1772732484063698700,10.04469873046875,-0.1653243601322174,-0.22336089611053467,-0.32081374526023865
1772732484073726700,10.054726806640625,-0.14444483816623688,-0.17524045705795288,-0.36248913407325745
1772732484083754800,10.064754638671875,-0.11010471731424332,-0.10122509300708771,-0.3783695697784424
1772732484093782800,10.07478271484375,-0.07319902628660202,-0.003048803424462676,-0.3785299062728882
1772732484103809800,10.084809814453125,-0.04048767685890198,0.11497823894023895,-0.3607170879840851
1772732484113837800,10.094837890625,-0.014564097858965397,0.22798332571983337,-0.32109665870666504
1772732484123865900,10.104865966796876,0.005149153061211109,0.32035428285598755,-0.26382991671562195
1772732484133893600,10.1148935546875,0.02454514615237713,0.40056365728378296,-0.20226065814495087
1772732484143920600,10.124920654296876,0.04250683635473251,0.46395087242126465,-0.1438322365283966
1772732484153948700,10.13494873046875,0.06663645803928375,0.48567017912864685,-0.09137125313282013
1772732484163976700,10.144976806640624,0.1010516881942749,0.46042633056640625,-0.08023018389940262
1772732484174003700,10.155003662109374,0.15436117351055145,0.4121159017086029,-0.10776019096374512
1772732484184031700,10.16503173828125,0.1994365006685257,0.32613229751586914,-0.16071927547454834
1772732484194059800,10.175059814453125,0.2349161058664322,0.2254517525434494,-0.2103966474533081
1772732484204088000,10.185088134765625,0.2537044286727905,0.15575043857097626,-0.24106614291667938
1772732484214114800,10.19511474609375,0.2547929883003235,0.12182896584272385,-0.24065226316452026
1772732484224142800,10.205142822265625,0.23709602653980255,0.07324279099702835,-0.20324629545211792
1772732484234171000,10.2151708984375,0.20863738656044006,0.04028824716806412,-0.1483791321516037
1772732484244198000,10.225197998046875,0.18437466025352478,0.04373916983604431,-0.0992579236626625
1772732484254226000,10.235225830078125,0.17267011106014252,0.05534063279628754,-0.052152834832668304
1772732484264254000,10.24525390625,0.16892197728157043,0.0817440077662468,-0.011184895411133766
1772732484274282000,10.255281982421875,0.16936437785625458,0.1257755160331726,0.0166074987500906
1772732484284309000,10.26530908203125,0.16498933732509613,0.15862400829792023,0.038483768701553345
1772732484294336800,10.275336669921876,0.16247312724590302,0.17519235610961914,0.04978979751467705
1772732484304364800,10.28536474609375,0.18132829666137695,0.1947287768125534,0.03651420772075653
1772732484314392800,10.295392822265624,0.2009311467409134,0.20306091010570526,0.009593162685632706
1772732484324420000,10.305420166015624,0.22717872262001038,0.20027577877044678,-0.014261037111282349
1772732484334447900,10.31544775390625,0.24591092765331268,0.19273783266544342,-0.02959374338388443
1772732484344476000,10.325475830078124,0.2634851336479187,0.19745908677577972,-0.03008403070271015
1772732484354503000,10.3355029296875,0.27967125177383423,0.20877037942409515,-0.020807338878512383
1772732484364530700,10.34553076171875,0.2876788377761841,0.21234168112277985,-0.012627175077795982
1772732484374559000,10.35555908203125,0.2896265983581543,0.20115432143211365,-0.007767057977616787
1772732484384586800,10.365586669921875,0.2881922125816345,0.19238506257534027,-0.015122443437576294
1772732484394614000,10.375614013671875,0.2854286730289459,0.17282956838607788,-0.031858570873737335
1772732484404641800,10.385641845703125,0.2871650457382202,0.14277394115924835,-0.04466225206851959
1772732484414670000,10.395670166015625,0.28291434049606323,0.12300968170166016,-0.05573558434844017
1772732484424696800,10.40569677734375,0.27924928069114685,0.12395404279232025,-0.06554187834262848
1772732484434724900,10.415724853515625,0.27493974566459656,0.15220122039318085,-0.08012025058269501
1772732484444753000,10.4257529296875,0.2770462930202484,0.1874430924654007,-0.0989282950758934
1772732484454781000,10.435781005859376,0.2821815609931946,0.18891581892967224,-0.11163319647312164
1772732484464808000,10.445807861328126,0.2893281579017639,0.14822351932525635,-0.12364351749420166
1772732484474836000,10.4558359375,0.3009883165359497,0.09777548909187317,-0.14698968827724457
1772732484484864000,10.465864013671874,0.3074803054332733,0.060855019837617874,-0.18897655606269836
1772732484494891800,10.475891845703124,0.30577555298805237,0.04441872611641884,-0.23678624629974365
1772732484504918800,10.485918701171874,0.29681694507598877,0.052943769842386246,-0.2749946117401123
1772732484514946800,10.49594677734375,0.28690460324287415,0.07929261028766632,-0.29316797852516174
1772732484524974800,10.505974853515625,0.28028130531311035,0.11446204781532288,-0.28611671924591064
1772732484535002000,10.516002197265625,0.2736758291721344,0.17073939740657806,-0.27618035674095154
1772732484545030000,10.52602978515625,0.26417526602745056,0.23922497034072876,-0.26979729533195496
1772732484555058000,10.536057861328125,0.2451373189687729,0.28817930817604065,-0.26179271936416626
1772732484565086000,10.5460859375,0.22777403891086578,0.29554083943367004,-0.22292202711105347
1772732484575112700,10.55611279296875,0.20093458890914917,0.253734827041626,-0.13904261589050293
1772732484585141000,10.56614111328125,0.16003721952438354,0.16118092834949493,-0.018903953954577446
1772732484595168800,10.576168701171875,0.09530413895845413,0.05900472775101662,0.10147175937891006
1772732484605197000,10.586197021484375,-0.002887139795348048,-0.03707573190331459,0.22571887075901031
1772732484615223800,10.596223876953125,-0.11237996071577072,-0.1017819344997406,0.34446394443511963
1772732484625251800,10.606251953125,-0.19271154701709747,-0.0997113287448883,0.45271986722946167
1772732484635280000,10.61627978515625,-0.2384980022907257,-0.06661927700042725,0.542552649974823
1772732484645307000,10.626306884765626,-0.26000967621803284,-0.03053797222673893,0.5959484577178955
1772732484655335000,10.6363349609375,-0.27222490310668945,0.0320352278649807,0.6053805351257324
1772732484665363000,10.646363037109374,-0.27082595229148865,0.13958992063999176,0.5833010673522949
1772732484675391000,10.656390869140624,-0.2374151200056076,0.2626737058162689,0.5634275078773499
1772732484685418000,10.66641796875,-0.16778384149074554,0.3504520058631897,0.5555751323699951
1772732484695445800,10.67644580078125,-0.09024213999509811,0.37277162075042725,0.5349134802818298
1772732484705473800,10.686473876953125,-0.01236359030008316,0.3430968225002289,0.4942115843296051
1772732484715500800,10.696500732421875,0.06826464831829071,0.2793934643268585,0.42546212673187256
1772732484725528800,10.70652880859375,0.15713700652122498,0.18579240143299103,0.33166027069091797
1772732484735556900,10.716556884765625,0.24613820016384125,0.08843013644218445,0.20117664337158203
1772732484745585000,10.7265849609375,0.3307843804359436,0.012726325541734695,0.05775422602891922
1772732484755612000,10.73661181640625,0.39689722657203674,-0.04224035143852234,-0.06965987384319305
1772732484765639700,10.7466396484375,0.44524452090263367,-0.09275492280721664,-0.16868285834789276
1772732484775668000,10.75666796875,0.4716022312641144,-0.14298391342163086,-0.226033017039299
1772732484785694700,10.76669482421875,0.48229479789733887,-0.19828471541404724,-0.2415645718574524
1772732484795723000,10.776722900390626,0.47043725848197937,-0.22880637645721436,-0.21723902225494385
1772732484805750800,10.786750732421876,0.44547438621520996,-0.23587387800216675,-0.1771368831396103
1772732484815779000,10.796779052734376,0.41007620096206665,-0.23190665245056152,-0.14170622825622559
1772732484825805800,10.806805908203126,0.3647899329662323,-0.23232635855674744,-0.11419710516929626
1772732484835833900,10.816833740234374,0.3001694679260254,-0.22629202902317047,-0.08921360969543457
1772732484845862000,10.82686181640625,0.22301848232746124,-0.20211957395076752,-0.053860682994127274
1772732484855890000,10.836889892578125,0.15641716122627258,-0.17178985476493835,-0.016223153099417686
1772732484865917000,10.8469169921875,0.09831923991441727,-0.12175093591213226,0.02401082031428814
1772732484875945000,10.856945068359375,0.04619474709033966,-0.07124003022909164,0.06201950088143349
1772732484885973000,10.866972900390625,0.006362377665936947,-0.028808685019612312,0.0958525687456131
1772732484896000000,10.877,-0.023752486333251,0.004992445465177298,0.11392447352409363
1772732484906027800,10.88702783203125,-0.045270826667547226,0.0274191927164793,0.11977996677160263
1772732484916055800,10.897055908203125,-0.05771457031369209,0.03750370442867279,0.12060979753732681
1772732484926083800,10.907083740234375,-0.058207787573337555,0.037172138690948486,0.11278676241636276
1772732484936110800,10.91711083984375,-0.05053035169839859,0.038144681602716446,0.08996303379535675
1772732484946139000,10.927138916015625,-0.03621559590101242,0.035966482013463974,0.059192877262830734
1772732484956167000,10.9371669921875,-0.0023113584611564875,0.026748446747660637,0.012162670493125916
1772732484966195000,10.94719482421875,0.030124878510832787,0.008481558412313461,-0.0527966246008873
1772732484976221700,10.9572216796875,0.06453342735767365,0.0006355145014822483,-0.12646041810512543
1772732484986250000,10.96725,0.10421506315469742,-0.003230330301448703,-0.19244982302188873
1772732484996277800,10.97727783203125,0.13842569291591644,0.009816883131861687,-0.24993294477462769
1772732485006305000,10.987304931640624,0.16305939853191376,0.012699488550424576,-0.28494206070899963
1772732485016332800,10.997332763671874,0.16895562410354614,-0.000374416820704937,-0.2937887907028198
1772732485026361000,11.007361083984375,0.1617688089609146,-0.02064639888703823,-0.2734640836715698
1772732485036388900,11.017388916015625,0.14667798578739166,-0.047687090933322906,-0.24247652292251587
1772732485046416000,11.027415771484375,0.11897870898246765,-0.0914529487490654,-0.2086799442768097
1772732485056444000,11.03744384765625,0.08383388072252274,-0.12152085453271866,-0.17442740499973297
1772732485066472000,11.047471923828125,0.04077668860554695,-0.14072011411190033,-0.14392542839050293
1772732485076499000,11.0574990234375,-0.014227443374693394,-0.1613454967737198,-0.10256918519735336
1772732485086527000,11.06752685546875,-0.0676664337515831,-0.18327157199382782,-0.04942207783460617
1772732485096555000,11.077554931640625,-0.11609123647212982,-0.2081960141658783,0.005795140750706196
1772732485106582800,11.087582763671875,-0.15396884083747864,-0.21825610101222992,0.05339941009879112
1772732485116609800,11.09760986328125,-0.18112732470035553,-0.2057989537715912,0.08828168362379074
1772732485126637800,11.107637939453125,-0.2005271166563034,-0.18406276404857635,0.10938110947608948
1772732485136665900,11.117665771484376,-0.2147892713546753,-0.171006441116333,0.12588471174240112
1772732485146694000,11.12769384765625,-0.24115748703479767,-0.15678277611732483,0.1332172006368637
1772732485156721000,11.137720947265626,-0.28605571389198303,-0.16238678991794586,0.1436581015586853
1772732485166749000,11.1477490234375,-0.32965219020843506,-0.20001672208309174,0.1578916311264038
1772732485176777000,11.15777685546875,-0.3515419065952301,-0.19302715361118317,0.15624894201755524
1772732485186803700,11.1678037109375,-0.35448843240737915,-0.07338756322860718,0.11562028527259827
1772732485196832000,11.17783203125,-0.3357008397579193,0.13544940948486328,0.055223967880010605
1772732485206860300,11.1878603515625,-0.3207807242870331,0.34407690167427063,0.011556382291018963
1772732485216888000,11.19788818359375,-0.31494882702827454,0.4739922881126404,0.028453631326556206
1772732485226915300,11.207915283203125,-0.2945556938648224,0.5517081022262573,0.10963024199008942
1772732485236943400,11.217943359375,-0.28253674507141113,0.5751718878746033,0.24481314420700073
1772732485246971400,11.227971435546875,-0.2912418246269226,0.45144781470298767,0.4075157642364502
1772732485256998400,11.237998291015625,-0.3350019156932831,0.1752791851758957,0.5547054409980774
1772732485267026400,11.2480263671875,-0.3990384042263031,-0.07190290838479996,0.6117753386497498
1772732485277054200,11.25805419921875,-0.4492515027523041,-0.18419615924358368,0.5571547150611877
1772732485287082200,11.268082275390626,-0.49162933230400085,-0.17116931080818176,0.43511831760406494
1772732485297109200,11.278109130859375,-0.5039818286895752,-0.032661374658346176,0.29340049624443054
1772732485307137300,11.28813720703125,-0.4746343195438385,0.15163549780845642,0.19808463752269745
1772732485317165300,11.298165283203126,-0.4184494614601135,0.28656676411628723,0.17411427199840546
1772732485327193300,11.308193359375,-0.36819374561309814,0.3469366431236267,0.22977806627750397
1772732485337220000,11.31822021484375,-0.34808415174484253,0.3307962715625763,0.3149215579032898
1772732485347248400,11.328248291015624,-0.33810049295425415,0.24300222098827362,0.38536909222602844
1772732485357276200,11.338276123046874,-0.3418249487876892,0.13870297372341156,0.4065823554992676
1772732485367303400,11.348303466796875,-0.36069852113723755,0.03696861118078232,0.38573992252349854
1772732485377331200,11.358331298828125,-0.38744065165519714,-0.04614837467670441,0.32958903908729553
1772732485387359500,11.368359375,-0.41707292199134827,-0.08261635899543762,0.2630767822265625
1772732485397387300,11.37838720703125,-0.43478089570999146,-0.10303549468517303,0.19645634293556213
1772732485407414300,11.388414306640625,-0.4261741042137146,-0.1482359915971756,0.13878744840621948
1772732485417442300,11.3984423828125,-0.39656540751457214,-0.1973886638879776,0.07480566948652267
1772732485427470000,11.408469970703125,-0.3577740490436554,-0.2225656509399414,-0.005247088149189949
1772732485437498400,11.418498291015625,-0.32310056686401367,-0.22614365816116333,-0.080461286008358
1772732485447525400,11.428525390625,-0.29913049936294556,-0.23594915866851807,-0.12242844700813293
1772732485457553400,11.438553466796876,-0.2729569673538208,-0.24999785423278809,-0.1333295702934265
1772732485467581200,11.448581298828126,-0.24583293497562408,-0.2634952962398529,-0.128793403506279
1772732485477608200,11.458608154296876,-0.21887755393981934,-0.2660626173019409,-0.10813939571380615
1772732485487636200,11.46863623046875,-0.20066526532173157,-0.24119587242603302,-0.08734729886054993
1772732485497664300,11.478664306640624,-0.19702568650245667,-0.1728697568178177,-0.0723608136177063
1772732485507692300,11.4886923828125,-0.200082466006279,-0.0716017335653305,-0.053692057728767395
1772732485517719300,11.49871923828125,-0.18918085098266602,0.06024717539548874,-0.028079265728592873
1772732485527747300,11.508747314453124,-0.15886636078357697,0.18577633798122406,-0.006199267227202654
1772732485537775400,11.518775390625,-0.11972084641456604,0.2623266577720642,0.002325002569705248
1772732485547803400,11.528803466796875,-0.08146826177835464,0.28399866819381714,-0.030185269191861153
1772732485557830400,11.538830322265625,-0.03613787144422531,0.27435195446014404,-0.10118237137794495
1772732485567858200,11.548858154296875,0.01725025288760662,0.2285759299993515,-0.171412855386734
1772732485577886500,11.558886474609375,0.08063386380672455,0.167817160487175,-0.22272978723049164
1772732485587913200,11.568913330078125,0.15067845582962036,0.09985753893852234,-0.25400301814079285
1772732485597941500,11.57894140625,0.20356036722660065,0.020475754514336586,-0.2665324807167053
1772732485607969300,11.58896923828125,0.24036525189876556,-0.05105835199356079,-0.27604877948760986
1772732485617997300,11.598997314453126,0.27041688561439514,-0.0886792317032814,-0.29087406396865845
1772732485628024300,11.6090244140625,0.2777549624443054,-0.10524941980838776,-0.31637781858444214
1772732485638052400,11.61905224609375,0.28391289710998535,-0.09955867379903793,-0.3362008035182953
1772732485648080400,11.629080322265626,0.2945658266544342,-0.06973099708557129,-0.33868953585624695
1772732485658107400,11.639107421875,0.3142879009246826,-0.03065386787056923,-0.3197775185108185
1772732485668135400,11.649135498046874,0.34042203426361084,-0.004141299985349178,-0.2797166407108307
1772732485678163200,11.6591630859375,0.3710811734199524,0.015600550919771194,-0.24433496594429016
1772732485688191500,11.66919140625,0.3916175961494446,0.034741755574941635,-0.21201884746551514
1772732485698218200,11.67921826171875,0.400322824716568,0.06384291499853134,-0.18294695019721985
1772732485708246300,11.689246337890625,0.40918153524398804,0.08326774835586548,-0.1597958356142044
1772732485718274300,11.6992744140625,0.406101793050766,0.1052006185054779,-0.13294841349124908
1772732485728302300,11.70930224609375,0.4006558954715729,0.10550448298454285,-0.09212961047887802
1772732485738329300,11.719329345703125,0.38378798961639404,0.08884297311306,-0.052590250968933105
1772732485748357400,11.729357421875,0.3553291857242584,0.09476158022880554,-0.004610477015376091
1772732485758385400,11.739385498046875,0.3241216838359833,0.1432834267616272,0.04559957981109619
1772732485768412400,11.749412353515625,0.3081008791923523,0.2260906994342804,0.1017984002828598
1772732485778440200,11.759440185546875,0.29296472668647766,0.29043862223625183,0.17399051785469055
1772732485788468500,11.769468505859376,0.27797484397888184,0.3409409523010254,0.2463158518075943
1772732485798496300,11.779496337890626,0.2588433623313904,0.401480495929718,0.3054438531398773
1772732485808523500,11.7895234375,0.23476815223693848,0.4657106101512909,0.37287774682044983
1772732485818551300,11.79955126953125,0.22532518208026886,0.46476060152053833,0.4447254240512848
1772732485828579000,11.8095791015625,0.23333197832107544,0.4173555374145508,0.4843527376651764
1772732485838607400,11.819607421875,0.2613159120082855,0.3794558346271515,0.4478185176849365
1772732485848634400,11.82963427734375,0.2960571050643921,0.36286619305610657,0.32058626413345337
1772732485858662400,11.839662353515624,0.3372098505496979,0.3556375801563263,0.1589381992816925
1772732485868690200,11.849690185546875,0.37581318616867065,0.31288957595825195,0.022566508501768112
1772732485878717400,11.859717529296875,0.43344560265541077,0.22553718090057373,-0.04141276329755783
1772732485888745200,11.8697451171875,0.4757901132106781,0.08564666658639908,-0.038969844579696655
1772732485898773200,11.879773193359375,0.4912091791629791,-0.0803566575050354,0.011085295118391514
1772732485908801300,11.88980126953125,0.491621196269989,-0.20176644623279572,0.06399963796138763
1772732485918828300,11.899828369140625,0.4938412308692932,-0.2606842517852783,0.09626056998968124
1772732485928856300,11.909856201171875,0.4920087158679962,-0.2682068943977356,0.08193648606538773
1772732485938884400,11.91988427734375,0.4806344211101532,-0.2098371833562851,0.030902711674571037
1772732485948912400,11.929912353515626,0.4661787748336792,-0.1150725930929184,-0.03706967830657959
1772732485958939400,11.939939453125,0.4712575376033783,0.008957009762525558,-0.07835765928030014
1772732485968967200,11.94996728515625,0.4799990952014923,0.13967719674110413,-0.09628871828317642
1772732485978995200,11.9599951171875,0.4950219392776489,0.23873370885849,-0.09631788730621338
1772732485989022200,11.970022216796876,0.4960419237613678,0.3027734160423279,-0.09788861870765686
1772732485999050500,11.980050537109374,0.4910026788711548,0.32554903626441956,-0.11207528412342072
1772732486009078300,11.990078369140624,0.4893941283226013,0.3237548768520355,-0.12169035524129868
1772732486019106300,12.000106201171874,0.49095994234085083,0.29716578125953674,-0.11145024746656418
1772732486029133300,12.01013330078125,0.4713079333305359,0.22687482833862305,-0.06599888205528259
1772732486039161000,12.0201611328125,0.42845842242240906,0.13636788725852966,0.007525784894824028
1772732486049189400,12.030189453125,0.3760330379009247,0.04005811735987663,0.08724218606948853
1772732486059217200,12.040217041015625,0.33176568150520325,-0.030794398859143257,0.16449786722660065
1772732486069244400,12.050244384765625,0.3079197406768799,-0.058462511748075485,0.2169930338859558
1772732486079272200,12.060272216796875,0.3071858584880829,-0.06805364787578583,0.2349153459072113
1772732486089300500,12.070300537109375,0.30047178268432617,-0.04278876632452011,0.22529201209545135
1772732486099327200,12.0803271484375,0.3152472972869873,0.010126504115760326,0.20883065462112427
1772732486109355300,12.090355224609375,0.3607143759727478,0.06095186620950699,0.17654462158679962
1772732486119383300,12.10038330078125,0.42259514331817627,0.09303829073905945,0.11119189113378525
1772732486129411300,12.110411376953126,0.46600812673568726,0.10617566108703613,0.006119804456830025
1772732486139438300,12.120438232421876,0.48164811730384827,0.11199300736188889,-0.10306218266487122
1772732486149466400,12.13046630859375,0.4813668727874756,0.13010463118553162,-0.17869701981544495
1772732486159494400,12.140494384765624,0.4785846471786499,0.13466182351112366,-0.20372694730758667
1772732486169522200,12.150522216796874,0.4640618860721588,0.11237674951553345,-0.18530400097370148
1772732486179549200,12.160549072265624,0.43121039867401123,0.0914144366979599,-0.17362776398658752
1772732486189577200,12.1705771484375,0.39387020468711853,0.07827360183000565,-0.17100055515766144
1772732486199605200,12.180605224609375,0.35880687832832336,0.04645261541008949,-0.15998084843158722
1772732486209632000,12.190632080078124,0.34441596269607544,0.01760152541100979,-0.1441877782344818
1772732486219659800,12.20065966796875,0.34258154034614563,0.007296936586499214,-0.13224823772907257
1772732486229687800,12.210687744140625,0.3391132950782776,0.00456400029361248,-0.12400788068771362
1772732486239715800,12.2207158203125,0.3326728641986847,0.00544970715418458,-0.12197409570217133
1772732486249743000,12.2307431640625,0.3154771029949188,0.024493971839547157,-0.12128780037164688
1772732486259771000,12.24077099609375,0.29430708289146423,0.03589939326047897,-0.10427917540073395
1772732486269799000,12.250798828125,0.2740614712238312,0.04004620015621185,-0.08215576410293579
1772732486279827000,12.260826904296875,0.24049648642539978,0.05312854424118996,-0.061514779925346375
1772732486289853700,12.270853759765625,0.20854148268699646,0.06536683440208435,-0.05143125355243683
1772732486299882000,12.280882080078126,0.17755833268165588,0.06749039888381958,-0.04279446601867676
1772732486309909800,12.29090966796875,0.15792150795459747,0.0697956308722496,-0.034881945699453354
1772732486319937000,12.30093701171875,0.14137636125087738,0.08486060053110123,-0.040301211178302765
1772732486329964800,12.31096484375,0.1487027108669281,0.09992504119873047,-0.0687704011797905
1772732486339993000,12.3209931640625,0.16178560256958008,0.11743734776973724,-0.11880209296941757
1772732486350020900,12.331020751953124,0.18051588535308838,0.1349921077489853,-0.15994472801685333
1772732486360047900,12.3410478515625,0.20863263309001923,0.15391530096530914,-0.18746908009052277
1772732486370076000,12.351075927734374,0.23591111600399017,0.15031524002552032,-0.2131989449262619
