time,seconds_elapsed,z,y,x
1772639532788041000,0.063041015625,0.0806041955947876,-0.0499269925057888,0.01882442831993103
1772639532798085600,0.073085693359375,0.08772452175617218,-0.04695236682891846,0.0031039630994200706
1772639532808130800,0.083130859375,0.09379812330007553,-0.04846451058983803,-0.013310695998370647
1772639532818174700,0.0931748046875,0.09436896443367004,-0.049393635243177414,-0.026033412665128708
1772639532828220000,0.103219970703125,0.09009459614753723,-0.03948267921805382,-0.03725357726216316
1772639532838264600,0.1132646484375,0.07052967697381973,-0.030285850167274475,-0.04107159003615379
1772639532848309800,0.123309814453125,0.041491102427244186,-0.015780944377183914,-0.038427069783210754
1772639532858354700,0.133354736328125,0.008946554735302925,0.003339205402880907,-0.031076567247509956
1772639532868399900,0.14339990234375,-0.015561718493700027,0.021896911785006523,-0.016974860802292824
1772639532878444500,0.153444580078125,-0.031002912670373917,0.031801722943782806,-0.0017669652588665485
1772639532888489700,0.16348974609375,-0.036479171365499496,0.025045016780495644,0.017096471041440964
1772639532898534700,0.17353466796875,-0.032843831926584244,0.015572208911180496,0.03049643523991108
1772639532908579800,0.183579833984375,-0.022621287032961845,0.00593209732323885,0.038601234555244446
1772639532918623700,0.193623779296875,-0.011295020580291748,0.0092400424182415,0.04429923743009567
1772639532928668700,0.203668701171875,-0.0017414630856364965,0.013494174927473068,0.04177402704954147
1772639532938713900,0.2137138671875,-0.004169560968875885,0.009476922452449799,0.03796739503741264
1772639532948758800,0.2237587890625,-0.014206215739250183,-0.005409615114331245,0.026558680459856987
1772639532958804000,0.233803955078125,-0.024562686681747437,-0.0232388973236084,0.010904076509177685
1772639532968848600,0.2438486328125,-0.035746097564697266,-0.03444388508796692,-0.0060240402817726135
1772639532978893800,0.253893798828125,-0.036452148109674454,-0.0437273345887661,-0.020672475919127464
1772639532988938800,0.263938720703125,-0.03596559166908264,-0.04775723069906235,-0.0294963289052248
1772639532998984000,0.27398388671875,-0.03465000167489052,-0.04353201761841774,-0.03354911878705025
1772639533009028600,0.284028564453125,-0.038309719413518906,-0.03403385356068611,-0.026490412652492523
1772639533019072800,0.29407275390625,-0.03954390808939934,-0.030501417815685272,-0.018108826130628586
1772639533029117700,0.30411767578125,-0.03751031681895256,-0.033117443323135376,-0.006804506294429302
1772639533039163000,0.314162841796875,-0.033852383494377136,-0.02853362448513508,0.001191550400108099
1772639533049207800,0.324207763671875,-0.02907254360616207,-0.019145715981721878,0.005943695083260536
1772639533059252700,0.334252685546875,-0.02558286488056183,-0.014530778862535954,0.00897277146577835
1772639533069297700,0.344297607421875,-0.02594665251672268,-0.014195219613611698,0.0025806520134210587
1772639533079342800,0.3543427734375,-0.024014731869101524,-0.013536924496293068,-0.003455321304500103
1772639533089387800,0.3643876953125,-0.027334362268447876,-0.014246923848986626,-0.00905994325876236
1772639533099432700,0.3744326171875,-0.02846384048461914,-0.016705602407455444,-0.014457626268267632
1772639533109477600,0.3844775390625,-0.03315553069114685,-0.019593534991145134,-0.018346639350056648
1772639533119521500,0.394521484375,-0.0373985581099987,-0.01802545040845871,-0.018830984830856323
1772639533129566700,0.404566650390625,-0.035608645528554916,-0.01586642488837242,-0.01526288129389286
1772639533139611600,0.414611572265625,-0.038248855620622635,-0.017461055889725685,-0.014676098711788654
1772639533149656800,0.42465673828125,-0.03132091090083122,-0.015514549799263477,-0.011175640858709812
1772639533159701500,0.434701416015625,-0.027312273159623146,-0.016116755083203316,-0.012585053220391273
1772639533169746700,0.44474658203125,-0.023879190906882286,-0.016295719891786575,-0.010810589417815208
1772639533179791600,0.45479150390625,-0.02386448346078396,-0.012311669066548347,-0.013047298416495323
1772639533189836800,0.4648369140625,-0.02717985212802887,-0.0069749606773257256,-0.012813739478588104
1772639533199881700,0.4748818359375,-0.03620881214737892,-0.003589486237615347,-0.017865154892206192
1772639533209926700,0.4849267578125,-0.04234873130917549,-0.00022564735263586044,-0.02308814600110054
1772639533219970800,0.494970703125,-0.045643482357263565,0.0061949994415044785,-0.02068234048783779
1772639533230015700,0.505015625,-0.04966752231121063,0.008223263546824455,-0.019450895488262177
1772639533240061000,0.51506103515625,-0.04902659356594086,0.005751041229814291,-0.017518043518066406
1772639533250105600,0.525105712890625,-0.047257985919713974,0.00014295661821961403,-0.016348382458090782
1772639533260150800,0.53515087890625,-0.04624292999505997,0.00013808580115437508,-0.021005023270845413
1772639533270195700,0.54519580078125,-0.04243088141083717,0.011270365677773952,-0.030944207683205605
1772639533280241000,0.555240966796875,-0.04168427363038063,0.018473204225301743,-0.033041175454854965
1772639533290285600,0.56528564453125,-0.03994069993495941,0.02705657295882702,-0.03257112577557564
1772639533300330800,0.575330810546875,-0.04149088263511658,0.023435277864336967,-0.03148926421999931
1772639533310375700,0.585375732421875,-0.04271833226084709,0.012103261426091194,-0.022284047678112984
1772639533320419800,0.595419921875,-0.03903033956885338,0.005198820494115353,-0.013756785541772842
1772639533330464500,0.605464599609375,-0.03211011365056038,0.00504755275323987,-0.008011015132069588
1772639533340509700,0.615509765625,-0.027847962453961372,0.008439668454229832,-0.009175891987979412
1772639533350554600,0.6255546875,-0.01959908753633499,0.016089066863059998,-0.009145798161625862
1772639533360599800,0.635599853515625,-0.015814686194062233,0.020313574001193047,-0.010181576013565063
1772639533370644700,0.645644775390625,-0.009439611807465553,0.015234127640724182,-0.010383976623415947
1772639533380689700,0.655689697265625,-0.0033276407048106194,0.0055114817805588245,-0.012865142896771431
1772639533390734600,0.665734619140625,-0.0019262853311374784,-0.0014412328600883484,-0.011922383680939674
1772639533400779800,0.67577978515625,0.00034736457746475935,-0.007093227934092283,-0.01654120162129402
1772639533410824700,0.68582470703125,-0.0009117780718952417,-0.00979313999414444,-0.017602205276489258
1772639533420868600,0.69586865234375,-0.0026141961570829153,-0.008860289119184017,-0.01570124365389347
1772639533430913800,0.705913818359375,-0.002192617626860738,-0.005207231268286705,-0.009707268327474594
1772639533440958700,0.715958740234375,-0.002497127279639244,-0.0051237717270851135,-0.006933326832950115
1772639533451004000,0.72600390625,-0.004030841868370771,-0.005595417693257332,-0.0038909316062927246
1772639533461048600,0.736048583984375,-0.0067598759196698666,-0.008989625610411167,-0.00235169380903244
1772639533471093800,0.74609375,-0.0035901814699172974,-0.007045784965157509,0.0009279884397983551
1772639533481138700,0.756138671875,-0.004417672753334045,-0.000439617782831192,0.00546672660857439
1772639533491183900,0.766183837890625,-0.005247513763606548,0.003822505008429289,0.009591430425643921
1772639533501228800,0.776228759765625,-0.005990317091345787,0.001892309868708253,0.013876793906092644
1772639533511273700,0.786273681640625,-0.005163139197975397,-0.005268397741019726,0.014095705933868885
1772639533521317600,0.796317626953125,-0.0015436989488080144,-0.00923633761703968,0.012374533340334892
1772639533531362800,0.80636279296875,0.003912585787475109,-0.006158788688480854,0.012734859250485897
1772639533541407500,0.816407470703125,0.00891038216650486,-0.0030200863257050514,0.01169948186725378
1772639533551452700,0.82645263671875,0.008955123834311962,-0.0014501530677080154,0.004139833152294159
1772639533561497600,0.83649755859375,0.006969580892473459,-0.01033322885632515,-0.0059908232651650906
1772639533571542800,0.846542724609375,-0.0006590441334992647,-0.023363010957837105,-0.025778908282518387
1772639533581587700,0.856587646484375,-0.007366544101387262,-0.028068510815501213,-0.0485687255859375
1772639533591632600,0.866632568359375,-0.014538170769810677,-0.015435274690389633,-0.06790514290332794
1772639533601677600,0.876677490234375,-0.016063865274190903,-0.00630085077136755,-0.07198084890842438
1772639533611722800,0.88672265625,-0.014170623384416103,-0.004809480160474777,-0.06061634421348572
1772639533621767000,0.896766845703125,-0.008365889079868793,-0.007195907179266214,-0.03667569160461426
1772639533631811600,0.9068115234375,-0.0032944309059530497,-0.011600775644183159,-0.00809517689049244
1772639533641856800,0.916856689453125,0.0017871784511953592,-0.014988669194281101,0.019547197967767715
1772639533651901700,0.926901611328125,0.004309191834181547,-0.021769609302282333,0.038918763399124146
1772639533661947000,0.93694677734375,0.006884140893816948,-0.025197060778737068,0.04588897526264191
1772639533671991600,0.946991455078125,0.005915548652410507,-0.02418133057653904,0.042324863374233246
1772639533682036700,0.95703662109375,0.0016640617977827787,-0.019714433699846268,0.02911388874053955
1772639533692081700,0.96708154296875,-0.006481482647359371,-0.01463391911238432,0.009095706976950169
1772639533702126800,0.977126953125,-0.012013916857540607,-0.011635977774858475,-0.010730629786849022
1772639533712171800,0.987171875,-0.017449162900447845,-0.006147734355181456,-0.025180673226714134
1772639533722215700,0.997215576171875,-0.021014101803302765,-0.005455361679196358,-0.02975490689277649
1772639533732260600,1.007260498046875,-0.020756041631102562,-0.0037496064323931932,-0.029074467718601227
1772639533742305800,1.017305908203125,-0.017440905794501305,-0.005052377004176378,-0.025175882503390312
1772639533752350700,1.027350830078125,-0.01416202262043953,-0.008577337488532066,-0.013024143874645233
1772639533762395600,1.037395751953125,-0.011116431094706059,-0.005747194867581129,-0.00036960095167160034
1772639533772440600,1.047440673828125,-0.01133507676422596,-0.0027665854431688786,0.012939812615513802
1772639533782485800,1.05748583984375,-0.016695315018296242,0.002456531161442399,0.020418327301740646
1772639533792530700,1.06753076171875,-0.020396044477820396,0.00139446253888309,0.027457326650619507
1772639533802575600,1.07757568359375,-0.016928812488913536,-0.0020186833571642637,0.029392195865511894
1772639533812620500,1.08762060546875,-0.01798235811293125,-0.006198514252901077,0.02298329956829548
1772639533822664700,1.097664794921875,-0.014699605293571949,-0.009424722753465176,0.01317540556192398
1772639533832710000,1.1077099609375,-0.012188777327537537,-0.009305945597589016,0.0004415009170770645
1772639533842754600,1.117754638671875,-0.01519474945962429,-0.009559440426528454,-0.012437628582119942
1772639533852799700,1.1277998046875,-0.02000042423605919,-0.010872112587094307,-0.021229788661003113
1772639533862844700,1.1378447265625,-0.028461631387472153,-0.008406676352024078,-0.02879297360777855
1772639533872889900,1.147889892578125,-0.03266756236553192,-0.015463786199688911,-0.03281141445040703
1772639533882934800,1.157934814453125,-0.03584972769021988,-0.027237815782427788,-0.0408438965678215
1772639533892979700,1.167979736328125,-0.03608941286802292,-0.037264082580804825,-0.044481243938207626
1772639533903024600,1.178024658203125,-0.03369784355163574,-0.040386706590652466,-0.050075821578502655
1772639533913069800,1.18806982421875,-0.031069038435816765,-0.031297601759433746,-0.04945104569196701
1772639533923113500,1.198113525390625,-0.02800893969833851,-0.03325483947992325,-0.04629136249423027
1772639533933158700,1.20815869140625,-0.026540473103523254,-0.0307416133582592,-0.041020698845386505
1772639533943203600,1.21820361328125,-0.02561955153942108,-0.030512582510709763,-0.029342470690608025
1772639533953248800,1.228248779296875,-0.02520090341567993,-0.0341762937605381,-0.014913197606801987
1772639533963293700,1.238293701171875,-0.029079075902700424,-0.03687166050076485,-0.0057491762563586235
1772639533973338600,1.248338623046875,-0.03344453126192093,-0.023628827184438705,-0.0006446954794228077
1772639533983383600,1.258383544921875,-0.03979721665382385,-0.018859747797250748,0.0005438663065433502
1772639533993428700,1.2684287109375,-0.04381299763917923,-0.014860478229820728,0.0011342894285917282
1772639534003473700,1.2784736328125,-0.046455997973680496,-0.01606367900967598,0.0016174707561731339
1772639534013518800,1.288518798828125,-0.042909469455480576,-0.01576993241906166,0.0031770176719874144
1772639534023562800,1.298562744140625,-0.0354638509452343,-0.007261202204972506,0.00415910454466939
1772639534033607700,1.308607666015625,-0.0344017818570137,-0.0028677857480943203,0.00518388906493783
1772639534043652900,1.31865283203125,-0.03447088226675987,-0.0004616742953658104,0.0044110361486673355
1772639534053697500,1.328697509765625,-0.0392770878970623,-0.00348169868811965,0.0017505381256341934
1772639534063742700,1.33874267578125,-0.04460868984460831,-0.01259390078485012,-0.0038425447419285774
1772639534073787600,1.34878759765625,-0.051518261432647705,-0.012361405417323112,-0.009085776284337044
1772639534083832800,1.358832763671875,-0.05262679606676102,-0.006490923464298248,-0.01337708905339241
1772639534093877200,1.368877197265625,-0.05403081327676773,-0.0031140348874032497,-0.012495849281549454
1772639534103922400,1.37892236328125,-0.04783628508448601,-0.001219702884554863,-0.009540119208395481
1772639534113966300,1.38896630859375,-0.04067318141460419,-0.010595627129077911,-0.005605032667517662
1772639534124011300,1.39901123046875,-0.03084281086921692,-0.014196855947375298,-0.004146943800151348
1772639534134056400,1.409056396484375,-0.021980077028274536,-0.014011766761541367,-0.002559433691203594
1772639534144101400,1.419101318359375,-0.015250456519424915,-0.014005126431584358,-0.002335812896490097
1772639534154146600,1.429146484375,-0.014873086474835873,-0.013708716258406639,-0.002821306698024273
1772639534164191200,1.439191162109375,-0.016616642475128174,-0.013551566749811172,-0.00865885429084301
1772639534174236400,1.449236328125,-0.017473116517066956,-0.01097868662327528,-0.012069830670952797
1772639534184281300,1.45928125,-0.020135648548603058,-0.009244561195373535,-0.013555699959397316
1772639534194326500,1.469326416015625,-0.017882615327835083,-0.014776745811104774,-0.009677072986960411
1772639534204371200,1.47937109375,-0.015873119235038757,-0.01705273799598217,-0.008797965943813324
1772639534214416400,1.48941650390625,-0.014849932864308357,-0.018585652112960815,-0.007424574811011553
1772639534224460300,1.499460205078125,-0.01490100473165512,-0.01862550526857376,-0.0030881715938448906
1772639534234505500,1.50950537109375,-0.015084229409694672,-0.010146265849471092,-0.005928966216742992
1772639534244550100,1.519550048828125,-0.016839973628520966,-0.009654928930103779,-0.00850086659193039
1772639534254595300,1.52959521484375,-0.013994918204843998,-0.008942266926169395,-0.01025109551846981
1772639534264640300,1.53964013671875,-0.009902611374855042,-0.005474423058331013,-0.01036117598414421
1772639534274685400,1.549685546875,-0.010200885124504566,-0.003503151936456561,-0.00975770317018032
1772639534284730400,1.55973046875,-0.012103305198252201,-0.001364822732284665,-0.008935216814279556
1772639534294775300,1.569775390625,-0.007961557246744633,-0.004839715547859669,-0.005414252169430256
1772639534304820200,1.5798203125,-0.005668091122061014,-0.011541496030986309,0.0045590950176119804
1772639534314865400,1.589865478515625,0.0017735797446221113,-0.015510139055550098,0.015486577525734901
1772639534324909300,1.599909423828125,0.005867204628884792,-0.015910031273961067,0.02286515012383461
1772639534334954200,1.609954345703125,0.004811261314898729,-0.017044004052877426,0.02689238265156746
1772639534344999400,1.61999951171875,0.003833472728729248,-0.012073823250830173,0.020836252719163895
1772639534355044400,1.63004443359375,0.003317618276923895,-0.0060729216784238815,0.014363173395395279
1772639534365089500,1.640089599609375,0.00382728548720479,-0.01139041781425476,0.0038947369903326035
1772639534375134200,1.65013427734375,0.0074031115509569645,-0.009699576534330845,-0.0011644698679447174
1772639534385179400,1.660179443359375,0.007226136513054371,-0.013139260932803154,-0.006625279318541288
1772639534395224300,1.670224365234375,0.004213569685816765,-0.013189595192670822,-0.013177720829844475
1772639534405269500,1.68026953125,0.004045868758112192,-0.00812880601733923,-0.017834607511758804
1772639534415313200,1.690313232421875,0.006296239327639341,-0.003320202464237809,-0.01919921115040779
1772639534425358300,1.7003583984375,0.010288631543517113,-0.0010801467578858137,-0.0198766328394413
1772639534435403300,1.7104033203125,0.012798926793038845,-0.0005946524906903505,-0.017033707350492477
1772639534445448400,1.720448486328125,0.018364040181040764,-0.004490998573601246,-0.014526251703500748
1772639534455493000,1.7304931640625,0.01785431243479252,-0.016381215304136276,-0.014227710664272308
1772639534465538300,1.740538330078125,0.014866308309137821,-0.005951248109340668,-0.01487770676612854
1772639534475583200,1.750583251953125,0.007791353389620781,0.0006954693235456944,-0.014865722507238388
1772639534485628400,1.76062841796875,0.00031413789838552475,-0.0018834585789591074,-0.011480206623673439
1772639534495673300,1.77067333984375,0.0001128028379753232,0.00064228312112391,-0.008350460790097713
1772639534505718300,1.78071826171875,0.00605315575376153,0.0024873148649930954,-0.0012134723365306854
1772639534515762400,1.790762451171875,0.011637537740170956,0.007186728995293379,0.004379964899271727
1772639534525807400,1.800807373046875,0.013499541208148003,0.009627798572182655,0.007812331896275282
1772639534535852500,1.8108525390625,0.01430088747292757,0.0049547492526471615,0.006287672091275454
1772639534545897200,1.820897216796875,0.0075019774958491325,0.0005110760685056448,0.006215604022145271
1772639534555942400,1.8309423828125,0.00238018692471087,-0.008278153836727142,-0.0010633477941155434
1772639534565987300,1.8409873046875,-0.004000825807452202,-0.003990449011325836,-0.00781650748103857
1772639534576032500,1.851032470703125,-0.005431475583463907,0.0035433671437203884,-0.009153947234153748
1772639534586077200,1.8610771484375,-0.0072130681946873665,0.008182022720575333,-0.008467301726341248
1772639534596122400,1.871122314453125,-0.007187501527369022,0.011737609282135963,-0.008981293067336082
1772639534606167300,1.881167236328125,-0.0008795068133622408,0.002507538767531514,-0.0017230194061994553
1772639534616211500,1.89121142578125,0.009740380570292473,-0.009183738380670547,0.014675394631922245
1772639534626256100,1.901256103515625,0.01714777573943138,-0.00857735238969326,0.02637644112110138
1772639534636301300,1.91130126953125,0.02364189364016056,-0.005470508709549904,0.027911486104130745
1772639534646346200,1.92134619140625,0.02257687970995903,0.0008111980278044939,0.017149394378066063
1772639534656391400,1.931391357421875,0.017569605261087418,0.010842526331543922,0.00127402413636446
1772639534666436400,1.941436279296875,0.012270289473235607,0.019378788769245148,-0.01831415668129921
1772639534676481300,1.951481201171875,0.01586262695491314,0.014408265240490437,-0.029657360166311264
1772639534686526200,1.961526123046875,0.007229443173855543,0.013940190896391869,-0.03516716510057449
1772639534696571400,1.9715712890625,0.00397665798664093,-0.0009809678886085749,-0.0338347852230072
1772639534706616300,1.9816162109375,0.004281151108443737,-0.0041204276494681835,-0.029197514057159424
1772639534716660200,1.99166015625,0.006976270116865635,-0.007715695071965456,-0.02237502858042717
1772639534726705400,2.001705322265625,0.007037412375211716,-0.0034244442358613014,-0.017316941171884537
1772639534736750300,2.011750244140625,0.005568146705627441,0.0008584512397646904,-0.016479376703500748
1772639534746795500,2.02179541015625,0.005527683068066835,0.003457190003246069,-0.010625869035720825
1772639534756840200,2.031840087890625,0.0038171345368027687,0.002293388359248638,-0.011040523648262024
1772639534766885400,2.041885498046875,0.0034411901142448187,0.0007100142538547516,-0.01305289939045906
1772639534776930300,2.051930419921875,0.0027807264123111963,-0.0010865544900298119,-0.01015990786254406
1772639534786975500,2.0619755859375,0.0051954928785562515,-0.0009685922414064407,-0.009496331214904785
1772639534797020400,2.0720205078125,0.0031603053212165833,0.0053481594659388065,-0.009204981848597527
1772639534807065300,2.0820654296875,0.003972741309553385,0.009989108890295029,-0.008539632894098759
1772639534817109200,2.092109130859375,0.007410083431750536,0.00966313760727644,-0.004440761171281338
1772639534827154400,2.102154541015625,0.00525204511359334,0.009026790037751198,-0.0023065749555826187
1772639534837199000,2.11219921875,0.0037976931780576706,0.009793248027563095,0.00018854066729545593
1772639534847244300,2.122244384765625,0.0012579454341903329,0.007064736448228359,-0.0002684434875845909
1772639534857289200,2.132289306640625,-0.003302185330539942,0.005191202275454998,-0.0010194550268352032
1772639534867334400,2.14233447265625,-0.008539322763681412,0.003572090994566679,-0.0045354110188782215
1772639534877379300,2.15237939453125,-0.008560627698898315,0.003585672937333584,-0.005498943384736776
1772639534887424300,2.16242431640625,-0.008373641408979893,0.004039786756038666,-0.001970317680388689
1772639534897469200,2.17246923828125,-0.004610861651599407,0.0012922033201903105,0.0013325349427759647
1772639534907514400,2.182514404296875,-0.0012748923618346453,-0.005808040499687195,0.004333450458943844
1772639534917558500,2.19255859375,0.0023440769873559475,-0.010435283184051514,0.0024149089585989714
1772639534927603200,2.202603271484375,0.002785629127174616,-0.010366839356720448,-0.0019460171461105347
1772639534937648400,2.2126484375,0.0016897384775802493,-0.006607787683606148,-0.012397859245538712
1772639534947693300,2.222693359375,-0.004175795242190361,0.002215248765423894,-0.024065516889095306
1772639534957738500,2.232738525390625,-0.008452831767499447,0.0058936066925525665,-0.035490214824676514
1772639534967783200,2.242783203125,-0.0072269318625330925,0.006548814941197634,-0.038819342851638794
1772639534977828400,2.252828369140625,-0.0008888748707249761,0.004253969062119722,-0.033779844641685486
1772639534987873300,2.262873291015625,0.0072304606437683105,0.0034703032579272985,-0.021414529532194138
1772639534997918500,2.27291845703125,0.004106838721781969,-0.0028152894228696823,-0.01553240604698658
1772639535007963400,2.28296337890625,0.0039244601503014565,-0.007280675694346428,-0.01233828254044056
1772639535018007300,2.29300732421875,0.0045766681432724,-0.00509581808000803,-0.00740450993180275
1772639535028052200,2.30305224609375,0.008281266316771507,0.010960591956973076,-0.0055640023201704025
1772639535038097400,2.313097412109375,0.008808571845293045,0.01706535555422306,-0.002441445365548134
1772639535048142300,2.323142333984375,0.005628302693367004,0.009163605980575085,0.0013101771473884583
1772639535058187300,2.333187255859375,0.005535624921321869,0.007616842165589333,0.008159561082720757
1772639535068232200,2.343232177734375,0.005281403195112944,0.0012362066190689802,0.01124260202050209
1772639535078277400,2.35327734375,0.005802583415061235,0.00018132850527763367,0.012250076048076153
1772639535088322300,2.363322265625,0.004014443140476942,0.0008913206402212381,0.008028414100408554
1772639535098367200,2.3733671875,0.002696977462619543,0.004597375635057688,-0.0002681314945220947
1772639535108412200,2.383412109375,0.0035406197421252728,0.013140324503183365,-0.0071196225471794605
1772639535118457300,2.393457275390625,0.004496960900723934,0.021697327494621277,-0.013217197731137276
1772639535128501500,2.40350146484375,0.006137860007584095,0.020345164462924004,-0.015116937458515167
1772639535138546200,2.413546142578125,0.00421425886452198,0.021808305755257607,-0.01350625604391098
1772639535148591400,2.42359130859375,0.004287871532142162,0.01685032993555069,-0.0062822639010846615
1772639535158636300,2.43363623046875,0.0035877262707799673,0.006036297418177128,-0.002432664390653372
1772639535168681500,2.443681396484375,0.0039735715836286545,0.0031267236918210983,0.004105309024453163
1772639535178726400,2.453726318359375,0.007922240532934666,-0.0017154356464743614,0.0035343270283192396
1772639535188771300,2.463771240234375,0.009724151343107224,-0.004280569963157177,-0.0011575287207961082
1772639535198816300,2.473816162109375,0.009608037769794464,-0.005539179779589176,-0.008349928073585033
1772639535208861400,2.483861328125,0.00652491208165884,-0.0027261916548013687,-0.016529567539691925
1772639535218906400,2.49390625,0.0018846194725483656,0.0028310264460742474,-0.023320361971855164
1772639535228950300,2.5039501953125,0.00036138517316430807,0.007351481821388006,-0.02817395329475403
1772639535238995200,2.5139951171875,0.007375885266810656,0.008181588724255562,-0.028875697404146194
1772639535249040400,2.524040283203125,0.009149785153567791,0.009922584518790245,-0.024241626262664795
1772639535259085300,2.534085205078125,0.013426822610199451,0.008161968551576138,-0.016190623864531517
1772639535269130200,2.544130126953125,0.015395399183034897,0.0042169829830527306,-0.007363779470324516
1772639535279175200,2.554175048828125,0.015751995146274567,0.001169794239103794,0.002588719828054309
1772639535289220400,2.564220458984375,0.01543858926743269,-0.0013050106354057789,0.007211789023131132
1772639535299265300,2.574265380859375,0.013077696785330772,-0.0013537467457354069,0.011112786829471588
1772639535309310500,2.584310546875,0.010142376646399498,0.006291678640991449,0.010256148874759674
1772639535319355100,2.594355224609375,0.010076330974698067,0.007824594154953957,0.01233927346765995
1772639535329399300,2.6043994140625,0.007722910959273577,0.004555054008960724,0.015532505698502064
1772639535339444500,2.614444580078125,0.010440667159855366,-0.003782504703849554,0.018631359562277794
1772639535349489200,2.6244892578125,0.008952037431299686,-0.008500708267092705,0.019178180024027824
1772639535359534300,2.634534423828125,0.007991967722773552,-0.0040737357921898365,0.019706817343831062
1772639535369579300,2.644579345703125,0.0036921855062246323,-0.0034497887827455997,0.019253645092248917
1772639535379624400,2.65462451171875,-0.0010647526942193508,-0.003472159616649151,0.01644587516784668
1772639535389669400,2.66466943359375,-0.004704871214926243,-0.00006986851803958416,0.01133445929735899
1772639535399714300,2.67471435546875,-0.008904676884412766,0.0007418629247695208,0.007347174920141697
1772639535409759200,2.68475927734375,-0.009585599415004253,0.0034683430567383766,0.0038210798520594835
1772639535419804400,2.694804443359375,-0.009602110832929611,0.004570358898490667,0.005919650662690401
1772639535429848300,2.704848388671875,-0.01070400234311819,0.002535225823521614,0.006791839841753244
1772639535439893200,2.714893310546875,-0.010943420231342316,-0.002058726968243718,0.005824579857289791
1772639535449938200,2.724938232421875,-0.011784398928284645,-0.005575094372034073,0.0046675237827003
1772639535459983400,2.7349833984375,-0.008513238281011581,-0.0012067111674696207,0.0011153994128108025
1772639535470028300,2.7450283203125,-0.006332877092063427,0.005840860307216644,-0.00436912989243865
1772639535480073200,2.7550732421875,-0.003254529321566224,0.013179199770092964,-0.0034484746865928173
1772639535490118100,2.7651181640625,-0.003870159387588501,0.008251296356320381,-0.0006997566670179367
1772639535500163300,2.775163330078125,-0.007698719389736652,-0.01173333078622818,-0.0009724642150104046
1772639535510208300,2.785208251953125,-0.014634467661380768,-0.027517076581716537,-0.003471807111054659
1772639535520253400,2.79525341796875,-0.018788199871778488,-0.027929864823818207,-0.006194623652845621
1772639535530297300,2.80529736328125,-0.01971147023141384,-0.02079784870147705,-0.011940838769078255
1772639535540342300,2.81534228515625,-0.018890950828790665,-0.007882315665483475,-0.014399468898773193
1772639535550387500,2.825387451171875,-0.01672271452844143,0.003977642394602299,-0.01796598732471466
1772639535560432400,2.835432373046875,-0.00971540529280901,0.005839458201080561,-0.013732092455029488
1772639535570477300,2.845477294921875,-0.0045941779389977455,0.00031428434886038303,-0.00949616264551878
1772639535580522200,2.855522216796875,-0.0013062392827123404,-0.007216602563858032,-0.0035261549055576324
1772639535590567400,2.8655673828125,0.0005562034202739596,-0.010506797581911087,0.0001784777268767357
1772639535600612400,2.8756123046875,-0.002124001970514655,-0.009180808439850807,0.0012804935686290264
1772639535610657300,2.8856572265625,-0.009943779557943344,-0.005373993888497353,-0.0005478444509208202
1772639535620702200,2.8957021484375,-0.01576385088264942,0.0010937594342976809,-0.002670383546501398
1772639535630746400,2.905746337890625,-0.020103001967072487,0.003922607749700546,-0.009151265025138855
1772639535640791300,2.915791259765625,-0.015153251588344574,0.006843029987066984,-0.013766523450613022
1772639535650836200,2.925836181640625,-0.009224710054695606,0.0045443084090948105,-0.011992253363132477
1772639535660881400,2.93588134765625,-0.004877099301666021,0.0007839247118681669,-0.00966917909681797
1772639535670926300,2.94592626953125,-0.00499647157266736,-0.0046611363068223,-0.0037730196490883827
1772639535680971300,2.95597119140625,-0.004422293975949287,-0.009456956759095192,0.0017919219098985195
1772639535691016400,2.966016357421875,-0.0056125083938241005,-0.01087688934057951,0.006110308691859245
1772639535701061400,2.976061279296875,-0.005971768405288458,-0.008866203017532825,0.01011383906006813
1772639535711106300,2.986106201171875,-0.0028036092408001423,-0.006276984233409166,0.010739604011178017
1772639535721151200,2.996151123046875,-0.00029810727573931217,-0.007274604868143797,0.009978738613426685
1772639535731196400,3.006196533203125,0.0012905462644994259,-0.008012451231479645,0.009180616587400436
1772639535741240300,3.016240234375,0.0037893904373049736,-0.010496914386749268,0.00405882578343153
1772639535751285200,3.02628515625,0.0033134520053863525,-0.007223270367830992,-0.0005490719340741634
1772639535761330400,3.036330322265625,0.002964844461530447,-0.0016830964013934135,-0.0042194402776658535
1772639535771375400,3.046375244140625,0.0002774489112198353,0.0008148173801600933,-0.00609841151162982
1772639535781420300,3.056420166015625,0.00038237753324210644,0.003732044016942382,-0.005322899203747511
1772639535791465200,3.06646533203125,-0.0009349629981443286,0.006381411571055651,-0.002371047157794237
1772639535801510400,3.076510498046875,0.0013255280209705234,0.004198418464511633,0.00033419160172343254
1772639535811555300,3.086555419921875,0.0027849716134369373,-0.0046652015298604965,0.0038065158296376467
1772639535821600500,3.0966005859375,0.004235595464706421,-0.011645346879959106,0.0042731016874313354
1772639535831645200,3.106645263671875,0.005710594356060028,-0.015306313522160053,0.00012112269178032875
1772639535841689300,3.116689453125,0.005359323229640722,-0.00366031052544713,-0.009427374228835106
1772639535851734300,3.126734375,0.0035973298363387585,0.004865061957389116,-0.012030329555273056
1772639535861779200,3.136779296875,0.0015799852553755045,0.000010918127372860909,-0.009201252833008766
1772639535871824400,3.146824462890625,0.003852616995573044,-0.0048746829852461815,0.0014584148302674294
1772639535881869300,3.156869384765625,0.007899823598563671,-0.013955262489616871,0.013886055909097195
1772639535891914200,3.166914306640625,0.012908571399748325,-0.015222983434796333,0.02085314691066742
1772639535901959400,3.17695947265625,0.010723980143666267,-0.011801885440945625,0.02373814955353737
1772639535912004400,3.18700439453125,0.008480925112962723,-0.001644801115617156,0.020002005621790886
1772639535922049300,3.19704931640625,0.005150641780346632,0.0016828186344355345,0.016868529841303825
1772639535932094200,3.20709423828125,0.0032700425945222378,0.005158031824976206,0.013638386502861977
1772639535942138400,3.217138427734375,0.005936399567872286,0.0008663476910442114,0.00995683204382658
1772639535952183300,3.227183349609375,0.00678098201751709,0.0013967244885861874,0.01237861905246973
1772639535962228200,3.237228271484375,0.0071461014449596405,0.00505031505599618,0.011720019392669201
1772639535972273400,3.2472734375,0.005659430753439665,0.001669024582952261,0.008264926262199879
1772639535982318300,3.257318359375,0.0016444491920992732,-0.003746247384697199,0.005211345851421356
1772639535992363300,3.26736328125,-0.0005717863095924258,-0.007762887515127659,0.0013902192004024982
1772639536002408200,3.277408203125,-0.0010775206610560417,-0.005959927104413509,0.0014930171892046928
1772639536012453400,3.287453369140625,-0.0005823135143145919,-0.006985456217080355,0.0039045128505676985
1772639536022498300,3.297498291015625,0.003063820069655776,-0.006034440826624632,0.011305703781545162
1772639536032543500,3.30754345703125,0.007315462920814753,-0.004657461307942867,0.01756235957145691
1772639536042588200,3.317588134765625,0.010608196258544922,-0.004284352995455265,0.023250604048371315
1772639536052632300,3.32763232421875,0.01307003665715456,-0.001561113866046071,0.02465301752090454
1772639536062677500,3.337677490234375,0.013049530796706676,0.004683466628193855,0.018790069967508316
1772639536072722400,3.347722412109375,0.015789218246936798,0.0051672374829649925,0.011056691408157349
1772639536082767400,3.357767333984375,0.011098326183855534,0.003321933327242732,0.0020293747074902058
1772639536092812300,3.367812255859375,0.00736585957929492,0.00263330084271729,-0.00299252662807703
1772639536102857200,3.377857177734375,0.0011508403113111854,0.0013320802245289087,-0.003677224740386009
1772639536112902100,3.387902099609375,-0.0036403273697942495,-0.004347453825175762,0.001403979491442442
1772639536122947000,3.397947021484375,-0.0027353852055966854,-0.007754169404506683,0.012369811534881592
1772639536132992000,3.407991943359375,-0.0002754080342128873,-0.011930381879210472,0.021029338240623474
1772639536143037200,3.418037109375,0.0017384743550792336,-0.014794079586863518,0.0301008652895689
1772639536153081000,3.4280810546875,0.002442301018163562,-0.017490599304437637,0.03016922064125538
1772639536163126000,3.4381259765625,-0.0001905001699924469,-0.013196252286434174,0.023345137014985085
1772639536173171000,3.4481708984375,-0.0048955222591757774,-0.002997834235429764,0.014286135323345661
1772639536183216000,3.458216064453125,-0.006499277427792549,0.0032171846833080053,0.004767464939504862
1772639536193261000,3.468260986328125,-0.006683270912617445,0.004028296563774347,-0.0044182161800563335
1772639536203306000,3.478305908203125,-0.009441506117582321,0.0001728383358567953,-0.006521847564727068
1772639536213351000,3.488350830078125,-0.007016557268798351,-0.004597203806042671,-0.0012703631073236465
1772639536223396000,3.49839599609375,-0.004136349074542522,-0.004440076649188995,0.007147356867790222
1772639536233441000,3.50844091796875,-0.005672037601470947,-0.003821322461590171,0.016664952039718628
1772639536243486200,3.518486328125,-0.0045668259263038635,0.0006202978547662497,0.02558920346200466
1772639536253530000,3.528530029296875,-0.007626045495271683,0.00227178493514657,0.029464924708008766
1772639536263575000,3.538574951171875,-0.00875575840473175,0.0014110510237514973,0.032637014985084534
1772639536273620200,3.5486201171875,-0.007416549138724804,-0.0006530398968607187,0.029808564111590385
1772639536283665200,3.5586650390625,-0.008135070092976093,-0.004091447219252586,0.024452947080135345
1772639536293710000,3.5687099609375,-0.0066191512160003185,-0.009570695459842682,0.017843224108219147
1772639536303755000,3.578755126953125,-0.006262287963181734,-0.0064473398961126804,0.012049784883856773
1772639536313800200,3.58880029296875,-0.008646255359053612,-0.0019729575142264366,0.006013480946421623
1772639536323845000,3.59884521484375,-0.012844196520745754,0.00013227155432105064,0.003957254346460104
1772639536333890000,3.60889013671875,-0.014360740780830383,0.0021757697686553,0.00025093741714954376
1772639536343935000,3.61893505859375,-0.01247761957347393,0.0012026506010442972,0.00047597475349903107
1772639536353980200,3.628980224609375,-0.013523412868380547,-0.005278770811855793,0.0011618342250585556
1772639536364024000,3.639024169921875,-0.013883471488952637,-0.007855645380914211,0.0029062048997730017
1772639536374069000,3.649069091796875,-0.010389028117060661,-0.013775555416941643,0.0025638884399086237
1772639536384114000,3.659114013671875,-0.012145916000008583,-0.013571023941040039,0.0023305953945964575
1772639536394159000,3.6691591796875,-0.0147817088291049,-0.015450909733772278,-0.003813662100583315
1772639536404204000,3.6792041015625,-0.019518407061696053,-0.009379968047142029,-0.009824417531490326
1772639536414249200,3.689249267578125,-0.022531570866703987,-0.00046566245146095753,-0.013710426166653633
1772639536424294000,3.6992939453125,-0.021755259484052658,0.006674005649983883,-0.0069001903757452965
1772639536434339000,3.709339111328125,-0.016868749633431435,0.015521771274507046,-0.003283888101577759
1772639536444384000,3.719384033203125,-0.015013058669865131,0.017110880464315414,0.005402810871601105
1772639536454429200,3.72942919921875,-0.014512494206428528,0.0082479827105999,0.013491353020071983
1772639536464473000,3.73947314453125,-0.01867421716451645,0.0005242826882749796,0.017154797911643982
1772639536474518000,3.74951806640625,-0.023769689723849297,0.006559332832694054,0.011102519929409027
1772639536484563200,3.759563232421875,-0.025986770167946815,0.004009622614830732,0.00017636874690651894
1772639536494608100,3.769608154296875,-0.024553989991545677,0.004407899919897318,-0.0017329608090221882
1772639536504653000,3.779653076171875,-0.021296145394444466,0.005407916847616434,-0.000004835892468690872
1772639536514698000,3.789697998046875,-0.013942671939730644,0.008694318123161793,0.004879423882812262
1772639536524743200,3.7997431640625,-0.01127072237432003,0.01779700256884098,0.016572564840316772
1772639536534788000,3.8097880859375,-0.006981028243899345,0.017163516953587532,0.023702001199126244
1772639536544833300,3.819833251953125,-0.0018336705397814512,0.013459326699376106,0.026912974193692207
1772639536554878000,3.8298779296875,-0.0010903505608439445,0.014432092197239399,0.02301366627216339
1772639536564922000,3.839922119140625,-0.004277621861547232,0.012118338607251644,0.016552839428186417
1772639536574967000,3.849967041015625,-0.009476362727582455,0.009643751196563244,0.007885150611400604
1772639536585012000,3.860011962890625,-0.01375606283545494,-0.00003177928738296032,-0.00017384113743901253
1772639536595057000,3.870056884765625,-0.017696836963295937,-0.005402315873652697,-0.002838350832462311
1772639536605102000,3.88010205078125,-0.0173647403717041,-0.006503799464553595,0.0007025878876447678
1772639536615147000,3.89014697265625,-0.013448295183479786,-0.0072609358467161655,0.01660032756626606
1772639536625192200,3.900192138671875,-0.009078048169612885,-0.026566989719867706,0.03369888663291931
1772639536635236900,3.91023681640625,-0.0029847510159015656,-0.02547578327357769,0.04250410199165344
1772639536645282000,3.920281982421875,-0.004050548188388348,-0.020260781049728394,0.040831636637449265
1772639536655327000,3.930326904296875,-0.0061251199804246426,-0.016433775424957275,0.03265008330345154
1772639536665371100,3.94037109375,-0.007381599396467209,-0.005108415149152279,0.025529321283102036
1772639536675416000,3.950416015625,-0.009348217397928238,-0.0028149783611297607,0.016125857830047607
1772639536685461000,3.9604609375,-0.010088309645652771,-0.00592235429212451,0.01066398061811924
1772639536695506200,3.970506103515625,-0.009105823002755642,-0.00671057915315032,0.009413713589310646
1772639536705551000,3.980551025390625,-0.006545993033796549,-0.010067760944366455,0.008155636489391327
1772639536715596000,3.990595947265625,-0.005250490270555019,-0.014415426179766655,0.003994443453848362
1772639536725641000,4.000640869140625,-0.00032524007838219404,-0.014705443754792213,0.0006002443842589855
1772639536735686100,4.01068603515625,0.0015835415106266737,-0.014060284942388535,0.0005982890725135803
1772639536745731000,4.02073095703125,0.0004429095424711704,-0.008299068547785282,-0.0020414358004927635
1772639536755776300,4.0307763671875,-0.002928511705249548,-0.007972221821546555,0.0019869692623615265
1772639536765820000,4.04081982421875,-0.0036963007878512144,-0.006094427313655615,0.009082162752747536
1772639536775865000,4.050864990234375,-0.0035716649144887924,-0.005897750612348318,0.015019303187727928
1772639536785910000,4.060909912109375,-0.002094675786793232,-0.011744188144803047,0.019806068390607834
1772639536795955200,4.070955078125,0.0012948543298989534,-0.01232270710170269,0.023956719785928726
1772639536805999900,4.080999755859375,0.0031465501524508,-0.011382345110177994,0.025441698729991913
1772639536816045000,4.091045166015625,0.004120844416320324,-0.006695948541164398,0.026995552703738213
1772639536826090000,4.101090087890625,0.00022570521105080843,-0.0008716150186955929,0.024018937721848488
1772639536836135200,4.11113525390625,-0.0028002727776765823,0.0006908553186804056,0.022761642932891846
1772639536846179800,4.121179931640625,-0.005746261216700077,-0.003891645697876811,0.020153608173131943
1772639536856225000,4.13122509765625,-0.0023985893931239843,-0.00232279347255826,0.015208033844828606
1772639536866270000,4.14127001953125,-0.001049698330461979,0.0005936340894550085,0.012500131502747536
1772639536876314000,4.151314208984375,-0.003166723530739546,0.001730951014906168,0.007995055988430977
1772639536886359000,4.161359130859375,-0.004586454480886459,0.004068407695740461,0.0022468892857432365
1772639536896404000,4.171404052734375,-0.002060916041955352,0.002261148067191243,-0.002831413410604
1772639536906449200,4.18144921875,0.00146670697722584,0.0029639562126249075,-0.003270568326115608
1772639536916494000,4.191494140625,0.007845055311918259,0.00877562165260315,-0.002538168802857399
1772639536926539300,4.201539306640625,0.009819522500038147,0.008495456539094448,-0.0003064395859837532
1772639536936584000,4.211583984375,0.005529657006263733,0.0008389332797378302,-0.003796979319304228
1772639536946629000,4.221629150390625,-0.0027730141300708055,-0.009932754561305046,-0.010236769914627075
1772639536956674000,4.231674072265625,-0.013252443633973598,-0.01588675193488598,-0.020539840683341026
1772639536966719200,4.24171923828125,-0.017093520611524582,-0.013317333534359932,-0.030270764604210854
1772639536976764000,4.251763916015625,-0.015703147277235985,-0.008140375837683678,-0.034700214862823486
1772639536986808000,4.26180810546875,-0.015817929059267044,-0.005047913640737534,-0.032821618020534515
1772639536996853000,4.27185302734375,-0.013094611465930939,-0.00023256544955074787,-0.03134472668170929
1772639537006898200,4.281898193359375,-0.008927296847105026,0.001862277276813984,-0.023870298638939857
1772639537016943000,4.291943115234375,-0.00418618181720376,0.0013284161686897278,-0.01515804324299097
1772639537026988000,4.301988037109375,0.0005680933827534318,0.0034906365908682346,-0.009368863888084888
1772639537037033000,4.312032958984375,0.0007502537919208407,0.0015614426229149103,-0.00739492941647768
1772639537047078100,4.322078125,0.0001363951014354825,0.009064632467925549,-0.004928575828671455
1772639537057123000,4.332123046875,-0.007948209531605244,0.006879037246108055,-0.005647339858114719
1772639537067168000,4.34216796875,-0.017730001360177994,0.0026478066574782133,-0.008527016267180443
1772639537077213000,4.352212890625,-0.023021575063467026,-0.0000893354881554842,-0.01127299852669239
1772639537087257000,4.362257080078125,-0.02696145512163639,0.0025871414691209793,-0.01060560904443264
1772639537097302800,4.372302734375,-0.02556552179157734,0.003025225130841136,-0.008066837675869465
1772639537107347700,4.38234765625,-0.02509547397494316,0.0004582041874527931,-0.008638085797429085
1772639537117393000,4.392392822265625,-0.022469377145171165,-0.006074735429137945,-0.010544084012508392
1772639537127437600,4.4024375,-0.02479005604982376,-0.00727875018492341,-0.01691143587231636
1772639537137482800,4.412482666015625,-0.02783060260117054,-0.002973240800201893,-0.027908267453312874
1772639537147527700,4.422527587890625,-0.03157580643892288,0.002423655241727829,-0.03629349544644356
1772639537157572900,4.43257275390625,-0.0344037227332592,0.0074350666254758835,-0.04530146345496178
1772639537167617500,4.442617431640625,-0.03457336500287056,0.00891605019569397,-0.04835238307714462
1772639537177662700,4.452662841796875,-0.03439731523394585,0.009068671613931656,-0.046180203557014465
1772639537187706600,4.46270654296875,-0.03273284062743187,0.005426799412816763,-0.04165203124284744
1772639537197751800,4.472751708984375,-0.030904047191143036,0.008391565643250942,-0.03696497529745102
1772639537207796500,4.48279638671875,-0.025728460401296616,0.012692304328083992,-0.03222907707095146
1772639537217841700,4.492841552734375,-0.021616963669657707,0.009119836613535881,-0.02599993348121643
1772639537227886600,4.502886474609375,-0.017673887312412262,0.0016597902867943048,-0.021633414551615715
1772639537237931800,4.512931884765625,-0.014554462395608425,0.0030624389182776213,-0.017162952572107315
1772639537247976400,4.5229765625,-0.016732128337025642,0.008399147540330887,-0.015960801392793655
1772639537258021600,4.533021728515625,-0.01986430399119854,0.010369706898927689,-0.010665200650691986
1772639537268066600,4.543066650390625,-0.02185129001736641,0.009969167411327362,-0.0111717339605093
1772639537278111700,4.55311181640625,-0.02385885827243328,0.007711621932685375,-0.011405739933252335
1772639537288156700,4.56315673828125,-0.02517392672598362,0.004209831357002258,-0.008869079872965813
1772639537298200600,4.57320068359375,-0.024411777034401894,0.0015946680214256048,-0.004057791084051132
1772639537308245800,4.583245849609375,-0.02433880604803562,0.005974236410111189,0.002424343256279826
1772639537318290700,4.593290771484375,-0.02589639648795128,-0.00006567174568772316,0.007334055379033089
1772639537328336000,4.6033359375,-0.021477146074175835,-0.006215709261596203,0.009196670725941658
1772639537338380500,4.613380615234375,-0.01617349311709404,-0.004932246170938015,0.010193130001425743
1772639537348425700,4.62342578125,-0.013130031526088715,-0.003595072543248534,0.007583764847368002
1772639537358470700,4.633470703125,-0.012732437811791897,-0.0004489715211093426,0.005176009144634008
1772639537368515800,4.643515869140625,-0.022573083639144897,0.002932444214820862,-0.0023205229081213474
1772639537378560500,4.653560546875,-0.02624834142625332,0.003875196911394596,-0.01292418409138918
1772639537388605700,4.663605712890625,-0.030209526419639587,0.007464871741831303,-0.019865181297063828
1772639537398649600,4.673649658203125,-0.02482726238667965,0.00903509370982647,-0.024155696853995323
1772639537408694800,4.68369482421875,-0.016317930072546005,0.01481122337281704,-0.021266967058181763
1772639537418739500,4.693739501953125,-0.01200530119240284,0.017922453582286835,-0.014011358842253685
1772639537428784600,4.70378466796875,-0.01404767856001854,0.008409109897911549,-0.008923124521970749
1772639537438829600,4.71382958984375,-0.016860101372003555,-0.002524286275729537,-0.006309501826763153
1772639537448874800,4.723874755859375,-0.02387726493179798,-0.010117490775883198,-0.0044876327738165855
1772639537458919700,4.733919677734375,-0.026200920343399048,-0.008666139096021652,-0.0073034814558923244
1772639537468964600,4.743964599609375,-0.02621503546833992,-0.005478867795318365,-0.008284855633974075
1772639537479009500,4.754009521484375,-0.022932125255465508,-0.00910831056535244,-0.007629356347024441
1772639537489054700,4.7640546875,-0.018154947087168694,-0.0070723239332437515,-0.007000850513577461
1772639537499099000,4.774098876953125,-0.01293654553592205,-0.004257324151694775,-0.006434740498661995
1772639537509143600,4.7841435546875,-0.010124247521162033,-0.001496691256761551,-0.007019038312137127
1772639537519188700,4.794188720703125,-0.010004421696066856,-0.00036287447437644005,-0.0001616557128727436
1772639537529233700,4.804233642578125,-0.007536736316978931,0.0016707153990864754,0.0035995268262922764
1772639537539278800,4.81427880859375,-0.008101874962449074,-0.00045450637117028236,0.009207823313772678
1772639537549323500,4.824323486328125,-0.01070245262235403,-0.0043634939938783646,0.015335224568843842
1772639537559368700,4.83436865234375,-0.014334187842905521,-0.005913832690566778,0.01655649021267891
1772639537569413600,4.84441357421875,-0.01291312463581562,-0.00846141204237938,0.017263825982809067
1772639537579458800,4.854458740234375,-0.009218662977218628,-0.006037213373929262,0.014202950522303581
1772639537589503700,4.864503662109375,-0.004226834047585726,-0.005814839620143175,0.008558380417525768
1772639537599548700,4.874548583984375,-0.0016751964576542377,-0.006171876564621925,0.004714295733720064
1772639537609592600,4.884592529296875,-0.0023998424876481295,-0.002568087074905634,-0.003724196460098028
1772639537619637800,4.8946376953125,-0.0035483241081237793,0.0066934023052453995,-0.005283587146550417
1772639537629682700,4.9046826171875,-0.00045852456241846085,0.012609082274138927,-0.008494026958942413
1772639537639727600,4.9147275390625,-0.0023837541230022907,0.007763809524476528,-0.003426176495850086
1772639537649772500,4.9247724609375,-0.0009757408988662064,-0.0031157357152551413,0.0038375952281057835
1772639537659817700,4.934817626953125,-0.0022987364791333675,-0.013982003554701805,0.006899245083332062
1772639537669862700,4.944862548828125,-0.009739342145621777,-0.013066142797470093,0.010303563438355923
1772639537679907600,4.954907470703125,-0.016031639650464058,-0.008991310372948647,0.007966285571455956
1772639537689952500,4.964952392578125,-0.023597946390509605,-0.004842638503760099,-0.000467413105070591
1772639537699997700,4.974997802734375,-0.02940421923995018,-0.00478877779096365,-0.009072547778487206
1772639537710042600,4.985042724609375,-0.03258935734629631,-0.008062335662543774,-0.014704335480928421
1772639537720086500,4.99508642578125,-0.03554491698741913,-0.011903390288352966,-0.0197362769395113
1772639537730131700,5.005131591796875,-0.04024007171392441,-0.015615837648510933,-0.023196255788207054
1772639537740176600,5.0151767578125,-0.0457770973443985,-0.013753026723861694,-0.025048838928341866
1772639537750221800,5.025221923828125,-0.05114469677209854,-0.007900729775428772,-0.025055496022105217
1772639537760266500,5.0352666015625,-0.057937342673540115,-0.004007166251540184,-0.023405032232403755
1772639537770311700,5.045311767578125,-0.06101169437170029,0.00013857637532055378,-0.02162177860736847
1772639537780356600,5.055356689453125,-0.06359504163265228,-0.00042013823986053467,-0.016334522515535355
1772639537790401800,5.06540185546875,-0.058431968092918396,0.002785508520901203,-0.010072898119688034
1772639537800446700,5.07544677734375,-0.0553964339196682,0.004893894772976637,-0.005964359268546104
1772639537810491600,5.08549169921875,-0.051539380103349686,0.0023660222068428993,0.0022043543867766857
1772639537820535600,5.09553564453125,-0.0490800105035305,-0.0026832926087081432,0.008024613372981548
1772639537830580700,5.105580810546875,-0.04483573138713837,-0.004353094846010208,0.010896565392613411
1772639537840625700,5.115625732421875,-0.04284442216157913,-0.006348107010126114,0.010814886540174484
1772639537850670600,5.125670654296875,-0.04251845180988312,-0.008351603522896767,0.006122929509729147
1772639537860715500,5.135715576171875,-0.044124338775873184,-0.008819786831736565,-0.0014779986813664436
1772639537870760700,5.1457607421875,-0.0439847894012928,-0.004997884854674339,-0.009808367118239403
1772639537880805600,5.1558056640625,-0.03908391669392586,0.0017977580428123474,-0.015960264950990677
1772639537890850600,5.1658505859375,-0.032497651875019073,0.010320672765374184,-0.01604042574763298
1772639537900895500,5.1758955078125,-0.026504019275307655,0.015500135719776154,-0.0150460721924901
1772639537910940700,5.185940673828125,-0.025914395228028297,0.012538966722786427,-0.009586858563125134
1772639537920985600,5.195985595703125,-0.029599662870168686,0.002441883785650134,-0.006784266792237759
1772639537931029500,5.206029541015625,-0.033617839217185974,-0.011827332898974419,-0.004437754862010479
1772639537941074700,5.21607470703125,-0.03315598517656326,-0.020842572674155235,-0.00481786485761404
1772639537951119600,5.22611962890625,-0.03272641822695732,-0.019824713468551636,-0.011387350037693977
1772639537961164800,5.236164794921875,-0.031053153797984123,-0.010212033055722713,-0.01350749284029007
1772639537971209700,5.246209716796875,-0.027112741023302078,-0.00426519475877285,-0.012474453076720238
1772639537981254700,5.256254638671875,-0.021704548969864845,0.002502061426639557,-0.014977280050516129
1772639537991299600,5.266299560546875,-0.01722511276602745,0.0033774422481656075,-0.01312318630516529
1772639538001344800,5.2763447265625,-0.012475662864744663,0.003371535101905465,-0.009898080490529537
1772639538011389700,5.2863896484375,-0.006098191253840923,0.00244635296985507,-0.00904613547027111
1772639538021434600,5.2964345703125,-0.001408112933859229,0.0025504599325358868,-0.007911734282970428
1772639538031478500,5.306478515625,0.00037141144275665283,0.0028689741156995296,-0.010619636625051498
1772639538041523700,5.316523681640625,0.0016475669108331203,0.002746289363130927,-0.009974980726838112
1772639538051568600,5.326568603515625,0.000932241789996624,0.0011257557198405266,-0.0099044069647789
1772639538061613600,5.336613525390625,0.002627061912789941,-0.0004127747379243374,-0.005283925216645002
1772639538071658500,5.346658447265625,0.004412178881466389,-0.0016274424269795418,-0.0035289027728140354
1772639538081703700,5.35670361328125,0.005770327989012003,-0.004207339137792587,-0.0032768892124295235
1772639538091748600,5.36674853515625,0.004994815215468407,-0.005849177949130535,-0.0003130575641989708
1772639538101793800,5.376793701171875,0.007218963000923395,-0.00710371695458889,-0.0002746041864156723
1772639538111838700,5.386838623046875,0.005737712606787682,-0.004200338385999203,-0.0006772740744054317
1772639538121884000,5.3968837890625,0.003616661299020052,-0.002092343755066395,-0.0021992805413901806
1772639538131928600,5.406928466796875,0.004067001864314079,0.0038014978636056185,-0.003020332660526037
1772639538141972700,5.41697265625,0.0024766558781266212,0.00477941706776619,-0.004974542185664177
1772639538152018000,5.427017822265625,0.0001229541376233101,0.004493127577006817,-0.004131385125219822
1772639538162062800,5.437062744140625,-0.0014634751714766026,0.00508397351950407,-0.003772666212171316
1772639538172107800,5.447107666015625,0.0022500366903841496,0.0026067013386636972,-0.0013265525922179222
1772639538182152700,5.457152587890625,0.002871869131922722,0.0029125413857400417,-0.0022160401567816734
1772639538192198000,5.467197998046875,0.005245544482022524,0.0042734164744615555,-0.003999292850494385
1772639538202242800,5.477242919921875,0.005085754673928022,0.009461253881454468,-0.008434254676103592
1772639538212288000,5.4872880859375,0.0018774446798488498,0.011592315509915352,-0.008379127830266953
1772639538222332700,5.497332763671875,0.0012657009065151215,0.00523039884865284,-0.00715672830119729
1772639538232377900,5.5073779296875,0.0022830285597592592,-0.0030309930443763733,-0.00567707559093833
1772639538242421800,5.517421875,0.0016686215531080961,-0.008940037339925766,-0.004127485677599907
1772639538252466700,5.527466796875,0.0015839331317692995,-0.006097645498812199,-0.004250790923833847
1772639538262511600,5.53751171875,0.00466212397441268,-0.0018436142709106207,-0.005262513644993305
1772639538272556800,5.547556884765625,0.0001571208704262972,0.003664601594209671,-0.00965513102710247
1772639538282601700,5.557601806640625,-0.0030274249147623777,0.008920978754758835,-0.011489278636872768
1772639538292647000,5.56764697265625,-0.0032668430358171463,0.012436884455382824,-0.01445124763995409
1772639538302691600,5.577691650390625,-0.005781915970146656,0.010075482539832592,-0.015183515846729279
1772639538312736800,5.58773681640625,-0.005771263502538204,0.004133437294512987,-0.011032447218894958
1772639538322781700,5.59778173828125,-0.0057232012040913105,0.0009504815097898245,-0.00898527167737484
1772639538332827000,5.607826904296875,-0.0020395168103277683,0.0045193834230303764,-0.003049351740628481
1772639538342871800,5.617871826171875,-0.006258889567106962,0.009406897239387035,0.0017924322746694088
1772639538352915700,5.627915771484375,-0.012659796513617039,0.010054045356810093,-0.0013668756000697613
1772639538362961000,5.6379609375,-0.015315955504775047,0.009847098030149937,-0.002006964758038521
1772639538373005800,5.648005859375,-0.008619703352451324,0.015133473090827465,-0.005558289587497711
1772639538383050800,5.65805078125,-0.000954623450525105,0.02074071392416954,-0.003325170371681452
1772639538393095700,5.668095703125,0.005061989650130272,0.019243484362959862,-0.003231427166610956
1772639538403140900,5.678140869140625,0.004377275239676237,0.010965022258460522,-0.0018983948975801468
1772639538413185800,5.688185791015625,-0.0026686503551900387,0.0010335622355341911,-0.0020107803866267204
1772639538423231000,5.69823095703125,-0.00912249181419611,-0.007038783747702837,-0.007493618410080671
1772639538433275600,5.708275634765625,-0.01526240911334753,-0.006012934725731611,-0.01056797243654728
1772639538443320800,5.71832080078125,-0.0165801253169775,0.0032130805775523186,-0.013465873897075653
1772639538453364700,5.72836474609375,-0.012879930436611176,0.006556679494678974,-0.012170245870947838
1772639538463410000,5.738409912109375,-0.007710562087595463,0.005731888581067324,-0.008678109385073185
1772639538473454600,5.74845458984375,0.00226404145359993,0.0034823166206479073,-0.0034615090116858482
1772639538483499800,5.758499755859375,0.006973966956138611,0.0066109211184084415,0.005078076384961605
1772639538493544700,5.768544677734375,0.010536211542785168,0.007985112257301807,0.01199617050588131
1772639538503590000,5.77858984375,0.009923559613525867,0.004039715975522995,0.0156855545938015
1772639538513634600,5.788634521484375,0.007088091690093279,0.005743872839957476,0.017896242439746857
1772639538523679700,5.7986796875,0.003980699460953474,0.011047134175896645,0.01493215374648571
1772639538533724700,5.808724609375,-0.002699307631701231,0.0160118006169796,0.011894552037119865
1772639538543769900,5.818769775390625,-0.0023405328392982483,0.012230713851749897,0.006856738124042749
1772639538553814800,5.828814697265625,0.0010888198157772422,0.004717936739325523,0.006694551557302475
1772639538563858700,5.838858642578125,0.004820503760129213,-0.0034324401058256626,0.006102077197283506
1772639538573904000,5.84890380859375,0.00915346760302782,-0.008284719660878181,0.004407507833093405
1772639538583948800,5.85894873046875,0.012621904723346233,-0.014202756807208061,0.004751509055495262
1772639538593994000,5.868993896484375,0.008736619725823402,-0.01354149542748928,0.0016931351274251938
1772639538604038700,5.87903857421875,0.003564870450645685,-0.009619692340493202,-0.0009126020595431328
1772639538614083800,5.889083740234375,-0.000009624171070754528,-0.0027854880318045616,-0.0030516530387103558
1772639538624128800,5.899128662109375,-0.004315955564379692,0.0022710561752319336,-0.004789099562913179
1772639538634174000,5.909174072265625,-0.00535911601036787,0.007654902525246143,-0.00515128904953599
1772639538644218600,5.919218505859375,-0.003530636429786682,0.005128025077283382,-0.004184382036328316
1772639538654263800,5.929263916015625,-0.002703192410990596,0.003070733044296503,-0.002290608361363411
1772639538664307700,5.9393076171875,-0.0008370524737983942,-0.0006856941618025303,-0.0002252478152513504
1772639538674353000,5.949352783203125,0.0006095765857025981,-0.0011112671345472336,0.0030072974041104317
1772639538684397800,5.959397705078125,0.003667919198051095,-0.002323984168469906,0.006844817660748959
1772639538694442800,5.96944287109375,0.004384309984743595,-0.0034848563373088837,0.008367612957954407
1772639538704487700,5.97948779296875,0.003466505790129304,-0.002476169727742672,0.007515063509345055
1772639538714532900,5.989532958984375,-0.0015442315489053726,-0.00106442766264081,0.005342190153896809
1772639538724577800,5.999577880859375,-0.0018185684457421303,-0.0032537260558456182,-0.0010915701277554035
1772639538734622700,6.009622802734375,-0.0041368501260876656,-0.007953406311571598,-0.004759541712701321
1772639538744667600,6.019667724609375,-0.003348131664097309,-0.006797491572797298,-0.013368220068514347
1772639538754712800,6.029712890625,-0.0017379845958203077,-0.0015678422059863806,-0.015039087273180485
1772639538764757800,6.0397578125,-0.00043897307477891445,0.00624668737873435,-0.01170073077082634
1772639538774802700,6.049802734375,0.0028124803211539984,0.0069676050916314125,-0.00347582483664155
1772639538784846800,6.059846923828125,0.00407190527766943,0.00520434882491827,0.005216834135353565
1772639538794891800,6.069891845703125,0.006562493275851011,0.002335591474547982,0.009510648436844349
1772639538804937000,6.07993701171875,0.01187886856496334,-0.004423386417329311,0.013714540749788284
1772639538814981600,6.089981689453125,0.011968882754445076,-0.005883597768843174,0.01203381922096014
1772639538825026800,6.10002685546875,0.01226770505309105,0.0020019137300550938,0.005664862226694822
1772639538835071700,6.11007177734375,0.009876718744635582,0.009854776784777641,0.0007073879241943359
1772639538845117000,6.120116943359375,0.007676697336137295,0.012320488691329956,-0.004310546442866325
1772639538855161600,6.13016162109375,0.006997058168053627,0.013648074120283127,-0.004874603822827339
1772639538865206800,6.140206787109375,0.014120920561254025,0.01036918070167303,-0.0009654155001044273
1772639538875251700,6.150251708984375,0.019025132060050964,0.010464787483215332,0.004944937769323587
1772639538885295900,6.1602958984375,0.025996943935751915,0.0075470441952347755,0.011918241158127785
1772639538895340800,6.1703408203125,0.023698369041085243,0.007410690654069185,0.01766161434352398
1772639538905385700,6.1803857421875,0.017883621156215668,-0.007425378076732159,0.017782147973775864
1772639538915431000,6.190430908203125,0.008896519429981709,-0.0191480815410614,0.014008448459208012
1772639538925475800,6.200475830078125,0.003424678463488817,-0.016193203628063202,0.008349440060555935
1772639538935520800,6.210520751953125,0.0020355735905468464,-0.011319353245198727,-0.0013822834007441998
1772639538945565700,6.220565673828125,0.006904850713908672,0.0006340434774756432,-0.005625696387141943
1772639538955611000,6.23061083984375,0.018024612218141556,0.01105818897485733,-0.008586864918470383
1772639538965655800,6.24065576171875,0.025567656382918358,0.012222513556480408,-0.00742019759491086
1772639538975700700,6.25070068359375,0.02791922725737095,0.015814317390322685,0.0023293690755963326
1772639538985744600,6.26074462890625,0.02737502008676529,0.015254868194460869,0.01132727600634098
1772639538995789800,6.270789794921875,0.02684425190091133,0.009531734511256218,0.01763044483959675
1772639539005834800,6.280834716796875,0.03133954107761383,0.00646052323281765,0.020324230194091797
1772639539015880000,6.2908798828125,0.031859125941991806,0.0062472037971019745,0.020832626149058342
1772639539025924600,6.300924560546875,0.03141743317246437,0.0038552074693143368,0.015421885997056961
1772639539035969800,6.3109697265625,0.027586475014686584,0.008028913289308548,0.010728596709668636
1772639539046014700,6.3210146484375,0.02890334464609623,0.0026114145293831825,0.0039338404312729836
1772639539056060000,6.331059814453125,0.029719602316617966,0.006905228830873966,-0.004853259772062302
1772639539066104800,6.341104736328125,0.029316887259483337,0.008070291951298714,-0.004193415399640799
1772639539076149800,6.351149658203125,0.031278833746910095,-0.003276106435805559,-0.0030831429176032543
1772639539086194700,6.361194580078125,0.03304169327020645,-0.0043366760946810246,-0.0032229055650532246
1772639539096238800,6.37123876953125,0.03722791746258736,-0.00832396000623703,-0.0037994799204170704
1772639539106283800,6.38128369140625,0.039907824248075485,-0.003047885838896036,0.0025342220906168222
1772639539116328700,6.39132861328125,0.041768573224544525,-0.0011794120073318481,0.007319656200706959
1772639539126374000,6.401373779296875,0.040889352560043335,-0.0002448093146085739,0.016267821192741394
1772639539136418800,6.411418701171875,0.038177188485860825,0.002999453339725733,0.022042088210582733
1772639539146463700,6.421463623046875,0.03426632657647133,0.005026764236390591,0.023098083212971687
1772639539156508700,6.4315087890625,0.0342857651412487,0.00685502402484417,0.025902125984430313
1772639539166553900,6.441553955078125,0.03195089101791382,0.0061690062284469604,0.02604757249355316
1772639539176598800,6.451598876953125,0.034884896129369736,0.0008333632722496986,0.025357281789183617
1772639539186643700,6.461643798828125,0.03698166832327843,-0.005238547921180725,0.02209674008190632
1772639539196689000,6.47168896484375,0.036906298249959946,-0.008948064409196377,0.018167246133089066
1772639539206732800,6.48173291015625,0.04033643379807472,-0.01149207353591919,0.01645777001976967
1772639539216777700,6.49177783203125,0.03916970267891884,-0.009420933201909065,0.015337912365794182
1772639539226823000,6.501822998046875,0.03586776182055473,-0.004335594363510609,0.012151341885328293
1772639539236867600,6.51186767578125,0.03554924577474594,-0.0027771128807216883,0.010414160788059235
1772639539246912800,6.521912841796875,0.03408243879675865,0.0030449163168668747,0.010748578235507011
1772639539256957700,6.531957763671875,0.034652091562747955,0.0012563373893499374,0.012419179081916809
1772639539267003000,6.5420029296875,0.03230300918221474,0.0019113499438390136,0.018117984756827354
1772639539277047800,6.5520478515625,0.03004358522593975,0.0003763039130717516,0.022270387038588524
1772639539287092700,6.5620927734375,0.02584514208137989,-0.005202704109251499,0.024780668318271637
1772639539297137700,6.5721376953125,0.02398119494318962,-0.007680775597691536,0.01998218521475792
1772639539307181800,6.582181884765625,0.027105554938316345,-0.007046372164040804,0.011644013226032257
1772639539317227000,6.59222705078125,0.02677958272397518,-0.004306511487811804,0.003366908524185419
1772639539327271700,6.602271728515625,0.02566923387348652,-0.001106043579056859,-0.0018556229770183563
1772639539337316900,6.61231689453125,0.022871049121022224,0.0005741447675973177,-0.008280498906970024
1772639539347361800,6.62236181640625,0.019885189831256866,-0.00575234554708004,-0.010853346437215805
1772639539357407000,6.632406982421875,0.018436962738633156,-0.0069893840700387955,-0.0064535378478467464
1772639539367451600,6.64245166015625,0.016144296154379845,-0.0070232669822871685,-0.003091059159487486
1772639539377496800,6.652496826171875,0.017994394525885582,-0.0012423433363437653,0.003071229439228773
1772639539387541800,6.662541748046875,0.01865077018737793,0.005457496270537376,0.012270944193005562
1772639539397587000,6.6725869140625,0.01549092773348093,0.013050701469182968,0.021187739446759224
1772639539407632000,6.6826318359375,0.009401516988873482,0.005793179385364056,0.028950147330760956
1772639539417675800,6.69267578125,0.004906899761408567,-0.007023815996944904,0.031008504331111908
1772639539427720700,6.702720703125,-0.0009784356225281954,-0.014592673629522324,0.027753908187150955
1772639539437766000,6.712765869140625,-0.0005331551656126976,-0.013819023966789246,0.015587789937853813
1772639539447810800,6.722810791015625,0.0013453761348500848,-0.005714056547731161,0.006871027406305075
1772639539457855700,6.732855712890625,-0.002161474199965596,0.003379839239642024,0.0028259523678570986
1772639539467900700,6.742900634765625,-0.005290609784424305,0.010924693197011948,-0.00023927493020892143
1772639539477945900,6.75294580078125,-0.006426448002457619,0.012895965948700905,0.0011429055593907833
1772639539487990800,6.76299072265625,-0.000827465089969337,0.011096930131316185,0.005308534950017929
1772639539498035700,6.77303564453125,0.004487139172852039,0.011418638750910759,0.004782826639711857
1772639539508080600,6.78308056640625,0.0063819000497460365,0.013803647831082344,0.0031225408893078566
1772639539518125800,6.793125732421875,0.007369666360318661,0.02418890967965126,-0.0001379670575261116
1772639539528170000,6.803169921875,0.00574440136551857,0.034293439239263535,0.0004860903136432171
1772639539538214700,6.813214599609375,0.0058503951877355576,0.042772676795721054,0.00655197212472558
1772639539548259800,6.823259765625,0.008511912077665329,0.03708755597472191,0.017427701503038406
1772639539558304800,6.8333046875,0.014537313021719456,0.014246421866118908,0.03425914794206619
1772639539568350000,6.843349853515625,0.02121785283088684,-0.007194953970611095,0.05192282795906067
1772639539578395000,6.853394775390625,0.022675666958093643,-0.020265746861696243,0.06297654658555984
1772639539588439800,6.863439697265625,0.01909208483994007,-0.01687985472381115,0.05852349102497101
1772639539598484700,6.873484619140625,0.011195014230906963,-0.001281985780224204,0.045803435146808624
1772639539608530000,6.883530029296875,0.007292763330042362,0.011803841218352318,0.027392806485295296
1772639539618574800,6.893574951171875,0.004341448191553354,0.0219185259193182,0.006524541415274143
1772639539628618800,6.90361865234375,0.0014250987442210317,0.02106669917702675,-0.008845552802085876
1772639539638663700,6.91366357421875,0.0005811430746689439,0.016536131501197815,-0.012908737175166607
1772639539648708900,6.923708984375,0.005586632527410984,0.0057732160203158855,-0.011419050395488739
1772639539658753800,6.93375390625,0.006042566150426865,0.00048044975847005844,-0.006284208502620459
1772639539668798700,6.943798828125,0.005810447037220001,-0.002365109510719776,0.0017123236320912838
1772639539678843600,6.95384375,0.0028897584415972233,-0.001655377447605133,0.00513368658721447
1772639539688888800,6.963888916015625,0.0010588672012090683,0.00004869652912020683,0.0028488324023783207
1772639539698933800,6.973933837890625,-0.0021329312585294247,0.005519095808267593,-0.003343283198773861
1772639539708979000,6.98397900390625,-0.0038010887801647186,0.0017009922303259373,-0.008002130314707756
1772639539719023600,6.994023681640625,-0.00236431322991848,0.0013984572142362595,-0.012107924558222294
1772639539729068800,7.00406884765625,-0.003907834179699421,0.0015954668633639812,-0.013383116573095322
1772639539739113000,7.014113037109375,-0.004409573506563902,0.0035273239482194185,-0.013152752071619034
1772639539749157600,7.02415771484375,-0.0006523861084133387,0.004695652984082699,-0.005221858620643616
1772639539759202800,7.034202880859375,-0.000153309665620327,0.002306797308847308,0.004118646495044231
1772639539769247700,7.044247802734375,0.002717625116929412,-0.0030530099757015705,0.011901555582880974
1772639539779293000,7.05429296875,-0.000703737954609096,-0.006501537747681141,0.016351431608200073
1772639539789337900,7.064337890625,-0.003995546139776707,-0.0029689313378185034,0.016588080674409866
1772639539799382800,7.0743828125,-0.007285082712769508,0.00022047036327421665,0.012057777494192123
1772639539809427700,7.084427734375,-0.010909849777817726,0.00110859633423388,0.003857985371723771
1772639539819473000,7.094472900390625,-0.011307725682854652,-0.0019835997372865677,-0.0033663716167211533
1772639539829517800,7.104517822265625,-0.01274569146335125,-0.0007518110796809196,-0.007804692257195711
1772639539839561700,7.114561767578125,-0.010707840323448181,-0.0020604883320629597,-0.011783188208937645
1772639539849606700,7.124606689453125,-0.010515904985368252,-0.0008701742626726627,-0.012080468237400055
1772639539859651800,7.13465185546875,-0.006897734012454748,0.001468081260100007,-0.009833293035626411
1772639539869696800,7.14469677734375,-0.007670833729207516,0.006330105476081371,-0.003213480580598116
1772639539879741700,7.15474169921875,-0.004915793426334858,0.010482505895197392,0.007136894389986992
1772639539889786600,7.16478662109375,-0.0058213938027620316,0.013231100514531136,0.014161510393023491
1772639539899831800,7.174831787109375,-0.006730597000569105,0.011345582082867622,0.015309332869946957
1772639539909876700,7.184876708984375,-0.014863358810544014,0.002555683720856905,0.009851563721895218
1772639539919922000,7.194921875,-0.019634146243333817,-0.002207912504673004,0.0031771494541317225
1772639539929966600,7.204966552734375,-0.023372845724225044,-0.002477658446878195,-0.005222827661782503
1772639539940011800,7.21501171875,-0.020776264369487762,0.0025900709442794323,-0.012926021590828896
1772639539950056000,7.225055908203125,-0.016222745180130005,0.004551292862743139,-0.01700669527053833
1772639539960100900,7.235100830078125,-0.01348208636045456,0.006173424422740936,-0.014451127499341965
1772639539970145800,7.245145751953125,-0.006267661228775978,0.008237390778958797,-0.012433432042598724
1772639539980190700,7.255190673828125,-0.006467664614319801,0.010328770615160465,-0.007624296471476555
1772639539990236000,7.26523583984375,-0.0029031175654381514,0.012197369709610939,-0.009166707284748554
1772639540000280800,7.27528076171875,-0.004509003832936287,0.014273037202656269,-0.01194278709590435
1772639540010325800,7.28532568359375,-0.004514925181865692,0.018220815807580948,-0.01752309873700142
1772639540020370700,7.29537060546875,-0.00752536254003644,0.020776383578777313,-0.024547984823584557
1772639540030416000,7.305415771484375,-0.010701228864490986,0.018693987280130386,-0.025420257821679115
1772639540040460800,7.315460693359375,-0.013366786763072014,0.01405236404389143,-0.021310733631253242
1772639540050506000,7.325506103515625,-0.010716377757489681,0.008095851168036461,-0.008791118860244751
1772639540060549600,7.335549560546875,-0.004908822476863861,0.009766984730958939,0.00401868624612689
1772639540070594800,7.3455947265625,0.0024994807317852974,0.007816235534846783,0.017308209091424942
1772639540080639700,7.3556396484375,0.007297697942703962,0.007330209016799927,0.024797551333904266
1772639540090685000,7.365684814453125,0.005832395050674677,0.007831101305782795,0.02394855208694935
1772639540100729300,7.375729248046875,0.003890151623636484,0.011346740648150444,0.019522910937666893
1772639540110774500,7.3857744140625,-0.00038812204729765654,0.015640830621123314,0.008165924809873104
1772639540120819500,7.3958193359375,0.001121623907238245,0.00953713245689869,-0.0036917999386787415
1772639540130864600,7.40586474609375,0.004121956415474415,0.021527105942368507,-0.005441504064947367
1772639540140909300,7.415909423828125,0.008764911442995071,0.02082003653049469,-0.01278943195939064
1772639540150954500,7.42595458984375,0.002968385349959135,0.021680135279893875,-0.020449737086892128
1772639540160999400,7.43599951171875,-0.006401148159056902,0.019270773977041245,-0.01600785180926323
1772639540171043600,7.446043701171875,-0.015475446358323097,0.018525056540966034,-0.008415079675614834
1772639540181088500,7.456088623046875,-0.022978637367486954,0.027447178959846497,-0.005238727666437626
1772639540191133400,7.466133544921875,-0.020250290632247925,0.024912556633353233,-0.001995986793190241
1772639540201178600,7.4761787109375,-0.009051698260009289,0.01904694363474846,0.00011083995923399925
1772639540211223600,7.4862236328125,0.000887062051333487,0.010750827379524708,0.004005457274615765
1772639540221268700,7.496268798828125,0.003959018271416426,0.006487372796982527,0.0003558616153895855
1772639540231313400,7.5063134765625,0.007563841994851828,0.00420726090669632,-0.005286938976496458
1772639540241358600,7.516358642578125,0.005147289484739304,0.00249591376632452,-0.009689411148428917
1772639540251403500,7.526403564453125,0.004112557508051395,0.0035056432243436575,-0.013672608882188797
1772639540261448700,7.53644873046875,-0.0031906291842460632,0.0015370345208793879,-0.01562550477683544
1772639540271492600,7.54649267578125,-0.005239132326096296,0.004383953753858805,-0.017274001613259315
1772639540281537500,7.55653759765625,-0.003938710782676935,0.00957445427775383,-0.013321338221430779
1772639540291582500,7.56658251953125,-0.0005159230204299092,0.013647764921188354,-0.011759638786315918
1772639540301627600,7.576627685546875,0.0035145049914717674,0.010983007028698921,-0.009833641350269318
1772639540311672600,7.586672607421875,0.004112839698791504,0.004928461275994778,-0.004952362272888422
1772639540321717500,7.596717529296875,0.005663864314556122,-0.0008551254868507385,0.0001561134122312069
1772639540331762400,7.606762451171875,0.00928425882011652,0.00013504363596439362,0.0035804258659482002
1772639540341807600,7.6168076171875,0.009418749250471592,0.008488314226269722,0.004956747405230999
1772639540351852500,7.6268525390625,0.009699085727334023,0.012391569092869759,0.0062972079031169415
1772639540361897500,7.6368974609375,0.0048577249981462955,0.014288804493844509,0.007078312803059816
1772639540371942400,7.6469423828125,0.0034984168596565723,0.0139096574857831,0.007905128411948681
1772639540381986600,7.656986572265625,0.004255020525306463,0.010181497782468796,0.007911786437034607
1772639540392031500,7.667031494140625,0.009759070351719856,0.011368343606591225,0.010138897225260735
1772639540402076400,7.677076416015625,0.010547898709774017,0.012802456505596638,0.009183621034026146
1772639540412121600,7.68712158203125,0.00897158868610859,0.01272577978670597,0.006310174707323313
1772639540422166500,7.69716650390625,0.0003053958062082529,0.012935103848576546,0.009535795077681541
1772639540432211700,7.707211669921875,-0.009231368079781532,-0.021983839571475983,0.022240662947297096
1772639540442256400,7.71725634765625,-0.010336047038435936,-0.021516188979148865,0.02834169752895832
1772639540452301600,7.727301513671875,-0.00869663618505001,-0.0024159112945199013,0.02665688656270504
1772639540462346500,7.737346435546875,-0.008679592050611973,-0.0005389153957366943,0.021622980013489723
1772639540472391700,7.7473916015625,-0.00867417175322771,-0.012988254427909851,0.01102830097079277
1772639540482436400,7.757436279296875,-0.006969748996198177,-0.0009094863198697567,0.0019027134403586388
1772639540492480500,7.76748046875,-0.0016900637419894338,0.02181149087846279,-0.0017713666893541813
1772639540502525700,7.777525634765625,0.0029672724194824696,0.029935196042060852,0.002300340449437499
1772639540512570600,7.787570556640625,0.006052357144653797,0.026750441640615463,0.010358337312936783
1772639540522615600,7.797615478515625,0.004421437159180641,0.018515149131417274,0.01984638161957264
1772639540532660500,7.807660400390625,0.003895791247487068,0.009801911190152168,0.02458859607577324
1772639540542705400,7.817705322265625,0.003746920730918646,0.001714423531666398,0.022098807618021965
1772639540552750600,7.82775048828125,0.0018960078014060855,-0.0015595576260238886,0.015011878684163094
1772639540562795500,7.83779541015625,0.0007891979767009616,-0.006537271663546562,0.007097763475030661
1772639540572840400,7.84784033203125,0.00024524040054529905,-0.006109378766268492,0.0008536064997315407
1772639540582885400,7.857885498046875,-0.003580390475690365,-0.006745075341314077,-0.005814415868371725
1772639540592930600,7.8679306640625,0.0020103673450648785,-0.003430396318435669,-0.006691120099276304
1772639540602974700,7.877974609375,0.009272009134292603,-0.002562472131103277,-0.005287101957947016
1772639540613019400,7.888019287109375,0.011724733747541904,0.0012793333735316992,-0.0009691398590803146
1772639540623064600,7.898064697265625,0.01733015477657318,0.0007770610973238945,0.004721236415207386
1772639540633109500,7.908109619140625,0.018230492249131203,-0.0016064515803009272,0.010361628606915474
1772639540643154700,7.91815478515625,0.01802356354892254,-0.0026584004517644644,0.017207549884915352
1772639540653199400,7.928199462890625,0.011707297526299953,-0.007350428029894829,0.020334281027317047
1772639540663244500,7.93824462890625,0.006570059806108475,-0.011036243289709091,0.020757723599672318
1772639540673289500,7.94828955078125,0.002897905185818672,-0.00841544196009636,0.01660017855465412
1772639540683334700,7.958334716796875,0.005220447666943073,-0.000792942475527525,0.017474761232733727
1772639540693379600,7.968379638671875,0.005620940122753382,0.0017511043697595596,0.01582617685198784
1772639540703423500,7.978423583984375,0.005306154489517212,0.003680564695969224,0.01092622708529234
1772639540713468700,7.98846875,0.00611067982390523,0.002850566292181611,0.005341054871678352
1772639540723513600,7.998513671875,0.005465129390358925,-0.007955475710332394,0.0009633507579565048
1772639540733558500,8.00855859375,0.004369615577161312,-0.009214451536536217,0.005821544211357832
1772639540743603500,8.018603515625,0.007609616965055466,-0.00953243300318718,0.01355642918497324
1772639540753648600,8.028648681640625,0.01364933792501688,-0.03343852609395981,0.024205263704061508
1772639540763693600,8.038693603515625,0.02468068338930607,-0.046464577317237854,0.030802713707089424
1772639540773738500,8.048738525390625,0.03255026042461395,-0.040747933089733124,0.026832018047571182
1772639540783783400,8.058783447265625,0.03348129987716675,-0.02784065529704094,0.008420253172516823
1772639540793828600,8.06882861328125,0.031184278428554535,-0.004384536296129227,-0.030091695487499237
1772639540803873500,8.07887353515625,0.026849716901779175,0.034083228558301926,-0.06517112255096436
1772639540813917700,8.088917724609376,0.012536699883639812,0.06094275042414665,-0.083268903195858
1772639540823962400,8.09896240234375,-0.000521844020113349,0.07246438413858414,-0.07429591566324234
