time,seconds_elapsed,z,y,x
1772731709403250700,0.077250732421875,-0.6653168433666229,0.17901479715257881,0.2035966460276395
1772731709413278700,0.08727880859375,-0.46243747876286506,0.20860256455615162,0.1966867753076367
1772731709423306800,0.097306640625,-0.2264221527546644,0.24288711147382855,0.16024004538739098
1772731709433334800,0.107334716796875,-0.00879646991789341,0.2517689215876162,0.12401042881654575
1772731709443363000,0.117363037109375,0.18433657669723033,0.3083082626722753,0.02157689947199542
1772731709453391000,0.12739111328125,0.24848551600277421,0.2987031067200005,-0.08121836672388016
1772731709463419000,0.1374189453125,0.2128413711696863,0.2618633223615587,-0.06631590808108448
1772731709473446000,0.14744580078125,0.11245850444436073,0.2655070856913924,-0.018535992839559912
1772731709483474000,0.157473876953125,0.016505729120969773,0.25640900247842074,-0.007647345548542216
1772731709493502000,0.167501953125,-0.01878711805641651,0.24345833549052476,0.0460233264983166
1772731709503530000,0.177530029296875,-0.026343232524394987,0.22206994889453052,-0.11390159765845163
1772731709513558000,0.18755810546875,0.4921276836276054,0.38384310386702414,-1.6257373076565562
1772731709523586000,0.1975859375,1.4343208557009697,0.3303285174310207,-0.06631848363066092
1772731709533613800,0.20761376953125,0.8955354657948017,0.42197219738364217,0.600587400759384
1772731709543641000,0.21764111328125,0.7496136676877737,0.11838014957830309,0.40271369895581155
1772731709553668900,0.2276689453125,0.5348977348178625,-0.17661825740486384,-0.0016535941596142946
1772731709563697200,0.237697265625,0.30124913794100283,-0.34510245432332154,0.2536822078630328
1772731709573725000,0.247724853515625,0.15105565386414527,-0.2904953964754939,0.3557920810440555
1772731709583753200,0.257753173828125,0.3713789052218199,-0.13608458696454762,0.1500921608605422
1772731709593781000,0.267781005859375,0.5903314527481794,-0.06617635347992182,-0.09940021236352622
1772731709603809000,0.27780908203125,0.8392547756463289,-0.0445247859030962,-0.28032612210074437
1772731709613836000,0.2878359375,0.9833347452789545,-0.04579539036080241,-0.32608101605437695
1772731709623863800,0.29786376953125,0.8821674501776695,-0.10763239946216344,-0.30125754044316705
1772731709633892000,0.30789208984375,0.7035030738979577,-0.17001418296471238,-0.28682838013423606
1772731709643920000,0.317919921875,0.7518857042729854,-0.07906199240759014,-1.1743329718224704
1772731709653948200,0.3279482421875,1.1655044993311166,0.211120538726449,-0.43762956604696807
1772731709663976000,0.337975830078125,0.42412031532824035,0.07192834113538264,0.07833870136803016
1772731709674004000,0.34800390625,-0.15855682327449322,-0.204443837441504,0.08498131772028282
1772731709684032000,0.358031982421875,-0.6254635564059019,-0.2373125262118876,-0.1612472131359391
1772731709694059000,0.36805908203125,-0.9266109875380992,-0.1768698940783739,0.17676687209531664
1772731709704087000,0.378087158203125,-1.0404729290395975,-0.04608195221722126,0.09109267674004659
1772731709714114800,0.38811474609375,-0.8250736900806427,0.08888590567708014,-0.0825283168112859
1772731709724143000,0.39814306640625,-0.5682201587051153,0.19198972179889678,-0.15261061908802948
1772731709734171000,0.4081708984375,-0.4026946654617786,0.24529022709280252,-0.20908386353338135
1772731709744199000,0.418198974609375,-0.3978010482013225,0.17482918203100561,-0.23420813045576214
1772731709754227000,0.42822705078125,-0.404583255687356,0.11103080972880125,-0.19928344073733315
1772731709764254200,0.438254150390625,-0.3447977722883224,0.10521642436161636,-0.11839719204464927
1772731709774282000,0.448281982421875,-0.2705196531563997,0.042197073607891794,-0.1309569508856628
1772731709784310000,0.45831005859375,-0.14163316100239753,-0.010424363380670546,-0.13945385333509183
1772731709794338000,0.468338134765625,0.02586392457485199,-0.038661300697177645,-0.019034389082062987
1772731709804366000,0.478365966796875,0.1258136605799198,-0.08525120243653654,0.06640690169963054
1772731709814394000,0.48839404296875,0.17868308098018168,-0.1415983819499612,0.11784980556126683
1772731709824422100,0.498422119140625,0.1639548829257488,-0.13973580294847487,0.16030742980148643
1772731709834450000,0.508449951171875,0.21064356886446475,-0.15653320849239824,0.22298277115682139
1772731709844477000,0.518476806640625,0.26564123346507545,-0.2503109778642654,0.26551388075836
1772731709854505000,0.5285048828125,0.23315759848952292,-0.32445100369974966,0.2929116273043677
1772731709864533000,0.538532958984375,0.22599662081897257,-0.37560368331000205,0.24921695381617173
1772731709874561000,0.54856103515625,0.17602058377265928,-0.37561917314007875,0.1896142613718286
1772731709884589000,0.558589111328125,0.07406418412029743,-0.33345746310651303,0.21283196402052415
1772731709894617000,0.5686171875,-0.038424715462327,-0.3039797319486737,0.23120211704019455
1772731709904644900,0.578644775390625,-0.09273790493011475,-0.186860542216897,0.22209438921604305
1772731709914671900,0.588671875,-0.16495032370388507,-0.08943637916669249,0.22025376631803809
1772731709924700000,0.598699951171875,-0.3647854983061552,-0.13381708042398094,0.3562591870991513
1772731709934728000,0.60872802734375,-0.43285716401338575,-0.11171835360154508,0.48487146542165427
1772731709944756000,0.618755859375,-0.4240460810482502,-0.07599149892106652,0.5396843115072697
1772731709954784000,0.628783935546875,-0.398167543426156,0.01194806581661105,0.5109028555179015
1772731709964812000,0.63881201171875,-0.2971002015680074,0.11283961271643637,0.454593852590397
1772731709974839800,0.64883984375,-0.21213936038017273,0.17004413971155882,0.31410299349091947
1772731709984868000,0.6588681640625,-0.13327800511121748,0.18316753291785717,0.2206214853855781
1772731709994895000,0.66889501953125,-0.028615269109606743,0.2329319730401039,0.1838718817949295
1772731710004923100,0.678923095703125,0.09417115260362624,0.2331055760413408,0.21252651480054482
1772731710014951000,0.688950927734375,0.2576268538355827,0.21102321583181619,0.21078717858623713
1772731710024979200,0.698979248046875,0.33170448195934293,0.18237082958221434,0.19679335922095922
1772731710035007000,0.709007080078125,0.35840368831455705,0.13309095810651778,0.24739479815661905
1772731710045035000,0.719034912109375,0.4811754969805479,0.125520522852242,0.3687208649937063
1772731710055063000,0.72906298828125,0.6149024149030446,0.12552782937586307,0.37209183926414696
1772731710065090000,0.739090087890625,0.8312988482058048,0.1364861535027623,0.27225016674343494
1772731710075118000,0.7491181640625,1.0237661243885754,0.11236088928878307,0.13577895508147775
1772731710085145900,0.759145751953125,1.002323523387313,0.09160860863924027,0.06396800694779958
1772731710095174100,0.769174072265625,0.8603057469815015,0.05011836812645196,0.11315996724460273
1772731710105202000,0.779201904296875,0.7204664836585521,0.017076807007193565,0.17633228007033466
1772731710115230200,0.789230224609375,0.5688742386996746,-0.006891220818459987,0.20231774866562335
1772731710125258000,0.799258056640625,0.42663960467278955,-0.018195289643108844,0.19980839619319885
1772731710135286000,0.8092861328125,0.22067221092581749,-0.009060089290142058,0.20809362865332512
1772731710145313000,0.81931298828125,0.08202069608271122,-0.030265958926081655,0.2498011286459863
1772731710155340800,0.8293408203125,0.009383914417028426,-0.06445084486156702,0.2888575661405921
1772731710165369000,0.839369140625,-0.010163082095980644,-0.08045739228874445,0.28788747899942096
1772731710175396900,0.84939697265625,0.0038859015226364135,-0.03302256415784359,0.19695667829019947
1772731710185425200,0.859425048828125,-0.012953589597344398,-0.01663052454441786,0.09425178922493942
1772731710195453000,0.869452880859375,-0.04919686936736106,-0.0534521887242794,0.10956932234149426
1772731710205481000,0.87948095703125,-0.07331833418905735,-0.11262187831252812,0.18370180419133975
1772731710215509000,0.889509033203125,-0.09469663778245449,-0.2041813871130347,0.25510771062150595
1772731710225536000,0.899535888671875,-0.05372983662188053,-0.24328823962062596,0.31964743934292345
1772731710235564000,0.90956396484375,0.05134615635573864,-0.2661705180361867,0.3414551107969135
1772731710245592000,0.919592041015625,0.1320446639239788,-0.3149383483365178,0.34559275859091426
1772731710255620000,0.9296201171875,0.2016746649891138,-0.3364142670854926,0.3099677933823317
1772731710265647900,0.93964794921875,0.21594576692581174,-0.3608393910288811,0.27674066482940685
1772731710275676000,0.949676025390625,0.16855857732892035,-0.32594957169443367,0.2593911783606745
1772731710285704000,0.959703857421875,0.060980830663442606,-0.2731117154762149,0.17369349253196267
1772731710295731000,0.96973095703125,-0.06557458819448947,-0.2308607197239995,0.08578083406751975
1772731710305759000,0.979759033203125,-0.15084697954952717,-0.15020955842882394,0.0490471084660152
1772731710315787000,0.989787109375,-0.18602526043653486,-0.09273132905885577,0.017823593086772598
1772731710325815000,0.99981494140625,-0.207657246530056,-0.09468538573607801,-0.02530958547758637
1772731710335843000,1.009843017578125,-0.1713666204869747,-0.11064195654168725,-0.05178725575332064
1772731710345870800,1.019870849609375,-0.15173954447507856,-0.12988602458536624,-0.018351079568086424
1772731710355899100,1.029899169921875,-0.09628887540996074,-0.11081424436867236,-0.016882865612470776
1772731710365927000,1.039927001953125,-0.06469663631618022,-0.1069428097628057,-0.04433351024785079
1772731710375954000,1.049953857421875,-0.055742930009961125,-0.10144260491132735,-0.09333476571156643
1772731710385982000,1.05998193359375,-0.051235681718587875,-0.11036080151274799,-0.0855948465087451
1772731710396010000,1.070010009765625,-0.023903438156843183,-0.10181786796450615,-0.10105793470898643
1772731710406038000,1.0800380859375,-0.0057195466905832285,-0.09932239788696169,-0.1342042896432802
1772731710416066000,1.090066162109375,0.03162555684149265,-0.12602920302674173,-0.1341190681783948
1772731710426094000,1.100093994140625,0.07774491845965385,-0.14516586517319083,-0.10448916953299194
1772731710436121900,1.110121826171875,0.05381459229588508,-0.19789543871134518,-0.03630251741027459
1772731710446148900,1.12014892578125,0.01977496004998684,-0.23742826154604552,0.04945961652335245
1772731710456177000,1.130177001953125,0.005040332254767418,-0.22652210599780082,0.10195545893744565
1772731710466205000,1.140204833984375,0.03300327493548393,-0.22297245069220661,0.0841003975667525
1772731710476232700,1.150232666015625,0.005061375042796135,-0.24658918086215853,0.10179285225425846
1772731710486261000,1.160260986328125,0.011692775881290435,-0.26170447853803636,0.12433047281745821
1772731710496288800,1.170288818359375,-0.013166940087080001,-0.2454388417832553,0.12904438612945376
1772731710506316800,1.18031689453125,0.0002811550289392471,-0.23409780194908378,0.1333082906516269
1772731710516344800,1.1903447265625,0.0561100097566843,-0.21254253435358403,0.13806032575061544
1772731710526371800,1.200371826171875,0.03768646431565285,-0.20433643154427408,0.13229611793439836
1772731710536400000,1.21039990234375,0.006038695642352104,-0.2034117179147899,0.0886796059826389
1772731710546428000,1.220427978515625,-0.03005436200201511,-0.15329729531109332,0.14957156191938556
1772731710556456000,1.2304560546875,-0.05758885013759136,-0.11631138048022985,0.2392456314326264
1772731710566484000,1.24048388671875,-0.101833065533638,-0.12038228318095207,0.22468383945366366
1772731710576511700,1.25051171875,-0.16320318777561188,-0.1339193717546761,0.19044868463566525
1772731710586540000,1.2605400390625,-0.19964286690056324,-0.09771233234182,0.20082793023297563
1772731710596567800,1.27056787109375,-0.15548399170041083,-0.05113777430206537,0.2166252370899543
1772731710606594800,1.2805947265625,-0.03846446295082569,-0.04045592902898788,0.2508145800048485
1772731710616622800,1.290622802734375,0.03967383874058723,-0.031228228086978196,0.26419079719474536
1772731710626651000,1.30065087890625,0.06880407163500786,0.015705518653988837,0.1773931142348796
1772731710636679000,1.310678955078125,0.13759879091978072,0.06933101811856031,0.08496697866767644
1772731710646707000,1.32070703125,0.19515432330965995,0.05330445081666112,-0.005434934762655757
1772731710656735000,1.33073486328125,0.2567003866404295,-0.02353650454059243,0.028359522516559807
1772731710666762800,1.3407626953125,0.305752879101038,-0.09090513654500246,0.14503066708673723
1772731710676790000,1.3507900390625,0.30800738002955913,-0.15073489747717975,0.2956599030992016
1772731710686817800,1.36081787109375,0.21272563583552836,-0.23819325456917284,0.36788664265926924
1772731710696845800,1.370845703125,0.0975935282677412,-0.218867791852355,0.32165410299021746
1772731710706873900,1.380873779296875,0.0647018970131874,-0.08633563667237758,0.20909705180851743
1772731710716902000,1.39090185546875,0.118785953900218,-0.007234189037233591,0.12009454314759932
1772731710726930000,1.400929931640625,0.15999299355745314,-0.0020304829142987727,0.020478852269332853
1772731710736957700,1.410957763671875,0.14649404503703117,-0.033435821133852,0.03268859666285571
1772731710746986000,1.420986083984375,0.04762859713733196,-0.07024550261497498,0.12802698011468164
1772731710757012700,1.4310126953125,-0.05000818575024604,-0.08730959627106785,0.16583861431311814
1772731710767041000,1.441041015625,-0.12965864557027815,-0.026127251686155796,0.19470584888979792
1772731710777068800,1.45106884765625,-0.10238894585072994,-0.01392594176083803,0.16118613059846684
1772731710787097000,1.46109716796875,-0.05268295791745185,0.03033200989961624,0.13657403271561488
1772731710797124900,1.471124755859375,-0.09036299249231815,0.038811084431409834,0.1685787250678055
1772731710807153000,1.48115283203125,-0.08782967462241649,0.058810062495619056,0.12514085761858149
1772731710817181000,1.491180908203125,-0.06471300292909145,0.08879998095929623,0.08288916774662211
1772731710827207700,1.501207763671875,-0.07420797650516033,0.0856613906726241,0.06804436670835129
1772731710837236000,1.511236083984375,-0.06937339595556259,0.07139394199773669,0.0692315123999957
1772731710847263700,1.521263671875,-0.028846155256032943,0.08443842474892735,0.06000251911662053
1772731710857292000,1.5312919921875,0.040455344507098194,0.10958747905269264,0.0818633135639131
1772731710867319800,1.54131982421875,0.12240823605060577,0.09420549326464533,0.07724423892851918
1772731710877347800,1.551347900390625,0.14164485144019126,0.03447363974899054,0.034790213151182976
1772731710887376000,1.5613759765625,0.12858663242459295,0.08566533619537949,-0.03616273904682603
1772731710897404000,1.57140380859375,0.11095336057841777,0.15889876857995985,-0.03108233050999697
1772731710907431000,1.581430908203125,0.08929156386852263,0.17718407459408045,0.005741662624268792
1772731710917458700,1.591458740234375,0.08987316314876079,0.16904723762869833,-0.035097183041390964
1772731710927487000,1.601487060546875,0.06803600987195968,0.1660427951157093,-0.05684879519289825
1772731710937514800,1.6115146484375,0.058787120011448854,0.2035027571991086,-0.02227842163774185
1772731710947542800,1.621542724609375,0.04236205491125583,0.18822101691514254,0.001417045457381755
1772731710957570800,1.63157080078125,0.06631225481927394,0.154612761823833,-0.007126801406312734
1772731710967598800,1.641598876953125,0.13325696232318876,0.18506781358122826,-0.04133861188134178
1772731710977625900,1.6516259765625,0.16598083579540251,0.19491291576921937,-0.030959192754095418
1772731710987654000,1.66165380859375,0.18174597568213938,0.15737959618866443,-0.02603022105246782
1772731710997682000,1.671681884765625,0.17551438781619072,0.16593319726139305,-0.02083626913856715
1772731711007710000,1.6817099609375,0.2097954276025295,0.18306378028243778,-0.04290684757875279
1772731711017738000,1.691738037109375,0.21583353872299194,0.1611579456835985,-0.021529713029135016
1772731711027766000,1.70176611328125,0.20063421602547168,0.13278291507065296,-0.0029591055339202284
1772731711037793800,1.711793701171875,0.18817045577168465,0.12101765847504138,0.0021571506344247606
1772731711047822000,1.721822021484375,0.2124631855070591,0.14031272605359554,0.03895519647668116
1772731711057848800,1.731848876953125,0.25588673216998575,0.15101707541942597,-0.004779644625121727
1772731711067876900,1.741876953125,0.2848188121438026,0.15246376709640025,-0.07347159765516408
1772731711077905000,1.75190478515625,0.36943946159183977,0.1909434276163578,-0.119265782439569
1772731711087933000,1.761932861328125,0.528466240465641,0.1850783349752426,-0.19555866632685065
1772731711097961000,1.7719609375,0.8146049030363559,0.054495560297369953,-0.16110734800752252
1772731711107988700,1.78198876953125,1.0202940643638372,-0.11311448413506149,-0.06138020524457097
1772731711118017000,1.79201708984375,1.0485726488649845,-0.21794453952759504,0.1057631532578729
1772731711128044800,1.802044921875,0.8973357932150363,-0.23151728393658993,0.24778423586562273
1772731711138071800,1.81207177734375,0.5710340470820665,-0.20614844940230248,0.33009836193695663
1772731711148099800,1.822099853515625,0.12002221769690513,-0.16230813863202928,0.33794907543733715
1772731711158127900,1.8321279296875,-0.34344752672314643,-0.13145078968405724,0.26120420086570084
1772731711168156000,1.842156005859375,-0.7071773784965276,-0.06902823577970266,0.12559974383460357
1772731711178183700,1.85218359375,-0.947977016171813,0.02312733921781182,-0.04821302312889602
1772731711188212000,1.8622119140625,-1.1414426557421684,0.1422311268955469,-0.22204510671421884
1772731711198239700,1.87223974609375,-1.2033254036813974,0.19951807147711514,-0.3170547194359824
1772731711208267000,1.88226708984375,-1.2013093876838683,0.219965377830714,-0.3721364090582356
1772731711218294800,1.892294677734375,-1.0884376262634992,0.22915113932713865,-0.3714184335146099
1772731711228323000,1.902322998046875,-0.9179004423379897,0.187948775845021,-0.2513072588926181
1772731711238350800,1.912350830078125,-0.7252724226355552,0.11990619010180234,-0.12966474651750176
1772731711248379000,1.92237890625,-0.47454994136095047,0.017633417976647615,-0.07452560935327783
1772731711258407000,1.932406982421875,-0.20902210514247416,-0.04062982429116964,0.0038117037752643224
1772731711268434700,1.9424345703125,0.08588847742676735,-0.09966419706195592,0.09887708353856578
1772731711278462000,1.9524619140625,0.3152612966805696,-0.1294894264832139,0.10034629757460206
1772731711288489700,1.96248974609375,0.3301847250461578,-0.13485606808289885,0.010347096893377601
1772731711298518000,1.97251806640625,0.2350011805295944,-0.07079802193120122,-0.08025474585611372
1772731711308545800,1.9825458984375,0.1285813717275858,0.02373714167922735,-0.14591858323663473
1772731711318573800,1.99257373046875,0.06613105303347111,0.09911255452856421,-0.21545960911037398
1772731711328601900,2.002601806640625,0.04593056104779243,0.11475757516697048,-0.27736917199129235
1772731711338630000,2.0126298828125,0.030334347987174985,0.15750760648250578,-0.32271643499210473
1772731711348658000,2.022657958984375,0.10067103601694107,0.19134879354685544,-0.3656752136874944
1772731711358684700,2.0326845703125,0.17201427074074743,0.20148542602732777,-0.4083252917598933
1772731711368713000,2.042712890625,0.23434242435991762,0.18895619932189583,-0.45878889312744137
1772731711378740700,2.05274072265625,0.2926110734552145,0.17082725291326642,-0.4593357498878613
1772731711388769000,2.06276904296875,0.31248189509510993,0.1849978170849383,-0.44536662657242265
1772731711398796800,2.072796875,0.2960831334799528,0.17579773480221628,-0.4382631512427702
1772731711408824800,2.082824951171875,0.24743045399188993,0.14413184595033526,-0.40333285376746203
1772731711418852900,2.092852783203125,0.22157003654837606,0.15754998431950806,-0.3731222417578101
1772731711428880000,2.1028798828125,0.18597206894457338,0.1798740443304181,-0.37553054500855504
1772731711438908000,2.112907958984375,0.12166706229448318,0.19869521078690885,-0.36016470663771033
1772731711448936000,2.12293603515625,0.11973463292717933,0.16876330612078308,-0.3212948046911508
1772731711458964200,2.132964111328125,0.14147767817974088,0.16750585340559482,-0.2652836521990597
1772731711468992000,2.142991943359375,0.1757370906561613,0.16024229214340446,-0.23040999854812397
1772731711479020000,2.15302001953125,0.12604688481390475,0.1512570216551423,-0.17793891154937444
1772731711489048000,2.163048095703125,0.10290157154798507,0.16455635595023632,-0.13449132642373443
1772731711499075800,2.173075927734375,0.12688508920371533,0.192162740278244,-0.12219367998447268
1772731711509103000,2.18310302734375,0.10139233602881431,0.19818331574201584,-0.12404604811919852
1772731711519131000,2.193130859375,0.014806523987650871,0.21548238719776272,-0.11403730720155872
1772731711529159200,2.2031591796875,-0.14992109687626362,0.2144811012007296,-0.1156094884217251
1772731711539187000,2.21318701171875,-0.20564532218575476,0.22210458181649445,-0.1593365754753351
1772731711549215000,2.223215087890625,-0.08363748362958431,0.2555415719941258,-0.1538939460299909
1772731711559243000,2.233242919921875,0.0502718051224947,0.23434461631700396,-0.14274018152938223
1772731711569271000,2.24327099609375,0.160478146725893,0.184916276281327,-0.07909817796582355
1772731711579299000,2.253299072265625,0.197356801789999,0.13623247100263833,-0.0892287825643085
1772731711589325800,2.263325927734375,0.2154331412285566,0.09904650355502963,-0.06002226956328377
1772731711599354000,2.27335400390625,0.1960667619794607,0.08508651339411735,0.023624968275334685
1772731711609382000,2.2833818359375,0.2090636061966419,0.05891220769584179,0.025487044953322036
1772731711619410000,2.293409912109375,0.2218178738296032,0.015495967556536197,-0.038558872369164596
1772731711629438000,2.30343798828125,0.24660218647420404,0.01445318050533533,-0.07677330608167685
1772731711639466000,2.313466064453125,0.21197277164161205,0.008641571617126465,-0.0593224141982384
1772731711649494000,2.323493896484375,0.14445932433903216,-0.022586948730796575,-0.05238286072602495
1772731711659521000,2.33352099609375,0.13371873461604117,-0.015894757615774868,-0.05669619388049468
1772731711669549000,2.343549072265625,0.21802081963419914,-0.006010200200229882,-0.08768348021791315
1772731711679577000,2.3535771484375,0.27616028939187526,-0.028920827927440402,-0.08428871407993137
1772731711689605000,2.363605224609375,0.25288462774455545,-0.04156885870695114,-0.059510799210076216
1772731711699633200,2.373633056640625,0.16971476162672042,-0.08524491882622241,-0.004203758133039809
1772731711709661000,2.383660888671875,0.00505202269256115,-0.11464724666029215,0.03771680465498939
1772731711719689000,2.39368896484375,-0.1391284847050905,-0.07449716871008276,0.029338843276957047
1772731711729717000,2.403717041015625,-0.25999709009826183,-0.027734979143738746,-0.048753139621275476
1772731711739744000,2.413743896484375,-0.26734219216406346,0.04946136552244425,-0.16933573571387678
1772731711749772000,2.42377197265625,-0.21239888809919355,0.1369074476547539,-0.2498310671265237
1772731711759800000,2.433800048828125,-0.21488778230547903,0.1523297654531896,-0.3082907270155847
1772731711769828000,2.443828125,-0.26349370004236694,0.14700886269137262,-0.3567841973539442
1772731711779856000,2.45385595703125,-0.3192226015269756,0.13942834443449972,-0.335132081787847
1772731711789884200,2.46388427734375,-0.3912538185149431,0.12226064427345991,-0.316682707785815
1772731711799912000,2.473911865234375,-0.37901393014490603,0.1014246308632195,-0.2723044542139396
1772731711809939000,2.48393896484375,-0.2278209136366844,0.11021204069182276,-0.23865727361803873
1772731711819967000,2.493967041015625,-0.07661328408122062,0.11563333508819341,-0.2581148382819258
1772731711829995000,2.5039951171875,0.027725042271614073,0.07746683217063546,-0.2522169028171338
1772731711840023000,2.51402294921875,0.06635024874210357,0.11249898258522152,-0.17766193950520828
1772731711850050800,2.52405078125,0.09693418757617472,0.11798574343323708,-0.14524521401971577
1772731711860079000,2.5340791015625,0.06973463048338889,0.06741144823282956,-0.1311563002495095
1772731711870107000,2.54410693359375,0.047776481175422665,0.06007379882112145,-0.11797552343332209
1772731711880135200,2.55413525390625,0.02339431959092617,0.06607479280158877,-0.06637987669538706
1772731711890162000,2.564161865234375,0.06228548352122307,0.024192776492238045,0.014611311942804604
1772731711900190200,2.574190185546875,0.13931085553467273,-0.01084536527171731,0.03652685965148266
1772731711910218000,2.584218017578125,0.2249316219359636,-0.036273382647335525,0.02306809244439937
1772731711920246000,2.59424609375,0.27254034532904625,-0.04389569421932101,0.030157991339848374
1772731711930274000,2.604274169921875,0.22532792777717112,-0.05609145118668675,0.09131126052732579
1772731711940301800,2.6143017578125,0.18082652274966238,-0.06255261002480983,0.09558080020584166
1772731711950330000,2.624330078125,0.1641302394926548,-0.06713248516097664,0.0759301652218448
1772731711960356900,2.63435693359375,0.16900281396508215,-0.06580313625335693,0.0664047371420078
1772731711970385200,2.64438525390625,0.17793255487382412,-0.05931304358169436,0.07727920064404606
1772731711980413000,2.654412841796875,0.20126257705688474,-0.07095540444999933,0.07263258041460066
1772731711990441000,2.66444091796875,0.19138123451173306,-0.050031420495361086,0.06422659851848148
1772731712000469000,2.674468994140625,0.09502397004067897,-0.02351867662295699,0.07400260839248075
1772731712010497000,2.6844970703125,-0.00016366612911224363,-0.03357245312556624,0.08400565935485065
1772731712020525000,2.694525146484375,-0.12671499333381653,-0.015426555582135916,0.07689105984298512
1772731712030553000,2.704552978515625,-0.23592589415907858,0.032285628185421224,0.08587285059937276
1772731712040580000,2.714580078125,-0.2844844656229019,0.05048457109034061,0.03422556500574574
1772731712050607900,2.72460791015625,-0.2915823149293661,0.07568769366890192,-0.033606282329931854
1772731712060636200,2.73463623046875,-0.23917642038762568,0.09451689730137586,-0.04352746369512751
1772731712070664000,2.744663818359375,-0.13211539107263087,0.0925391674876213,-0.04213705964949913
1772731712080692000,2.75469189453125,-0.040886721661686894,0.06900865429639816,-0.034212394996918735
1772731712090720000,2.764719970703125,0.014748656320571898,0.05985708733052015,-0.04312429885487072
1772731712100748000,2.774748046875,0.033957799181342126,0.05540843735858798,-0.03362204615464434
1772731712110775000,2.784775146484375,0.012387772408127783,0.026113369291275737,0.025957283680420367
1772731712120803000,2.794802978515625,0.028607670325040815,-0.012625088295340538,0.024193580209836363
1772731712130831000,2.8048310546875,0.0911275471240282,-0.011038695886731146,-0.00242029508263804
1772731712140859000,2.81485888671875,0.15845160933434962,0.007993921363353728,-0.038813659980986265
1772731712150887000,2.824886962890625,0.1921282534867525,0.011215367627888917,-0.10632773747122846
1772731712160915000,2.8349150390625,0.21486849308311937,0.004291413583606482,-0.14358354615150018
1772731712170943000,2.84494287109375,0.21133681182563305,0.0017563421480357646,-0.10399794281679205
1772731712180971000,2.854970947265625,0.20419804598689079,0.003983516678214073,-0.08273655273448675
1772731712190998000,2.864998046875,0.21920038480758666,-0.01359992467686534,-0.06505117624173871
1772731712201026000,2.875026123046875,0.23108663743436336,-0.03404693876951933,-0.09424171535549684
1772731712211054000,2.88505419921875,0.23170973776876924,-0.004130377802997827,-0.12058654618193394
1772731712221081900,2.895081787109375,0.2101005480289459,0.012973024950176477,-0.13095485026012174
1772731712231110100,2.905110107421875,0.12564999445080757,0.004441197317838669,-0.14900885000270792
1772731712241138000,2.915137939453125,0.024467501780390737,0.0004141337588429451,-0.12739505715300328
1772731712251166200,2.925166259765625,-0.012654898911714552,-0.01493263458535075,-0.07711113233445212
1772731712261193000,2.93519287109375,-0.027315292426943777,-0.0010321195267140864,-0.0472559096337296
1772731712271221000,2.945220947265625,0.014650456643104553,-0.04686316572278738,-0.015204373331973327
1772731712281249000,2.9552490234375,0.1029787284374237,-0.08656184664368628,0.0017859427018556743
1772731712291277000,2.965277099609375,0.12560323269963264,-0.07390957808047532,-0.04888360216710716
1772731712301305000,2.97530517578125,0.06528115820586682,-0.07184826163649559,-0.10846968140336684
1772731712311332900,2.985332763671875,-0.023263386687636375,-0.04137304387390613,-0.13885949503798037
1772731712321361200,2.995361083984375,-0.10101415036618709,-0.024003099139034745,-0.14461119956565088
1772731712331389000,3.005388916015625,-0.09499708203375339,-0.010991495744138956,-0.1279810494805686
1772731712341416200,3.015416259765625,-0.0597743774831295,-0.058740065999329086,-0.135800180532597
1772731712351444000,3.02544384765625,-0.023624621215462684,-0.04404430890977382,-0.14365280286227353
1772731712361472000,3.035471923828125,0.04091302514672279,-0.0330820392601192,-0.1660556911299005
1772731712371500000,3.0455,0.09984802919626236,-0.014434183543920516,-0.15608782107876612
1772731712381527800,3.05552783203125,0.1377215405166149,-0.03847250012680888,-0.16933180845743045
1772731712391556000,3.06555615234375,0.15512743334770202,-0.04496799962595105,-0.15809841198250651
1772731712401583900,3.075583984375,0.12538462151288984,-0.05151508318185806,-0.11344329596431925
1772731712411612200,3.085612060546875,0.083873045951128,-0.049699412062019103,-0.10084377136849798
1772731712421639000,3.095638916015625,0.03928571620583534,-0.03509995495378971,-0.1431923000779003
1772731712431667200,3.105667236328125,0.01790565904676914,-0.02686798705086112,-0.17157467374708502
1772731712441695700,3.11569580078125,0.02787292630970478,0.015104045629501342,-0.18456965480074286
1772731712451723800,3.125723876953125,0.009524199670553207,0.025387685365229843,-0.19638514374624938
1772731712461751800,3.135751708984375,0.034274025523662564,0.012424305026233196,-0.1287584818601608
1772731712471779800,3.14577978515625,0.0016448445975780486,0.01740223956927657,-0.06616216055778786
1772731712481807600,3.1558076171875,-0.010879705932736397,0.008908551990240812,-0.04683854273818433
1772731712491835000,3.1658349609375,-0.062134676873683924,-0.005494067371636629,-0.06078468703683465
1772731712501862700,3.175862548828125,-0.07987082457244396,0.012907266237586736,-0.062061154979746784
1772731712511891000,3.185890869140625,-0.12606558951437472,0.005200491252541542,0.062042094086250284
1772731712521918700,3.195918701171875,-0.1776496462792158,-0.03386427567899227,0.12730494031729175
1772731712531947000,3.205947021484375,-0.15306640916466713,-0.053733782144635915,0.11992362529379315
1772731712541974800,3.215974853515625,-0.033549802902340886,-0.0588265752390027,0.07417848554919473
1772731712552002800,3.2260029296875,0.1565793857216835,-0.06356105641499162,0.05396128902388736
1772731712562030800,3.23603076171875,0.29905075111389157,-0.1017224447660148,0.04139800478522666
1772731712572057600,3.2460576171875,0.3350572995185852,-0.1333490245208144,0.04834130285079591
1772731712582086000,3.2560859375,0.289898307365179,-0.15656827980577945,0.12861588591854087
1772731712592113700,3.26611376953125,0.18878478827774522,-0.14209361812099813,0.16705275760954244
1772731712602142000,3.276141845703125,0.11333937893211841,-0.11255436603426933,0.1730813885156065
1772731712612169700,3.286169677734375,0.1489063668757677,-0.10015928710252046,0.15801920926645396
1772731712622197800,3.29619775390625,0.2766284914255142,-0.0681738109074533,0.13155598535789176
1772731712632225800,3.306225830078125,0.3641466158807277,-0.06519713318422436,0.11364472768739796
1772731712642252800,3.316252685546875,0.33201310951709745,-0.08561082952916621,0.10634203999121673
1772731712652280800,3.32628076171875,0.22504677274823187,-0.12347425784692168,0.1677231859507039
1772731712662308600,3.33630859375,0.07960252902507782,-0.12384469859451054,0.1739387725299224
1772731712672337000,3.3463369140625,-0.03825461959242821,-0.11653583688586949,0.1559961059410125
1772731712682364700,3.35636474609375,-0.06509352667927741,-0.08157105261906981,0.128937208561087
1772731712692392700,3.366392822265625,-0.03993804263472557,-0.017241349919140336,0.061510576458857394
1772731712702420700,3.376420654296875,-0.026455460727214813,0.00818126062899828,-0.028032660615793428
1772731712712448800,3.38644873046875,-0.02037000333368778,-0.0035682138755917547,-0.032287436550017444
1772731712722475800,3.396475830078125,-0.07812310412228107,-0.02605579388514161,0.0162985754765803
1772731712732503800,3.40650390625,-0.124811790060997,-0.03854951088577509,0.011985287987883201
1772731712742531800,3.41653173828125,-0.08191139048933982,-0.012027414663136005,-0.006174950891442131
1772731712752559900,3.426559814453125,-0.002149286988377571,-0.000706102442741394,-0.02238717239197576
1772731712762588000,3.436587890625,0.08268529747128486,0.0027593817107379433,-0.02694906206359155
1772731712772616000,3.446615966796875,0.1282271514624357,-0.0010275894820690155,-0.05996764416606165
1772731712782643700,3.456643798828125,0.12025076575577258,-0.01803966068997979,-0.04951655717524699
1772731712792670700,3.466670654296875,0.11308511191010474,-0.00043970659151673316,-0.03257592093546409
1772731712802698800,3.47669873046875,0.05684066211879253,-0.021322043361514807,-0.023154761514277197
1772731712812726800,3.486726806640625,0.034308512315154076,-0.03762523564770818,-0.06065449391906149
1772731712822754800,3.4967548828125,0.027024785047769544,0.0025261574767529963,-0.09451950025041587
1772731712832782800,3.506782958984375,0.04311901075839996,0.05104381240829825,-0.14257137343427165
1772731712842811000,3.516810791015625,0.029927520751953124,0.04130874646604061,-0.1458005280812271
1772731712852838700,3.526838623046875,0.011269582033157349,0.010626754084974526,-0.10109580076765269
1772731712862867000,3.536866943359375,-0.031362521991133686,0.0019067104041576384,-0.038111080652603414
1772731712872893700,3.546893798828125,-0.03469663484990597,-0.0019590251132845875,-0.007825017370120622
1772731712882921700,3.556921630859375,-0.0231359609156847,-0.010635083521902561,0.019775950997252947
1772731712892949800,3.56694970703125,0.009773790517449378,-0.013280045072734356,0.008313616021105554
1772731712902977800,3.576977783203125,0.025114567512273787,-0.009701602064073086,-0.030189135396783237
1772731712913005800,3.587005859375,-0.01415478208065033,0.015545651917159557,-0.029525705335277597
1772731712923033600,3.59703369140625,-0.08122223918139934,0.045587446698546405,-0.027380818244093098
1772731712933062000,3.607061767578125,-0.18827157805860043,0.03876958337724209,0.0008027723168255761
1772731712943089000,3.6170888671875,-0.25843407856523987,0.03448006948977709,0.0127283705733018
1772731712953117000,3.627116943359375,-0.29188509726822376,0.06314560748189688,-0.03238707013274543
1772731712963144700,3.637144775390625,-0.25599896037280556,0.050667818702757356,-0.04087296256439294
1772731712973173000,3.647173095703125,-0.1916968763321638,0.06484101322293281,-0.04800839480173308
1772731712983200800,3.65720068359375,-0.13267770113050936,0.05761310779601335,-0.05002320978944189
1772731712993228800,3.667228759765625,-0.06038286477029323,0.04455021260529756,-0.0567081583129242
1772731713003256800,3.6772568359375,0.037010757011175156,0.038541619840264316,-0.015610392283019608
1772731713013284600,3.68728466796875,0.12259469853341579,0.00483019663542509,-0.01920719749885611
1772731713023312000,3.697311767578125,0.18248481135070324,-0.01210252572596073,-0.03460470964959823
1772731713033339600,3.707339599609375,0.28005495874285696,-0.0007405892342329024,-0.04298874000881333
1772731713043368000,3.717367919921875,0.3230219938099384,-0.004352349990606308,-0.006676596253667958
1772731713053395700,3.727395751953125,0.2947159367799759,-0.019416355870664117,0.02555880414843559
1772731713063423700,3.737423828125,0.2575052732825279,-0.023998715224862098,0.03320187081408221
1772731713073451800,3.74745166015625,0.19721125583946703,0.011809387998282909,-0.016658403498609548
1772731713083479800,3.757479736328125,0.15651625735759733,0.0320700857385993,-0.04431873280382715
1772731713093506800,3.7675068359375,0.17038520823419093,0.03192278622239828,-0.038564183298521675
1772731713103534600,3.77753466796875,0.16503741746544837,0.046452831356227395,-0.01981914625158533
1772731713113563000,3.78756298828125,0.14844751719236374,0.06007774434387683,0.018566200748155823
1772731713123590700,3.797590576171875,0.07352408589422703,0.031257308050990106,0.054196691515226846
1772731713133619000,3.807618896484375,-0.015327332991361617,0.05032002817839384,0.055394043507054444
1772731713143646700,3.817646728515625,-0.06507599102258682,0.06806874309778213,0.07163255479289218
1772731713153674800,3.8276748046875,-0.098321258020401,0.05864508119225502,0.056832656908850185
1772731713163702800,3.837702880859375,-0.08309563183784484,0.04594897348731756,0.04177630917886272
1772731713173729800,3.847729736328125,-0.031071430090069768,0.04301730394959449,0.0767984131234698
1772731713183757800,3.8577578125,0.01910509796440601,-0.0062134676873683925,0.10013601582478732
1772731713193785900,3.867785888671875,0.055582771012187,-0.05611439367085695,0.11536250052386894
1772731713203814000,3.87781396484375,0.0648328299164772,-0.07772036854028701,0.11232091347142122
1772731713213842000,3.887842041015625,0.006309329277276993,-0.07871902418881654,0.12245931778387166
1772731713223869700,3.89786962890625,-0.008045943811535835,-0.09419014956504106,0.13678386694085784
1772731713233897700,3.907897705078125,-0.003916881182789802,-0.11362462561428546,0.18304244523346422
1772731713243924700,3.9179248046875,0.029082886621356007,-0.10164923339933156,0.17116053998824207
1772731713253952800,3.927952880859375,0.09103577718734741,-0.10536737713962793,0.17886110442820935
1772731713263980800,3.937980712890625,0.15694178929328917,-0.10733253973275422,0.16738368833065032
1772731713274008800,3.9480087890625,0.20034020151495932,-0.08706979616582393,0.13426890671155414
1772731713284036900,3.958036865234375,0.16431553293168544,-0.07684387796670197,0.151692216468323
1772731713294064600,3.968064697265625,0.06470949579775333,-0.07113046875596046,0.11626405247347428
1772731713304093000,3.978093017578125,-0.01801145750880241,-0.039946518202126025,0.015453617118997499
1772731713314120700,3.98812060546875,-0.058874213773012156,0.0006774608701467514,-0.04079137152843177
1772731713324147700,3.998147705078125,-0.008201426634192465,0.026571488322317597,-0.05170770141081884
1772731713334175700,4.00817578125,0.05175882880985737,0.015887304961681364,-0.027775749545544383
1772731713344203800,4.018203857421875,0.0832236421316862,-0.0026402853757143017,-0.07922291859034448
1772731713354231800,4.028231689453125,0.11204700103402138,0.02603285140097141,-0.12783914765869267
1772731713364259800,4.038259765625,0.1758405510306358,0.03825666541904211,-0.14696008251304737
1772731713374288000,4.048287841796875,0.2582189745098352,0.02706774740666151,-0.10348444033670239
1772731713384315600,4.058315673828125,0.3288648746192455,0.028858137954771518,-0.045787590646836906
1772731713394343000,4.068343017578125,0.27213001096248624,0.030805472630262374,-0.05126024077110924
1772731713404370700,4.07837060546875,0.16448504427969454,0.053419747759401795,-0.07622388290483505
1772731713414399000,4.08839892578125,0.13135142096281052,0.0755471161544323,-0.10091943955374881
1772731713424426800,4.0984267578125,0.17368775691092014,0.08396949206292628,-0.13632184805283323
1772731713434454800,4.108454833984375,0.2873170587003231,0.045963586534559724,-0.13575268812905997
1772731713444482300,4.118482421875,0.4072954372555017,0.029342998862266538,-0.09371968250907957
1772731713454510300,4.12851025390625,0.39469372983574863,0.037682664923369885,-0.053708350875857284
1772731713464538400,4.138538330078125,0.18863631971776484,0.014725859966874122,-0.06403321310454048
1772731713474565400,4.1485654296875,-0.023166940575838086,0.06733867525756358,-0.1268614891324192
1772731713484593400,4.158593505859375,-0.12527063974440097,0.1485904327943921,-0.1978174963706173
1772731713494621200,4.16862109375,-0.12721534407138824,0.15227993496209383,-0.25379655495770276
1772731713504649500,4.1786494140625,-0.03650163844525814,0.14160101229846478,-0.28617307629697025
1772731713514677200,4.18867724609375,0.047639118531346315,0.11658347541987896,-0.20976519686104728
1772731713524705500,4.19870556640625,0.03044482262432575,0.09211509685665369,-0.1834334721113555
1772731713534733300,4.2087333984375,-0.05685118351280689,0.09029869508445262,-0.20296510665845124
1772731713544760300,4.21876025390625,-0.10344693047106265,0.10694324815422296,-0.20112747943513093
1772731713554788400,4.228788330078125,-0.12198328863680362,0.0910363617092371,-0.21033221962666138
1772731713564816100,4.238816162109375,-0.05627016875445842,0.04260258566886186,-0.13777490553851238
1772731713574844400,4.248844482421875,-0.004307926326990127,0.01819558190405369,-0.08293929963181726
1772731713584872200,4.2588720703125,0.053528761091828345,-0.015334054993093012,0.0020547656888957135
1772731713594900500,4.268900390625,0.07524374929368495,-0.048452773001790045,0.038914946664683515
1772731713604928300,4.27892822265625,0.10737199496030807,-0.06005260990262031,0.010881669560959562
1772731713614956300,4.288956298828125,0.1195616144478321,-0.04498918854445219,0.019152496753109153
1772731713624983300,4.2989833984375,0.10009235934615135,-0.06128799691647291,0.00870216324754292
1772731713635011000,4.309010986328125,0.08314765428602695,-0.07122954521626233,0.006540828486700775
1772731713645039400,4.319039306640625,0.09164952517151832,-0.06384878731518984,0.02582612016497878
1772731713655067100,4.329067138671875,0.10250526570677757,-0.07891805389225483,0.05350756304017268
1772731713665095400,4.339095458984375,0.097636782887578,-0.0966369581952691,0.07689415598236955
1772731713675123200,4.349123291015625,0.10277882195115089,-0.11789221993088722,0.09460939789041876
1772731713685151200,4.359151123046875,0.08922259028553962,-0.10610329019874333,0.06775877296631225
1772731713695178200,4.36917822265625,0.07156769112944603,-0.08642273043394089,0.05542360752825625
1772731713705206300,4.379206298828125,0.024988310784101485,-0.07780307838767767,0.05633318295411299
1772731713715234300,4.389234375,-0.035191724890470504,-0.05821399629861116,-0.008669002475924207
1772731713725262300,4.399262451171875,-0.05362462268173694,-0.044696635338664054,-0.0388384701952571
1772731713735290400,4.409290283203125,-0.05917641158998012,-0.03908990137279034,0.014593187197647057
1772731713745318400,4.419318359375,-0.05242576828598976,-0.05683890855312347,0.1090042540709488
1772731713755346200,4.42934619140625,-0.03627952012717724,-0.0973667337745428,0.12338770294147543
1772731713765374200,4.439374267578125,-0.016977438285946844,-0.08572627260237932,0.11166199290496297
1772731713775401500,4.4494013671875,0.004919920745491981,-0.05183540117740631,0.10109048527171835
1772731713785429200,4.45942919921875,0.019393267256021498,-0.03777209677249193,0.07284272060052026
1772731713795457300,4.469457275390625,-0.01343757372200489,-0.010184124884009362,0.0688491072199773
1772731713805485300,4.4794853515625,-0.08354863630235194,-0.012347732658684253,0.07402481109113432
1772731713815513300,4.489513427734375,-0.15083412006795405,-0.01289426062554121,0.10981478500254452
1772731713825541400,4.499541259765625,-0.1794675093561411,-0.048125148482620714,0.1483145567287691
1772731713835569400,4.5095693359375,-0.18478899663984774,-0.05356792405843734,0.14810340732927432
1772731713845596400,4.519596435546875,-0.1494254223138094,-0.06340601198375224,0.11351215994944795
1772731713855624200,4.529624267578125,-0.08534487206935883,-0.05261836824864149,0.08552631131717935
1772731713865652200,4.53965234375,0.011677578312158585,-0.06527618976980447,0.08301520527908578
1772731713875680300,4.54968017578125,0.07962123372554779,-0.06254822611063718,0.09137205993700771
1772731713885708300,4.559708251953125,0.13117197274267672,-0.06774959414601325,0.09348840363700874
1772731713895736300,4.569736328125,0.14259996020793914,-0.08503799807727336,0.09864922959944233
1772731713905764400,4.579764404296875,0.08559621648192405,-0.07620382649749517,0.11055446092132479
1772731713915791400,4.589791259765625,0.04586801720559597,-0.05210691159516573,0.059662094481382516
1772731713925819400,4.5998193359375,0.0572732083171606,0.0021516250759363175,-0.0016847176669514737
1772731713935847200,4.60984716796875,0.02749941682219505,0.021483809794485567,-0.03976232987479306
1772731713945875500,4.61987548828125,0.01939852795302868,0.03304652955532074,-0.08101077012149617
1772731713955903200,4.6299033203125,0.014070610928535461,0.03401479006558657,-0.0960739174850285
1772731713965931500,4.639931640625,0.04713701422810554,0.07051467494517565,-0.09607636517044156
1772731713975959300,4.649959228515625,0.11316928306221961,0.05983867489099502,-0.05078825761149637
1772731713985987000,4.659987060546875,0.13142390167713164,0.04352496121078729,-0.05286583563711028
1772731713996014300,4.670014404296875,0.08546119192540645,0.04486965381801128,-0.11051431157402694
1772731714006042400,4.68004248046875,0.05365501782000064,0.09961714304983615,-0.17352374372193588
1772731714016070400,4.6900703125,0.07681377508938313,0.12717325849533082,-0.22018691162690518
1772731714026098200,4.70009814453125,0.08493512222468852,0.1320034551307559,-0.17642547477912157
1772731714036126500,4.71012646484375,0.08078735489547252,0.10435177035629749,-0.16366327956803142
1772731714046154200,4.720154296875,0.08750409592986107,0.09694704705774783,-0.20764562915749846
1772731714056182300,4.730182373046875,0.12313771936893463,0.11813391973227262,-0.22873099595261737
1772731714066209300,4.740209228515625,0.14894260723292826,0.11550415575057267,-0.17652860636003315
1772731714076237300,4.7502373046875,0.11068857216238975,0.06428922455906867,-0.12551944514000787
1772731714086265300,4.760265380859375,0.05215338108539581,0.07828969286084175,-0.13746094421851449
1772731714096293000,4.770293212890625,0.024639351215958595,0.11860709020197391,-0.19783903234899042
1772731714106321400,4.7803212890625,0.05854337438344955,0.13968348823934792,-0.15681662854366005
1772731714116349200,4.79034912109375,0.07705635167360306,0.08849164566248655,-0.08958945996970868
1772731714126377500,4.80037744140625,0.03422551020681858,0.06802168908566236,-0.11381668672082014
1772731714136405200,4.8104052734375,-0.01094575690627098,0.09807926595807075,-0.15207467644726858
1772731714146432500,4.8204326171875,-0.02500117026567459,0.1342015496969223,-0.18238891322817652
1772731714156460300,4.830460205078125,0.028235329881310462,0.10777122341096401,-0.1706905295900069
1772731714166488300,4.84048828125,0.2007546275347471,0.047999184015393256,-0.08158564740000292
1772731714176516400,4.850516357421875,0.2503705990970135,0.016512451122701166,0.054495510065020056
1772731714186544000,4.860544189453125,0.15495324582457543,-0.010215396805107593,0.11119963609022088
1772731714196572400,4.870572509765625,0.03591477846801281,0.009718260937929152,0.0680524769495707
1772731714206600200,4.88060009765625,0.0020978490620851514,0.07604162167310714,-0.021036004378192592
1772731714216627500,4.89062744140625,0.04699731349647045,0.08936170649528503,-0.022256508916744494
1772731714226655200,4.9006552734375,0.12263386150002478,0.0658136576473713,-0.011214059303503018
1772731714236683300,4.910683349609375,0.19127718961536883,0.033173370805382726,0.0009439229367417283
1772731714246711300,4.920711181640625,0.21991583960056305,0.020187340243160722,0.059058529964508485
1772731714256739300,4.9307392578125,0.20156594391763208,0.010806640696525573,0.12368534331433474
1772731714266767400,4.940767333984375,0.19505437006652354,0.0015989596292376516,0.1317608237476088
1772731714276795400,4.95079541015625,0.1410720199882984,0.016907587920129297,0.11691948417490347
1772731714286823200,4.9608232421875,0.07292436643540859,0.0401826650455594,0.1131376732144039
1772731714296850200,4.97085009765625,0.045505029112100595,0.03544423834681511,0.08799724974166602
1772731714306878200,4.980878173828125,0.001364274090528488,0.057201312124729155,0.07445910628859419
1772731714316906200,4.99090625,-0.019932780960202217,0.06932458837777376,0.04099108621845953
1772731714326934300,5.000934326171875,-0.042941900625824925,0.08840630546659231,0.024346003425726667
1772731714336962300,5.01096240234375,-0.014628244811296463,0.09883329919576644,0.0006921606823569163
1772731714346990300,5.020990234375,0.025036826100945472,0.09266162482351065,-0.024259010128863154
1772731714357018000,5.03101806640625,0.040782092243432995,0.0780415633186698,0.0037759063760982826
1772731714367045400,5.04104541015625,0.06413491078019141,0.04740998595058918,0.030882889814605
1772731714377073400,5.051073486328125,0.12346388258337974,0.07177782674878835,0.03644835790504003
1772731714387101400,5.061101318359375,0.15395195982754228,0.09519202008396387,0.004827762649743817
1772731714397129200,5.071129150390625,0.14161094917058945,0.08684826236963272,-0.015528358289063907
1772731714407157200,5.0811572265625,0.08870061223804951,0.08858692273050546,-0.022605479901330543
1772731714417185300,5.091185302734375,0.04510755422711372,0.1028349360525608,-0.03108923060824163
1772731714427213300,5.10121337890625,0.019383330383896828,0.09666092359274625,-0.01986564770785626
1772731714437241300,5.111241455078125,-0.010986673438549041,0.08676701382696628,0.0014565052515128627
1772731714447267300,5.121267333984375,0.018452771535515784,0.05810235261768102,0.005450447425618767
1772731714457295400,5.13129541015625,0.10601941130757331,0.03959726637303829,0.013189875721384305
1772731714467323400,5.141323486328125,0.1392822139620781,0.011314005696773528,-0.0014500138619332574
1772731714477351400,5.151351318359375,0.12977554994821547,-0.01071136362850666,-0.05308698127423413
1772731714487379200,5.161379150390625,0.11718962461948394,0.008411562253534793,-0.05970818037912249
1772731714497407500,5.171407470703125,0.092246906542778,-0.005387245996296405,-0.029512521626718805
1772731714507435300,5.181435302734375,-0.00046703298985958095,-0.026512451611459254,-0.062484513224661344
1772731714517462500,5.191462646484375,-0.06361351725459098,-0.0044160628765821455,-0.11102732086377218
1772731714527490300,5.201490234375,-0.05718553003370762,0.028554186572134495,-0.1339943732196465
1772731714537518300,5.211518310546875,0.05627367588579654,-0.013726619796454906,-0.10351327370554209
1772731714547546400,5.22154638671875,0.16994857038259506,-0.04649140980094671,-0.05398941913982853
1772731714557574400,5.231574462890625,0.14138123206794262,-0.05524550188183784,-0.11147306447043083
1772731714567602400,5.2416025390625,0.04433481628894806,-0.03615209435522556,-0.16150007365215568
1772731714577630200,5.251630126953125,-0.07246960840523242,0.015199322697520255,-0.18412465097960085
1772731714587657500,5.261657470703125,-0.15391513494849204,0.007804828532040118,-0.13544052604050374
1772731714597685200,5.271685302734375,-0.11014905845820903,-0.00014466916769742964,-0.051588308248273096
1772731714607713500,5.281713623046875,-0.07697276504337787,0.01317746148109436,-0.07719993399591185
1772731714617741300,5.2917412109375,-0.14034779736697672,0.030808395239710806,-0.16869893564768135
1772731714627769300,5.301769287109375,-0.17904256194233895,0.07175210778564214,-0.22716142681464552
1772731714637797400,5.31179736328125,-0.21612521514594554,0.10205459932982922,-0.20389827758902682
1772731714647825400,5.321825439453125,-0.1969686792552471,0.08762626100480556,-0.13151824716338886
1772731714657853400,5.331853515625,-0.19067454754710197,0.05672054287046194,-0.11251181466733105
1772731714667880200,5.341880126953125,-0.15837094531357288,0.06593991437554358,-0.13246403098036535
1772731714677908500,5.351908447265625,-0.03780044608414173,0.06536912875026464,-0.15742005606321616
1772731714687936300,5.361936279296875,0.14908698413968086,0.03660363751500845,-0.16570892351884395
1772731714697964500,5.371964599609375,0.3050117053449154,-0.0059302668318152426,-0.12193618895891122
1772731714707992300,5.381992431640625,0.35768881804347036,-0.0006377133816480637,0.006108600807096809
1772731714718020400,5.392020263671875,0.27510172024965285,-0.02950987986177206,0.058970358490711076
1772731714728048400,5.40204833984375,0.12335633055567741,-0.04402940360158682,0.03975518318137619
1772731714738075400,5.412075439453125,0.04463233793079853,0.00428337640762329,0.04985308195350226
1772731714748103400,5.422103515625,0.06666355247497559,0.021079320646822452,0.08675265650805085
1772731714758131200,5.432131103515625,0.08815349974930285,-0.0009258826732635498,0.0892100047986023
1772731714768159500,5.442159423828125,0.039269934114813804,-0.018285890536010263,0.0216595316875726
1772731714778187300,5.452187255859375,-0.029733459484577177,0.044138416934013366,-0.011572400904633105
1772731714788215300,5.46221533203125,-0.08588555481731891,0.04760609304457902,0.02490053203594871
1772731714798243300,5.472243408203125,-0.17488368869721888,0.0037418168768286702,0.08149884589938447
1772731714808271400,5.482271240234375,-0.19793255585134029,-0.0006359598159790038,0.06004763689998071
1772731714818298400,5.49229833984375,-0.17610475492477415,0.05182400300055742,0.0435775910137454
1772731714828326400,5.502326416015625,-0.08234276764392852,0.054523325087130065,0.007134377357992343
1772731714838354400,5.5123544921875,-0.02523088736832142,0.023735095852613446,-0.021014817742980085
1772731714848382500,5.522382568359375,0.0017658406287431715,0.03131020728200674,-0.022167143282992765
1772731714858410200,5.53241015625,0.006876315510272979,0.029440029495954513,0.030613178628287278
1772731714868438500,5.5424384765625,0.012355623704195021,-0.012397709280252456,0.05087391290122177
1772731714878466300,5.55246630859375,0.0338671982884407,-0.021904373294115067,0.05300470525168348
1772731714888493300,5.562493408203125,0.03382920436561108,-0.030354806253314017,0.08049490215438418
1772731714898521300,5.572521240234375,0.05219195953011512,-0.010664601877331733,0.06958780589122325
1772731714908549400,5.58254931640625,0.057221185868978494,0.0080126260638237,0.023595340322051198
1772731714918577400,5.592577392578125,0.07962707894444465,0.00018324761241674423,0.018649942642007953
1772731714928605400,5.60260546875,0.10649404308199882,-0.011295008735358714,0.05192922607385553
1772731714938633500,5.612633544921875,0.07599427540004253,-0.03634732466638088,0.0743855158959981
1772731714948661200,5.6226611328125,0.03601297814548016,-0.04503945742696523,0.05325239640243817
1772731714958689500,5.632689453125,-0.007510521760582923,0.009702478846907616,0.010366454614396206
1772731714968716300,5.64271630859375,0.008800561571121215,0.07590864294320344,-0.08979987871684134
1772731714978744300,5.652744384765625,0.031523850032687185,0.08169014895409345,-0.1217998400949873
1772731714988773400,5.6627734375,0.012261515679955481,0.07306231360137462,-0.08942173871998675
1772731714998800400,5.67280029296875,-0.05353109917938709,0.022629764959216116,-0.05301260086377151
1772731715008828400,5.682828369140625,-0.1197311257958412,0.04249094198793173,-0.037041700138710436
1772731715018856200,5.692856201171875,-0.12890052067935465,0.06397825891375541,-0.05149888096572831
1772731715028884500,5.702884521484375,-0.04094049767553806,0.08127484615147114,-0.06437797598817852
1772731715038912300,5.712912353515625,0.0880775119036436,0.08080868994444608,-0.05798662185010034
1772731715048940500,5.7229404296875,0.17924831364750862,0.0841802122041583,-0.00430686688106507
1772731715058968300,5.73296826171875,0.2284001748293638,0.037972295519709584,0.030027026470517738
1772731715068996400,5.742996337890625,0.15492109712064264,0.008188859413564205,0.02719910500163678
1772731715079023400,5.7530234375,0.07442366508245468,0.04788870937824249,0.0020079788215458393
1772731715089051400,5.763051513671875,0.025815409258008,0.0684863839879632,0.0036301960287848487
1772731715099079400,5.773079345703125,0.06537059005498885,0.03144435505568981,0.038628476139809936
1772731715109107500,5.783107421875,0.11913725155591964,-0.0012219430103898048,0.06272743230217602
1772731715119135500,5.793135498046875,0.13675707939863205,0.012289864991605282,-0.002192820169427432
1772731715129163300,5.803163330078125,0.15656535719633102,0.06767506760507822,-0.04822844902689103
1772731715139191300,5.81319140625,0.15233108062744138,0.04441284996122122,-0.06300996187087148
1772731715149218300,5.82321826171875,0.16554828959703444,0.030126258194446563,-0.007103402264416217
1772731715159246300,5.833246337890625,0.11506664111614226,0.017089081966876984,0.02673343741837889
1772731715169274400,5.8432744140625,0.044185178685188294,-0.007778525047004222,0.059591750925220545
1772731715179302400,5.853302490234375,0.01885550711750984,0.026910218757390976,0.0390968380036531
1772731715189330400,5.863330322265625,-0.025993103912472722,0.05979746609777212,-0.031003968044160862
1772731715199358500,5.8733583984375,-0.02795651293992996,0.073792673702538,-0.08554172808201983
1772731715209386200,5.88338623046875,-0.034710078853368756,0.09930588514357805,-0.10615107486322521
1772731715219414500,5.89341455078125,0.012174421918392181,0.12123363931328057,-0.11213298055073245
1772731715229441300,5.903441162109375,0.053263388153910636,0.10285305623114109,-0.07132888197146821
1772731715239469300,5.91346923828125,0.06890928557515144,0.09165215552002191,-0.04298871717592701
1772731715249497300,5.923497314453125,0.0853852040797472,0.10447364317029714,-0.054136860219924705
1772731715259525400,5.933525390625,0.10265431878864764,0.10882950029224157,-0.07911856316672637
1772731715269553400,5.943553466796875,0.14937982960641383,0.0979553473174572,-0.07377065823355224
1772731715279581200,5.953581298828125,0.1921802759349346,0.10091448938399553,-0.05726645434938837
1772731715289609500,5.963609375,0.17750468485057352,0.10028086765557527,-0.06784479358221869
1772731715299636500,5.973636474609375,0.17864450253546238,0.09495704228430986,-0.04870593034552875
1772731715309664500,5.98366455078125,0.16683774488568304,0.07181845102012158,-0.0445717120510526
1772731715319692300,5.9936923828125,0.14428221420645712,0.06962474036812782,-0.047680555653432384
1772731715329720600,6.003720458984375,0.12351648955345153,0.0781678200468421,-0.013353480201703495
1772731715339748400,6.013748291015625,0.06013502748906612,0.04559709130972624,0.008107642836938612
1772731715349776400,6.0237763671875,0.004043137910962105,0.027743162450194356,0.015766272397898136
1772731715359804400,6.033804443359375,0.006569441518187523,0.03718552905619144,0.0019571756494930013
1772731715369831400,6.04383154296875,-0.012754267632961272,0.0411108858063817,-0.0022673147443216294
1772731715379859500,6.053859375,-0.001174304476380348,0.03773936354666948,-0.007851197557570412
1772731715389887200,6.06388720703125,0.00343465062379837,0.03055500500053167,-0.017990314256073905
1772731715399915500,6.07391552734375,0.006269581788778305,0.04004208753108978,-0.006994617260852828
1772731715409943300,6.083943359375,-0.0030307459980249405,-0.004438859230279923,0.03188909401535056
1772731715419971600,6.0939716796875,-0.025315058520436286,-0.04522212051749229,0.08189359910432249
1772731715429999400,6.103999267578125,-0.034200960287451745,-0.048427930821478365,0.07391902632883283
1772731715440027400,6.11402734375,-0.029374563044309614,-0.03409779217392206,0.027120491374051196
1772731715450055400,6.124055419921875,-0.010067220506072044,-0.02437105566859245,0.02077985820963513
1772731715460083500,6.13408349609375,0.05732055459022522,-0.0233101484388113,0.02768504362136591
1772731715470111500,6.144111572265625,0.05197977808415889,-0.06218202314674854,0.05649131439158227
1772731715480139500,6.154139404296875,0.012020108139514922,-0.07890431762784719,0.040621403522696345
1772731715490167300,6.164167236328125,-0.011719663888216018,-0.04198883768469095,0.014075588497752324
1772731715500195300,6.1741953125,-0.003262801188230514,-0.03351736193746328,0.0405173997255275
1772731715510223400,6.184223388671875,-0.0008148235142230987,-0.039623569858074185,0.09912075610132888
1772731715520250400,6.19425048828125,-0.007228197687864303,-0.055281157717108724,0.03354700359047856
1772731715530278400,6.2042783203125,0.0009936872124671936,-0.0239528302565217,0.011592069152905605
1772731715540306400,6.214306396484375,0.05192191041707992,-0.0017579495832324027,-0.012393151836143805
1772731715550334500,6.22433447265625,0.13067746722400186,-0.016785130584239957,-0.04401987315483857
1772731715560362200,6.2343623046875,0.21008184332847593,-0.0341723187148571,-0.051669817085843533
1772731715570390500,6.244390625,0.16666414188444614,-0.025157822132110593,-0.02760634322881233
1772731715580418300,6.254418212890625,0.060576926037669176,-0.022621289391815663,-0.06335909496895037
1772731715590446600,6.264446533203125,-0.010178279665112495,0.006318973888456821,-0.12995381085826083
1772731715600473300,6.274473388671875,-0.04816518823206425,0.02057663182169199,-0.1397700888105668
1772731715610501400,6.28450146484375,-0.017093758141994476,0.027374329137802123,-0.11237013204116374
1772731715620529400,6.294529296875,0.04878068978190422,0.054715048266947265,-0.12499306491203606
1772731715630557200,6.30455712890625,0.09503741404414176,0.060848436455428596,-0.12477103792550041
1772731715640585500,6.31458544921875,0.02442074002921581,0.023685411491990088,-0.0786228703379631
1772731715650613200,6.32461328125,-0.1225683950483799,0.008049743203818797,-0.11591674600630067
1772731715660641500,6.3346416015625,-0.1987169842272997,0.06785305452048779,-0.14256211241558192
1772731715670668300,6.344668212890625,-0.1653665032893419,0.0949161257520318,-0.1375701493471861
1772731715680696600,6.354696533203125,-0.07969312991797924,0.061513330104947084,-0.11298901285817846
1772731715690724400,6.364724365234375,-0.046349663242697715,0.06047521922886371,-0.09970767087750136
1772731715700752400,6.37475244140625,-0.0830932937502861,0.08155629344135522,-0.05655353400679305
1772731715710780400,6.384780517578125,-0.0873807618111372,0.07886310883462429,-0.022458842538832686
1772731715720808200,6.39480810546875,-0.07870587244629859,0.057693187294900417,-0.028143139819521455
1772731715730836500,6.40483642578125,-0.031522096467018125,0.03690758889764547,-0.02087458728838246
1772731715740864300,6.4148642578125,0.05456044222712517,0.015077449883520602,-0.028310326779703607
1772731715750891500,6.4248916015625,0.14492168115377424,-0.01767097350805998,-0.03083708247807808
1772731715760919300,6.434919189453125,0.21645547001361845,-0.06490268028229475,0.009576368249207734
1772731715770947600,6.444947509765625,0.24071254391372202,-0.08676146086901426,0.06858813646254129
1772731715780975400,6.454975341796875,0.24321429760158061,-0.0981511621505022,0.06676203071365598
1772731715791003400,6.46500341796875,0.19665420647859572,-0.09659691844582557,0.05872724761695135
1772731715801031400,6.475031494140625,0.194158298009634,-0.053256373891234395,0.0670985235258704
1772731715811059500,6.4850595703125,0.18852292247116564,-0.04492752148509025,0.05419709794060327
1772731715821087500,6.49508740234375,0.2021931359052658,-0.03813099321275949,0.028889843700709752
1772731715831114200,6.5051142578125,0.1601993297845125,-0.026911972323060033,0.005848388101486489
1772731715841142500,6.515142578125,0.07006897700428963,0.0059086395218968385,0.004754788745078258
1772731715851170300,6.52517041015625,-0.018638064974546432,0.020836744062602518,-0.0034081325096311046
1772731715861198300,6.5351982421875,-0.09343933119773865,0.005077157133817673,0.00984915274202358
1772731715871226400,6.545226318359375,-0.09689794721901417,0.020701134984195232,0.013691680913814343
1772731715881254400,6.55525439453125,-0.07664835539460181,0.047315877926349635,-0.001440777959418483
1772731715891282400,6.565282470703125,-0.08050035464763641,0.07259937226474285,-0.0398575795433484
1772731715901309400,6.575309326171875,-0.09118833740055561,0.09117898505032063,-0.051754600159311666
1772731715911337500,6.58533740234375,-0.10265548783242702,0.09644494275450706,-0.07537194225061684
1772731715921365500,6.595365478515625,-0.08320435290932655,0.10584493152350187,-0.07946057240427472
1772731715931393300,6.605393310546875,-0.04211363310813904,0.11140081208497285,-0.05887963886680081
1772731715941421300,6.61542138671875,0.006427987220883369,0.08743483008593321,-0.05672439706167206
1772731715951449300,6.625449462890625,0.05827157170474529,0.06973170787394047,-0.07168236701767891
1772731715961477400,6.635477294921875,0.11707155119776726,0.06615209582149982,-0.07749403983796946
1772731715971504400,6.64550439453125,0.18204291280210017,0.04429886819273233,-0.05112622999474406
1772731715981532400,6.655532470703125,0.2391144610673189,0.025991350346803662,-0.028674159689992665
1772731715991560400,6.665560546875,0.24448154105842113,0.004416939659416676,0.020732507369993252
1772731716001588200,6.675588134765625,0.23514789552390575,0.002066284880042076,0.06264155781674198
1772731716011616500,6.685616455078125,0.19810732789635657,-0.006547814208269119,0.08627759547536261
1772731716021644300,6.695644287109375,0.16679390574395656,0.005040916776657104,0.10151742371320724
1772731716031672600,6.705672607421875,0.12874328429102896,0.024124679692089555,0.08114364838670007
1772731716041700400,6.715700439453125,0.0846352624952793,0.037896015413105485,0.07161722935959697
1772731716051727400,6.725727294921875,0.06451777261793613,0.02855477109402418,0.04169255815185606
1772731716061755400,6.73575537109375,0.0840384656459093,0.014786357982456684,0.002211839963728562
1772731716071783400,6.745783447265625,0.11697218247652053,0.039022681355476374,0.032602850041585044
1772731716081811500,6.7558115234375,0.13546236341297627,0.014085516236722469,0.02361305864183232
1772731716091839200,6.765839111328125,0.12982055813372134,-0.026174305698275564,0.044174054502975194
1772731716101867500,6.775867431640625,0.11998188568651676,-0.04716244093030691,0.05504582372442819
1772731716111895300,6.785895263671875,0.05961772561669349,-0.060738838601112365,0.08071940422579646
1772731716121922600,6.795922607421875,0.03355915525257587,-0.06844371389001608,0.08146776577453128
1772731716131950300,6.805950439453125,0.00042202480435371396,-0.08380173428058624,0.06283312573293223
1772731716141978400,6.815978271484375,-0.006095978787541389,-0.09389145887941122,0.0346057416960597
1772731716152006400,6.82600634765625,-0.0032809213668107983,-0.09175415458977222,0.01045084952879697
1772731716162034200,6.8360341796875,-0.03056114248037338,-0.0846183113604784,-0.004553973509930074
1772731716172062500,6.8460625,-0.10613456211984157,-0.0927066330090165,0.012246930032176896
1772731716182090200,6.85609033203125,-0.160351305475831,-0.07492401582002639,0.019414657103922216
1772731716192118500,6.866118408203125,-0.1858019730746746,-0.04029138611704111,-0.03510878671421669
1772731716202145300,6.876145263671875,-0.19366846866607665,-0.010059621721506118,-0.06261765635134652
1772731716212173600,6.886173583984375,-0.17351356938779353,-0.0352855406537652,-0.05089990129242651
1772731716222201300,6.896201416015625,-0.14023790725171564,-0.046156186497211454,-0.03884010959649458
1772731716232229400,6.9062294921875,-0.04836392567455768,-0.03143909435868263,-0.009724982939660549
1772731716242257400,6.91625732421875,0.03850596400499344,-0.042459670066833495,-0.05866170353349298
1772731716252285400,6.926285400390625,0.1287976448267698,-0.014891279661655425,-0.08428339858399704
1772731716262313500,6.9363134765625,0.1817412995070219,0.008306056052446364,-0.052956623759679494
1772731716272340200,6.94634033203125,0.20450258189141748,0.05248889665007591,-0.05030057455925271
1772731716282368500,6.956368408203125,0.1342179163098335,0.08202040382176637,-0.10758271510154008
1772731716292396300,6.966396240234375,0.043452772757411,0.11048194367438555,-0.12183936838777736
1772731716302424300,6.97642431640625,-0.048421793341636654,0.14762421811074017,-0.16306785269184038
1772731716312452400,6.986452392578125,-0.04976385560035705,0.16157529431283474,-0.1289849292934872
1772731716322480400,6.99648046875,-0.026225159102678298,0.18076397890746593,-0.09488956653866916
1772731716332508400,7.00650830078125,-0.013956629160046577,0.19811171181052922,-0.03917562516117468
1772731716342536400,7.016536376953125,-0.017046411868929863,0.18054361415505407,-0.006309365809895098
1772731716352563500,7.0265634765625,-0.052367900618910786,0.18567834669500588,-0.0020299897239543494
1772731716362591200,7.03659130859375,-0.007291326051950454,0.19326660986691713,0.01908091337122023
1772731716372619300,7.046619384765625,0.0420323845654726,0.1852592445001006,0.048871327207423744
1772731716382647300,7.056647216796875,0.1113052427560091,0.13950550132393835,0.08017121402481571
1772731716392675300,7.06667529296875,0.14579963303208351,0.10682926638573408,0.11996140915406867
1772731716402703400,7.076703369140625,0.2134253085374832,0.06984685868620873,0.13278539928868413
1772731716412731400,7.0867314453125,0.2640712076693773,0.017704583516716957,0.12011011517606675
1772731716422758400,7.09675830078125,0.29234803860485553,-0.009221125070750713,0.11887231700941919
1772731716432786400,7.106786376953125,0.3315571824431419,-0.03917933322191238,0.13037393596647306
1772731716442814500,7.116814453125,0.33870062445700166,-0.04471124838590622,0.1724027951342985
1772731716452841200,7.12684130859375,0.32509880008399483,-0.06938099474012852,0.19325168629242107
1772731716462869500,7.136869384765625,0.27080022366344925,-0.0673009735956788,0.19091613775063304
1772731716472897300,7.146897216796875,0.20125147114098071,-0.0697562577933073,0.20044799100467933
1772731716482925300,7.15692529296875,0.11722001975774764,-0.024507541529834267,0.1519049093709327
1772731716492953300,7.166953369140625,0.06758709706068039,0.0009755670338869094,0.07072523068962619
1772731716502980400,7.17698046875,0.05769874025285244,0.008341711887717247,-0.014748784184735268
1772731716513008400,7.18700830078125,0.08383855915963649,0.025741759499907493,-0.06363828636966645
1772731716523036400,7.197036376953125,0.057715106865763664,-0.007760112607479095,-0.046454128264170134
1772731716533064400,7.207064453125,-0.018742109870910642,0.005892857430875301,-0.04789274623254314
1772731716543092500,7.217092529296875,-0.11796996134221553,0.04306903413683176,-0.06623069574935361
1772731716553120300,7.227120361328125,-0.22323183228075502,0.052044075492024416,-0.09366369627183303
1772731716563148500,7.2371484375,-0.30592648210227485,0.07230594227612018,-0.15233734597144646
1772731716573175600,7.247175537109375,-0.32904724544882774,0.0988593104198575,-0.1810564042490907
1772731716583203300,7.257203369140625,-0.3301607596486807,0.11557166802883148,-0.21873192704562097
1772731716593231400,7.2672314453125,-0.29926234803795815,0.1284706048294902,-0.23371490357872096
1772731716603259400,7.27725927734375,-0.2710352014631033,0.09704320090860127,-0.21945240507358685
1772731716613287400,7.287287353515625,-0.19975158797204493,0.0707891079723835,-0.18456161762475967
1772731716623315500,7.2973154296875,-0.10444412481486796,0.0401326884239912,-0.14086445991853253
1772731716633343500,7.307343505859375,0.009941548299789427,-0.0002989829465746879,-0.12832600872702896
1772731716643371300,7.317371337890625,0.10622691657841205,-0.04358867409676313,-0.1364451821715571
1772731716653398300,7.327398193359375,0.16221885291337965,-0.06129208856970071,-0.09372284258054568
1772731716663426300,7.33742626953125,0.1783902355134487,-0.08169803999960422,-0.009152827341202647
1772731716673454300,7.347454345703125,0.17668576968312263,-0.09879501301199198,0.051301184702850874
1772731716683482400,7.357482421875,0.17338672813773154,-0.1157595918163657,0.07448774329461157
1772731716693510400,7.367510498046875,0.1754272940546274,-0.07482698518633842,0.06232577899899333
1772731716703538400,7.377538330078125,0.1541904447585344,-0.0352133522003889,0.0371913012098521
1772731716713566200,7.387566162109375,0.06668693335056304,-0.007074176169931888,-0.031078298222273586
1772731716723593500,7.397593505859375,-0.006910802301764488,0.041921033145487306,-0.05471163246715441
1772731716733621200,7.407621337890625,-0.12588146511912346,0.06670563805103302,-0.07222790860384702
1772731716743649500,7.4176494140625,-0.22458032428026198,0.10143062221258878,-0.060371320462971924
1772731716753677300,7.42767724609375,-0.2697580211341381,0.12628712331056594,-0.0637607802381739
1772731716763705600,7.43770556640625,-0.20929799947440622,0.152495915800333,-0.08143252093121409
1772731716773733400,7.4477333984375,-0.0765355426698923,0.16910013685971498,-0.10348766434025018
1772731716783761200,7.45776123046875,0.05337736992239952,0.1812275047659874,-0.1378397235361859
1772731716793789400,7.46778955078125,0.12863923939466476,0.16905074476003645,-0.13617836619522422
1772731716803816200,7.477816162109375,0.1519692615777254,0.16345979288518428,-0.11840342085603624
1772731716813844500,7.487844482421875,0.13267477852106094,0.14929887332469224,-0.061261711697746066
1772731716823872300,7.497872314453125,0.17033786196112632,0.12665829471051693,0.015953027141653
1772731716833900500,7.507900634765625,0.23457740215957162,0.101079616817832,0.059659171871934084
1772731716843928300,7.51792822265625,0.3436182071149349,0.08892185377329588,0.04163264465816319
1772731716853956400,7.527956298828125,0.4414385298758745,0.09003507571220397,0.03917357933456078
1772731716863984400,7.537984375,0.467523403725028,0.03627104455977678,0.10730340496981516
1772731716874011400,7.548011474609375,0.5075549698621035,-0.008812544269859791,0.2192043851292692
1772731716884039400,7.558039306640625,0.46009354598522184,-0.023157588225603102,0.25577775537017733
1772731716894067200,7.568067138671875,0.32384675419628617,0.0014738719448447227,0.22967983937636016
1772731716904095500,7.578095458984375,0.1676321101337671,0.045591830612719056,0.20268941325591877
1772731716914123300,7.588123291015625,0.007412906605005264,0.06596972499191761,0.14639246609238907
1772731716924151300,7.5981513671875,-0.09964286201298236,0.11507891607582568,0.10373873475817963
1772731716934179300,7.608179443359375,-0.2000409263074398,0.16372516582310198,0.04796115355994552
1772731716944206600,7.61820654296875,-0.31422610841393467,0.16722060672342776,0.020353143530432133
1772731716954234400,7.628234375,-0.38150808504819866,0.13930559483766555,-0.03749788294099271
1772731716964262400,7.638262451171875,-0.37449323785007,0.14598638777583836,-0.10382254058411344
1772731716974290400,7.64829052734375,-0.29580899271368977,0.11906038692742585,-0.1131543777540326
1772731716984318500,7.658318359375,-0.19116671497821808,0.07914952456057071,-0.06827807499952614
1772731716994346500,7.668346435546875,-0.05640577783286571,0.07319821494072676,-0.0641320612359792
1772731717004374300,7.678374267578125,0.012040566405653952,0.04138678013831377,-0.05438397141536697
1772731717014402300,7.68840234375,0.014415478843450546,0.00618657968044281,-0.022805870444793253
1772731717024429300,7.69842919921875,-0.03715630296170711,0.0023307810351252557,-0.017500822839234022
1772731717034457300,7.708457275390625,-0.06589198358058929,-0.0072314125582575795,-0.010311970781069248
1772731717044485400,7.7184853515625,-0.047563130685687065,-0.003291442760825157,-0.03296787482853979
1772731717054513400,7.728513427734375,-0.004396189132332802,0.0043988194808363915,-0.05830024980995804
1772731717064541400,7.73854150390625,0.09767477681040763,-0.020579262170195577,-0.08684886515783145
1772731717074569500,7.748569580078125,0.15206512316763401,-0.025340777483582495,-0.12806628007860854
1772731717084597200,7.75859716796875,0.19380466226637363,-0.06676730511039496,-0.09226455179732293
1772731717094625500,7.76862548828125,0.22207330989539623,-0.06821195096075534,-0.08530234810188413
1772731717104652300,7.77865234375,0.19452070158123969,-0.06808131031841039,-0.08702053193030879
1772731717114680300,7.788680419921875,0.16473697321414946,-0.08752630776166916,-0.065561600848753
1772731717124708400,7.798708251953125,0.1377478440016508,-0.09356704923063516,-0.049793593151494855
1772731717134736400,7.808736328125,0.15256021320819854,-0.09339023135900497,-0.07092970375316217
1772731717144764400,7.818764404296875,0.10086334371864795,-0.04863017539530992,-0.11583623724915086
1772731717154792200,7.828792236328125,0.01834580402970314,0.020298691663146018,-0.15653644162910058
1772731717164820500,7.838820556640625,-0.09336977309286594,0.04198328472673893,-0.18931964407311752
1772731717174847500,7.848847412109375,-0.194646958309412,0.039811201384663576,-0.1706210810829885
1772731717184875500,7.85887548828125,-0.2298568033784628,0.04711421787440777,-0.13828600599896163
1772731717194903300,7.8689033203125,-0.2010124016880989,0.0772477825924754,-0.1764452754581347
1772731717204931600,7.878931640625,-0.15611001464426516,0.10125497338473796,-0.19998262024894356
1772731717214959400,7.88895947265625,-0.08593290109038353,0.11286328585296869,-0.23259959928058085
1772731717224987400,7.8989873046875,-0.02849427307844162,0.11797639108300208,-0.2761178750222549
1772731717235015400,7.909015380859375,-0.016005378383398054,0.11243687713444232,-0.2687933225541375
1772731717245042400,7.91904248046875,0.018325930285453797,0.10291676911711692,-0.20866689849663525
1772731717255070500,7.929070556640625,0.05340250436365604,0.09643792849183082,-0.18833881634222344
1772731717265098200,7.93909814453125,0.07824760728478432,0.0673468585640192,-0.18388903385913
1772731717275126500,7.94912646484375,0.10435527748763561,0.09852350259423255,-0.20596574977915733
1772731717285154300,7.959154296875,0.09523089078962803,0.08444032444506883,-0.16267293509012087
1772731717295182600,7.9691826171875,0.1140939966917038,0.07801087591946125,-0.13897126658307388
1772731717305210400,7.97921044921875,0.11290800177752972,0.07176905892044305,-0.14038527983315288
1772731717315238400,7.98923828125,0.12688450468182563,0.06566840395778417,-0.1186505457512103
1772731717325265400,7.999265380859375,0.11854513088166713,0.07292670452296733,-0.08281559105375781
1772731717335293200,8.009293212890626,0.11626198838055134,0.07186608955413103,-0.07716596779422834
1772731717345321500,8.019321533203126,0.12295827114880084,0.053876259355247015,-0.0564435160273686
1772731717355349200,8.029349365234374,0.15408406177461145,0.04431201993525028,-0.01550422392822802
1772731717365377500,8.03937744140625,0.18162907130420206,0.04547054232060909,-0.018539737432915718
1772731717375405300,8.0494052734375,0.20109365023076534,0.036755320945382114,-0.01939281059829518
1772731717385433300,8.059433349609375,0.20905191575884818,0.041619127589464185,-0.01619377709496766
1772731717395460400,8.06946044921875,0.2285615028709173,0.03606470833271742,-0.0009818871768191456
1772731717405488400,8.07948828125,0.25648002188801766,0.034650457620620724,0.006824749719817191
1772731717415516400,8.089516357421875,0.2844318586528301,0.009753916773200035,0.03242118246490135
1772731717425544200,8.099544189453125,0.26805706243515015,0.02555062084197998,0.055204293088614936
1772731717435572500,8.109572509765625,0.201239780703187,0.043944940188527105,0.03719990464141592
1772731717445601000,8.11960107421875,0.12976210594475268,0.0649029725432396,0.006203494282625615
1772731717455629000,8.129629150390626,0.05271276853382587,0.13224427814930675,-0.06265787876388057
1772731717465657000,8.139656982421876,-0.004984802675247192,0.16860972299426794,-0.146503689648211
1772731717475684000,8.14968408203125,-0.05469897391498089,0.17375819179862736,-0.20007871930086985
1772731717485712100,8.159712158203124,-0.1092524018794298,0.17060937237888574,-0.1531613939717412
1772731717495740000,8.169739990234374,-0.16091946075260638,0.12889818259179592,-0.06010165494242683
1772731717505768000,8.179767822265624,-0.20505261698961258,0.08070318374335765,-0.008613076175004243
1772731717515796000,8.1897958984375,-0.1762690055757761,0.050066930200159544,0.03827732461458072
1772731717525824000,8.199823974609375,-0.0789887810409069,0.02463613634556532,0.0821447608537972
1772731717535852000,8.20985205078125,-0.05670446851849555,-0.04612666814178228,0.07462485021036118
1772731717545879000,8.219879150390625,-0.0591425093203783,-0.059714463989436625,0.07248012979924678
1772731717555907000,8.229906982421875,-0.06913374198079109,-0.0682446841865778,0.06810019768197088
1772731717565935000,8.23993505859375,-0.06584229921996593,-0.06951689607948064,0.09836944454368203
1772731717575963100,8.249963134765625,-0.03786532801389694,-0.0873889451175928,0.16377788239102808
1772731717585991200,8.2599912109375,0.016614450192451478,-0.11953531096279621,0.16567447325997053
1772731717596019000,8.27001904296875,0.043160511812567706,-0.11467676501572131,0.17241236668024212
1772731717606047200,8.280047119140624,0.06355681863129138,-0.13334843999892473,0.19990469617452472
1772731717616075000,8.290074951171874,0.04268997169137001,-0.14482844991236923,0.21882135889474302
1772731717626102000,8.30010205078125,0.016560089656710623,-0.15031068071573972,0.22945056066513062
1772731717636130000,8.310130126953124,-0.0034071780949831007,-0.13988631733506918,0.2343310809819959
1772731717646158000,8.320157958984375,-0.002291325807571411,-0.07563391765505074,0.23397497928701338
1772731717656186000,8.33018603515625,0.01589139661490917,-0.026267244678735733,0.14103444619057698
1772731717666214000,8.3402138671875,0.044424248138070103,0.026521803961694238,0.041272478709416464
1772731717676242200,8.3502421875,0.07823650136888027,0.0651662996545434,0.009981405386142433
1772731717686270000,8.36027001953125,0.11141279478371142,0.08821808941811322,0.031812987438682466
1772731717696297000,8.370296875,0.1772621082663536,0.05296908138245344,0.056948853467311704
1772731717706325000,8.380324951171875,0.22368425222337246,0.030798458367586132,0.06210398947447538
1772731717716353000,8.39035302734375,0.2746978156238794,0.02942746227532625,0.06157877829028293
1772731717726381000,8.400381103515626,0.30061200908124447,0.037328152397274966,0.0025098091301508246
1772731717736408800,8.410408935546876,0.3176473150342703,0.038725159713625903,-0.07295231388825922
1772731717746437000,8.42043701171875,0.31129063948392866,0.07695698295235634,-0.113978663216345
1772731717756465000,8.43046484375,0.23881986203491687,0.09315145416706799,-0.11921694746231659
1772731717766493200,8.4404931640625,0.20196926402151583,0.10233049366176128,-0.10875331151718273
1772731717776520000,8.45052001953125,0.1651964074194431,0.09462211124151945,-0.12958019177289679
1772731717786548200,8.46054833984375,0.1452630419373512,0.11401713206321,-0.12496820446541532
1772731717796576000,8.470575927734375,0.11664426569640636,0.10167699818909168,-0.11807866414738818
1772731717806604000,8.48060400390625,0.055981999462842935,0.09554594808816909,-0.13496429596403614
1772731717816632000,8.490632080078125,-0.03409983800053596,0.08301847494840621,-0.13634774967906996
1772731717826660000,8.50066015625,-0.08655658594667912,0.0734469290047884,-0.13889266665522007
1772731717836688100,8.510688232421876,-0.08200374494791031,0.0747451521217823,-0.14236103688552976
1772731717846715000,8.52071484375,-0.048806993266940116,0.045909518259763714,-0.13549546196497975
1772731717856743200,8.5307431640625,-0.018119009536504745,0.04696370348781347,-0.08416408305326477
1772731717866771000,8.54077099609375,-0.012420505633950233,0.02361556112617254,-0.05491018724655732
1772731717876799200,8.55079931640625,-0.06538286501467228,0.03612608313113451,-0.028371596546843646
1772731717886827000,8.560826904296874,-0.11023439865410327,0.04522475086599588,-0.0009983451212756335
1772731717896855000,8.57085498046875,-0.1377881760120392,0.050911856591701506,0.02468165598772466
1772731717906883000,8.580883056640625,-0.10959960788190364,0.01542524040788412,0.010195267332531512
1772731717916909800,8.590909912109375,-0.046561260166764255,0.01672550935149193,0.04281553429979831
1772731717926938000,8.600938232421875,0.0379366396844387,0.0013733341798186302,0.06334713966967538
1772731717936966000,8.6109658203125,0.11939736379683016,-0.007357084764540195,0.08988136472152546
1772731717946994200,8.620994140625,0.1434340729445219,-0.015846388429403304,0.09553568242248148
1772731717957022000,8.63102197265625,0.14454232644736767,0.013440496331453323,0.0898060344629921
1772731717967050000,8.641050048828125,0.15576222411990165,0.023356033407151696,0.08197042720019816
1772731717977078000,8.651078125,0.12094400871694087,0.02143792482614517,0.09167206579688936
1772731717987106000,8.66110595703125,0.06041559799611568,0.010943418818712233,0.1240182102642022
1772731717997133000,8.671133056640626,-0.00901858823597431,0.01668400829732418,0.1171049785433337
1772731718007161000,8.6811611328125,-0.03256079186499119,0.04986439336538315,0.12039185472689569
1772731718017189000,8.691189208984374,-0.015710779350996018,0.04903817167431116,0.10091196863334626
1772731718027217200,8.701217041015624,0.02663724703490734,0.025815993779897687,0.0927021942959167
1772731718037245000,8.711244873046875,0.08671031520366668,0.01736672986447811,0.09445395160038024
1772731718047273200,8.721273193359375,0.13234686174094676,-0.011376549538969993,0.11574147163778543
1772731718057301000,8.731301025390625,0.16272972504496575,-0.0582210105612874,0.10856451094681396
1772731718067328000,8.741327880859375,0.18929390684366226,-0.05581745655089616,0.08591501837382093
1772731718077356000,8.75135595703125,0.23468553870916364,-0.040918870365619656,0.06625435061957687
1772731718087384000,8.761384033203125,0.3052525283634662,-0.03779489312618971,0.050948663204442704
1772731718097412000,8.771412109375,0.3338198666781187,-0.06982552363723515,0.10245251260623335
1772731718107439900,8.78143994140625,0.32624797011911866,-0.08967267214059829,0.1619823955426924
1772731718117468200,8.79146826171875,0.345882060393691,-0.08885755636543034,0.16178064415920526
1772731718127496000,8.801495849609376,0.4039513875246048,-0.09803718038201331,0.13007701711282132
1772731718137524200,8.811524169921874,0.4174795621395111,-0.08269581886529923,0.13351164947031066
1772731718147551000,8.821551025390624,0.40195290718376636,-0.061275429695844645,0.11061395428990944
1772731718157579000,8.8315791015625,0.38109716615974903,-0.0668149436444044,0.050539296952262516
1772731718167607000,8.84160693359375,0.3743015146702528,-0.0485287608474493,0.02673844238705933
1772731718177635000,8.851635009765625,0.39360301198959347,-0.04533317967653274,0.015281320158857851
1772731718187663000,8.8616630859375,0.46284138338863845,-0.06484919652938842,0.021983375080768017
1772731718197691000,8.87169091796875,0.5149824895143509,-0.06841273422986269,0.07506121406732126
1772731718207719200,8.88171923828125,0.5186188001900911,-0.06253332080245018,0.0827932330914773
1772731718217746000,8.891745849609375,0.46903380828797814,-0.05306348166763782,0.03142873736144974
1772731718227774200,8.901774169921875,0.32573885155320165,-0.02316372570544481,-0.006584766951482743
1772731718237802000,8.911802001953125,0.15950842491090297,-0.010898264502733946,-0.008617405290249734
1772731718247830300,8.921830322265626,-0.040294016465544695,-0.009246844033896922,0.015601382426079361
1772731718257858000,8.931858154296876,-0.27234862214922906,-0.0008154080361127853,-0.008329363862797617
1772731718267886000,8.941885986328124,-0.47613984090089795,0.024917437504976988,-0.07313342434251681
1772731718277914000,8.9519140625,-0.5893529631048441,0.08264350415617228,-0.062356849990691986
1772731718287942000,8.96194189453125,-0.6474433330237865,0.08877060873433947,-0.11197174384072422
1772731718297969200,8.97196923828125,-0.6411182216554879,0.011999796003848314,-0.21616797657543793
1772731718307997000,8.981996826171875,-0.6459902116060257,0.0517975533850491,-0.15071898752199486
1772731718318025200,8.992025146484375,-0.571021772122383,0.060933484390378,-0.1111784015059471
1772731718328053000,9.002052978515625,-0.514251252630353,-0.020637422098219393,-0.14012377935275436
1772731718338081000,9.0120810546875,-0.4012351143032312,-0.06823708540201187,-0.09931339259659872
1772731718348109000,9.022109130859375,-0.28615678274929524,-0.09717574124708771,-0.09033212243001908
1772731718358137000,9.03213720703125,-0.1970698015421629,-0.1277685940399766,-0.10773838058728724
1772731718368164000,9.0421640625,-0.09793488905131817,-0.150654233456403,-0.1335991816232912
1772731718378192000,9.05219189453125,-0.0184913499802351,-0.17781375079974532,-0.11725439695138483
1772731718388220200,9.06222021484375,0.06002455285191535,-0.17835151093825696,-0.09065010233800858
1772731718398248000,9.072248046875,0.0897550897270441,-0.18844985723495483,-0.08090752894273028
1772731718408276000,9.08227587890625,0.07522153746187686,-0.21441578087955712,-0.09927359030917286
1772731718418304000,9.092303955078124,0.06777882024049758,-0.1849662529028952,-0.10908491809172555
1772731718428332000,9.10233203125,0.002532148826122284,-0.16779563013240695,-0.14308085732636971
1772731718438360000,9.112360107421875,-0.014224924707412719,-0.14814751133248208,-0.16869962976742534
1772731718448387000,9.122386962890625,-0.03489420324862003,-0.1262415306031704,-0.19248892175899818
1772731718458415000,9.1324150390625,-0.06417524279057979,-0.11174129608571529,-0.18914096303796393
1772731718468443100,9.142443115234375,-0.06606675562560559,-0.11007336287349462,-0.1593426398899406
1772731718478471200,9.15247119140625,-0.12353577877581119,-0.08263809732869266,-0.18396043686121702
1772731718488499200,9.162499267578125,-0.15546528699994086,-0.04258870327398181,-0.240850125753507
1772731718498527000,9.17252685546875,-0.17107845119535922,-0.006261106221377849,-0.2628759517365135
1772731718508555300,9.18255517578125,-0.1711053392022848,0.01922740916982293,-0.2948364213544875
1772731718518582000,9.19258203125,-0.18272329628169537,0.03226502378880977,-0.27582373264757915
1772731718528610300,9.2026103515625,-0.13599427833259106,0.046156478758156295,-0.24316090518021954
1772731718538638000,9.21263818359375,-0.07544307125806808,0.04045782872512936,-0.22362450312646104
1772731718548666000,9.222666015625,0.004303250151872635,0.023783611169457434,-0.21605541957905514
1772731718558694100,9.232694091796875,0.09248948312699794,0.014654986687749623,-0.17849530332311986
1772731718568722200,9.24272216796875,0.15446750813424587,0.04204173691570758,-0.1724467073412612
1772731718578750200,9.252750244140625,0.1848871963173151,0.03547814061641693,-0.19035625711185858
1772731718588777000,9.26277685546875,0.2287193237811327,0.029824791029840706,-0.17977104061366989
1772731718598805200,9.27280517578125,0.2154781494140625,0.026575433845072983,-0.15480490512875839
1772731718608833000,9.2828330078125,0.25025369471907616,0.017595862445235252,-0.10127749574379995
1772731718618861300,9.292861328125,0.24182313550412654,0.01570581091493368,-0.07986170968422665
1772731718628889000,9.30288916015625,0.24078093297481534,0.0014943302109837531,-0.07273958445303141
1772731718638916000,9.312916015625,0.22021686837375162,0.012868687792867421,-0.05349432909926399
1772731718648944000,9.322944091796876,0.17044892112016677,0.010761340250074863,-0.07002532052565366
1772731718658972000,9.332971923828126,0.1478600726932287,0.033356910678744314,-0.0640929348019883
1772731718669000200,9.343000244140624,0.14699088864326476,0.035927053427696226,-0.019004341003671286
1772731718679028000,9.353028076171874,0.14649521408081054,0.016734131049364803,0.017958192951604723
1772731718689056300,9.36305615234375,0.11628420021235943,-0.008791501481831073,0.0028536723980680107
1772731718699084000,9.373083984375,0.12900164296627045,0.01830152649655938,0.011443020637612789
1772731718709111300,9.383111328125,0.1148649810642004,0.011271627859771252,0.04875093396445736
1772731718719139000,9.39313916015625,0.12437398316562175,-0.005638590408861637,0.07773213204331696
1772731718729167000,9.4031669921875,0.10410977829396724,-0.024985534305125474,0.09552477743597701
1772731718739195100,9.413195068359375,0.09494739767313003,-0.03355944751352072,0.15561947291465475
1772731718749223200,9.42322314453125,0.10552665935456752,-0.027649785078316926,0.16820645768931133
1772731718759251200,9.433251220703125,0.08970598988831043,-0.03447042487859726,0.12163489532424136
1772731718769279200,9.443279296875,0.05665244607031345,-0.04842515434250235,0.09282054171226918
1772731718779306200,9.45330615234375,0.02311024195253849,-0.017065408830344676,0.10318537519173696
1772731718789334000,9.463333984375,0.021364275068044662,-0.022342910841852425,0.09135461561186238
1772731718799362300,9.4733623046875,0.007683540239930152,-0.03612403730452061,0.08900964165460318
1772731718809390000,9.48339013671875,-0.022604045996069907,-0.04659647761061787,0.10085057556862011
1772731718819418000,9.493418212890624,-0.06300035379230975,-0.005199906730651855,0.08277244603177532
1772731718829446100,9.503446044921875,-0.11808861928582191,0.0020971184097230435,0.042433366581797596
1772731718839474200,9.51347412109375,-0.16215221741795538,0.0214138132981956,-0.0017013970904052257
1772731718849501200,9.523501220703125,-0.18750643890500068,-0.0025834406219422817,0.02205474155023694
1772731718859529000,9.533529052734375,-0.14848551111519337,-0.04158580984175205,0.09265939633380621
1772731718869557200,9.54355712890625,-0.04307049544155597,-0.05878609709814191,0.11607921569216996
1772731718879585000,9.5535849609375,0.03863748143017292,-0.09695698392987251,0.15697806618306784
1772731718889613000,9.563613037109375,0.0882785874336958,-0.10571867479532956,0.2031881017593667
1772731718899641000,9.57364111328125,0.11439619450867175,-0.09424114909991621,0.1748380229245871
1772731718909669000,9.583669189453126,0.04245207128226757,-0.08301102229431272,0.13094771726643667
1772731718919697200,9.593697265625,-0.029102175843715668,-0.06623129853755236,0.15092380764540284
1772731718929724200,9.60372412109375,-0.07790975363254547,-0.059470718361437316,0.15320431979801505
1772731718939752200,9.613752197265624,-0.07316168232262134,-0.07160875379219651,0.12622613210463896
1772731718949780200,9.6237802734375,0.0005541267514228821,-0.04569529098719358,0.09189091444564983
1772731718959808000,9.63380810546875,0.07880231855809688,-0.06769932526350021,0.048787430049944666
1772731718969836300,9.643836181640625,0.12726327486634254,-0.08949483135566115,0.00034147038143128155
1772731718979864000,9.653864013671875,0.163872465339303,-0.07038827208653092,-0.021222930368594822
1772731718989892400,9.663892333984375,0.13384148421287537,-0.06992956853359937,-0.030905626802798358
1772731718999919000,9.673919189453125,0.12377952440381049,-0.06064151570647955,-0.05603310859557241
1772731719009947100,9.683947021484375,0.1001163247436285,-0.06117562258318066,-0.045034105398412794
1772731719019975200,9.69397509765625,0.10240706602931023,-0.025969869167357683,-0.0667754336179234
1772731719030003000,9.7040029296875,0.11833937917649745,-0.017088205184042454,-0.12123404117207974
1772731719040031200,9.71403125,0.1288373923152685,0.021474895835667848,-0.1717834393932484
1772731719050059000,9.72405908203125,0.1513373934149742,0.05583499220758676,-0.19795142494859172
1772731719060087300,9.73408740234375,0.12754092276394366,0.04307224900722503,-0.18982527377400546
1772731719070115000,9.744114990234374,0.00886836611032486,0.0339630598783493,-0.16920067462474106
1772731719080142000,9.75414208984375,-0.0786275465130806,0.05997632979601621,-0.11091761341160163
1772731719090170000,9.764170166015624,-0.13063187451660632,0.08112111689448356,-0.08701707959789783
1772731719100198100,9.7741982421875,-0.0881780496686697,0.06924567792266607,-0.14234342816360293
1772731719110226200,9.78422607421875,0.0006903203517198563,0.11757467841431497,-0.22337858380768447
1772731719120254000,9.79425390625,0.05413666385710239,0.1553257323987782,-0.27581010598102584
1772731719130282200,9.8042822265625,0.09211772720515728,0.15349574049264192,-0.23960273777460678
1772731719140310000,9.81431005859375,0.08559563196003436,0.12672449181452392,-0.1878073032814078
1772731719150337300,9.824337158203125,0.0740174223691225,0.11386880963370204,-0.19287978424010796
1772731719160365000,9.834364990234375,0.10599778399765492,0.14302783023118973,-0.2258035824649036
1772731719170393300,9.844393310546875,0.17593933522999286,0.12752207193300127,-0.235471337058302
1772731719180421000,9.854421142578126,0.2221305930405855,0.10702551961019635,-0.23021496916636824
1772731719190449200,9.86444921875,0.20005086317956447,0.06925488414242863,-0.17947161927567795
1772731719200477200,9.874477294921874,0.14257248767912387,0.07612345473766327,-0.1350806706190109
1772731719210505200,9.884505126953124,0.07609247507750988,0.0738128397077322,-0.08388510171510279
1772731719220533200,9.894533203125,0.01800678133368492,0.057041445387899875,-0.05960994416903704
1772731719230560000,9.90456005859375,-0.036948797690868375,0.06301759718805551,-0.030321598103456197
1772731719240588300,9.91458837890625,-0.04970481888949871,0.08380509528145194,-0.02039873623782769
1772731719250616000,9.924615966796875,-0.06817512608170509,0.11472338063642382,-0.027775365953054278
1772731719260644000,9.93464404296875,-0.07814297786653042,0.1086035825818777,0.0029093663743697106
1772731719270672100,9.944672119140625,-0.11109539939761161,0.1062616956308484,0.04398218519268557
1772731719280700200,9.9547001953125,-0.09820610720813273,0.10679419507235288,0.05909034074172377
1772731719290728200,9.964728271484375,-0.09136661657691002,0.08080430603027343,0.06402142220204696
1772731719300755000,9.9747548828125,-0.09550620059967041,0.07972673992663622,0.08527832790547982
1772731719310783200,9.984783203125,-0.10582476551830768,0.045426995439827436,0.11053360079638659
1772731719320811000,9.99481103515625,-0.10351765761971474,0.06273571150675415,0.1200118789659813
1772731719330839000,10.004839111328126,-0.07636018610298632,0.0521168484672904,0.12342305738264694
1772731719340867000,10.0148671875,-0.048068742120265955,0.045486908933520316,0.1659894940258935
1772731719350895000,10.02489501953125,0.013617606464028358,0.017481588415801524,0.16316731274463236
1772731719360923100,10.034923095703125,0.059769701308012006,0.00015226795226335526,0.14980965412473304
1772731719370951200,10.044951171875,0.12276245631575583,0.012041735449433325,0.14420184244662523
1772731719380978200,10.054978271484375,0.1872492492735386,0.009311141441762446,0.17250766201457007
1772731719391006200,10.065006103515625,0.19335516493320465,-0.005042670342326164,0.20879218711042777
1772731719401034200,10.0750341796875,0.20057868644595145,-0.04994827225655317,0.22205036741122602
1772731719411062300,10.085062255859375,0.19305705876946447,-0.04411649736315012,0.20801201478447764
1772731719421090000,10.095090087890625,0.20793664799332617,-0.045404199086129665,0.16519017860805615
1772731719431118300,10.105118408203126,0.2125146234333515,0.0025187048226594923,0.13085505228061228
1772731719441146000,10.11514599609375,0.1771884585082531,0.02786854239553213,0.09882151742642745
1772731719451173000,10.125173095703126,0.1107604683548212,0.05360241084992885,0.06607914018314331
1772731719461201000,10.135200927734376,0.07867606182992458,0.040946342894434926,0.04838153439648449
1772731719471229200,10.145229248046874,0.08121639396250248,0.044538522167503834,0.08097586320489644
1772731719481257000,10.155257080078124,0.14608487971425055,0.03016074498593807,0.0988191793388687
1772731719491285000,10.165284912109374,0.2082885301709175,0.04578296927064657,0.07955054310951382
1772731719501313000,10.17531298828125,0.21263386589884756,0.05943710835278034,0.06169518947787583
1772731719511341000,10.185341064453125,0.14144552947580813,0.07339549107849598,0.054506081691384316
1772731719521369000,10.195369140625,0.010191723668575287,0.08745733417868613,0.06667920670183375
1772731719531396000,10.20539599609375,-0.11260989561378955,0.09478869998008012,0.119057665247377
1772731719541424000,10.215424072265625,-0.17831775479912756,0.0690548315256834,0.14199494351949543
1772731719551452200,10.2254521484375,-0.11147183149456977,0.04836626376211643,0.18794227303899824
1772731719561480000,10.23547998046875,0.0035188217759132383,0.024437106642127036,0.19602575411563739
1772731719571508000,10.245508056640626,0.12241817292273044,-0.002622165197134018,0.16652606685431673
1772731719581536000,10.255535888671876,0.1689046142876148,-0.03734744161963462,0.1203572766038589
1772731719591564000,10.26556396484375,0.12295944019258022,-0.03482201479524374,0.0930130320770666
1772731719601591000,10.275591064453126,0.04176058188676834,-0.003350187210738659,0.07315839438699186
1772731719611619000,10.285619140625,-0.007758943563699722,0.026289164249598977,0.041630306570604445
1772731719621647000,10.295647216796874,-0.033276831179857254,0.06553513296693562,0.007408668821305036
1772731719631675000,10.3056748046875,-0.05333353078067302,0.07357347799390554,-0.028465375777520237
1772731719641703200,10.315703125,-0.0047726212292909615,0.08289134143739939,-0.048433154985867435
1772731719651731000,10.32573095703125,0.0088578447163105,0.09202771083414554,-0.0637203386299312
1772731719661759200,10.33575927734375,0.015353051954507826,0.10253682988882064,-0.13284560504332185
1772731719671786000,10.345785888671875,0.013260463589429854,0.10643354506641625,-0.14218772614523767
1772731719681814000,10.35581396484375,0.010986088916659354,0.11246055027097462,-0.14136831778744235
1772731719691842000,10.365842041015625,-0.005137947410345077,0.08954670767337083,-0.10688163589378818
1772731719701870000,10.3758701171875,-0.03945639659762382,0.1130389346808195,-0.14400343379769473
1772731719711898000,10.385898193359376,-0.057284898754954336,0.1433423030078411,-0.19243118195608258
1772731719721926000,10.39592578125,-0.03307692469358444,0.16210750149339437,-0.1992233263142407
1772731719731954200,10.4059541015625,-0.004233107525110244,0.14676760128140448,-0.1637254763503559
1772731719741982000,10.41598193359375,-0.002495323947072029,0.14618074130415915,-0.17362192513309418
1772731719752009200,10.42600927734375,0.005220949518680572,0.14254589193314313,-0.216785944077
1772731719762037000,10.436037109375,0.017655483677983284,0.1601958226531744,-0.24265783276259897
1772731719772065300,10.446065185546875,0.0308522343814373,0.1296481241762638,-0.1832858620679006
1772731719782093000,10.456093017578125,0.04687281033396721,0.0776034641623497,-0.10903810154162347
1772731719792120800,10.466120849609375,0.08565759128034114,0.045354514725506306,-0.1075173582477495
1772731719802149000,10.476149169921875,0.1257668988287449,0.02992810527384281,-0.07692191163897513
1772731719812177000,10.486177001953125,0.1710316894441843,0.011113222427666186,-0.05829946435866877
1772731719822205200,10.496205078125,0.2145318084746599,0.012751052762567995,-0.018442761598154903
1772731719832232000,10.50623193359375,0.2145230406463146,-0.007589724476635456,-0.01891686364961788
1772731719842260200,10.51626025390625,0.1751402938067913,0.0016945289582014082,0.011929982170648872
1772731719852288000,10.5262880859375,0.04933306296765804,0.0005851064115762711,0.03600715119289234
1772731719862316000,10.53631591796875,-0.07356967860162257,0.003572597789764404,0.011898162260279059
1772731719872344000,10.546343994140624,-0.1463578514367342,0.04751373858600855,-0.005568319917935878
1772731719882372000,10.5563720703125,-0.1168476793140173,0.03982435312718153,-0.003467548246402293
1772731719892400000,10.566400146484375,-0.057584758484363556,0.04073912988454103,-0.022353249572776256
1772731719902427000,10.576427001953125,0.010373509976267814,0.03059036857485771,-0.020092245838232336
1772731719912455200,10.586455078125,0.0233276840955019,0.028650340422987936,-0.02070539103420451
1772731719922483000,10.59648291015625,0.0159685535043478,0.004559270739555359,-0.0257175018414855
1772731719932511000,10.606510986328125,-0.022216507983207703,0.027574820145964622,-0.01809603051971644
1772731719942539000,10.6165390625,-0.06591711802184581,0.014988602556288241,-0.012866495835781097
1772731719952567000,10.626567138671875,-0.061572366815805434,0.031020576685667035,-0.009056490827258675
1772731719962595000,10.636594970703126,-0.01727262184023857,0.019646657495200632,-0.03915536782443523
1772731719972622000,10.6466220703125,0.04503799612224102,0.01690232722312212,-0.05125891646370291
1772731719982650000,10.656650146484376,0.12599836949706078,-0.005858955161273479,-0.03050869990708306
1772731719992678100,10.66667822265625,0.149825235286355,-0.035541853502392765,-0.04598380733868107
1772731720002706200,10.6767060546875,0.1516121187031269,-0.05313742368668317,-0.03382310341838747
1772731720012734000,10.68673388671875,0.13506488852798937,-0.05148468804359436,0.020689389747474342
1772731720022762000,10.696761962890625,0.10626198789179324,-0.06377952147126198,0.024635332627966997
1772731720032790000,10.7067900390625,0.09258826732635497,-0.06357230846136808,0.0033044301065616307
1772731720042818000,10.716818115234375,0.04718903667628765,-0.03748392748087644,-0.013094404573831707
1772731720052845000,10.726844970703125,0.029193361258506773,-0.0038382629886269566,-0.036869960300996894
1772731720062873000,10.736873046875,-0.010178864187002182,-0.01740589283108711,0.014372260756231844
1772731720072901000,10.746901123046875,-0.05819616838097572,-0.025155191783607006,0.006037435267027467
1772731720082929200,10.75692919921875,-0.09777765266299247,-0.034394437032938,-0.04177166953636333
1772731720092957000,10.76695703125,-0.13692659074664115,-0.018152035023272037,-0.04292936993781477
1772731720102985200,10.776985107421876,-0.1329290455430746,-0.015322656816244125,-0.0149694229317829
1772731720113013000,10.787012939453126,-0.15961831502616405,-0.023621406345069408,-0.007821670068986713
1772731720123040000,10.7970400390625,-0.1817360388100147,0.0239636439114809,0.025802074852399527
1772731720133068000,10.807068115234374,-0.19047522558271884,0.035975861005485055,0.013593531468696891
1772731720143096000,10.817095947265624,-0.18361761477291583,0.020590368086099622,-0.031988782397005706
1772731720153124000,10.8271240234375,-0.21018004300594328,0.03084609690159559,0.002435848844796419
1772731720163152000,10.83715185546875,-0.21528701075613496,0.011560673934221267,0.0967965874700807
1772731720173180200,10.84718017578125,-0.2133645182609558,-0.02057663182169199,0.12418980397144332
1772731720183208000,10.8572080078125,-0.1111912609875202,-0.05532061294466257,0.17247054487457497
1772731720193236200,10.867236328125,0.05788637177944183,-0.06356587872058153,0.22315770759861914
1772731720203263000,10.877262939453125,0.221020001450181,-0.09264964212477207,0.12880608386155218
1772731720213291000,10.887291015625,0.331775209107995,-0.07991846310645341,-0.013876147802360355
1772731720223319000,10.897319091796875,0.35671442005336285,-0.017980477848649024,-0.10432487321621738
1772731720233346800,10.907346923828126,0.29401509503424167,0.06925356896817683,-0.14928216878506353
1772731720243375000,10.917375,0.2874959223985672,0.10843787062615155,-0.196813379095681
1772731720253403000,10.92740283203125,0.256294728448987,0.11440817720741032,-0.18033641941146925
1772731720263431200,10.93743115234375,0.25190380001366136,0.09043342738002538,-0.1646973718561232
1772731720273458000,10.9474580078125,0.22699498420655725,0.07143705048710107,-0.12842501212209462
1772731720283486200,10.957486328125,0.1742816311508417,0.06124152742624282,-0.13524457421014086
1772731720293514000,10.967513916015625,0.11363806961774825,0.026534078921377657,-0.12658985085049643
1772731720303542000,10.9775419921875,0.036842414706945416,0.04858224460035562,-0.11920579588063993
1772731720313570000,10.987570068359375,-0.022446809607744214,0.07912965081632137,-0.12882390264603308
1772731720323598000,10.99759814453125,0.005402151304483413,0.09597001871913671,-0.1125439907707274
1772731720333626000,11.007626220703125,0.06318506270945072,0.11222761829793453,-0.1490143207622692
1772731720343652900,11.01765283203125,0.035377602851390834,0.12373860787153243,-0.183788879686594
1772731720353681200,11.02768115234375,0.049015083059668535,0.14325140985399484,-0.17025759979914873
1772731720363709000,11.037708984375,0.023355741146206855,0.1394517253100872,-0.15051496198303066
1772731720373737200,11.0477373046875,0.060738838601112365,0.0903586085781455,-0.07404221888366155
1772731720383765000,11.057764892578126,0.08874503590166569,0.06290361541956663,-0.013626100297737866
1772731720393793000,11.06779296875,0.10294950234293937,0.03545125260949135,0.001661549137206748
1772731720403821000,11.077821044921874,0.11751403426826,0.0505897850304842,-0.007936428155610338
1772731720413849000,11.08784912109375,0.13711539131700992,0.04203998335003853,0.001793468421185389
1772731720423876000,11.0978759765625,0.13462415902316568,0.01680208171904087,0.0007358491270337253
1772731720433903900,11.10790380859375,0.14643033215105533,0.015757541102170942,0.01108431599359028
1772731720443932200,11.11793212890625,0.17099778717458247,0.03392974213063717,0.061617146672448136
1772731720453959700,11.127959716796875,0.1955576434135437,0.0199400874838233,0.07062472032406367
1772731720463987700,11.13798779296875,0.1750660595268011,-0.006054477733373641,0.10005570799703709
1772731720474015700,11.148015625,0.12844050195217133,0.0006771686092019081,0.09990399716719985
1772731720484043800,11.158043701171875,0.07797697364985942,-0.016049509786069394,0.08296732014990411
1772731720494071800,11.16807177734375,-0.0036240357160568235,-0.012645838822424411,0.10727910164562053
1772731720504098600,11.1780986328125,-0.08341010461449623,0.009690203887224197,0.07212734343935735
1772731720514126800,11.188126953125,-0.11537702223956585,-0.002924363014101982,0.032674892364488915
1772731720524154600,11.198154541015626,-0.07368249132633209,-0.0009016250148415565,0.02632069189902395
1772731720534183000,11.208182861328124,0.015318565163016318,-0.01855710869282484,0.03559598570927046
1772731720544210700,11.218210693359374,0.13401274912655353,-0.028949615630507467,0.08924158724695444
1772731720554238700,11.22823876953125,0.20084873555898666,-0.03264087136387825,0.10180850648111663
1772731720564266800,11.238266845703125,0.1759638851493597,-0.04703033898323774,0.08527628207886591
1772731720574293800,11.248293701171875,0.09268354439437389,-0.03887625862210989,0.04815442024287767
1772731720584321800,11.25832177734375,-0.012483049476146698,-0.03041471974700689,0.007129623551061376
1772731720594349800,11.268349853515625,-0.010486322700977324,-0.0060392801642417905,0.02368207789058797
1772731720604377900,11.2783779296875,0.042324645510315895,-0.01615647729188204,0.05301255519799888
1772731720614406000,11.288406005859375,0.11098843189179897,-0.028388182355463504,0.02625608396390453
1772731720624433700,11.29843359375,0.15334697967171668,-0.04708645308464765,0.03483700230182148
1772731720634461700,11.308461669921876,0.16848258948326109,-0.003785656018555164,0.01926480030445382
1772731720644488700,11.31848876953125,0.1689706652611494,-0.006365151117742061,-0.034681756941182536
1772731720654516700,11.328516845703126,0.17492051357626914,-0.014382745617628097,-0.04709029814270325
1772731720664544800,11.338544677734374,0.12653379154801367,0.009283668912947178,-0.046412700275238604
1772731720674572800,11.34857275390625,0.06922434287369252,0.02281651970297098,-0.03180440227342769
1772731720684600800,11.358600830078124,0.005628361275792122,0.011310790826380252,-0.01603817554130219
1772731720694628600,11.368628662109375,-0.03601414718925953,-0.01992693574130535,0.006265051744133234
1772731720704657000,11.378656982421875,-0.0832195504784584,0.003095627927780151,0.0020085542102809993
1772731720714684700,11.3886845703125,-0.02792904041111469,0.04737549915909767,-0.008089536358090118
1772731720724711700,11.398711669921875,0.024727614021301268,0.07910451637506484,-0.06885996654070914
1772731720734739700,11.40873974609375,0.033438743743300435,0.10565174703896045,-0.13518371086837724
1772731720744767700,11.418767822265625,0.0343120194464922,0.10775924071222544,-0.11833997283154167
1772731720754795800,11.428795654296875,0.018686580291390417,0.1351481828972697,-0.07031154445535504
1772731720764823600,11.438823486328126,-0.0477443324714899,0.10781126316040754,-0.03304066607011482
1772731720774851800,11.448851806640626,-0.06439619206488133,0.08887596880495548,0.003921840485697612
1772731720784879600,11.458879638671876,-0.04951894092857837,0.08932254352867602,-0.0013265084965620188
1772731720794907000,11.468906982421874,0.0341723187148571,0.07085106729269028,0.00006192278768867254
1772731720804934700,11.4789345703125,0.08981354191601276,0.05002922853827476,0.020355116291809826
1772731720814963000,11.488962890625,0.09830781401693821,0.037785248515009875,-0.015765203818818553
1772731720824990700,11.49899072265625,0.11857494149804114,0.029058044441044328,-0.020280571484565732
1772731720835018800,11.509018798828125,0.1359136143118143,0.021804127790033816,-0.0380773815956898
1772731720845046800,11.519046875,0.1319669225126505,0.008020224848389625,0.0031064598490484056
1772731720855074600,11.529074462890625,0.1081675292521715,0.0013636895686388016,0.04458261703755706
1772731720865102800,11.539102783203125,0.09305179318487644,-0.029333646512031554,0.06094588721422478
1772731720875129600,11.549129638671875,0.09637480012774467,-0.02981996872425079,0.06642680284334346
1772731720885158000,11.559157958984375,0.09944996978938579,-0.0024929858595132827,0.036367344541102645
1772731720895185700,11.569185546875,0.07988485309779643,-0.006116144792735576,0.015714012487698346
1772731720905214000,11.5792138671875,0.054529462566971776,0.018806407278776166,-0.007297153004538267
1772731720915241700,11.58924169921875,0.05652911195158958,0.005497136111557483,-0.016490750747546554
1772731720925269800,11.599269775390624,0.0758867233723402,0.00371960504502058,0.02693084142031148
1772731720935297800,11.6092978515625,0.08988017741143703,-0.0067947747066617005,0.05915078395837917
1772731720945324500,11.619324462890624,0.06101297936737537,-0.02249415588080883,0.0972265763851814
1772731720955352800,11.629352783203124,0.039269934114813804,-0.014675298823416233,0.07147833234556018
1772731720965380600,11.639380615234375,0.01090308680832386,0.004042845650017261,0.04136732651917264
1772731720975409000,11.649408935546875,0.007658405798673629,0.012727671886980534,0.011142832114640623
1772731720985436700,11.659436767578125,0.03231237006187439,0.023216624936461448,0.008754420874454081
1772731720995464700,11.669464599609375,0.05356149431765079,0.01468845056593418,0.012395133730676024
1772731721005492700,11.67949267578125,0.04624211121499538,0.002297171026468277,0.018317290321271867
1772731721015520800,11.689520751953125,0.07051087555289268,-0.0036313422396779056,0.04749240353703499
1772731721025547800,11.6995478515625,0.06865151142179965,0.009260580298304557,0.014823456856142728
1772731721035575800,11.709575927734376,0.05734627355337143,0.007627718399465084,-0.030490287467557935
1772731721045603800,11.719603759765626,0.047772974044084544,0.022407646641135214,-0.018101510412432253
1772731721055631600,11.729631591796876,-0.015735329270362853,0.01968377463519573,0.028950967337377367
1772731721065659600,11.73965966796875,-0.12051906130313872,0.0061573535859584805,-0.018206724352575837
1772731721075687700,11.749687744140624,-0.1533282749712467,0.06919833164960146,-0.08843743125721812
1772731721085715700,11.7597158203125,-0.025756957069039344,0.11611848825663328,-0.07429198326049372
1772731721095742700,11.76974267578125,0.10974866096377373,0.031210546299815175,-0.07635061455704271
1772731721105770800,11.779770751953125,0.07710077533721924,-0.03296586553454399,-0.0207400787550956
1772731721115798800,11.789798828125,0.03132978876531124,-0.04778378769904375,-0.004972180655691772
1772731721125826800,11.799826904296875,0.15078677379488944,-0.041750645014643664,-0.1255459312881343
1772731721135854800,11.809854736328125,0.15347382092177866,-0.029505788208544253,-0.03605067980736494
1772731721145883000,11.8198828125,0.27381986374557016,-0.00492956535667181,0.008963168254308401
1772731721155910700,11.82991064453125,0.36056875739395616,-0.05847732340991497,0.030923071127943694
1772731721165939000,11.83993896484375,0.18524258562624454,-0.005176233594119548,-0.02396587240118533
1772731721175965700,11.849965576171876,0.062245736032724375,0.023786241517961024,-0.05618716664612293
1772731721185993700,11.85999365234375,-0.065883215752244,-0.01102028344720602,-0.040929300428088754
1772731721196021800,11.870021728515624,-0.13126958789825438,-0.015417057101428508,-0.06824130491940304
1772731721206049800,11.8800498046875,-0.1424012227654457,-0.027969372421503064,-0.04185658960714936
1772731721216077800,11.890077880859375,-0.16533377006351946,-0.06640460927784443,-0.02445738224517554
1772731721226105600,11.900105712890625,-0.17662731749415397,-0.17561112618893385,0.0012992094976827502
1772731721236134000,11.9101337890625,-0.23332301818430423,-0.08741904799491167,0.0537994860582985
