time,seconds_elapsed,z,y,x
1772639532776740900,0.051740966796875,-0.9688568115234375,0.0750732421875,0.0742645263671875
1772639532786785800,0.061785888671875,-0.9620208740234375,0.0762939453125,0.0781402587890625
1772639532796831000,0.0718310546875,-0.9597320556640625,0.0756683349609375,0.0776519775390625
1772639532806875600,0.081875732421875,-0.9622955322265625,0.0764007568359375,0.0742645263671875
1772639532816919800,0.091919921875,-0.9663238525390625,0.079193115234375,0.0684051513671875
1772639532826964700,0.10196484375,-0.9708251953125,0.08026123046875,0.0583648681640625
1772639532837009700,0.112009765625,-0.9802398681640625,0.0808563232421875,0.0474700927734375
1772639532847054600,0.1220546875,-0.984771728515625,0.0839385986328125,0.0307769775390625
1772639532857099800,0.132099853515625,-0.9921722412109375,0.086029052734375,0.0227813720703125
1772639532867144700,0.142144775390625,-0.999237060546875,0.0852203369140625,0.0224151611328125
1772639532877190000,0.15218994140625,-1.0039825439453125,0.0845489501953125,0.0269927978515625
1772639532887234600,0.162234619140625,-1.0035247802734375,0.0850677490234375,0.03857421875
1772639532897279700,0.17227978515625,-0.9990386962890625,0.083831787109375,0.0474395751953125
1772639532907324700,0.18232470703125,-0.9942626953125,0.0819244384765625,0.055816650390625
1772639532917368800,0.192368896484375,-0.99151611328125,0.0804595947265625,0.060791015625
1772639532927413800,0.202413818359375,-0.989410400390625,0.0802001953125,0.064300537109375
1772639532937458700,0.212458740234375,-0.988006591796875,0.0779876708984375,0.065948486328125
1772639532947503900,0.22250390625,-0.980377197265625,0.077178955078125,0.0652313232421875
1772639532957548800,0.232548828125,-0.972869873046875,0.0778045654296875,0.065460205078125
1772639532967593700,0.24259375,-0.9708709716796875,0.073822021484375,0.070892333984375
1772639532977638700,0.252638671875,-0.9716644287109375,0.0733489990234375,0.073760986328125
1772639532987683800,0.262683837890625,-0.9729156494140625,0.0735321044921875,0.0735321044921875
1772639532997728800,0.272728759765625,-0.978271484375,0.0752716064453125,0.0756988525390625
1772639533007774000,0.28277392578125,-0.9841156005859375,0.0760498046875,0.072296142578125
1772639533017817900,0.29281787109375,-0.9869537353515625,0.0788116455078125,0.07073974609375
1772639533027862800,0.30286279296875,-0.983978271484375,0.0815277099609375,0.0706787109375
1772639533037907700,0.31290771484375,-0.9819793701171875,0.0826416015625,0.0705108642578125
1772639533047953000,0.322952880859375,-0.98516845703125,0.083770751953125,0.068695068359375
1772639533057997800,0.332997802734375,-0.9820556640625,0.0854034423828125,0.065093994140625
1772639533068042800,0.343042724609375,-0.977935791015625,0.0876617431640625,0.06219482421875
1772639533078087700,0.353087646484375,-0.97540283203125,0.086669921875,0.0600738525390625
1772639533088132900,0.3631328125,-0.97802734375,0.088897705078125,0.0589447021484375
1772639533098177800,0.373177734375,-0.97845458984375,0.08807373046875,0.05670166015625
1772639533108222700,0.38322265625,-0.9785919189453125,0.0879974365234375,0.05584716796875
1772639533118267000,0.393266845703125,-0.9830322265625,0.0867919921875,0.0544281005859375
1772639533128311600,0.4033115234375,-0.9855499267578125,0.086761474609375,0.052886962890625
1772639533138356700,0.413356689453125,-0.9842987060546875,0.08575439453125,0.052886962890625
1772639533148401700,0.423401611328125,-0.985687255859375,0.0853424072265625,0.0528564453125
1772639533158446800,0.43344677734375,-0.984649658203125,0.08349609375,0.0520477294921875
1772639533168491500,0.443491455078125,-0.9838714599609375,0.0817413330078125,0.053558349609375
1772639533178536700,0.45353662109375,-0.9844512939453125,0.0794830322265625,0.05364990234375
1772639533188581600,0.46358154296875,-0.9855804443359375,0.0787811279296875,0.05206298828125
1772639533198626800,0.473626708984375,-0.9857177734375,0.0782012939453125,0.0511627197265625
1772639533208671700,0.483671630859375,-0.988037109375,0.0784759521484375,0.0524444580078125
1772639533218715600,0.493715576171875,-0.9910736083984375,0.0784759521484375,0.0530548095703125
1772639533228760800,0.5037607421875,-0.9933929443359375,0.078826904296875,0.055145263671875
1772639533238805800,0.5138056640625,-0.9921875,0.0792083740234375,0.0592041015625
1772639533248850700,0.5238505859375,-0.987823486328125,0.0793914794921875,0.06298828125
1772639533258895600,0.5338955078125,-0.983001708984375,0.080718994140625,0.06280517578125
1772639533268940800,0.54394091796875,-0.979949951171875,0.0823516845703125,0.0653839111328125
1772639533278985700,0.55398583984375,-0.98382568359375,0.0811004638671875,0.0645904541015625
1772639533289031000,0.564031005859375,-0.9893341064453125,0.0823822021484375,0.0635833740234375
1772639533299075600,0.57407568359375,-0.9892425537109375,0.0876007080078125,0.06793212890625
1772639533309120800,0.584120849609375,-0.9873046875,0.0907745361328125,0.0704803466796875
1772639533319164700,0.59416455078125,-0.98956298828125,0.08966064453125,0.0705413818359375
1772639533329209900,0.6042099609375,-0.99041748046875,0.0880126953125,0.073211669921875
1772639533339254500,0.614254638671875,-0.989044189453125,0.09063720703125,0.074676513671875
1772639533349299700,0.6242998046875,-0.9897308349609375,0.0903167724609375,0.0723114013671875
1772639533359344600,0.6343447265625,-0.98699951171875,0.0881500244140625,0.0698394775390625
1772639533369389800,0.644389892578125,-0.9830169677734375,0.0859222412109375,0.071929931640625
1772639533379434500,0.6544345703125,-0.98040771484375,0.084075927734375,0.073516845703125
1772639533389479700,0.664479736328125,-0.982330322265625,0.0792694091796875,0.0721282958984375
1772639533399524600,0.674524658203125,-0.9845428466796875,0.07696533203125,0.0710296630859375
1772639533409569800,0.68456982421875,-0.9872894287109375,0.0750579833984375,0.0698394775390625
1772639533419613700,0.69461376953125,-0.9884033203125,0.072235107421875,0.0706024169921875
1772639533429658600,0.70465869140625,-0.991912841796875,0.0688934326171875,0.0705718994140625
1772639533439703800,0.714703857421875,-0.9951324462890625,0.07012939453125,0.06890869140625
1772639533449748700,0.724748779296875,-0.99658203125,0.0726470947265625,0.0677642822265625
1772639533459794000,0.7347939453125,-0.995941162109375,0.0721282958984375,0.0688629150390625
1772639533469838600,0.744838623046875,-0.99432373046875,0.0741119384765625,0.0666961669921875
1772639533479883800,0.7548837890625,-0.99444580078125,0.074371337890625,0.0659942626953125
1772639533489928700,0.7649287109375,-0.996673583984375,0.0764312744140625,0.0656890869140625
1772639533499974000,0.774973876953125,-0.9934844970703125,0.0795745849609375,0.065399169921875
1772639533510018600,0.7850185546875,-0.98614501953125,0.079193115234375,0.0658111572265625
1772639533520062700,0.795062744140625,-0.9818572998046875,0.0797882080078125,0.0667266845703125
1772639533530107600,0.805107666015625,-0.9806365966796875,0.081085205078125,0.0667266845703125
1772639533540152800,0.81515283203125,-0.9798583984375,0.08282470703125,0.0651702880859375
1772639533550197500,0.825197509765625,-0.9759368896484375,0.0831146240234375,0.0600433349609375
1772639533560242700,0.83524267578125,-0.9703521728515625,0.0848541259765625,0.057403564453125
1772639533570287600,0.84528759765625,-0.9639739990234375,0.0821075439453125,0.058197021484375
1772639533580332800,0.855332763671875,-0.96282958984375,0.081268310546875,0.0572509765625
1772639533590377700,0.865377685546875,-0.973968505859375,0.0809173583984375,0.055877685546875
1772639533600422700,0.875422607421875,-0.9878997802734375,0.08154296875,0.0560302734375
1772639533610467600,0.885467529296875,-0.9957275390625,0.0831298828125,0.0553131103515625
1772639533620511700,0.89551171875,-1.0009765625,0.0836029052734375,0.056060791015625
1772639533630556700,0.905556640625,-1.003204345703125,0.084564208984375,0.056976318359375
1772639533640601600,0.9156015625,-1.0034027099609375,0.085357666015625,0.056915283203125
1772639533650646800,0.925646728515625,-0.99761962890625,0.0841522216796875,0.0559539794921875
1772639533660691700,0.935691650390625,-0.9919586181640625,0.08251953125,0.0555572509765625
1772639533670737000,0.94573681640625,-0.9855804443359375,0.0782623291015625,0.055267333984375
1772639533680781600,0.955781494140625,-0.9778900146484375,0.07843017578125,0.05157470703125
1772639533690826800,0.96582666015625,-0.9722747802734375,0.076202392578125,0.0497589111328125
1772639533700871700,0.97587158203125,-0.9716033935546875,0.0750732421875,0.0504150390625
1772639533710916900,0.985916748046875,-0.9736785888671875,0.0771026611328125,0.0528411865234375
1772639533720960500,0.99596044921875,-0.9797515869140625,0.0795135498046875,0.05072021484375
1772639533731005700,1.006005615234375,-0.9859619140625,0.0821990966796875,0.051483154296875
1772639533741050600,1.016050537109375,-0.9914398193359375,0.0841217041015625,0.054046630859375
1772639533751095800,1.026095703125,-0.99273681640625,0.0868072509765625,0.0544891357421875
1772639533761140500,1.036140380859375,-0.9933929443359375,0.0882110595703125,0.052215576171875
1772639533771185700,1.046185546875,-0.9951934814453125,0.088104248046875,0.050018310546875
1772639533781230600,1.056230712890625,-0.9949951171875,0.087982177734375,0.047637939453125
1772639533791275800,1.06627587890625,-0.99127197265625,0.0883636474609375,0.04705810546875
1772639533801320700,1.07632080078125,-0.984405517578125,0.085540771484375,0.0475311279296875
1772639533811365600,1.08636572265625,-0.9792022705078125,0.083282470703125,0.05084228515625
1772639533821409800,1.096409912109375,-0.9732818603515625,0.08038330078125,0.0528564453125
1772639533831454700,1.106454833984375,-0.9696502685546875,0.07940673828125,0.05474853515625
1772639533841500000,1.1165,-0.9663238525390625,0.0782012939453125,0.053009033203125
1772639533851544600,1.126544677734375,-0.9682159423828125,0.0778350830078125,0.0514068603515625
1772639533861589800,1.13658984375,-0.973175048828125,0.079864501953125,0.0496063232421875
1772639533871634700,1.146634765625,-0.97479248046875,0.0814208984375,0.0507354736328125
1772639533881680000,1.156679931640625,-0.9730072021484375,0.0827789306640625,0.05328369140625
1772639533891724500,1.166724609375,-0.977447509765625,0.08203125,0.0556182861328125
1772639533901769700,1.176769775390625,-0.9827117919921875,0.0831146240234375,0.0573577880859375
1772639533911814700,1.186814697265625,-0.9884185791015625,0.0832672119140625,0.0565948486328125
1772639533921858800,1.19685888671875,-0.99432373046875,0.087127685546875,0.053985595703125
1772639533931903500,1.206903564453125,-0.999053955078125,0.088043212890625,0.050872802734375
1772639533941948700,1.21694873046875,-1.0049591064453125,0.0886077880859375,0.050750732421875
1772639533951993600,1.22699365234375,-1.0060272216796875,0.0871429443359375,0.049102783203125
1772639533962038800,1.237038818359375,-1.00299072265625,0.0872802734375,0.0467987060546875
1772639533972083700,1.247083740234375,-1.0014190673828125,0.08673095703125,0.045013427734375
1772639533982128600,1.257128662109375,-0.9980316162109375,0.08734130859375,0.0413055419921875
1772639533992173600,1.267173583984375,-0.9913330078125,0.08599853515625,0.039825439453125
1772639534002218800,1.27721875,-0.98968505859375,0.0856170654296875,0.04266357421875
1772639534012263700,1.287263671875,-0.9882049560546875,0.0864410400390625,0.045501708984375
1772639534022307600,1.2973076171875,-0.98614501953125,0.0868682861328125,0.0470428466796875
1772639534032352800,1.307352783203125,-0.985198974609375,0.08905029296875,0.0454559326171875
1772639534042397700,1.317397705078125,-0.9864654541015625,0.0908966064453125,0.0452728271484375
1772639534052443000,1.32744287109375,-0.9840850830078125,0.0910186767578125,0.0450592041015625
1772639534062487600,1.337487548828125,-0.9795074462890625,0.0919647216796875,0.045654296875
1772639534072532700,1.34753271484375,-0.97882080078125,0.0948486328125,0.047943115234375
1772639534082577700,1.35757763671875,-0.9827728271484375,0.0942230224609375,0.048736572265625
1772639534092622300,1.367622314453125,-0.985076904296875,0.0950775146484375,0.0508270263671875
1772639534102667300,1.377667236328125,-0.9850616455078125,0.0960693359375,0.0537872314453125
1772639534112711400,1.38771142578125,-0.98486328125,0.0971832275390625,0.0572509765625
1772639534122756400,1.39775634765625,-0.9835052490234375,0.0977630615234375,0.057464599609375
1772639534132801300,1.40780126953125,-0.9846343994140625,0.098175048828125,0.0579071044921875
1772639534142846500,1.417846435546875,-0.9837188720703125,0.0971527099609375,0.05633544921875
1772639534152891400,1.427891357421875,-0.980621337890625,0.097869873046875,0.0548858642578125
1772639534162936300,1.437936279296875,-0.9792633056640625,0.096405029296875,0.0529632568359375
1772639534172981200,1.447981201171875,-0.9800262451171875,0.092041015625,0.0525054931640625
1772639534183026400,1.4580263671875,-0.982025146484375,0.0909576416015625,0.0532379150390625
1772639534193071400,1.4680712890625,-0.9843292236328125,0.0908203125,0.0536651611328125
1772639534203116500,1.478116455078125,-0.9865570068359375,0.0901947021484375,0.053741455078125
1772639534213161200,1.4881611328125,-0.9887847900390625,0.088287353515625,0.0525360107421875
1772639534223205400,1.498205322265625,-0.99127197265625,0.0881805419921875,0.0516357421875
1772639534233250300,1.508250244140625,-0.9916534423828125,0.0875701904296875,0.0499114990234375
1772639534243295500,1.51829541015625,-0.988861083984375,0.0869903564453125,0.048675537109375
1772639534253340200,1.528340087890625,-0.9880218505859375,0.087860107421875,0.048797607421875
1772639534263385300,1.53838525390625,-0.986328125,0.087554931640625,0.051788330078125
1772639534273430300,1.54843017578125,-0.9886016845703125,0.08837890625,0.05340576171875
1772639534283475500,1.558475341796875,-0.9896392822265625,0.0891571044921875,0.0513916015625
1772639534293520100,1.56852001953125,-0.9918212890625,0.090789794921875,0.0511932373046875
1772639534303565300,1.5785654296875,-0.9910736083984375,0.092437744140625,0.0531005859375
1772639534313610200,1.5886103515625,-0.9906005859375,0.0913848876953125,0.0567779541015625
1772639534323654400,1.598654296875,-0.9890899658203125,0.091064453125,0.057647705078125
1772639534333699300,1.60869921875,-0.9871826171875,0.091827392578125,0.055328369140625
1772639534343744300,1.618744140625,-0.9854583740234375,0.091400146484375,0.0543060302734375
1772639534353789400,1.62878955078125,-0.9848785400390625,0.09197998046875,0.0548248291015625
1772639534363834400,1.63883447265625,-0.980010986328125,0.0897369384765625,0.055206298828125
1772639534373879600,1.648879638671875,-0.97601318359375,0.091552734375,0.054595947265625
1772639534383924200,1.65892431640625,-0.9796142578125,0.09234619140625,0.0561981201171875
1772639534393969400,1.668969482421875,-0.9813690185546875,0.0913543701171875,0.05279541015625
1772639534404014300,1.679014404296875,-0.984375,0.0921478271484375,0.0518035888671875
1772639534414058200,1.689058349609375,-0.9840240478515625,0.0916900634765625,0.0491790771484375
1772639534424103200,1.699103271484375,-0.9858245849609375,0.0914459228515625,0.0501251220703125
1772639534434148400,1.7091484375,-0.987640380859375,0.09173583984375,0.051513671875
1772639534444193300,1.719193359375,-0.98773193359375,0.0927581787109375,0.050537109375
1772639534454238500,1.729238525390625,-0.9895782470703125,0.0919189453125,0.0514984130859375
1772639534464283100,1.739283203125,-0.9826202392578125,0.090301513671875,0.04754638671875
1772639534474328300,1.749328369140625,-0.98931884765625,0.0901336669921875,0.04632568359375
1772639534484373200,1.759373291015625,-0.989837646484375,0.0905303955078125,0.0445709228515625
1772639534494418400,1.76941845703125,-0.98895263671875,0.090057373046875,0.0471343994140625
1772639534504463400,1.77946337890625,-0.9871368408203125,0.0905303955078125,0.05010986328125
1772639534514507300,1.78950732421875,-0.9893951416015625,0.0894012451171875,0.049896240234375
1772639534524552400,1.799552490234375,-0.98785400390625,0.0895233154296875,0.049041748046875
1772639534534597400,1.809597412109375,-0.989410400390625,0.09063720703125,0.0487518310546875
1772639534544642300,1.819642333984375,-0.986328125,0.091033935546875,0.046539306640625
1772639534554687200,1.829687255859375,-0.9815216064453125,0.0907135009765625,0.045257568359375
1772639534564732400,1.839732421875,-0.9799041748046875,0.0914764404296875,0.0458221435546875
1772639534574777300,1.84977734375,-0.983612060546875,0.0915679931640625,0.0461578369140625
1772639534584822500,1.859822509765625,-0.9852447509765625,0.0925750732421875,0.04534912109375
1772639534594867200,1.8698671875,-0.985076904296875,0.09490966796875,0.045562744140625
1772639534604912400,1.879912353515625,-0.98590087890625,0.09625244140625,0.0478668212890625
1772639534614956300,1.889956298828125,-0.9876708984375,0.099761962890625,0.0525665283203125
1772639534625001500,1.90000146484375,-0.98797607421875,0.0975799560546875,0.0518646240234375
1772639534635046100,1.910046142578125,-0.9835662841796875,0.095245361328125,0.04656982421875
1772639534645091300,1.92009130859375,-0.975982666015625,0.0954742431640625,0.04620361328125
1772639534655136300,1.93013623046875,-0.9744110107421875,0.0940704345703125,0.0475616455078125
1772639534665181400,1.940181396484375,-0.976654052734375,0.0917205810546875,0.046295166015625
1772639534675226000,1.95022607421875,-0.9759368896484375,0.09271240234375,0.0474090576171875
1772639534685271300,1.960271240234375,-0.9789276123046875,0.0911407470703125,0.055999755859375
1772639534695316200,1.970316162109375,-0.9828948974609375,0.0894622802734375,0.05511474609375
1772639534705361400,1.980361328125,-0.9851226806640625,0.0917205810546875,0.0523529052734375
1772639534715405300,1.9904052734375,-0.9885406494140625,0.09124755859375,0.0543975830078125
1772639534725450200,2.0004501953125,-0.9889678955078125,0.09033203125,0.053497314453125
1772639534735495400,2.010495361328125,-0.99102783203125,0.0893096923828125,0.0503692626953125
1772639534745540400,2.020540283203125,-0.991546630859375,0.0906982421875,0.0489501953125
1772639534755585500,2.03058544921875,-0.98858642578125,0.09149169921875,0.0484619140625
1772639534765630200,2.040630126953125,-0.988250732421875,0.0902099609375,0.0493927001953125
1772639534775675400,2.05067529296875,-0.9881591796875,0.0925140380859375,0.0492706298828125
1772639534785720300,2.06072021484375,-0.988433837890625,0.091827392578125,0.048126220703125
1772639534795765500,2.070765625,-0.9884490966796875,0.0916595458984375,0.046600341796875
1772639534805810200,2.08081005859375,-0.989471435546875,0.09197998046875,0.045867919921875
1772639534815854300,2.090854248046875,-0.9869384765625,0.092864990234375,0.046295166015625
1772639534825899300,2.100899169921875,-0.986480712890625,0.0939483642578125,0.0466766357421875
1772639534835944400,2.1109443359375,-0.9860382080078125,0.093109130859375,0.0471038818359375
1772639534845989000,2.120989013671875,-0.9864959716796875,0.09368896484375,0.0462493896484375
1772639534856034300,2.131034423828125,-0.9846649169921875,0.095611572265625,0.04693603515625
1772639534866079200,2.141079345703125,-0.9834747314453125,0.096405029296875,0.048004150390625
1772639534876124400,2.15112451171875,-0.9852294921875,0.0980224609375,0.048736572265625
1772639534886169300,2.16116943359375,-0.98614501953125,0.0981597900390625,0.0504150390625
1772639534896214300,2.17121435546875,-0.98626708984375,0.0995025634765625,0.0502777099609375
1772639534906259200,2.18125927734375,-0.9834136962890625,0.098724365234375,0.052825927734375
1772639534916303400,2.191303466796875,-0.97991943359375,0.0976104736328125,0.0513458251953125
1772639534926348300,2.201348388671875,-0.976898193359375,0.0966949462890625,0.0495452880859375
1772639534936393200,2.211393310546875,-0.97247314453125,0.0979156494140625,0.0477752685546875
1772639534946438400,2.2214384765625,-0.9749298095703125,0.0970458984375,0.0471343994140625
1772639534956483300,2.2314833984375,-0.9764404296875,0.0968170166015625,0.0482635498046875
1772639534966528500,2.241528564453125,-0.98138427734375,0.09722900390625,0.049163818359375
1772639534976573200,2.2515732421875,-0.987640380859375,0.099151611328125,0.0543975830078125
1772639534986618400,2.261618408203125,-0.99346923828125,0.1004486083984375,0.055908203125
1772639534996663300,2.271663330078125,-0.99871826171875,0.1010284423828125,0.0523681640625
1772639535006708500,2.28170849609375,-0.9963836669921875,0.102935791015625,0.054656982421875
1772639535016752000,2.291752197265625,-0.9924774169921875,0.09869384765625,0.05810546875
1772639535026797300,2.30179736328125,-0.9979095458984375,0.0965576171875,0.0474395751953125
1772639535036842200,2.31184228515625,-0.9973297119140625,0.097869873046875,0.05078125
1772639535046887400,2.321887451171875,-0.99066162109375,0.0948638916015625,0.0505828857421875
1772639535056932000,2.33193212890625,-0.9871826171875,0.0947418212890625,0.050445556640625
1772639535066977300,2.341977294921875,-0.98809814453125,0.0955657958984375,0.05181884765625
1772639535077022200,2.352022216796875,-0.9828948974609375,0.0939483642578125,0.0518035888671875
1772639535087067400,2.3620673828125,-0.98089599609375,0.0936737060546875,0.048553466796875
1772639535097112300,2.3721123046875,-0.9781036376953125,0.093658447265625,0.046661376953125
1772639535107157200,2.3821572265625,-0.9785308837890625,0.092742919921875,0.0475311279296875
1772639535117202200,2.3922021484375,-0.978973388671875,0.091766357421875,0.04931640625
1772639535127246300,2.402246337890625,-0.981201171875,0.09429931640625,0.0494384765625
1772639535137291500,2.41229150390625,-0.9839019775390625,0.0949249267578125,0.0512542724609375
1772639535147336200,2.422336181640625,-0.9862213134765625,0.0958404541015625,0.052825927734375
1772639535157381400,2.43238134765625,-0.9858856201171875,0.0980072021484375,0.053375244140625
1772639535167426300,2.44242626953125,-0.9829559326171875,0.0977325439453125,0.0528717041015625
1772639535177471500,2.452471435546875,-0.981689453125,0.0983428955078125,0.05126953125
1772639535187516200,2.46251611328125,-0.9793243408203125,0.0987091064453125,0.052520751953125
1772639535197561300,2.472561279296875,-0.975830078125,0.098785400390625,0.05218505859375
1772639535207606300,2.482606201171875,-0.974578857421875,0.0975341796875,0.0501861572265625
1772639535217651500,2.4926513671875,-0.976806640625,0.098297119140625,0.048858642578125
1772639535227695000,2.502695068359375,-0.980560302734375,0.09906005859375,0.049896240234375
1772639535237740300,2.512740234375,-0.9843902587890625,0.099029541015625,0.0513458251953125
1772639535247785200,2.52278515625,-0.9873504638671875,0.099395751953125,0.051544189453125
1772639535257830400,2.532830322265625,-0.9915313720703125,0.0991973876953125,0.053131103515625
1772639535267875300,2.542875244140625,-0.993804931640625,0.100341796875,0.0531158447265625
1772639535277920300,2.552920166015625,-0.993743896484375,0.0990447998046875,0.052276611328125
1772639535287965200,2.562965087890625,-0.992828369140625,0.095855712890625,0.0506744384765625
1772639535298010400,2.57301025390625,-0.991424560546875,0.0962066650390625,0.051300048828125
1772639535308055300,2.58305517578125,-0.9941864013671875,0.0950164794921875,0.0504150390625
1772639535318100200,2.593100341796875,-0.9961700439453125,0.093597412109375,0.0496826171875
1772639535328144400,2.603144287109375,-0.99322509765625,0.0930938720703125,0.049835205078125
1772639535338189300,2.613189208984375,-0.989532470703125,0.0922698974609375,0.04876708984375
1772639535348234500,2.623234375,-0.9886474609375,0.0924072265625,0.050628662109375
1772639535358279200,2.633279052734375,-0.9882965087890625,0.0927276611328125,0.0500946044921875
1772639535368324400,2.643324462890625,-0.9860382080078125,0.09320068359375,0.046295166015625
1772639535378369300,2.653369384765625,-0.9846649169921875,0.093414306640625,0.0440826416015625
1772639535388414500,2.66341455078125,-0.9846038818359375,0.0943145751953125,0.044708251953125
1772639535398459400,2.67345947265625,-0.9840545654296875,0.0944671630859375,0.044342041015625
1772639535408504300,2.68350439453125,-0.983673095703125,0.0941009521484375,0.0448150634765625
1772639535418549200,2.69354931640625,-0.9842987060546875,0.09686279296875,0.045013427734375
1772639535428593400,2.703593505859375,-0.981475830078125,0.0975341796875,0.0477447509765625
1772639535438638300,2.713638427734375,-0.9799957275390625,0.0976715087890625,0.0489959716796875
1772639535448683300,2.723683349609375,-0.9793548583984375,0.0976715087890625,0.0500946044921875
1772639535458728200,2.733728271484375,-0.9798126220703125,0.0994110107421875,0.0512847900390625
1772639535468773400,2.7437734375,-0.980255126953125,0.099700927734375,0.0524749755859375
1772639535478818300,2.753818359375,-0.9832611083984375,0.098846435546875,0.05169677734375
1772639535488863200,2.76386328125,-0.9858551025390625,0.0987701416015625,0.050933837890625
1772639535498908200,2.773908203125,-0.98345947265625,0.0981292724609375,0.0508880615234375
1772639535508953300,2.783953369140625,-0.9808197021484375,0.097381591796875,0.053466796875
1772639535518998300,2.793998291015625,-0.9810333251953125,0.0961456298828125,0.0533447265625
1772639535529042200,2.804042236328125,-0.9815673828125,0.095916748046875,0.0531768798828125
1772639535539087400,2.81408740234375,-0.982177734375,0.0952911376953125,0.050506591796875
1772639535549132300,2.82413232421875,-0.9861602783203125,0.095245361328125,0.047760009765625
1772639535559177500,2.834177490234375,-0.9880218505859375,0.09735107421875,0.04901123046875
1772639535569222100,2.84422216796875,-0.9879913330078125,0.098724365234375,0.0501251220703125
1772639535579267300,2.854267333984375,-0.9868316650390625,0.098297119140625,0.050689697265625
1772639535589312300,2.864312255859375,-0.9852294921875,0.0982818603515625,0.050537109375
1772639535599357400,2.874357421875,-0.985687255859375,0.097747802734375,0.04852294921875
1772639535609402400,2.88440234375,-0.9832305908203125,0.0977783203125,0.04632568359375
1772639535619447300,2.894447265625,-0.982269287109375,0.0954742431640625,0.0462799072265625
1772639535629491500,2.904491455078125,-0.9817962646484375,0.09490966796875,0.0482635498046875
1772639535639536400,2.914536376953125,-0.983642578125,0.094818115234375,0.04998779296875
1772639535649581300,2.924581298828125,-0.9866943359375,0.0967559814453125,0.0551605224609375
1772639535659626200,2.934626220703125,-0.988555908203125,0.0971527099609375,0.0565338134765625
1772639535669671400,2.94467138671875,-0.991943359375,0.0970916748046875,0.0554046630859375
1772639535679716400,2.95471630859375,-0.9905548095703125,0.097625732421875,0.0538177490234375
1772639535689761300,2.96476123046875,-0.99176025390625,0.0979461669921875,0.0522308349609375
1772639535699806200,2.97480615234375,-0.98992919921875,0.096649169921875,0.0522613525390625
1772639535709851400,2.984851318359375,-0.98760986328125,0.0972442626953125,0.05322265625
1772639535719896300,2.994896240234375,-0.98468017578125,0.0970611572265625,0.053741455078125
1772639535729941200,3.004941162109375,-0.9820404052734375,0.096771240234375,0.0530242919921875
1772639535739985200,3.014985107421875,-0.9795684814453125,0.09613037109375,0.052734375
1772639535750030300,3.0250302734375,-0.979217529296875,0.0966033935546875,0.0518951416015625
1772639535760075300,3.0350751953125,-0.9800872802734375,0.0958709716796875,0.0516204833984375
1772639535770120400,3.045120361328125,-0.9840850830078125,0.0970916748046875,0.050933837890625
1772639535780165400,3.055165283203125,-0.985107421875,0.0970306396484375,0.05010986328125
1772639535790210300,3.065210205078125,-0.9869537353515625,0.096954345703125,0.051300048828125
1772639535800255200,3.075255126953125,-0.98846435546875,0.097869873046875,0.0522003173828125
1772639535810300400,3.085300537109375,-0.9871063232421875,0.0977935791015625,0.05413818359375
1772639535820345300,3.095345458984375,-0.9862060546875,0.0971221923828125,0.05535888671875
1772639535830390300,3.105390380859375,-0.985748291015625,0.0972137451171875,0.054534912109375
1772639535840434400,3.115434326171875,-0.983673095703125,0.097198486328125,0.049041748046875
1772639535850479400,3.125479248046875,-0.98870849609375,0.0962677001953125,0.0480499267578125
1772639535860524300,3.135524169921875,-0.9907684326171875,0.0960540771484375,0.05157470703125
1772639535870569200,3.1455693359375,-0.9921722412109375,0.0965423583984375,0.0511627197265625
1772639535880614400,3.155614501953125,-0.9922943115234375,0.096923828125,0.0533447265625
1772639535890659300,3.165659423828125,-0.9872894287109375,0.0976409912109375,0.052947998046875
1772639535900704300,3.175704345703125,-0.98577880859375,0.095367431640625,0.05010986328125
1772639535910749400,3.18574951171875,-0.984893798828125,0.0944366455078125,0.0487060546875
1772639535920794400,3.19579443359375,-0.9842529296875,0.09490966796875,0.046234130859375
1772639535930839300,3.20583935546875,-0.985198974609375,0.0947723388671875,0.048919677734375
1772639535940883500,3.215883544921875,-0.9839630126953125,0.0937652587890625,0.052032470703125
1772639535950928100,3.22592822265625,-0.98370361328125,0.0962677001953125,0.049896240234375
1772639535960973300,3.235973388671875,-0.98345947265625,0.09747314453125,0.0487060546875
1772639535971018200,3.246018310546875,-0.9837646484375,0.098052978515625,0.048065185546875
1772639535981063400,3.2560634765625,-0.9832916259765625,0.097991943359375,0.0483551025390625
1772639535991108400,3.2661083984375,-0.9824676513671875,0.09747314453125,0.0501556396484375
1772639536001153300,3.2761533203125,-0.98455810546875,0.0970001220703125,0.0517120361328125
1772639536011198200,3.2861982421875,-0.98858642578125,0.095794677734375,0.05224609375
1772639536021243400,3.296243408203125,-0.990997314453125,0.0967254638671875,0.0516510009765625
1772639536031288300,3.306288330078125,-0.9897308349609375,0.0960693359375,0.0516815185546875
1772639536041333500,3.31633349609375,-0.9866943359375,0.09625244140625,0.04986572265625
1772639536051377400,3.32637744140625,-0.9837493896484375,0.0946807861328125,0.048187255859375
1772639536061422300,3.33642236328125,-0.97930908203125,0.093505859375,0.047027587890625
1772639536071467500,3.346467529296875,-0.977325439453125,0.09405517578125,0.04608154296875
1772639536081512200,3.35651220703125,-0.9772796630859375,0.094024658203125,0.0469207763671875
1772639536091557400,3.366557373046875,-0.9796142578125,0.0926055908203125,0.04736328125
1772639536101602000,3.37660205078125,-0.985992431640625,0.0914459228515625,0.048553466796875
1772639536111647200,3.386647216796875,-0.989959716796875,0.0919647216796875,0.04718017578125
1772639536121692200,3.396692138671875,-0.9910430908203125,0.09423828125,0.0486907958984375
1772639536131737000,3.406737060546875,-0.99462890625,0.0948944091796875,0.048919677734375
1772639536141782000,3.416781982421875,-0.990753173828125,0.0946502685546875,0.047760009765625
1772639536151826200,3.426826171875,-0.9893798828125,0.093353271484375,0.0449371337890625
1772639536161871000,3.43687109375,-0.985687255859375,0.09381103515625,0.0432281494140625
1772639536171916000,3.446916015625,-0.9831390380859375,0.0924224853515625,0.0424652099609375
1772639536181961000,3.4569609375,-0.9842071533203125,0.0909576416015625,0.0424041748046875
1772639536192006100,3.467006103515625,-0.98388671875,0.0909271240234375,0.041473388671875
1772639536202051000,3.477051025390625,-0.986053466796875,0.091552734375,0.0435638427734375
1772639536212096000,3.487095947265625,-0.9868316650390625,0.0916595458984375,0.0452423095703125
1772639536222141000,3.497140869140625,-0.9892425537109375,0.0922088623046875,0.047149658203125
1772639536232186000,3.50718603515625,-0.9902496337890625,0.09454345703125,0.045074462890625
1772639536242231000,3.51723095703125,-0.9916534423828125,0.096160888671875,0.043853759765625
1772639536252275000,3.52727490234375,-0.990020751953125,0.0938720703125,0.0442657470703125
1772639536262320000,3.537320068359375,-0.9847869873046875,0.0929718017578125,0.0456695556640625
1772639536272365000,3.547364990234375,-0.982757568359375,0.09228515625,0.0460205078125
1772639536282410200,3.55741015625,-0.98089599609375,0.0911865234375,0.0480499267578125
1772639536292455000,3.567454833984375,-0.9784088134765625,0.0909423828125,0.0494842529296875
1772639536302500000,3.5775,-0.9790496826171875,0.0909881591796875,0.048309326171875
1772639536312545000,3.587544921875,-0.9800567626953125,0.0921478271484375,0.0475921630859375
1772639536322590200,3.597590087890625,-0.9809417724609375,0.0930938720703125,0.0445404052734375
1772639536332635100,3.60763525390625,-0.9819488525390625,0.092926025390625,0.047454833984375
1772639536342680000,3.61768017578125,-0.9839630126953125,0.091644287109375,0.0484619140625
1772639536352725000,3.62772509765625,-0.984100341796875,0.091064453125,0.0473480224609375
1772639536362769200,3.63776904296875,-0.984771728515625,0.0910797119140625,0.0489501953125
1772639536372814000,3.64781396484375,-0.98138427734375,0.0924072265625,0.048095703125
1772639536382859000,3.65785888671875,-0.9784698486328125,0.0910491943359375,0.048126220703125
1772639536392904000,3.667904052734375,-0.9794158935546875,0.0904998779296875,0.04742431640625
1772639536402949000,3.67794921875,-0.981292724609375,0.0905914306640625,0.046356201171875
1772639536412994000,3.687994140625,-0.986724853515625,0.0912933349609375,0.0460357666015625
1772639536423039000,3.6980390625,-0.9882965087890625,0.09149169921875,0.0462646484375
1772639536433084000,3.708083984375,-0.9910888671875,0.093231201171875,0.0467529296875
1772639536443129000,3.718129150390625,-0.9950103759765625,0.094085693359375,0.046417236328125
1772639536453174000,3.728174072265625,-0.9949188232421875,0.09368896484375,0.0458984375
1772639536463218000,3.738218017578125,-0.9884796142578125,0.0924072265625,0.0472259521484375
1772639536473263000,3.74826318359375,-0.9854736328125,0.0906829833984375,0.045684814453125
1772639536483308000,3.75830810546875,-0.9813079833984375,0.0896759033203125,0.0434417724609375
1772639536493353200,3.768353271484375,-0.9788055419921875,0.0901947021484375,0.0452728271484375
1772639536503398100,3.778398193359375,-0.9839935302734375,0.08837890625,0.0487518310546875
1772639536513443000,3.788443115234375,-0.9874725341796875,0.0867919921875,0.0476226806640625
1772639536523488000,3.798488037109375,-0.988739013671875,0.0882568359375,0.0446929931640625
1772639536533533200,3.808533203125,-0.9876861572265625,0.0886993408203125,0.0450592041015625
1772639536543578000,3.818578125,-0.9821319580078125,0.0859527587890625,0.046783447265625
1772639536553623000,3.828623046875,-0.9840087890625,0.0859832763671875,0.0499725341796875
1772639536563667000,3.8386669921875,-0.986175537109375,0.086456298828125,0.0482330322265625
1772639536573712100,3.848712158203125,-0.988677978515625,0.08685302734375,0.0491943359375
1772639536583757000,3.858757080078125,-0.9881439208984375,0.086273193359375,0.0533447265625
1772639536593802000,3.868802001953125,-0.9903411865234375,0.086151123046875,0.0552215576171875
1772639536603847000,3.878846923828125,-0.995452880859375,0.08599853515625,0.0521392822265625
1772639536613892000,3.88889208984375,-1.00140380859375,0.0854339599609375,0.05511474609375
1772639536623937000,3.89893701171875,-1.0010986328125,0.086669921875,0.0562591552734375
1772639536633982200,3.908982177734375,-0.9961090087890625,0.08709716796875,0.0558624267578125
1772639536644027000,3.91902685546875,-0.994598388671875,0.084808349609375,0.0555572509765625
1772639536654072000,3.929072021484375,-0.98956298828125,0.0849456787109375,0.0489959716796875
1772639536664116200,3.9391162109375,-0.982635498046875,0.08465576171875,0.0460662841796875
1772639536674161200,3.9491611328125,-0.97882080078125,0.08319091796875,0.0482025146484375
1772639536684206000,3.9592060546875,-0.9761505126953125,0.082855224609375,0.047943115234375
1772639536694251000,3.9692509765625,-0.975341796875,0.0830078125,0.048736572265625
1772639536704296200,3.979296142578125,-0.975982666015625,0.0836944580078125,0.0499267578125
1772639536714341000,3.989341064453125,-0.9767608642578125,0.084716796875,0.0510406494140625
1772639536724386000,3.999385986328125,-0.9813690185546875,0.08465576171875,0.049835205078125
1772639536734431000,4.009430908203125,-0.9824981689453125,0.086273193359375,0.0482330322265625
1772639536744476200,4.01947607421875,-0.9862060546875,0.0853729248046875,0.0484466552734375
1772639536754521000,4.02952099609375,-0.9881744384765625,0.0859832763671875,0.0485687255859375
1772639536764565000,4.03956494140625,-0.9921722412109375,0.0868988037109375,0.0467987060546875
1772639536774610000,4.04960986328125,-0.994384765625,0.0882720947265625,0.0467681884765625
1772639536784655000,4.059655029296875,-0.9959564208984375,0.0884857177734375,0.0509033203125
1772639536794700000,4.069699951171875,-0.9936981201171875,0.0890655517578125,0.051727294921875
1772639536804745000,4.079744873046875,-0.9911651611328125,0.0881500244140625,0.0496826171875
1772639536814790000,4.089789794921875,-0.9883270263671875,0.0877532958984375,0.0485992431640625
1772639536824835000,4.0998349609375,-0.98583984375,0.0873260498046875,0.0480804443359375
1772639536834880000,4.1098798828125,-0.983367919921875,0.0860443115234375,0.0465240478515625
1772639536844925200,4.11992529296875,-0.9796142578125,0.0848236083984375,0.0478668212890625
1772639536854969900,4.129969970703125,-0.9772186279296875,0.085601806640625,0.049346923828125
1772639536865015000,4.14001513671875,-0.9774169921875,0.08380126953125,0.04736328125
1772639536875059200,4.15005908203125,-0.9763031005859375,0.083740234375,0.0474090576171875
1772639536885104000,4.160104248046875,-0.9767608642578125,0.0823211669921875,0.047332763671875
1772639536895149000,4.170149169921875,-0.978271484375,0.08233642578125,0.0471343994140625
1772639536905194000,4.180194091796875,-0.9779815673828125,0.08380126953125,0.0472412109375
1772639536915239200,4.1902392578125,-0.9804840087890625,0.08544921875,0.047332763671875
1772639536925284000,4.2002841796875,-0.980133056640625,0.085418701171875,0.0454559326171875
1772639536935329000,4.2103291015625,-0.97772216796875,0.0831756591796875,0.04522705078125
1772639536945374000,4.2203740234375,-0.9753875732421875,0.081695556640625,0.0461273193359375
1772639536955419100,4.230419189453125,-0.9733428955078125,0.0820770263671875,0.0462493896484375
1772639536965464000,4.240464111328125,-0.977020263671875,0.0809173583984375,0.0481719970703125
1772639536975509200,4.25050927734375,-0.9813385009765625,0.081329345703125,0.049224853515625
1772639536985553200,4.26055322265625,-0.9837646484375,0.080657958984375,0.048675537109375
1772639536995598000,4.27059814453125,-0.987945556640625,0.082366943359375,0.048065185546875
1772639537005643000,4.28064306640625,-0.99169921875,0.0827484130859375,0.047149658203125
1772639537015688200,4.290688232421875,-0.9922027587890625,0.0831756591796875,0.046295166015625
1772639537025733000,4.300733154296875,-0.9912567138671875,0.085052490234375,0.0492095947265625
1772639537035778000,4.310778076171875,-0.9896240234375,0.085357666015625,0.0457305908203125
1772639537045823000,4.320822998046875,-0.990203857421875,0.0853424072265625,0.044097900390625
1772639537055868200,4.3308681640625,-0.9898681640625,0.085906982421875,0.040008544921875
1772639537065913000,4.3409130859375,-0.9876708984375,0.0865631103515625,0.0395355224609375
1772639537075958000,4.3509580078125,-0.9860076904296875,0.0870819091796875,0.03802490234375
1772639537086002200,4.361002197265625,-0.9866485595703125,0.0860137939453125,0.037109375
1772639537096047600,4.371047607421875,-0.9829559326171875,0.087371826171875,0.0377655029296875
1772639537106092800,4.3810927734375,-0.982818603515625,0.0872650146484375,0.0367889404296875
1772639537116137700,4.3911376953125,-0.978759765625,0.0866241455078125,0.0354461669921875
1772639537126182700,4.4011826171875,-0.9726104736328125,0.0869293212890625,0.0346527099609375
1772639537136227600,4.4112275390625,-0.9704742431640625,0.0887298583984375,0.033233642578125
1772639537146272800,4.421272705078125,-0.9699859619140625,0.0888671875,0.0331878662109375
1772639537156317700,4.431317626953125,-0.9745635986328125,0.08843994140625,0.0351715087890625
1772639537166363000,4.44136279296875,-0.97821044921875,0.08721923828125,0.03875732421875
1772639537176407600,4.451407470703125,-0.9821319580078125,0.0889739990234375,0.04180908203125
1772639537186451700,4.46145166015625,-0.986602783203125,0.088958740234375,0.0444793701171875
1772639537196496600,4.47149658203125,-0.990936279296875,0.0871429443359375,0.047393798828125
1772639537206541800,4.481541748046875,-0.996490478515625,0.0851593017578125,0.0495758056640625
1772639537216586500,4.49158642578125,-0.9964141845703125,0.0852203369140625,0.0500335693359375
1772639537226631700,4.501631591796875,-0.9983062744140625,0.0831146240234375,0.053680419921875
1772639537236676600,4.511676513671875,-0.99810791015625,0.0816802978515625,0.0549163818359375
1772639537246721800,4.5217216796875,-0.9998626708984375,0.08001708984375,0.0532684326171875
1772639537256766500,4.531766357421875,-0.9987640380859375,0.0795135498046875,0.0496368408203125
1772639537266811600,4.541811767578125,-0.995880126953125,0.0800628662109375,0.04827880859375
1772639537276856600,4.551856689453125,-0.99603271484375,0.08001708984375,0.0491943359375
1772639537286901800,4.56190185546875,-0.9932861328125,0.0811767578125,0.05316162109375
1772639537296945700,4.571945556640625,-0.9910736083984375,0.08380126953125,0.0531768798828125
1772639537306990600,4.581990478515625,-0.990875244140625,0.0867919921875,0.0485382080078125
1772639537317035800,4.592035888671875,-0.9891510009765625,0.0886077880859375,0.04669189453125
1772639537327080700,4.602080810546875,-0.987640380859375,0.09027099609375,0.046356201171875
1772639537337126000,4.6121259765625,-0.986175537109375,0.0936279296875,0.0481109619140625
1772639537347170600,4.622170654296875,-0.982330322265625,0.09564208984375,0.0467681884765625
1772639537357215700,4.6322158203125,-0.9777069091796875,0.094512939453125,0.0435943603515625
1772639537367260700,4.6422607421875,-0.9754638671875,0.0951995849609375,0.0400848388671875
1772639537377305900,4.652305908203125,-0.9757537841796875,0.0959930419921875,0.039306640625
1772639537387350500,4.6623505859375,-0.976898193359375,0.0963592529296875,0.04071044921875
1772639537397394700,4.672394775390625,-0.97930908203125,0.0977325439453125,0.04486083984375
1772639537407439600,4.682439697265625,-0.9823455810546875,0.0976104736328125,0.0442047119140625
1772639537417484800,4.69248486328125,-0.987518310546875,0.09588623046875,0.0440521240234375
1772639537427529500,4.702529541015625,-0.9889373779296875,0.0941162109375,0.04296875
1772639537437574700,4.71257470703125,-0.986236572265625,0.09234619140625,0.0442657470703125
1772639537447619600,4.72261962890625,-0.9851531982421875,0.09033203125,0.046295166015625
1772639537457664800,4.732664794921875,-0.98834228515625,0.0879974365234375,0.0480194091796875
1772639537467709400,4.74270947265625,-0.988983154296875,0.08734130859375,0.0500030517578125
1772639537477754600,4.752754638671875,-0.9866943359375,0.086669921875,0.0517120361328125
1772639537487799600,4.762799560546875,-0.9867401123046875,0.0861663818359375,0.049652099609375
1772639537497843700,4.77284375,-0.9897918701171875,0.08709716796875,0.051177978515625
1772639537507888600,4.782888671875,-0.9936065673828125,0.088836669921875,0.0513916015625
1772639537517933600,4.79293359375,-0.9945220947265625,0.089202880859375,0.05059814453125
1772639537527978800,4.802978759765625,-0.99505615234375,0.0906219482421875,0.0506591796875
1772639537538023700,4.813023681640625,-0.9949493408203125,0.0908660888671875,0.0517578125
1772639537548068900,4.82306884765625,-0.993194580078125,0.0931854248046875,0.050262451171875
1772639537558113500,4.833113525390625,-0.99139404296875,0.093994140625,0.048583984375
1772639537568158700,4.84315869140625,-0.9850921630859375,0.0941162109375,0.049652099609375
1772639537578203600,4.85320361328125,-0.9815521240234375,0.0972747802734375,0.0498504638671875
1772639537588248800,4.863248779296875,-0.980438232421875,0.098388671875,0.047760009765625
1772639537598293500,4.87329345703125,-0.9800262451171875,0.0976715087890625,0.04510498046875
1772639537608337700,4.883337646484375,-0.979095458984375,0.09710693359375,0.0443878173828125
1772639537618382600,4.893382568359375,-0.9821929931640625,0.098419189453125,0.0421295166015625
1772639537628427800,4.903427734375,-0.9861297607421875,0.098785400390625,0.037811279296875
1772639537638472400,4.913472412109375,-0.9878387451171875,0.0980987548828125,0.0387725830078125
1772639537648517600,4.923517578125,-0.9852752685546875,0.094879150390625,0.0409393310546875
1772639537658562600,4.9335625,-0.9815216064453125,0.0949249267578125,0.038482666015625
1772639537668607700,4.943607666015625,-0.9806671142578125,0.093505859375,0.03521728515625
1772639537678652700,4.953652587890625,-0.9820098876953125,0.09051513671875,0.0290679931640625
1772639537688697600,4.963697509765625,-0.97808837890625,0.090545654296875,0.0265045166015625
1772639537698742500,4.973742431640625,-0.9757843017578125,0.0895843505859375,0.024749755859375
1772639537708787700,4.98378759765625,-0.97540283203125,0.08843994140625,0.025970458984375
1772639537718831900,4.993831787109375,-0.976287841796875,0.0886993408203125,0.026824951171875
1772639537728876500,5.00387646484375,-0.97711181640625,0.089599609375,0.02655029296875
1772639537738921700,5.013921630859375,-0.9817047119140625,0.0912017822265625,0.026397705078125
1772639537748966700,5.023966552734375,-0.9864349365234375,0.0920867919921875,0.024993896484375
1772639537759011800,5.03401171875,-0.9879913330078125,0.0947265625,0.0265960693359375
1772639537769056500,5.044056396484375,-0.9906463623046875,0.09539794921875,0.031219482421875
1772639537779101700,5.054101806640625,-0.9923095703125,0.09515380859375,0.03582763671875
1772639537789146600,5.064146728515625,-0.9923248291015625,0.0966339111328125,0.0401763916015625
1772639537799191800,5.07419189453125,-0.9940185546875,0.09698486328125,0.04443359375
1772639537809236700,5.08423681640625,-0.992462158203125,0.0968170166015625,0.047210693359375
1772639537819280600,5.09428076171875,-0.9909820556640625,0.09710693359375,0.049041748046875
1772639537829325600,5.10432568359375,-0.9876861572265625,0.095611572265625,0.050445556640625
1772639537839370800,5.114370849609375,-0.9842071533203125,0.0962371826171875,0.05059814453125
1772639537849415700,5.124415771484375,-0.9828338623046875,0.0939483642578125,0.0505218505859375
1772639537859460600,5.134460693359375,-0.98095703125,0.0934600830078125,0.050567626953125
1772639537869505500,5.144505615234375,-0.9808349609375,0.092010498046875,0.0513763427734375
1772639537879550700,5.15455078125,-0.983062744140625,0.0915985107421875,0.0504302978515625
1772639537889595600,5.164595703125,-0.9850921630859375,0.0915679931640625,0.0522003173828125
1772639537899640600,5.174640625,-0.986175537109375,0.0930633544921875,0.0513458251953125
1772639537909685500,5.184685546875,-0.988128662109375,0.0935821533203125,0.048980712890625
1772639537919730700,5.194730712890625,-0.9901580810546875,0.094146728515625,0.04949951171875
1772639537929774800,5.20477490234375,-0.9887542724609375,0.09393310546875,0.051544189453125
1772639537939819500,5.214819580078125,-0.9851837158203125,0.093963623046875,0.052978515625
1772639537949864700,5.22486474609375,-0.9847412109375,0.0944976806640625,0.052490234375
1772639537959909600,5.23490966796875,-0.9827728271484375,0.0929718017578125,0.051361083984375
1772639537969954800,5.244954833984375,-0.982421875,0.09307861328125,0.049652099609375
1772639537979999500,5.25499951171875,-0.981842041015625,0.0943145751953125,0.0470428466796875
1772639537990044700,5.265044677734375,-0.9820404052734375,0.0966339111328125,0.047607421875
1772639538000089600,5.275089599609375,-0.9838409423828125,0.0974273681640625,0.048126220703125
1772639538010134800,5.285134765625,-0.9846954345703125,0.0985870361328125,0.048309326171875
1772639538020179700,5.2951796875,-0.9847869873046875,0.0993194580078125,0.0487823486328125
1772639538030223600,5.3052236328125,-0.9859466552734375,0.0979461669921875,0.048675537109375
1772639538040268500,5.3152685546875,-0.986114501953125,0.097137451171875,0.04962158203125
1772639538050313700,5.325313720703125,-0.9875030517578125,0.0971221923828125,0.050445556640625
1772639538060358700,5.335358642578125,-0.990142822265625,0.096954345703125,0.0491485595703125
1772639538070403600,5.345403564453125,-0.9896697998046875,0.0967864990234375,0.0500946044921875
1772639538080448500,5.355448486328125,-0.9892578125,0.09686279296875,0.04974365234375
1772639538090493700,5.36549365234375,-0.9878692626953125,0.0954742431640625,0.04730224609375
1772639538100538600,5.37553857421875,-0.9899139404296875,0.0949554443359375,0.0461578369140625
1772639538110583800,5.385583740234375,-0.9871368408203125,0.094329833984375,0.0446624755859375
1772639538120628700,5.395628662109375,-0.98583984375,0.0940704345703125,0.0445556640625
1772639538130674000,5.405673828125,-0.98651123046875,0.0946044921875,0.04339599609375
1772639538140717800,5.4157177734375,-0.9875640869140625,0.0955657958984375,0.042633056640625
1772639538150762800,5.4257626953125,-0.9880523681640625,0.096954345703125,0.0427093505859375
1772639538160808000,5.435807861328125,-0.9862518310546875,0.0982666015625,0.0434722900390625
1772639538170852900,5.445852783203125,-0.985198974609375,0.099884033203125,0.0432586669921875
1772639538180897800,5.455897705078125,-0.983123779296875,0.0985260009765625,0.041107177734375
1772639538190942700,5.465942626953125,-0.9827880859375,0.1000518798828125,0.04168701171875
1772639538200988000,5.47598779296875,-0.9831390380859375,0.0990447998046875,0.0413970947265625
1772639538211032800,5.48603271484375,-0.9828643798828125,0.10186767578125,0.0408782958984375
1772639538221077800,5.496077880859375,-0.982818603515625,0.1024627685546875,0.041351318359375
1772639538231122700,5.506122802734375,-0.9845428466796875,0.100860595703125,0.0407257080078125
1772639538241166800,5.516166748046875,-0.984283447265625,0.10247802734375,0.042572021484375
1772639538251211800,5.526211669921875,-0.9842681884765625,0.103515625,0.0428924560546875
1772639538261256700,5.536256591796875,-0.985260009765625,0.1024627685546875,0.0385284423828125
1772639538271301600,5.546301513671875,-0.983428955078125,0.1024627685546875,0.0378570556640625
1772639538281346800,5.556346923828125,-0.9812164306640625,0.100860595703125,0.03875732421875
1772639538291391700,5.566391845703125,-0.9825286865234375,0.101654052734375,0.0396575927734375
1772639538301437000,5.57643701171875,-0.9853363037109375,0.10076904296875,0.0394439697265625
1772639538311481600,5.586481689453125,-0.9847259521484375,0.1007843017578125,0.0404205322265625
1772639538321526800,5.59652685546875,-0.9871063232421875,0.100433349609375,0.042510986328125
1772639538331571700,5.60657177734375,-0.9881744384765625,0.101898193359375,0.0410003662109375
1772639538341617000,5.616616943359375,-0.988372802734375,0.1008758544921875,0.040802001953125
1772639538351660800,5.626660888671875,-0.9876251220703125,0.0984039306640625,0.038970947265625
1772639538361705700,5.636705810546875,-0.9862060546875,0.098907470703125,0.0407867431640625
1772639538371751000,5.6467509765625,-0.9851531982421875,0.099853515625,0.0430755615234375
1772639538381795800,5.6567958984375,-0.9871978759765625,0.1006622314453125,0.0450439453125
1772639538391840800,5.6668408203125,-0.986572265625,0.100311279296875,0.0445098876953125
1772639538401885700,5.6768857421875,-0.9840545654296875,0.1009979248046875,0.04351806640625
1772639538411931000,5.686930908203125,-0.9841156005859375,0.101654052734375,0.0450897216796875
1772639538421975800,5.696975830078125,-0.98443603515625,0.1013031005859375,0.044036865234375
1772639538432021000,5.70702099609375,-0.9843902587890625,0.1013641357421875,0.0431060791015625
1772639538442065700,5.717065673828125,-0.98681640625,0.1005859375,0.0465087890625
1772639538452109800,5.72710986328125,-0.987091064453125,0.101165771484375,0.044403076171875
1772639538462154800,5.73715478515625,-0.9879150390625,0.103759765625,0.043609619140625
1772639538472199700,5.74719970703125,-0.991119384765625,0.104278564453125,0.047393798828125
1772639538482244600,5.75724462890625,-0.9944915771484375,0.1033477783203125,0.046295166015625
1772639538492289800,5.767289794921875,-0.9969024658203125,0.10418701171875,0.0446624755859375
1772639538502334700,5.777334716796875,-0.9911956787109375,0.1046142578125,0.0431365966796875
1772639538512380000,5.7873798828125,-0.987060546875,0.1029205322265625,0.04278564453125
1772639538522424600,5.797424560546875,-0.985504150390625,0.102569580078125,0.0431976318359375
1772639538532469800,5.8074697265625,-0.9869232177734375,0.101593017578125,0.04144287109375
1772639538542514700,5.8175146484375,-0.98358154296875,0.101409912109375,0.0434112548828125
1772639538552559900,5.827559814453125,-0.9812469482421875,0.101226806640625,0.0469207763671875
1772639538562603800,5.837603759765625,-0.98150634765625,0.1006622314453125,0.0497894287109375
1772639538572648700,5.847648681640625,-0.9832611083984375,0.101318359375,0.047698974609375
1772639538582694000,5.85769384765625,-0.9845733642578125,0.10113525390625,0.045257568359375
1772639538592738800,5.86773876953125,-0.9818267822265625,0.0997467041015625,0.0426025390625
1772639538602783700,5.87778369140625,-0.97991943359375,0.100677490234375,0.0412750244140625
1772639538612828700,5.88782861328125,-0.9805755615234375,0.10052490234375,0.038818359375
1772639538622873900,5.897873779296875,-0.9812774658203125,0.1013031005859375,0.0387725830078125
1772639538632918800,5.907918701171875,-0.9819183349609375,0.10205078125,0.0392303466796875
1772639538642964000,5.9179638671875,-0.9830322265625,0.10162353515625,0.0414276123046875
1772639538653008600,5.928008544921875,-0.9862060546875,0.1019287109375,0.0422515869140625
1772639538663052800,5.938052734375,-0.9873199462890625,0.1021728515625,0.0431671142578125
1772639538673097700,5.94809765625,-0.987274169921875,0.1025543212890625,0.0433502197265625
1772639538683143000,5.958142822265625,-0.9870758056640625,0.1033935546875,0.0437774658203125
1772639538693187800,5.968187744140625,-0.9858551025390625,0.103302001953125,0.0439605712890625
1772639538703232800,5.978232666015625,-0.9842529296875,0.102294921875,0.04412841796875
1772639538713277700,5.988277587890625,-0.9836578369140625,0.1027069091796875,0.0424346923828125
1772639538723323000,5.998322998046875,-0.9822845458984375,0.1017913818359375,0.042510986328125
1772639538733367800,6.008367919921875,-0.9801483154296875,0.1012420654296875,0.047210693359375
1772639538743412700,6.018412841796875,-0.978729248046875,0.101287841796875,0.047760009765625
1772639538753457700,6.028457763671875,-0.982086181640625,0.1014404296875,0.0477447509765625
1772639538763502800,6.0385029296875,-0.9847259521484375,0.100860595703125,0.0477447509765625
1772639538773547800,6.0485478515625,-0.9883270263671875,0.102813720703125,0.049041748046875
1772639538783591700,6.058591796875,-0.9889068603515625,0.1008148193359375,0.0505218505859375
1772639538793636900,6.068636962890625,-0.989990234375,0.1009521484375,0.0517120361328125
1772639538803681800,6.078681884765625,-0.990386962890625,0.101226806640625,0.0519561767578125
1772639538813727000,6.08872705078125,-0.98809814453125,0.0990142822265625,0.0510711669921875
1772639538823771600,6.098771728515625,-0.9846343994140625,0.0980377197265625,0.04949951171875
1772639538833816800,6.10881689453125,-0.9835052490234375,0.097015380859375,0.048583984375
1772639538843861800,6.11886181640625,-0.984130859375,0.0968017578125,0.046783447265625
1772639538853907000,6.128906982421875,-0.987152099609375,0.0964508056640625,0.0474700927734375
1772639538863951600,6.13895166015625,-0.98846435546875,0.0976715087890625,0.0503692626953125
1772639538873996800,6.148996826171875,-0.989654541015625,0.0973052978515625,0.0498504638671875
1772639538884041000,6.159041015625,-0.99029541015625,0.0973663330078125,0.049713134765625
1772639538894086000,6.1690859375,-0.990447998046875,0.09698486328125,0.04852294921875
1772639538904130800,6.179130859375,-0.9883880615234375,0.09722900390625,0.0473480224609375
1772639538914175700,6.18917578125,-0.981903076171875,0.09637451171875,0.0469970703125
1772639538924221000,6.199220947265625,-0.97918701171875,0.097015380859375,0.049713134765625
1772639538934265900,6.209265869140625,-0.9795074462890625,0.0963287353515625,0.0498199462890625
1772639538944310800,6.219310791015625,-0.9794158935546875,0.0972137451171875,0.0495452880859375
1772639538954355700,6.229355712890625,-0.9833831787109375,0.0977325439453125,0.04901123046875
1772639538964401000,6.23940087890625,-0.984832763671875,0.0971832275390625,0.0501556396484375
1772639538974445800,6.24944580078125,-0.988800048828125,0.0990447998046875,0.0496368408203125
1772639538984489700,6.25948974609375,-0.991058349609375,0.0987091064453125,0.049224853515625
1772639538994534700,6.26953466796875,-0.9889373779296875,0.1012725830078125,0.047882080078125
1772639539004579800,6.279579833984375,-0.98699951171875,0.1011962890625,0.0493621826171875
1772639539014624800,6.289624755859375,-0.9857330322265625,0.098388671875,0.0493927001953125
1772639539024670000,6.299669921875,-0.982879638671875,0.0977325439453125,0.0493011474609375
1772639539034714600,6.309714599609375,-0.9802703857421875,0.0968475341796875,0.0481414794921875
1772639539044759800,6.319759765625,-0.98077392578125,0.0969390869140625,0.048248291015625
1772639539054804700,6.3298046875,-0.97735595703125,0.095855712890625,0.0470428466796875
1772639539064850000,6.339849853515625,-0.98175048828125,0.0960540771484375,0.0494842529296875
1772639539074894600,6.34989453125,-0.982696533203125,0.0958404541015625,0.047027587890625
1772639539084939800,6.359939697265625,-0.98486328125,0.094146728515625,0.0506134033203125
1772639539094984000,6.36998388671875,-0.9888153076171875,0.09466552734375,0.0523223876953125
1772639539105028900,6.38002880859375,-0.9903564453125,0.0938262939453125,0.048736572265625
1772639539115073800,6.39007373046875,-0.99444580078125,0.0940704345703125,0.0482025146484375
1772639539125118700,6.40011865234375,-0.9921112060546875,0.0926361083984375,0.0496826171875
1772639539135164000,6.410163818359375,-0.9918212890625,0.092559814453125,0.048065185546875
1772639539145208800,6.420208740234375,-0.9913787841796875,0.0908966064453125,0.046234130859375
1772639539155253800,6.430253662109375,-0.9909515380859375,0.08990478515625,0.0484161376953125
1772639539165298700,6.440298583984375,-0.9888763427734375,0.0901641845703125,0.0519256591796875
1772639539175343900,6.45034375,-0.9872894287109375,0.08953857421875,0.052520751953125
1772639539185388800,6.460388916015625,-0.9856414794921875,0.08843994140625,0.0529327392578125
1772639539195433700,6.470433837890625,-0.9837493896484375,0.088653564453125,0.0539703369140625
1772639539205477600,6.4804775390625,-0.9839630126953125,0.089691162109375,0.0537872314453125
1772639539215522800,6.490522705078125,-0.982025146484375,0.090087890625,0.0507354736328125
1772639539225567700,6.500567626953125,-0.9810638427734375,0.0905303955078125,0.0473175048828125
1772639539235613000,6.510613037109375,-0.98236083984375,0.091522216796875,0.04583740234375
1772639539245657600,6.52065771484375,-0.9848175048828125,0.09344482421875,0.04742431640625
1772639539255702800,6.530702880859375,-0.987457275390625,0.094512939453125,0.04541015625
1772639539265747700,6.540747802734375,-0.988250732421875,0.0962066650390625,0.0447540283203125
1772639539275793000,6.55079296875,-0.9876251220703125,0.0946502685546875,0.0448455810546875
1772639539285837800,6.560837890625,-0.9863433837890625,0.094512939453125,0.0438995361328125
1772639539295882800,6.5708828125,-0.981903076171875,0.0923309326171875,0.0440673828125
1772639539305927000,6.580927001953125,-0.9788360595703125,0.0915374755859375,0.0439453125
1772639539315971800,6.590971923828125,-0.978302001953125,0.091278076171875,0.0446319580078125
1772639539326017000,6.60101708984375,-0.9773406982421875,0.090911865234375,0.043121337890625
1772639539336061700,6.611061767578125,-0.9775390625,0.0895233154296875,0.04412841796875
1772639539346107000,6.62110693359375,-0.979095458984375,0.0889129638671875,0.0431060791015625
1772639539356151800,6.63115185546875,-0.98406982421875,0.08984375,0.04315185546875
1772639539366197000,6.641197021484375,-0.986785888671875,0.0886993408203125,0.0430145263671875
1772639539376241700,6.65124169921875,-0.9888153076171875,0.088897705078125,0.0432891845703125
1772639539386286800,6.661286865234375,-0.9940338134765625,0.09033203125,0.0408935546875
1772639539396331800,6.671331787109375,-0.9973602294921875,0.0908966064453125,0.0384979248046875
1772639539406377000,6.681376953125,-0.9951629638671875,0.0902099609375,0.0375518798828125
1772639539416420600,6.691420654296875,-0.9894866943359375,0.0897064208984375,0.04168701171875
1772639539426465800,6.7014658203125,-0.9837493896484375,0.08819580078125,0.044708251953125
1772639539436510700,6.7115107421875,-0.9833526611328125,0.0879058837890625,0.0464324951171875
1772639539446556000,6.721555908203125,-0.9817352294921875,0.0877227783203125,0.0462799072265625
1772639539456600600,6.7316005859375,-0.9820098876953125,0.087615966796875,0.044403076171875
1772639539466645800,6.741645751953125,-0.9819793701171875,0.0876617431640625,0.043060302734375
1772639539476690700,6.751690673828125,-0.9825286865234375,0.0886688232421875,0.0440673828125
1772639539486736000,6.76173583984375,-0.98065185546875,0.0897674560546875,0.047027587890625
1772639539496780800,6.77178076171875,-0.9794464111328125,0.0916748046875,0.051544189453125
1772639539506825700,6.78182568359375,-0.983978271484375,0.0912017822265625,0.0535125732421875
1772639539516870700,6.79187060546875,-0.9881134033203125,0.0912933349609375,0.052764892578125
1772639539526914800,6.801914794921875,-0.9933624267578125,0.0910491943359375,0.0519866943359375
1772639539536960000,6.8119599609375,-0.999237060546875,0.091583251953125,0.0547332763671875
1772639539547004700,6.822004638671875,-1.0056610107421875,0.090179443359375,0.056884765625
1772639539557049900,6.8320498046875,-1.0046539306640625,0.0894775390625,0.059600830078125
1772639539567094800,6.8420947265625,-0.99853515625,0.0883026123046875,0.061279296875
1772639539577140000,6.852139892578125,-0.9913482666015625,0.088287353515625,0.0602569580078125
1772639539587184600,6.8621845703125,-0.9839630126953125,0.0854339599609375,0.052703857421875
1772639539597229800,6.872229736328125,-0.9773712158203125,0.0834808349609375,0.0462493896484375
1772639539607274800,6.882274658203125,-0.9722900390625,0.0819854736328125,0.0428314208984375
1772639539617320000,6.89231982421875,-0.9680023193359375,0.082122802734375,0.042999267578125
1772639539627363600,6.902363525390625,-0.9655609130859375,0.0821685791015625,0.0457305908203125
1772639539637408800,6.91240869140625,-0.9687042236328125,0.0818939208984375,0.0478515625
1772639539647453700,6.92245361328125,-0.97271728515625,0.0835418701171875,0.049407958984375
1772639539657499000,6.932498779296875,-0.9752044677734375,0.08636474609375,0.0493621826171875
1772639539667543800,6.942543701171875,-0.9788665771484375,0.0895843505859375,0.0489349365234375
1772639539677588700,6.952588623046875,-0.9801025390625,0.0895538330078125,0.0470428466796875
1772639539687633700,6.962633544921875,-0.9816436767578125,0.0886077880859375,0.04510498046875
1772639539697678800,6.972678955078125,-0.9828948974609375,0.089324951171875,0.04510498046875
1772639539707723800,6.982723876953125,-0.983123779296875,0.0893707275390625,0.046630859375
1772639539717768700,6.992768798828125,-0.983673095703125,0.0886688232421875,0.046722412109375
1772639539727813600,7.002813720703125,-0.9879913330078125,0.08837890625,0.0490875244140625
1772639539737857800,7.01285791015625,-0.99200439453125,0.0883331298828125,0.047760009765625
1772639539747903000,7.022903076171875,-0.9961395263671875,0.089508056640625,0.047698974609375
1772639539757947600,7.03294775390625,-0.9975738525390625,0.09033203125,0.048828125
1772639539767992800,7.042992919921875,-0.9956512451171875,0.0889434814453125,0.048248291015625
1772639539778037800,7.053037841796875,-0.9907684326171875,0.0866851806640625,0.0482330322265625
1772639539788083000,7.0630830078125,-0.986968994140625,0.0848846435546875,0.0462493896484375
1772639539798127900,7.0731279296875,-0.983551025390625,0.0835418701171875,0.0463714599609375
1772639539808172800,7.0831728515625,-0.980194091796875,0.081634521484375,0.046417236328125
1772639539818217700,7.0932177734375,-0.9788055419921875,0.0813140869140625,0.0465545654296875
1772639539828263000,7.103262939453125,-0.9777984619140625,0.0832672119140625,0.0479278564453125
1772639539838306800,7.113306884765625,-0.97821044921875,0.08355712890625,0.0485992431640625
1772639539848351700,7.123351806640625,-0.98223876953125,0.084808349609375,0.04876708984375
1772639539858396700,7.133396728515625,-0.987701416015625,0.08807373046875,0.04888916015625
1772639539868441900,7.14344189453125,-0.9895477294921875,0.08990478515625,0.047027587890625
1772639539878486800,7.15348681640625,-0.990997314453125,0.0906524658203125,0.0468292236328125
1772639539888531700,7.16353173828125,-0.989776611328125,0.091796875,0.04571533203125
1772639539898576600,7.17357666015625,-0.988037109375,0.0919036865234375,0.0452880859375
1772639539908621800,7.183621826171875,-0.9871063232421875,0.0911865234375,0.045318603515625
1772639539918666800,7.193666748046875,-0.9827117919921875,0.089996337890625,0.0474700927734375
1772639539928712000,7.2037119140625,-0.9806976318359375,0.089935302734375,0.0504302978515625
1772639539938756600,7.213756591796875,-0.980712890625,0.0886993408203125,0.0515289306640625
1772639539948800800,7.22380078125,-0.9809417724609375,0.088714599609375,0.0523834228515625
1772639539958846000,7.233845947265625,-0.98162841796875,0.088775634765625,0.05133056640625
1772639539968890600,7.243890625,-0.9828643798828125,0.0888824462890625,0.0492706298828125
1772639539978935800,7.253935791015625,-0.9834747314453125,0.0887908935546875,0.0475311279296875
1772639539988980700,7.263980712890625,-0.981231689453125,0.089447021484375,0.04833984375
1772639539999026000,7.27402587890625,-0.9826202392578125,0.089874267578125,0.0507965087890625
1772639540009070800,7.28407080078125,-0.9823150634765625,0.0894622802734375,0.0497283935546875
1772639540019115800,7.29411572265625,-0.9851226806640625,0.0900115966796875,0.04852294921875
1772639540029160700,7.30416064453125,-0.990386962890625,0.0902862548828125,0.0509033203125
1772639540039206000,7.314205810546875,-0.9931640625,0.0909881591796875,0.054168701171875
1772639540049250800,7.324250732421875,-0.9960784912109375,0.0929412841796875,0.0550689697265625
1772639540059294700,7.334294677734375,-0.9997100830078125,0.0923004150390625,0.0554962158203125
1772639540069339600,7.344339599609375,-1.00128173828125,0.0919342041015625,0.0546722412109375
1772639540079384800,7.354384765625,-0.9969482421875,0.0927581787109375,0.0529022216796875
1772639540089429800,7.3644296875,-0.9904937744140625,0.090911865234375,0.0524139404296875
1772639540099474400,7.374474365234375,-0.98468017578125,0.08978271484375,0.049896240234375
1772639540109519400,7.384519287109375,-0.979278564453125,0.0889892578125,0.04937744140625
1772639540119564500,7.394564453125,-0.974884033203125,0.0888824462890625,0.0522918701171875
1772639540129609500,7.404609375,-0.9754486083984375,0.090179443359375,0.0499267578125
1772639540139654700,7.414654541015625,-0.978973388671875,0.0896148681640625,0.0489501953125
1772639540149699300,7.42469921875,-0.978179931640625,0.0876312255859375,0.0469818115234375
1772639540159744500,7.43474462890625,-0.9822845458984375,0.09136962890625,0.0491790771484375
1772639540169788700,7.44478857421875,-0.9854736328125,0.093475341796875,0.04473876953125
1772639540179833600,7.45483349609375,-0.99078369140625,0.092132568359375,0.0478668212890625
1772639540189878500,7.46487841796875,-0.9889678955078125,0.0922088623046875,0.0515899658203125
1772639540199923500,7.47492333984375,-0.9856414794921875,0.093597412109375,0.05157470703125
1772639540209968600,7.48496875,-0.98370361328125,0.092529296875,0.056182861328125
1772639540220013600,7.495013671875,-0.9828643798828125,0.0909271240234375,0.05792236328125
1772639540230058500,7.50505859375,-0.981414794921875,0.09027099609375,0.0562896728515625
1772639540240103400,7.515103515625,-0.9813690185546875,0.0924224853515625,0.05413818359375
1772639540250148600,7.525148681640625,-0.9838409423828125,0.091583251953125,0.053314208984375
1772639540260193500,7.535193603515625,-0.9818267822265625,0.093536376953125,0.0537567138671875
1772639540270237400,7.545237548828125,-0.982452392578125,0.0936279296875,0.0532073974609375
1772639540280282600,7.55528271484375,-0.9861602783203125,0.092132568359375,0.0533905029296875
1772639540290327600,7.56532763671875,-0.988983154296875,0.0930938720703125,0.0536041259765625
1772639540300372500,7.57537255859375,-0.9881439208984375,0.094696044921875,0.056640625
1772639540310417700,7.585417724609375,-0.987640380859375,0.0928955078125,0.0565338134765625
1772639540320462600,7.595462646484375,-0.9921112060546875,0.09320068359375,0.0565032958984375
1772639540330507500,7.605507568359375,-0.99066162109375,0.0930023193359375,0.054931640625
1772639540340552400,7.615552490234375,-0.9892730712890625,0.0904693603515625,0.0528411865234375
1772639540350597600,7.62559765625,-0.9886932373046875,0.090362548828125,0.0526123046875
1772639540360642600,7.635642578125,-0.98773193359375,0.0899658203125,0.0520477294921875
1772639540370687500,7.6456875,-0.9870452880859375,0.088287353515625,0.0523834228515625
1772639540380731600,7.655731689453125,-0.9863739013671875,0.0879974365234375,0.052978515625
1772639540390776600,7.665776611328125,-0.9869842529296875,0.0887603759765625,0.052947998046875
1772639540400821500,7.675821533203125,-0.988067626953125,0.0890350341796875,0.0516357421875
1772639540410866400,7.685866455078125,-0.988006591796875,0.090301513671875,0.0498809814453125
1772639540420911600,7.69591162109375,-0.9876861572265625,0.09051513671875,0.0503387451171875
1772639540430956500,7.70595654296875,-0.98919677734375,0.0908966064453125,0.05169677734375
1772639540441001700,7.716001708984375,-0.987640380859375,0.0938568115234375,0.053375244140625
1772639540451046400,7.72604638671875,-0.99395751953125,0.0934906005859375,0.055389404296875
1772639540461091600,7.736091552734375,-0.9897918701171875,0.092376708984375,0.0532684326171875
1772639540471136500,7.746136474609375,-0.98443603515625,0.0909423828125,0.0499267578125
1772639540481181700,7.756181640625,-0.980926513671875,0.0885772705078125,0.0513763427734375
1772639540491225600,7.7662255859375,-0.990386962890625,0.0868072509765625,0.0557861328125
1772639540501270500,7.7762705078125,-0.990081787109375,0.091094970703125,0.050628662109375
1772639540511315700,7.786315673828125,-0.9862060546875,0.0903472900390625,0.05157470703125
1772639540521360600,7.796360595703125,-0.983734130859375,0.0906524658203125,0.055633544921875
1772639540531405600,7.806405517578125,-0.980377197265625,0.08929443359375,0.055999755859375
1772639540541450500,7.816450439453125,-0.9824981689453125,0.08935546875,0.05682373046875
1772639540551495700,7.82649560546875,-0.9812469482421875,0.0900421142578125,0.0583648681640625
1772639540561540600,7.83654052734375,-0.979522705078125,0.0890350341796875,0.0581817626953125
1772639540571585500,7.84658544921875,-0.9788970947265625,0.08795166015625,0.0558624267578125
1772639540581630500,7.85663037109375,-0.9816741943359375,0.0885162353515625,0.0568389892578125
1772639540591675400,7.86667529296875,-0.985595703125,0.088470458984375,0.0583648681640625
1772639540601719600,7.876719482421875,-0.9889068603515625,0.0892333984375,0.05645751953125
1772639540611764500,7.886764404296875,-0.9890594482421875,0.090240478515625,0.055999755859375
1772639540621809400,7.896809326171875,-0.991180419921875,0.08941650390625,0.0570068359375
1772639540631854600,7.9068544921875,-0.9910125732421875,0.0880279541015625,0.055816650390625
1772639540641899500,7.9168994140625,-0.9899749755859375,0.087615966796875,0.0540008544921875
1772639540651944700,7.92694482421875,-0.9879302978515625,0.0887908935546875,0.053009033203125
1772639540661989400,7.9369892578125,-0.986083984375,0.0876007080078125,0.0537261962890625
1772639540672034600,7.94703466796875,-0.9859466552734375,0.0873870849609375,0.0545501708984375
1772639540682079500,7.95707958984375,-0.986724853515625,0.08905029296875,0.054107666015625
1772639540692124700,7.967124755859375,-0.98504638671875,0.087310791015625,0.0535736083984375
1772639540702168600,7.97716845703125,-0.9835357666015625,0.0871734619140625,0.054962158203125
1772639540712213500,7.987213623046875,-0.9853668212890625,0.087921142578125,0.056243896484375
1772639540722258700,7.9972587890625,-0.98236083984375,0.088165283203125,0.0577392578125
1772639540732303600,8.0073037109375,-0.9797210693359375,0.089111328125,0.0560302734375
1772639540742348500,8.0173486328125,-0.9822540283203125,0.0898590087890625,0.0634765625
1772639540752393500,8.0273935546875,-0.9761810302734375,0.090087890625,0.06451416015625
1772639540762438700,8.037438720703125,-0.968658447265625,0.0925140380859375,0.0667877197265625
1772639540772483600,8.047483642578126,-0.9687957763671875,0.091552734375,0.067626953125
1772639540782528500,8.057528564453126,-0.9742584228515625,0.088348388671875,0.0652923583984375
1772639540792573400,8.067573486328126,-0.9789581298828125,0.087493896484375,0.0627593994140625
1772639540802618600,8.07761865234375,-0.9798431396484375,0.0892486572265625,0.05499267578125
1772639540812662500,8.08766259765625,-0.9866943359375,0.0881500244140625,0.04852294921875
1772639540822707700,8.097707763671876,-0.9985809326171875,0.0884246826171875,0.0469207763671875
