time,seconds_elapsed,z,y,x
1772731624365996800,0.069996826171875,0.15367606549561022,0.11447583561614155,0.20015121828150004
1772731624376025000,0.080025146484375,0.1689139666378498,0.09912278366163373,0.18276315336804835
1772731624386052900,0.090052978515625,0.09816109902262687,0.04192380962446332,0.27000669866558163
1772731624396081000,0.100080810546875,0.06198796187937259,0.04698766888529062,0.34681908551547674
1772731624406109000,0.11010888671875,0.10603636244237423,0.07044672427549958,0.2858470592129975
1772731624416137000,0.120136962890625,0.17519874599575996,0.043970074629783626,0.22347367821261285
1772731624426165000,0.1301650390625,0.22475977250039575,0.022064240030944347,0.2206472591476515
1772731624436193000,0.140193115234375,0.24767887579500675,-0.011416881549358368,0.2472014675416052
1772731624446220800,0.150220703125,0.17461071697473524,-0.056501639422774315,0.302377630514279
1772731624456249000,0.1602490234375,0.04462532366812229,-0.06214417535439133,0.3185162798885256
1772731624466275800,0.17027587890625,-0.02417640987932682,0.0025825638391077516,0.264930929771252
1772731624476304000,0.180303955078125,-0.04262625880539417,0.01584609616845846,0.2612256089799106
1772731624486332000,0.190331787109375,-0.07284662502408028,0.0030992811895906923,0.2607147733809426
1772731624496360000,0.20035986328125,-0.18757248987853525,0.0014841010779142378,0.24959976085498928
1772731624506388000,0.210387939453125,-0.3279764013469219,0.018404694610089062,0.252836989210546
1772731624516415700,0.220415771484375,-0.40383506766855715,0.05095321151539683,0.21418047428634016
1772731624526444000,0.230444091796875,-0.4486480228632688,0.0383963661506772,0.209530821849592
1772731624536471800,0.240471923828125,-0.4411187964022159,0.0042046120829880235,0.2504201373271644
1772731624546499800,0.250499755859375,-0.36977088550329207,-0.027496786473691463,0.29662805401161313
1772731624556527900,0.26052783203125,-0.3211836724668741,-0.0935537513576448,0.33745486217960713
1772731624566556000,0.270555908203125,-0.31646248916387554,-0.10623422310203313,0.3235347291050479
1772731624576583000,0.2805830078125,-0.3284036868482828,-0.07275865447968244,0.27411059032045304
1772731624586611000,0.29061083984375,-0.28071839108765123,-0.1084402087137103,0.23103183850720524
1772731624596639000,0.300638916015625,-0.18152151927649973,-0.1505515037342906,0.28578707265406844
1772731624606666800,0.310666748046875,-0.08776537721455097,-0.16463979644998908,0.39937933036871254
1772731624616695000,0.320695068359375,-0.008561492118239403,-0.20594854291602968,0.44539687558021396
1772731624626722800,0.330722900390625,-0.010419687205553054,-0.23150457058548926,0.4353061646007001
1772731624636750800,0.340750732421875,-0.016965747848153113,-0.2136601402066648,0.3942732759339735
1772731624646779000,0.35077880859375,-0.03409925347864628,-0.21627923666387794,0.4009755865842104
1772731624656807000,0.360806884765625,-0.019677929416298864,-0.19178835400789976,0.37413916371539235
1772731624666835000,0.3708349609375,0.07213000118732452,-0.19934329943209886,0.397155553372018
1772731624676863000,0.380863037109375,0.20660861425995825,-0.20021233735159039,0.44431269707269966
1772731624686890800,0.390890869140625,0.3048416094750166,-0.20680998205095527,0.5140581412110478
1772731624696919000,0.4009189453125,0.34090894815623757,-0.2069084739893675,0.5529616531662642
1772731624706945800,0.41094580078125,0.3687532328933477,-0.1725764346681535,0.5174974680099635
1772731624716974000,0.42097412109375,0.35961598671376704,-0.12752952458709477,0.44065519747845827
1772731624727001900,0.431001953125,0.302819163736701,-0.09196429020911455,0.3553128826923668
1772731624737030100,0.441030029296875,0.19591595533192158,-0.08639891116693615,0.3258308406855911
1772731624747058000,0.451057861328125,0.034411972689628596,-0.07249138184562325,0.35269049829952415
1772731624757085700,0.461085693359375,-0.0910620806723833,-0.06497238451763987,0.39841698814257975
1772731624767114000,0.471114013671875,-0.01595335593521595,-0.034837796886265274,0.3992106227383017
1772731624777141800,0.481141845703125,0.10841244392395019,-0.04142623536586761,0.31081622690521177
1772731624787170000,0.491170166015625,0.15348492683768272,-0.0893054462634027,0.27667348134471104
1772731624797197800,0.50119775390625,0.13674538896083832,-0.10988134743273258,0.30887776965592056
1772731624807225900,0.511225830078125,0.0947919148504734,-0.12482684149965644,0.3047566711379215
1772731624817254000,0.52125390625,0.05923953995406627,-0.12243453953564166,0.25037008764036
1772731624827281000,0.531281005859375,0.12978665586411953,-0.09385171139091253,0.19630195897482333
1772731624837309000,0.541308837890625,0.20181962641775608,-0.07604381363019347,0.17652228621710092
1772731624847337000,0.5513369140625,0.2852162870287895,-0.1066330131612718,0.1451674178094603
1772731624857365000,0.561364990234375,0.3151572517842054,-0.12542656095847488,0.16067414422202855
1772731624867393000,0.57139306640625,0.3339765185445547,-0.1288899992853403,0.192123577311635
1772731624877420800,0.5814208984375,0.272632115265727,-0.1425888542920351,0.21626553693208841
1772731624887449000,0.591448974609375,0.21756255447268485,-0.14609145558550954,0.21103507066639138
1772731624897476900,0.601476806640625,0.13405658826828,-0.12097849550843238,0.14968153423303737
1772731624907505200,0.611505126953125,0.11079378610253333,-0.08747560048773884,0.07591754776886664
1772731624917533000,0.621532958984375,0.07133972759246826,-0.08398220541402697,0.057268358612107106
1772731624927560700,0.631560791015625,0.039001054045557974,-0.06891206205412745,0.07743469259985722
1772731624937589000,0.641589111328125,0.00893324804008007,-0.0493543980166316,0.06432288936665281
1772731624947616800,0.65161669921875,0.05388590396642685,-0.047333267452567815,0.01626873289416544
1772731624957644000,0.66164404296875,0.08647241479456425,-0.05618307499289512,-0.0007435392431449145
1772731624967671800,0.671671875,0.09846972658038139,-0.10661927689686417,0.0239530037864577
1772731624977700000,0.6817001953125,0.13621347404122353,-0.141788936085999,0.05234567052079364
1772731624987728000,0.691727783203125,0.13017302483320237,-0.16252265816554426,0.07665935171265155
1772731624997756000,0.701755859375,0.0625017566204071,-0.17016119021996856,0.14158523020744324
1772731625007784000,0.711783935546875,-0.0005599719703197479,-0.16833865096792577,0.14491472169002517
1772731625017812000,0.72181201171875,-0.05222644632160663,-0.14774214540198444,0.12338146499693393
1772731625027840000,0.731840087890625,-0.1066647234737873,-0.11578209590911864,0.0647633083442226
1772731625037868000,0.741867919921875,-0.13618833959996698,-0.13256503453627227,0.07958720359178259
1772731625047895800,0.751895751953125,-0.12585165450274943,-0.11936579961478709,0.11486507239574566
1772731625057924000,0.761924072265625,-0.0912146408855915,-0.10686886774376034,0.08590668893689289
1772731625067951900,0.771951904296875,0.015123334851860999,-0.11767989235445857,0.04130827154200524
1772731625077979000,0.781978759765625,0.1201326923340559,-0.13396101893931628,0.028160730275139212
1772731625088007000,0.7920068359375,0.16108663401305676,-0.15706863054335116,0.012190240542031824
1772731625098035000,0.802034912109375,0.18164368435144423,-0.1846456426464021,0.0018990568206645546
1772731625108063000,0.81206298828125,0.15406827968358994,-0.1617917135424912,-0.010347078627068549
1772731625118090800,0.8220908203125,0.13987667272388934,-0.1495018485508859,-0.04606428869636729
1772731625128119000,0.832119140625,0.14546177937984467,-0.15177680774554608,-0.09052072207098827
1772731625138146800,0.842146728515625,0.11954992401003837,-0.1649390716575086,-0.09048755045374855
1772731625148175000,0.852175048828125,0.08223872274756432,-0.15137743316441774,-0.12635006901156157
1772731625158203000,0.862202880859375,0.06717910078167914,-0.12796134013310073,-0.13203237069798632
1772731625168231000,0.87223095703125,0.0853022019714117,-0.1049938676521182,-0.12043260686239227
1772731625178259000,0.882259033203125,0.09407178388237952,-0.12923676689639688,-0.10135945667251944
1772731625188287000,0.892286865234375,0.1042553242444992,-0.13206263797208667,-0.11423435501046478
1772731625198314000,0.90231396484375,0.14526888715624808,-0.10066124527528882,-0.132174354718253
1772731625208341800,0.912341796875,0.15437047750055788,-0.09089271545484662,-0.13748079056330023
1772731625218370000,0.9223701171875,0.15973989557921886,-0.07932575791031121,-0.1441630813388154
1772731625228397800,0.932397705078125,0.14355974515080452,-0.07596329573988914,-0.08200966323204338
1772731625238425900,0.94242578125,0.06282675079107285,-0.10871712595894932,-0.02996624532714486
1772731625248454000,0.952453857421875,-0.019701894813776016,-0.09362228654921054,0.02121379721406847
1772731625258482000,0.96248193359375,-0.058311903715133666,-0.060547992204129694,0.0146089190563187
1772731625268510000,0.972510009765625,-0.07600888844728469,-0.03126344553083181,-0.02081190188229084
1772731625278538000,0.9825380859375,-0.061273676130175585,-0.02162248761281371,-0.023787337496504187
1772731625288565800,0.992565673828125,-0.01965688662827015,0.018029723817855118,-0.04119414364304393
1772731625298594000,1.002593994140625,0.04312193336784839,0.03185585846602917,-0.043238655082695185
1772731625308621800,1.012621826171875,0.0981640216320753,0.02196720939725637,-0.03433744614869356
1772731625318650000,1.022650146484375,0.10919453421235084,0.012530980271100996,-0.02924140165131539
1772731625328676900,1.0326767578125,0.11958616436719893,0.020447014092653988,-0.045858080333471295
1772731625338705000,1.042704833984375,0.16545242800712584,0.04387567434459924,-0.04047061514146626
1772731625348733000,1.05273291015625,0.18150690622925758,0.04959288294762373,-0.03624342590048909
1772731625358761200,1.06276123046875,0.1849129152804613,0.05699935981184244,-0.025118987959064542
1772731625368789500,1.07278955078125,0.17093699689805505,0.05230301868915557,0.010536335855163633
1772731625378817300,1.0828173828125,0.16111118393242357,0.037989977306872605,0.09075798315927386
1772731625388845600,1.092845458984375,0.14223755663633345,0.0478064379222691,0.12163016435019672
1772731625398873300,1.102873291015625,0.033679566761851305,0.02464095865115523,0.1321034449065104
1772731625408901400,1.1129013671875,-0.05808277113437652,0.007302724228799342,0.13274766109418124
1772731625418929400,1.122929443359375,-0.1360007080733776,0.02172185633406043,0.1443272589245811
1772731625428957400,1.13295751953125,-0.1795890899091959,0.02511573655605316,0.15873148572165519
1772731625438985500,1.1429853515625,-0.1567278542816639,0.01188756780102849,0.1539945568602532
1772731625449012500,1.153012451171875,-0.05893558857142925,-0.021055647510290144,0.1633261931007728
1772731625459040500,1.16304052734375,0.026418635848164555,-0.0316528832398355,0.17421137892622499
1772731625469068500,1.173068603515625,0.1257668988287449,-0.04921425889357924,0.12538323327340184
1772731625479096300,1.183096435546875,0.23867548512816428,-0.05294570050686598,0.04714574552383274
1772731625489124400,1.193124267578125,0.342448578813672,-0.062249827685952185,-0.0072776993853971355
1772731625499152400,1.20315234375,0.4120499383062124,-0.09442015892863273,-0.05146791957188397
1772731625509180400,1.213180419921875,0.4881798227846622,-0.1147961536116898,-0.10152082124669104
1772731625519208400,1.22320849609375,0.5375725069850683,-0.10536109352931379,-0.15278306217864154
1772731625529236200,1.233236328125,0.5362053102850913,-0.061329497970640655,-0.26118907636180516
1772731625539264500,1.243264404296875,0.5039437936276198,-0.03446034187600017,-0.35521979758143424
1772731625549292300,1.253292236328125,0.3984183033168316,-0.011450345427542924,-0.42497569004856045
1772731625559320600,1.263320556640625,0.27875556658208367,-0.03321107246726751,-0.4565013301795348
1772731625569347300,1.273347412109375,0.20632629018723964,-0.02656184371113777,-0.4695043484091758
1772731625579375600,1.283375732421875,0.18575404227972028,-0.02943111553713679,-0.45787484702244396
1772731625589403400,1.2934033203125,0.17315818007886408,-0.035628947263956066,-0.45323695808872577
1772731625599431400,1.303431396484375,0.12155951026678084,-0.040494361343234773,-0.44590321766715496
1772731625609459500,1.31345947265625,0.08911328469216823,-0.0007001110933721065,-0.45634690680280326
1772731625619487500,1.323487548828125,0.02799626042842865,0.009856354234367608,-0.45130193490553644
1772731625629515500,1.333515625,-0.11356558890342712,0.013286767074465751,-0.47306887249033897
1772731625639543600,1.34354345703125,-0.26203122627437114,0.03802767896875739,-0.46362628668863326
1772731625649571300,1.3535712890625,-0.39155192467868327,0.06973375370055436,-0.4231991088300943
1772731625659599400,1.363599365234375,-0.47698038337826726,0.07279036479219794,-0.3650360755337402
1772731625669627400,1.37362744140625,-0.5788876831918954,0.0846378928437829,-0.23927560644578189
1772731625679655400,1.383655517578125,-0.635377632176876,0.05790829135030508,-0.1406022105194628
1772731625689683500,1.393683349609375,-0.6421838050603866,0.08547317462414503,-0.07841682637184857
1772731625699710500,1.40371044921875,-0.615588059079647,0.13769552929252385,-0.057790327526442704
1772731625709738500,1.413738525390625,-0.5684773483365774,0.15071180886253713,-0.07832224342357366
1772731625719766300,1.423766357421875,-0.5437205082207918,0.15448212118148802,-0.07191369155552238
1772731625729794600,1.433794677734375,-0.5036901111274957,0.14699571094885466,-0.06682078886330127
1772731625739822300,1.443822265625,-0.47169922810494896,0.15048793697878718,-0.068219111353904
1772731625749850600,1.4538505859375,-0.3896107274830341,0.1671425730511546,-0.048290750840492544
1772731625759878400,1.46387841796875,-0.27912498441636563,0.16093363540843128,-0.02501454120390117
1772731625769906400,1.473906494140625,-0.13223112640678883,0.16811580199748277,0.007898461632244289
1772731625779934500,1.4839345703125,0.01235094752907753,0.14485270757079124,0.042444326367229224
1772731625789962500,1.49396240234375,0.1036976903617382,0.1330810212343931,0.08555931853763758
1772731625799990500,1.503990478515625,0.16139526157081127,0.1501391235411167,0.11123078928031027
1772731625810017300,1.514017333984375,0.21005553984344005,0.1718897675782442,0.10647749380599707
1772731625820045600,1.524045654296875,0.22566870403885841,0.1689592670843005,0.10345891316980123
1772731625830073300,1.5340732421875,0.23824001632034777,0.16850670101121068,0.10305997698009013
1772731625840101400,1.544101318359375,0.2094160728961229,0.2023956727400422,0.06423964979629963
1772731625850129400,1.55412939453125,0.17481413059234618,0.24145503284409642,-0.013131905306316912
1772731625860157400,1.564157470703125,0.14965455489456653,0.3045888037577271,-0.08788089335300028
1772731625870185500,1.574185546875,0.19903671770095824,0.347881417517364,-0.12366419092845171
1772731625880213500,1.584213623046875,0.24020225630402564,0.34997502879574893,-0.13430321997310965
1772731625890241300,1.5942412109375,0.28419921894073485,0.3150505765393376,-0.13539485113471747
1772731625900269600,1.60426953125,0.29348727176785466,0.29365386050641534,-0.08770290643759071
1772731625910297300,1.61429736328125,0.2854313910841942,0.25367037129476666,-0.03112133364640176
1772731625920325600,1.62432568359375,0.26663141354620457,0.24028584293425082,0.02848915851190686
1772731625930353400,1.634353515625,0.24718963097333907,0.2231007532469928,0.03566851208936423
1772731625940380400,1.64438037109375,0.22857903852760791,0.22131883826628326,0.0361462856689468
1772731625950408400,1.654408447265625,0.22924071730673312,0.1907901367507875,-0.005115224121883511
1772731625960436200,1.664436279296875,0.23842706332504748,0.18951281029134986,-0.03167502200640738
1772731625970464500,1.674464599609375,0.16258943979144094,0.1569121248073876,-0.02136763606891036
1772731625980492300,1.6844921875,0.0688894118309021,0.10977467218786477,0.034099911065772176
1772731625990520600,1.6945205078125,-0.020071897169947624,0.0688435268625617,0.048491716772690416
1772731626000548400,1.70454833984375,-0.020215105032920837,0.0634575960405171,0.0067865914002060886
1772731626010576400,1.714576416015625,-0.0037421091377735135,0.048745910729467865,-0.036146906723454594
1772731626020604400,1.7246044921875,0.01989946321249008,0.045575610130280254,-0.08139525766074657
1772731626030632400,1.734632568359375,0.04074935901761055,0.02670665900930762,-0.12528678716160357
1772731626040660500,1.744660400390625,0.10067103601694107,0.01632014342099428,-0.13673486756682396
1772731626050688500,1.7546884765625,0.16648352462053298,0.010791881518810987,-0.12750512079820037
1772731626060715500,1.764715576171875,0.21634733346402643,-0.04949745974913239,-0.09092990566007793
1772731626070743300,1.774743408203125,0.2522130120933056,-0.08755202672481537,-0.027345541434735058
1772731626080771300,1.784771240234375,0.2524462363272905,-0.13467998086363075,0.02923062452897429
1772731626090799400,1.79479931640625,0.17986966041624544,-0.18048603874891994,0.02495959614627063
1772731626100827400,1.804827392578125,0.15072949064970015,-0.14517287943586707,0.0010990472830832005
1772731626110855400,1.81485546875,0.21183891612887382,-0.12634805971756577,-0.10684059149734675
1772731626120883500,1.824883544921875,0.3186357415497303,-0.12154489721953868,-0.2184521237235516
1772731626130911200,1.8349111328125,0.4572106840252876,-0.11491437316387891,-0.20779533982649445
1772731626140939500,1.844939453125,0.5067664498329162,-0.13108020280599594,-0.11782017760798334
1772731626150967300,1.85496728515625,0.3630436230748892,-0.17878624909371135,-0.09239939369075
1772731626160995600,1.86499560546875,0.15649346100389958,-0.17233838812857866,-0.14797230089604854
1772731626171023400,1.8750234375,0.03618365853726864,-0.09264832695052028,-0.20839564380720257
1772731626181050400,1.88505029296875,0.005087094005942344,-0.030299861195683477,-0.28185119450986384
1772731626191078400,1.895078369140625,0.0064794251471757885,-0.0013826865300536155,-0.3317337811190635
1772731626201106400,1.9051064453125,0.016871639823913574,0.025455343773961067,-0.3619770167566836
1772731626211134500,1.915134521484375,-0.009917582902312278,0.035064006857573986,-0.3839147077985108
1772731626221162200,1.925162353515625,-0.05782499698102474,0.032938831397145985,-0.37453408131711186
1772731626231190500,1.9351904296875,-0.08899521127045154,-0.0008877426199615001,-0.34921836520954963
1772731626241218300,1.94521826171875,-0.08219020743072032,-0.0023909867897629737,-0.3008778204105794
1772731626251246300,1.955246337890625,-0.06701309656500816,-0.009326192880421877,-0.3013664076451212
1772731626261274400,1.9652744140625,-0.018623451927304267,-0.03570858837142586,-0.29289829289875924
1772731626271302400,1.975302490234375,0.014250059148669243,-0.044929128920286894,-0.27827757380679247
1772731626281330400,1.985330322265625,0.026752397847175598,-0.051797699515521524,-0.25276501995287837
1772731626291358500,1.9953583984375,0.05538403356969356,-0.06119929571971297,-0.24680991094075141
1772731626301385500,2.005385498046875,0.09301321474015713,-0.07062120405957102,-0.20874369005989282
1772731626311413500,2.01541357421875,0.12148527598679065,-0.11099296193644403,-0.1860941609542817
1772731626321441500,2.025441650390625,0.11509469816684723,-0.12065130938068032,-0.18667992495298386
1772731626331469300,2.03546923828125,0.10220131432414055,-0.09525938623175025,-0.19252901630736885
1772731626341497300,2.045497314453125,0.06369944197237491,-0.07299699328020215,-0.23123700569048522
1772731626351525400,2.055525390625,0.06390811628699303,-0.027282120809704064,-0.27529139760285615
1772731626361553000,2.065552978515625,0.06770926213562488,-0.026219752275198696,-0.28287198892496523
1772731626371581000,2.075580810546875,0.04566518810987472,-0.049151276659965513,-0.26959965223465115
1772731626381609000,2.08560888671875,0.05427811815440654,-0.04816723405867815,-0.26033764716424046
1772731626391636700,2.09563671875,0.07570142993330956,-0.06426525916159152,-0.2531031293334439
1772731626401665000,2.1056650390625,0.12636837185323238,-0.09034925622791051,-0.2515994833048433
1772731626411692000,2.115692138671875,0.1321136375069618,-0.118927700458467,-0.26653277547731996
1772731626421720000,2.125719970703125,0.13039631219506262,-0.11562018334567546,-0.3015628800652921
1772731626431747800,2.135747802734375,0.08734101432263851,-0.12275091200843452,-0.315343568136543
1772731626441775900,2.14577587890625,0.028121348112821576,-0.12985139166340232,-0.32362364949751643
1772731626451804000,2.155803955078125,-0.012146949389576911,-0.13365195299014448,-0.36850747797135264
1772731626461832000,2.16583203125,-0.07433540227711201,-0.136161305462569,-0.39216066769417374
1772731626471860000,2.17585986328125,-0.13430442554950714,-0.15114114019051195,-0.42428040126077826
1772731626481887700,2.1858876953125,-0.20178163249492645,-0.13246376611888408,-0.44397301678955553
1772731626491916000,2.195916015625,-0.2713970205128193,-0.09514379702806472,-0.41908538990095257
1772731626501943800,2.20594384765625,-0.3814332662463188,-0.05256693032234907,-0.4042304967269301
1772731626511971800,2.215971923828125,-0.5077361716479063,-0.04366597711667418,-0.37379743760563433
1772731626522000000,2.225999755859375,-0.6163876850247383,0.007092588609457016,-0.30721111508533355
1772731626532027000,2.23602685546875,-0.6437889021694659,0.03740384798198938,-0.27938297776542603
1772731626542055000,2.246054931640625,-0.6189513980329037,0.04659823117628693,-0.21523937222212552
1772731626552083000,2.2560830078125,-0.5553904877483844,0.08013093681335448,-0.21668781746476887
1772731626562111000,2.266111083984375,-0.4450397692382335,0.11894275189712643,-0.2148443815551698
1772731626572139000,2.276138916015625,-0.2921224131554365,0.1431757142692804,-0.19386223767250776
1772731626582166800,2.286166748046875,-0.14111761269569395,0.10446619051620364,-0.15044917587097734
1772731626592195000,2.296195068359375,-0.05199614469707012,0.0814414348900318,-0.09310703050345182
1772731626602222800,2.306222900390625,0.030334932509064674,0.07665624644011258,-0.03326853827554732
1772731626612251000,2.3162509765625,0.07315642162561416,0.05097805369570851,0.01988616533949971
1772731626622279000,2.32627880859375,0.1351291859358549,0.05706497239395976,0.016430216199345885
1772731626632306700,2.336306640625,0.2091331643015146,0.06126330086663365,0.039414091825857756
1772731626642335000,2.3463349609375,0.21428046406209467,0.060477995707839724,0.05172211352866143
1772731626652362000,2.356362060546875,0.24528233604729174,0.0511386510848999,0.06967036960814148
1772731626662390000,2.36639013671875,0.24880408043265342,0.044621524275839326,0.08580847099311649
1772731626672417800,2.376417724609375,0.2493395024836063,0.0355035673186183,0.11247479799203575
1772731626682446000,2.386446044921875,0.27114275349080563,0.020579554431140422,0.16581651207916437
1772731626692473900,2.396473876953125,0.2838029130995273,0.01602422921434045,0.1864609849726781
1772731626702502000,2.406501953125,0.22613573702871798,-0.008084668386727572,0.15425335392691195
1772731626712530000,2.416530029296875,0.16647651035785674,-0.043218671740591526,0.1914484179964289
1772731626722558000,2.426557861328125,0.1520300518542528,-0.0645519671484828,0.20292316721286624
1772731626732586000,2.4365859375,0.2080927153378725,-0.07903247405216098,0.24290738707687703
1772731626742614000,2.446614013671875,0.24468144754469393,-0.08027429080680012,0.26866328469999134
1772731626752641800,2.456641845703125,0.25487960095405576,-0.09876067235097288,0.29797493857592344
1772731626762669800,2.466669921875,0.28160043461918827,-0.09234788269922137,0.3137623633597046
1772731626772697000,2.476697021484375,0.30216742182970047,-0.0951139864116907,0.28398875452782957
1772731626782724900,2.486724853515625,0.2781926720023155,-0.06763064394146204,0.26001827901676294
1772731626792753000,2.4967529296875,0.20796236695647238,-0.03461801665574312,0.23978859746921807
1772731626802781000,2.506781005859375,0.13910978000462054,-0.04277516575679183,0.22817162677049635
1772731626812809000,2.51680908203125,0.11550386348962784,-0.004200228168815374,0.18813520179521293
1772731626822837000,2.5268369140625,0.06161679047942161,0.011053162803500891,0.14959321662876754
1772731626832865000,2.536864990234375,0.014077625191211699,0.02725596345514059,0.11765212756469845
1772731626842892800,2.546892822265625,0.017998598027229307,0.061441141651570795,0.04180197334308177
1772731626852921000,2.556921142578125,0.026575872236490248,0.10459668502807616,-0.009430347374640404
1772731626862948900,2.566948974609375,-0.015231471401453017,0.09615326633155345,-0.05736669528689235
1772731626872977000,2.576976806640625,-0.13529635919630525,0.08420140112265943,-0.07213679625429213
1772731626883005000,2.5870048828125,-0.28346681301295756,0.07645809351950883,-0.0486367512665689
1772731626893032000,2.597031982421875,-0.3048404404312372,0.09608590018376707,-0.027854915728978812
1772731626903060000,2.60706005859375,-0.171043379881978,0.11751593396440148,-0.02839943440183997
1772731626913087700,2.617087646484375,-0.007135843229293823,0.1060544826209545,-0.03457070691529661
1772731626923116000,2.627115966796875,0.0854892489761114,0.08768062154054641,9.863806888461112e-7
1772731626933143800,2.637143798828125,0.123931500095129,0.09808145791515707,0.021810411400347948
1772731626943172000,2.647172119140625,0.07148819615244865,0.05986395546272397,-0.0065205974077805874
1772731626953199900,2.657199951171875,-0.011350246053934096,0.054702627176791425,-0.06672485420815646
1772731626963228000,2.667227783203125,-0.041319852381944654,0.05091302563548088,-0.08590630534440279
1772731626973256000,2.677255859375,0.04290273765921592,0.057293812713772055,-0.03046378305312246
1772731626983284000,2.687283935546875,0.1076233393728733,0.08654986394494771,-0.010268990155868232
1772731626993312000,2.69731201171875,-0.020012275937199592,0.08632730723544954,-0.042421603078767654
1772731627003340000,2.707340087890625,-0.17977029169499872,0.09906769247353077,-0.017981829555518924
1772731627013367000,2.717366943359375,-0.1314209790676832,0.13024740524366496,-0.004199059125036001
1772731627023394800,2.727394775390625,0.054803603333234786,0.1363828392587602,-0.022353834094665945
1772731627033422800,2.7374228515625,0.26765140424370765,0.11605945154577493,-0.040038616932369764
1772731627043451000,2.747450927734375,0.3873977276086807,0.0853292361088097,0.07720204375460743
1772731627053479000,2.75747900390625,0.32972119918763637,0.03244052648618817,0.23712478508744386
1772731627063507000,2.7675068359375,0.1574240198522806,-0.009529314237087964,0.23449516723621636
1772731627073535000,2.777534912109375,-0.08050210821330547,0.00803746824413538,0.12746913616936653
1772731627083562800,2.787562744140625,-0.1599555841565132,0.08275091005340218,0.10947112266402691
1772731627093591000,2.797591064453125,-0.04487783712446689,0.13623890074342487,0.08531750913839786
1772731627103618800,2.807618896484375,0.06188391698300838,0.13278905255049467,0.05145316039416939
1772731627113647000,2.817647216796875,0.059086979740858074,0.0968644833408296,0.056404535723850124
1772731627123673900,2.827673828125,-0.021277765828371046,0.0783007987767458,0.09469082909617572
1772731627133702000,2.837701904296875,-0.10935820034146308,0.05915405362769961,0.13529307126067577
1772731627143730000,2.84772998046875,-0.13208558045625685,0.05056099732741713,0.1486160056270659
1772731627153757700,2.8577578125,-0.053066404277086254,0.048902124204486606,0.15207685013804584
1772731627163786000,2.867785888671875,0.09400397934317588,0.0695320936486125,0.1499696487257257
1772731627173813800,2.877813720703125,0.1827513533324003,0.06415113126263022,0.11129033744782209
1772731627183842000,2.887842041015625,0.16396598884165287,0.03653773267194629,0.09922474619876592
1772731627193869800,2.897869873046875,0.10331658208966255,0.0499471032127738,0.10281100718770175
1772731627203897900,2.90789794921875,0.07413724935650826,0.06081584936007857,0.13353011670876294
1772731627213926000,2.91792578125,0.09283902721703052,0.03169219233691692,0.1294886592982337
1772731627223954000,2.927953857421875,0.09408405884206295,0.035807957092672586,0.11026344208549707
1772731627233982000,2.93798193359375,0.0989139632165432,0.04156374414041638,0.06346906728260218
1772731627244009000,2.948009033203125,0.12243687762320041,0.05186725762039423,0.02229063266534358
1772731627254037000,2.958037109375,0.10501578722298145,0.05156023749783635,0.004207242431491613
1772731627264065000,2.96806494140625,0.10711655889451503,0.04863075991719961,0.007305719903483986
1772731627274092800,2.9780927734375,0.12065467038154601,0.06247516087442636,0.022364318956062196
1772731627284120800,2.988120849609375,0.15039046795368194,0.05730374958589673,0.031728542291931804
1772731627294148900,2.99814892578125,0.1626870549470186,0.0585173631593585,0.05756839187145233
1772731627304177000,3.008177001953125,0.10238719228506088,0.0455225647687912,0.07583163218423723
1772731627314205000,3.018204833984375,0.016224574092030524,0.047551878639310596,0.05649363877940922
1772731627324232700,3.028232666015625,-0.04379588710665703,0.0712894587099552,-0.00002750906143337488
1772731627334261000,3.038260986328125,-0.053068742364645004,0.09369345208927989,-0.037326581494696434
1772731627344288800,3.048288818359375,-0.0037859482795000073,0.12574264117032288,-0.08224237600937485
1772731627354316500,3.058316650390625,0.05413724837899208,0.13036007183790208,-0.14827303740829229
1772731627364344600,3.068344482421875,0.09777063840031623,0.13213161155506967,-0.15465762387886642
1772731627374371600,3.07837158203125,0.12605857525169847,0.12465513819456099,-0.12049020053483545
1772731627384399600,3.088399658203125,0.17395839054584503,0.1158526769272983,-0.14538889680672437
1772731627394427600,3.098427734375,0.18682021020650863,0.12788228354752063,-0.19386724264118818
1772731627404455400,3.108455322265625,0.1249906537592411,0.12657412355840206,-0.21842286109644918
1772731627414483500,3.1184833984375,0.05821838021278381,0.11611381208151578,-0.192069509036839
1772731627424511500,3.128511474609375,-0.001967500680685043,0.09906360082030295,-0.1109582559492439
1772731627434539500,3.13853955078125,-0.025717209580540655,0.0877183232024312,-0.0862743349391967
1772731627444567600,3.148567626953125,-0.08723521586060523,0.0933998759701848,-0.08846508644912392
1772731627454595600,3.158595703125,-0.12238543969690799,0.09907587577998637,-0.09407255106735973
1772731627464623400,3.168623291015625,-0.07558277198970317,0.0982537457421422,-0.0934923400266096
1772731627474651600,3.178651611328125,-0.017903320959210395,0.08597659410163759,-0.08469440880399197
1772731627484678400,3.188678466796875,-0.01880582275688648,0.0446935665987432,-0.05489208533428609
1772731627494706700,3.198706787109375,-0.06106675538122654,0.034073388385027645,-0.015960370197892187
1772731627504734500,3.208734375,-0.09425883088707923,-0.0045434886485338204,0.0432826768875122
1772731627514762800,3.2187626953125,-0.11066226867735385,-0.023632366130501032,0.0804199828878045
1772731627524790500,3.22879052734375,-0.09741232648193836,-0.03947656260281801,0.08227324607167393
1772731627534818600,3.238818603515625,-0.023485505005717278,-0.06517009904682636,0.09906984789799898
1772731627544846600,3.2488466796875,0.08421966743171215,-0.04750000232160091,0.0830068210432306
1772731627554874600,3.25887451171875,0.15399346088171004,-0.08190744496658443,0.05236505107469856
1772731627564902700,3.268902587890625,0.15069325029253958,-0.1021396472647786,0.02684497150145471
1772731627574930400,3.278930419921875,0.1480699160516262,-0.11136617916300892,0.029339309067837892
1772731627584958500,3.28895849609375,0.15878654037714005,-0.11949001051634549,0.07005648284889757
1772731627594986500,3.298986572265625,0.11011398714482784,-0.16089578761607407,0.13388663852885366
1772731627605013500,3.309013427734375,0.00789279907643795,-0.15635975162163376,0.14383008652478455
1772731627615041500,3.31904150390625,-0.02362871286869049,-0.12152429282292723,0.10357596367821097
1772731627625069600,3.329069580078125,-0.004976034846901893,-0.0704172059200704,0.06704816787838935
1772731627635097600,3.33909765625,-0.02507131289243698,-0.05836304938048124,0.048494895110465584
1772731627645125600,3.349125732421875,-0.09995207409262656,-0.042649639680981635,0.046978060806728894
1772731627655153400,3.3591533203125,-0.24053894091248512,-0.022635610178112983,0.021689561499655244
1772731627665181700,3.369181640625,-0.2754442500770092,-0.027371844919770953,0.0058352820247411724
1772731627675209500,3.37920947265625,-0.16977905903458596,-0.02875248562321067,0.029366745064035055
1772731627685237800,3.38923779296875,0.06194003108441829,-0.05549377755448222,0.08158953812383114
1772731627695265500,3.399265625,0.27716625156402586,-0.06990531087517737,0.08597549812309443
1772731627705293600,3.40929345703125,0.43572716649174686,-0.07750190348401666,0.13763316811341791
1772731627715321600,3.419321533203125,0.37052141160964963,-0.08276435405686497,0.12773337659612297
1772731627725348400,3.429348388671875,0.17379530893862247,-0.05608195270597934,0.10329141111578792
1772731627735376600,3.439376708984375,-0.012201309925317764,-0.021331103450804946,0.04228654198963195
1772731627745404400,3.449404296875,-0.06923661783337592,-0.008016425456106662,0.04475939837656915
1772731627755432700,3.4594326171875,0.027124153769016265,-0.03887640475258231,0.028263569595105946
1772731627765460500,3.46946044921875,0.1460048002153635,0.005437953270226717,-0.007609634753502905
1772731627775488500,3.479488525390625,0.13429916485249996,-0.0059537938378751275,-0.06772646899875254
1772731627785516500,3.4895166015625,0.07029343340992927,-0.05790054643526673,-0.04359378866329789
1772731627795544600,3.499544677734375,0.021902035206556317,-0.02905205309167504,-0.03680705113261938
1772731627805572600,3.509572509765625,0.0030476971328258513,0.0167746091902256,-0.07044040413256734
1772731627815600600,3.5196005859375,-0.01756020660996437,0.0008715221375226974,-0.10099661470949649
1772731627825628400,3.52962841796875,-0.07378361361324787,0.0038712884753942488,-0.06755478395996616
1772731627835656700,3.53965673828125,-0.07093816105425357,-0.01464841081649065,-0.06233074743505567
1772731627845683500,3.549683349609375,-0.050936406511068344,-0.011049217280745505,-0.07908124509733169
1772731627855711500,3.55971142578125,-0.007446808874607086,0.030015491296350953,-0.10263265494611114
1772731627865739500,3.569739501953125,0.05638181243538856,0.04687368711680174,-0.17706035688286645
1772731627875767600,3.579767578125,0.1019067152917385,0.05714475963190198,-0.21788075357638298
1772731627885795600,3.589795654296875,0.12009586745500564,0.08570610659718512,-0.20726590912491083
1772731627895823400,3.5998232421875,0.09320435339808464,0.10600888991355896,-0.19880608728285878
1772731627905851600,3.6098515625,0.0559182865768671,0.1175295240983367,-0.17767430579643695
1772731627915879400,3.61987939453125,0.0714946258932352,0.09894611192047595,-0.11380440262798219
1772731627925907700,3.62990771484375,0.07181085223555564,0.09021291649714112,-0.062172268937714395
1772731627935935500,3.639935546875,0.039353520745038985,0.08757906086221337,-0.0771133060252294
1772731627945963500,3.649963623046875,0.0026934768676757813,0.10313859517425299,-0.11329046175647527
1772731627955991600,3.659991455078125,0.011563012021780013,0.10764102116003632,-0.12883297186847775
1772731627966018600,3.6700185546875,0.02946925559043884,0.11126081909239291,-0.13463058876395226
1772731627976046600,3.680046630859375,0.05054945302009582,0.1421399414807558,-0.14173176253866404
1772731627986074400,3.690074462890625,0.08086626535058021,0.14769085360616444,-0.15738693924490363
1772731627996102700,3.7001025390625,0.09299158743023872,0.14259484564140437,-0.17240590040683745
1772731628006130400,3.71013037109375,0.08943944790661335,0.14532602417096493,-0.14700973947420715
1772731628016158500,3.720158447265625,0.03663023326098919,0.13818740446269512,-0.13198350832127034
1772731628026186500,3.7301865234375,-0.026650106516480445,0.14084595614746212,-0.1254610477499664
1772731628036214500,3.740214599609375,-0.05620937847793102,0.15626315937936305,-0.09765559718590229
1772731628046242600,3.75024267578125,-0.06425298420190811,0.16363354201689362,-0.07989256148021667
1772731628056270600,3.7602705078125,-0.060067807471752166,0.14148001626729964,-0.07907912620548159
1772731628066298400,3.77029833984375,-0.10092764112651348,0.1688540531441569,-0.0718915527889505
1772731628076325600,3.78032568359375,-0.18517653465270995,0.1890302874714136,-0.0723269850641489
1772731628086353700,3.790353759765625,-0.24169278712272643,0.2034318839199841,-0.07811901246905327
1772731628096381400,3.80038134765625,-0.25184359425902364,0.2022977653235197,-0.06589114333037287
1772731628106409500,3.810409423828125,-0.24426409891545772,0.20864508852362632,-0.03040072775427252
1772731628116437500,3.8204375,-0.16611761391758917,0.19476897725388406,-0.013060374440066516
1772731628126465500,3.830465576171875,-0.02725684023797512,0.170712394361943,-0.0007900178665295243
1772731628136493600,3.84049365234375,0.09432020568549633,0.13297522277235985,0.01845839755870402
1772731628146521600,3.850521484375,0.1596592315584421,0.08400923955142497,0.05830379347391426
1772731628156549400,3.86054931640625,0.21288404126763344,0.04717851528227329,0.0677430913399905
1772731628166577700,3.87057763671875,0.2661760709941387,0.007332388714700937,0.10748279839102177
1772731628176605400,3.88060546875,0.2695364873379469,-0.019490297889709473,0.17151326241604983
1772731628186633500,3.890633544921875,0.2566910342901945,0.0013728957884013653,0.1268477163353935
1772731628196660500,3.900660400390625,0.2163531786829233,0.02476239307373762,0.0831142634730786
1772731628206688800,3.910688720703125,0.2043622966378927,0.03467310784384608,0.020280461886711416
1772731628216716500,3.920716552734375,0.19295301387310027,0.021255700127035378,0.047947892219573254
1772731628226744600,3.93074462890625,0.1608925727456808,0.02652268074452877,0.06772383865024895
1772731628236772600,3.940772705078125,0.07365443427562714,0.024526392360776663,0.0099035543769598
1772731628246800400,3.95080029296875,-0.0281073195874691,0.05129764103889465,-0.06784395789857954
1772731628256828700,3.96082861328125,-0.050906595894694325,0.06790712279528378,-0.1236998832963407
1772731628266856400,3.9708564453125,0.014089315629005431,0.05255275566652417,-0.12251998932939022
1772731628276884500,3.980884521484375,0.16171499504446982,0.0042171793036162855,-0.0561451176026836
1772731628286912500,3.99091259765625,0.20002163708508014,-0.03072173986956477,0.0188275596646592
1772731628296940500,4.0009404296875,0.08160685458481311,-0.05961772561669349,0.004070281646214425
1772731628306968600,4.010968505859375,-0.06401274570524693,-0.02494797877371311,-0.008438705988787114
1772731628316995600,4.02099560546875,-0.1144943941861391,-0.0015684183605015277,-0.039536768357455725
1772731628327023600,4.031023681640625,0.0013619360029697416,-0.019670769023150205,-0.053201246170513326
1772731628337051600,4.0410517578125,0.1484972015529871,-0.030141601894050834,-0.050840106529742475
1772731628347079400,4.051079345703125,0.1802595365166664,-0.06496741608157754,-0.031279994806833564
1772731628357108200,4.061108154296875,0.07424538590610028,-0.08905220215469599,0.00943133375532925
1772731628367136000,4.071135986328125,-0.07243921326696873,-0.07344985161423682,0.0494718503838405
1772731628377164000,4.0811640625,-0.14842822797000407,-0.04279752371907234,0.08186155999824404
1772731628387192000,4.091192138671875,-0.10946575236916542,-0.03922317236363888,0.0852157292643562
1772731628397220000,4.10122021484375,-0.027235212928056717,-0.03528495613187551,0.037011706859245895
1772731628407248100,4.111248046875,0.08483399993777274,-0.03527414247691631,-0.005007927822507917
1772731628417276200,4.121276123046875,0.14625205297470092,-0.0293305777721107,-0.0439009914489463
1772731628427304000,4.131303955078125,0.17306524109840393,-0.0014987141251564026,-0.0055791153065860265
1772731628437331000,4.1413310546875,0.15712182203531264,-0.021617665307223796,0.02087590702921152
1772731628447359000,4.15135888671875,0.10236731854081153,-0.039745296541601416,0.028777108607813715
1772731628457387000,4.161386962890625,0.08441898939609527,-0.02698255334123969,0.043957361278682945
1772731628467415000,4.1714150390625,0.0808931533575058,-0.03628419630229473,0.035024003640748556
1772731628477443000,4.181443115234375,0.10285364075303077,-0.03728489777743816,-0.001864844023808837
1772731628487471000,4.19147119140625,0.10353928492963313,-0.026429741764068603,-0.050649369730614124
1772731628497499000,4.201498779296875,0.0720394002944231,0.029618893194198605,-0.06166413675248623
1772731628507527200,4.211527099609375,0.022357962280511855,0.02813128498494625,-0.030205862769298254
1772731628517555000,4.221554931640625,-0.07497253113687039,0.039121903946250675,-0.04177833673916757
1772731628527583200,4.231583251953125,-0.12111001293361186,0.05931245905980467,-0.08111099735926837
1772731628537611000,4.241611083984375,-0.08088964622616768,0.0835860457032919,-0.1358522029807791
1772731628547639000,4.25163916015625,0.009679682493209838,0.06653904931247234,-0.12675411976780743
1772731628557666000,4.261666015625,0.05260346294045448,0.05223989032506943,-0.06252411458268761
1772731628567693800,4.27169384765625,-0.025828268739581106,0.039327801781892775,-0.026740890072472392
1772731628577722000,4.28172216796875,-0.19098142153918743,0.08040303175300359,-0.041988289695419366
1772731628587750000,4.29175,-0.2605202371895313,0.12123393157422542,-0.11961648644022643
1772731628597778200,4.301778076171875,-0.19581834017634392,0.14179448904395103,-0.1612833621615544
1772731628607806000,4.311805908203125,-0.022990999487042425,0.13071151562407612,-0.13077771272808314
1772731628617834000,4.321833984375,0.09230886586308479,0.11397124709486961,-0.12131901604179292
1772731628627862000,4.331862060546875,0.13801087885200977,0.0999604035295546,-0.09855842777714133
1772731628637890000,4.34189013671875,0.1363929222613573,0.09416589190661907,-0.08262487252093852
1772731628647918000,4.35191796875,0.08910393234193324,0.1060119586534798,-0.07555880659222602
1772731628657946000,4.361946044921875,0.08298281911313533,0.11358838525712489,-0.09700776426903902
1772731628667974000,4.371973876953125,0.06579787555634975,0.11412497635185719,-0.09995726172439753
1772731628678001000,4.3820009765625,0.013215455403923987,0.11458806381896137,-0.0909081687523052
1772731628688029000,4.39202880859375,-0.05132628261148929,0.09364654420763253,-0.08316939119379967
1772731628698057000,4.402056884765625,-0.08303191895186901,0.09887056246623396,-0.07109057513698935
1772731628708085000,4.4120849609375,-0.08157002970576285,0.08872486989647149,-0.05411598639525473
1772731628718113000,4.422113037109375,-0.06375087989866733,0.08971358867287635,-0.03790934981871396
1772731628728141000,4.43214111328125,-0.013652677777409552,0.07847469403892755,-0.011877959722466766
1772731628738168800,4.4421689453125,0.021308745488524437,0.07284983989447355,0.0030225261589512226
1772731628748197000,4.452197021484375,0.07095511218905448,0.04508563465625048,0.02160783803295344
1772731628758225000,4.462224853515625,0.1458691911369562,0.01778203266710043,0.04570022289063781
1772731628768253200,4.472253173828125,0.2094423763811588,-0.02595803259909153,0.0917331118017435
1772731628778281000,4.482281005859375,0.25444354762434956,-0.08040230110064149,0.13506083340737968
1772731628788308200,4.49230810546875,0.2789987276881933,-0.10474033128246664,0.16146697510015218
1772731628798336000,4.5023359375,0.3052349927067756,-0.12116335055604577,0.16000442826692013
1772731628808364000,4.512364013671875,0.3182610630184412,-0.10367153300717473,0.15090020757410674
1772731628818392000,4.52239208984375,0.32200551024377344,-0.10750102816745638,0.13136855476070194
1772731628828419800,4.532419921875,0.3067307842224836,-0.10026070165038108,0.10872724549416452
1772731628838448000,4.5424482421875,0.2775286551356315,-0.11625585090070963,0.1220621625592932
1772731628848476000,4.552475830078125,0.18939444460868834,-0.0970595675215125,0.10732793662287295
1772731628858504000,4.56250390625,0.13235913670063018,-0.046901013515144585,0.10466416077371686
1772731628868532000,4.572531982421875,0.04822890111804008,-0.04029913103207946,0.09998878937382251
1772731628878560000,4.58256005859375,-0.04387421303987503,-0.028232261141389606,0.09111695266477764
1772731628888588000,4.592588134765625,-0.10348375535011291,0.0012334873177111147,0.08378397942818701
1772731628898616000,4.602615966796875,-0.10314297908842562,0.012389818234741687,0.032502595404349265
1772731628908643800,4.612643798828125,-0.10882686994373798,0.029176702384650706,-0.01192968990970403
1772731628918671000,4.622671142578125,-0.10923311265707016,0.026528525963425635,-0.0372804407980293
1772731628928699100,4.63269921875,-0.10680910038053988,0.03179696788564324,-0.04467040491886436
1772731628938727200,4.64272705078125,-0.10902034668922424,0.05255377857983112,-0.04287303664069623
1772731628948755000,4.6527548828125,-0.10791618483960629,0.059135056666284797,-0.0377975234746933
1772731628958783200,4.662783203125,-0.10474398454427719,0.05202230205163359,-0.006380312154255807
1772731628968811000,4.67281103515625,-0.1022287868529558,0.03411035939455032,0.019152663433179257
1772731628978839000,4.682839111328125,-0.06713526163995266,0.0564084081813693,-0.01576313059274107
1772731628988867000,4.6928671875,0.0029921675533056257,0.03410962874218822,-0.0542892971355468
1772731628998894800,4.702894775390625,0.05793956327140331,0.031735154695808884,-0.06519888674989342
1772731629008923100,4.712923095703125,0.1202455050587654,0.014221709837019442,-0.05892707647141069
1772731629018951000,4.722950927734375,0.2121656638652086,-0.0008304594747722148,-0.06411817884109913
1772731629028978200,4.732978271484375,0.26759353657662865,-0.00006619710400700569,-0.08289766158033161
1772731629039006000,4.743005859375,0.27212065861225126,-0.030558512131869792,-0.06225910697095096
1772731629049034200,4.7530341796875,0.2868716530203819,-0.04271189126223326,-0.04222655543070286
1772731629059062000,4.76306201171875,0.2886193734705448,-0.016697744561731814,-0.02533668583035469
1772731629069090000,4.773090087890625,0.2685129895091057,-0.01917421767786145,-0.013910050071962178
1772731629079118000,4.7831181640625,0.19812369450926778,0.010688128883391618,-0.03507847377434373
1772731629089146000,4.79314599609375,0.12397884636819362,0.06208893803581595,-0.11153627503290772
1772731629099174100,4.803174072265625,0.09255553410053252,0.07715951978713273,-0.12911186187509446
1772731629109202200,4.8132021484375,0.02384264788031578,0.07076119705215096,-0.102756683184579
1772731629119230000,4.82322998046875,-0.022017186018824575,0.05836918686032295,-0.0783778826009482
1772731629129258200,4.83325830078125,-0.022550854504108427,0.06196107387244701,-0.1008279070790857
1772731629139286000,4.8432861328125,0.05497253015935421,0.06831643424853683,-0.11631960031930356
1772731629149313000,4.85331298828125,0.16662147178649903,0.04980900991633534,-0.1379443164218217
1772731629159341000,4.863341064453125,0.21357669970691204,0.030596798315644262,-0.16178148440942167
1772731629169369000,4.873369140625,0.18262334303855896,0.04457300895899534,-0.17071290581859647
1772731629179397000,4.883397216796875,0.11773089188933372,0.061822834445536136,-0.17821630371864883
1772731629189425000,4.8934248046875,0.037190205231308934,0.05373582797124982,-0.18186470669098198
1772731629199453200,4.903453125,-0.001550152051448822,0.05632072989791631,-0.14757606812007723
1772731629209481000,4.91348095703125,-0.006933598655462264,0.0478806722022593,-0.14847875258084386
1772731629219509200,4.92350927734375,-0.016655366724729538,0.05367518382519483,-0.17482589409537613
1772731629229537000,4.933537109375,-0.035675709015130994,0.06550079230591654,-0.19048267823681234
1772731629239565000,4.94356494140625,-0.07422492763996123,0.08793956473767757,-0.1760639479903504
1772731629249593000,4.953593017578125,-0.0926701003909111,0.06219765910729765,-0.18514749122131616
1772731629259621000,4.96362109375,-0.11617723270654677,0.020487346103042363,-0.14665855141635983
1772731629269648100,4.973648193359375,-0.13246376611888408,0.02670227509513497,-0.09998579369913786
1772731629279676000,4.983676025390625,-0.0919768574297428,0.007994505885243416,-0.07539755161590873
1772731629289704200,4.9937041015625,-0.0020773907959461212,0.0016495207726955413,-0.04783091477639973
1772731629299732000,5.00373193359375,0.04825345103740692,-0.0019739304214715955,0.012409691978991031
1772731629309760000,5.013760009765625,0.006430325308442115,-0.019622399836778638,0.034976255508884786
1772731629319788000,5.0237880859375,-0.10219839171469211,0.007727087120711803,0.00901095291879028
1772731629329816000,5.033816162109375,-0.11708382615745067,0.044006168856471774,-0.01782484889551997
1772731629339844000,5.043843994140625,-0.02651215935051441,0.015151245772093534,-0.030558950523287057
1772731629349872000,5.0538720703125,0.15019406859874723,-0.00465440167710185,0.001778480914607644
1772731629359900000,5.06389990234375,0.22106500963568687,-0.03063230802044272,0.058980706354789435
1772731629369928200,5.07392822265625,0.14125731342732906,-0.06942454162091016,0.09952077000327408
1772731629379956000,5.0839560546875,0.04144143293499946,-0.06612126229181885,0.07256715049557387
1772731629389983000,5.09398291015625,0.016909633746743202,-0.024590689768642187,0.03255206056926399
1772731629400011000,5.104010986328125,0.08496025666594505,0.0011585223853588103,0.00928428996745497
1772731629410039000,5.1140390625,0.1611193672388792,-0.009530191019922495,0.06129961428903043
1772731629420067000,5.124067138671875,0.16006430522799492,-0.041987814771384,0.08874883529394864
1772731629430094800,5.1340947265625,0.12630991966426372,-0.043180531687289476,0.07858067516405134
1772731629440123100,5.144123046875,0.08930734595954418,-0.04458119226545095,0.09203512695562094
1772731629450151000,5.15415087890625,0.06736147161126137,-0.0507781472094357,0.11680420549847186
1772731629460179200,5.16417919921875,0.10804945583045482,-0.055254854232072825,0.07409757493324577
1772731629470207000,5.17420703125,0.1804518442183733,-0.06615647973567247,0.04425422533340752
1772731629480235000,5.184235107421875,0.22169161710143087,-0.07685688357874751,0.03510134319327771
1772731629490263000,5.194262939453125,0.25145605624616146,-0.10348945443853735,0.05528082892354577
1772731629500291000,5.204291015625,0.2644119839310646,-0.08095555106922983,0.08132328840307891
1772731629510318000,5.214318115234375,0.13497545667886734,-0.09255392666533589,0.05950122309755534
1772731629520345900,5.224345947265625,-0.015396306574344635,-0.11289894168823957,0.08695826208274811
1772731629530374100,5.2343740234375,-0.08554770116508006,-0.0924804230377078,0.12581479309108107
1772731629540402000,5.24440185546875,-0.015465864679217338,-0.08152224504128099,0.11249690022598952
1772731629550430000,5.254429931640625,0.10955050804316997,-0.010822715048491954,0.0354934477834031
1772731629560458000,5.2644580078125,0.08307926522493361,-0.014153320775926112,-0.032678207699581976
1772731629570486000,5.274486083984375,-0.04684767589271068,-0.018701485599577426,-0.01580127064604312
1772731629580514000,5.28451416015625,-0.20582126327455041,-0.022833909229189157,-0.010118548834510147
1772731629590542000,5.2945419921875,-0.3069441347122192,-0.035499329534918064,0.02768755980543792
1772731629600569900,5.30456982421875,-0.30567396864593027,-0.031487171284109355,0.03332929201945662
1772731629610597000,5.31459716796875,-0.23603695331811902,-0.04250438599139452,-0.014925693387910723
1772731629620625000,5.324625,-0.18500176260769366,-0.02777107337042689,-0.05764145710766315
1772731629630652000,5.33465185546875,-0.1415033971428871,0.001708265222609043,-0.10614519311171025
1772731629640680200,5.34468017578125,-0.1153045415252447,-0.005317249500006437,-0.07049180552624165
1772731629650708000,5.3547080078125,-0.12738894707262516,-0.01685892647281289,-0.05653886616062372
1772731629660736000,5.364736083984375,-0.16788579263389108,-0.01631809759438038,-0.06023088907897472
1772731629670764000,5.374763916015625,-0.12563479688167573,0.019715777208656072,-0.11434300301671027
1772731629680792000,5.3847919921875,-0.07635609444975852,0.06437471088543534,-0.1524695027174428
1772731629690820000,5.394820068359375,-0.04384031077027321,0.09353256243914365,-0.19056980853099376
1772731629700848000,5.40484814453125,-0.0482540355592966,0.10177402882277965,-0.24249051337167618
1772731629710876000,5.4148759765625,-0.027115970462560653,0.11415259501114487,-0.26428631172478195
1772731629720904200,5.424904296875,0.02660685189664364,0.1310921855047345,-0.2522166653551161
1772731629730932000,5.434931884765625,0.10087971033155918,0.1192348667114973,-0.2240942577963695
1772731629740959000,5.444958984375,0.15921557944417,0.10798325872644782,-0.18530092821735888
1772731629750987000,5.454987060546875,0.12238310160934925,0.1178306990019977,-0.1187265518631786
1772731629761015000,5.46501513671875,0.023066402810811994,0.15029825962558388,-0.10898034347239881
1772731629771043000,5.47504296875,-0.08934826249182223,0.19101020924225448,-0.11705591523721813
1772731629781070800,5.48507080078125,-0.1097714573174715,0.20668708632364868,-0.14609138252027332
1772731629791099100,5.49509912109375,-0.013896423405408859,0.21507278348356484,-0.12838679900355637
1772731629801127000,5.505126953125,0.0835550660431385,0.1959444507740438,-0.06971976170781999
1772731629811155200,5.5151552734375,0.13974047912359236,0.1481320215024054,-0.06463559031132608
1772731629821183000,5.525182861328125,0.16986264566481113,0.12378843836262822,-0.08364511894676833
1772731629831211000,5.5352109375,0.17355273235440252,0.13449015737995504,-0.05455843293312937
1772731629841239000,5.545239013671875,0.15370587611198425,0.12593567952439189,-0.05448898442611098
1772731629851267000,5.55526708984375,0.1160889699012041,0.11659253550916909,-0.0743151266740635
1772731629861295000,5.565295166015625,0.11128653805553912,0.13569120373278856,-0.05216605790387839
1772731629871322000,5.575322021484375,0.08685703019797801,0.11676102394387125,-0.010601436980627477
1772731629881350100,5.58535009765625,0.04970715697705745,0.07061302075311542,0.06360858535114676
1772731629891378000,5.5953779296875,0.06949848363995552,0.08311375201642512,0.06482497540358453
1772731629901406000,5.605406005859375,0.08733750719130039,0.08441606678664684,0.06299016119185835
1772731629911434000,5.61543408203125,0.0793722274005413,0.07277122170031071,0.06112988374531269
1772731629921462000,5.6254619140625,0.06475041233003138,0.07670578467026352,0.06677968966793268
1772731629931490000,5.635489990234375,0.08520107968449592,0.06181216692104935,0.05470646310169249
1772731629941518000,5.64551806640625,0.06870996361076831,0.05253580453172326,0.07994827372282742
1772731629951547100,5.655547119140625,0.03815700443685054,0.057348757771402595,0.10879011812992394
1772731629961575000,5.665574951171875,0.034438276174664495,0.07025909274891018,0.12868486863467843
1772731629971603200,5.675603271484375,0.0549988336443901,0.0632261253722012,0.15904387613907456
1772731629981631000,5.685630859375,0.06345452730059624,0.06439385397732257,0.13628047486282885
1772731629991659000,5.695658935546875,0.06265314778983593,0.077277447078377,0.09645880688307806
1772731630001687000,5.70568701171875,0.032786417314410204,0.08074789966791868,0.05235836560558527
1772731630011714800,5.71571484375,0.044402036306262015,0.10286094727665185,0.017571732650976626
1772731630021743000,5.7257431640625,0.03536883502304554,0.0906833104878664,0.02649148188866675
1772731630031771000,5.73577099609375,0.05410217706561088,0.06734189012795687,0.06151707469830289
1772731630041798100,5.745798095703125,0.12122808635532856,0.02263970183134079,0.08925424579912795
1772731630051826000,5.755825927734375,0.17126023750305175,0.00123129536062479,0.07376465318445116
1772731630061854200,5.765854248046875,0.19495383230149746,0.011802958257496356,0.05457432462200522
1772731630071882000,5.775882080078125,0.20831191104650496,-0.004159603897482157,0.07223928851438687
1772731630081910000,5.785909912109375,0.18522855710089206,0.0022986323311924932,0.05072848111512139
1772731630091938000,5.79593798828125,0.0789320824176073,-0.009590689035505055,-0.0039814160526730116
1772731630101966000,5.805966064453125,0.00883563288450241,0.009349866016954183,-0.021063410691637544
1772731630111994000,5.815994140625,0.020369418811798094,0.0014719722487032412,-0.006072396982554346
1772731630122022100,5.826022216796875,-0.0035328503012657165,0.010189823972433804,0.019388919874466955
1772731630132050000,5.8360498046875,0.001975099465250969,0.0034758594170212743,-0.005153839099220931
1772731630142078000,5.846077880859375,0.013340543088316916,-0.008330752102285623,-0.0030301249435171485
1772731630152106000,5.85610595703125,0.048749125599861144,-0.02928381602093577,0.00868237855155021
1772731630162133000,5.866133056640625,0.034167642539739605,-0.037312516436725854,-0.01659227489326149
1772731630172161000,5.8761611328125,0.01668926899433136,-0.01882525810971856,-0.05513868050649762
1772731630182189000,5.88618896484375,-0.002648468682169914,0.0016908756963908672,-0.042250557360798115
1772731630192217000,5.896217041015625,-0.04087035504877567,0.002861526910960674,-0.02347648144904524
1772731630202245000,5.9062451171875,-0.08442717270255089,0.010602788687497377,-0.04798862608876079
1772731630212273200,5.916273193359375,-0.12273323022127151,0.04142579697445035,-0.10879146983679383
1772731630222301000,5.926301025390625,-0.08238777582943439,0.060439271132647986,-0.13899093939792365
1772731630232329200,5.9363291015625,0.004323123896121979,0.034983927358686925,-0.0682724124437198
1772731630242357000,5.94635693359375,0.0275146143913269,0.03237199129462242,0.006376878088153898
1772731630252385000,5.956385009765625,-0.064005146920681,0.023205811281502245,0.0002475084876641631
1772731630262413000,5.9664130859375,-0.15920330448448658,0.10092325721234083,-0.072650024739746
1772731630272441000,5.976441162109375,-0.13358195649385451,0.13846987466588614,-0.16146436301795764
1772731630282468000,5.986468017578125,-0.024065935242176054,0.14479673959985376,-0.21773922621384262
1772731630292496000,5.996495849609375,0.14348843348026274,0.12496449640467762,-0.19024267720216884
1772731630302524200,6.006524169921875,0.22558979358375073,0.1332835580691695,-0.13799146176548674
1772731630312552000,6.016552001953125,0.1411813255816698,0.13323197401240466,-0.07820303749069571
1772731630322580200,6.026580322265625,-0.007231120297312736,0.13346826698631048,-0.08913259218083694
1772731630332608000,6.03660791015625,-0.06399988622367382,0.17612813580036163,-0.15563098068935796
1772731630342636000,6.046635986328125,-0.01058452237844467,0.16149857581481336,-0.1286540899039246
1772731630352664000,6.0566640625,0.06083060853779316,0.1508392346344888,-0.03911755656469613
1772731630362692400,6.0666923828125,0.0685714319229126,0.15629238547384738,-0.032624961408693344
1772731630372720000,6.07672021484375,0.04818856910765171,0.16982962017804384,-0.11432318407138808
1772731630382748400,6.08674853515625,0.035326749446988104,0.17907441838532684,-0.1651518741579726
1772731630392776200,6.096776123046875,0.08297931198179721,0.15722046010419727,-0.12247929199282079
1772731630402803500,6.106803466796875,0.11175415556728839,0.11564663296118378,-0.05677329597100615
1772731630412831200,6.116831298828125,0.07822831806242465,0.08436419046893716,0.02926719367969781
1772731630422859500,6.126859619140625,0.04274491674900055,0.0810667563587427,0.0758938654991798
1772731630432887300,6.13688720703125,0.02963701337277889,0.08576412039473652,0.0594793765919283
1772731630442915300,6.146915283203125,0.06787234374284744,0.06605769553631544,0.04991758485734463
1772731630452943400,6.156943359375,0.11291209343075752,0.08661854526698588,0.03294694163836539
1772731630462971400,6.166971435546875,0.11566811414062976,0.08199117772728204,0.06246566239371895
1772731630472999400,6.17699951171875,0.1467670167595148,0.041782793718576426,0.07068599465778097
1772731630483027200,6.187027099609375,0.19339725050926207,0.02519493927210569,0.10111150979343801
1772731630493055200,6.19705517578125,0.19877777450382708,-0.023636457783728835,0.12982055813372134
1772731630503083300,6.207083251953125,0.20916122135221957,-0.0470563502073288,0.11547850985266267
1772731630513111300,6.217111328125,0.2098790142327547,-0.07457578690424561,0.0967699369251728
1772731630523138300,6.22713818359375,0.17392799540758133,-0.05976078734919429,0.07610770917925984
1772731630533166300,6.237166259765625,0.12288228330314159,-0.05152765040248632,0.03649111705124378
1772731630543194400,6.2471943359375,0.10209259325265883,-0.010772738426923752,0.013768193915858864
1772731630553222400,6.257222412109375,0.10002864646017551,-0.033909137734025714,-0.020370953181758522
1772731630563250200,6.267250244140625,0.10406710819602012,-0.03620148645490408,-0.018733670836128292
1772731630573278500,6.277278564453125,0.07123685173988342,-0.05826295000687241,-0.022667210892774164
1772731630583306200,6.28730615234375,-0.005886719951033592,-0.046850452371686696,0.0009859422974288464
1772731630593334500,6.29733447265625,-0.11048106689155102,-0.011304653346538542,-0.047430334618873894
1772731630603362300,6.3073623046875,-0.15188099877238273,0.030523440818488595,-0.12263641878329216
1772731630613390300,6.317390380859375,-0.131443775421381,0.06850786516740917,-0.2034185129817575
1772731630623418400,6.32741845703125,-0.09995616574585438,0.089145433396101,-0.21558223084304481
1772731630633446100,6.337446044921875,-0.07770107931792736,0.09155030258074402,-0.204173167273961
1772731630643473400,6.347473388671875,-0.06121230133175849,0.07680588404387236,-0.21934297161605207
1772731630653501200,6.357501220703125,-0.062139937570691105,0.07996069481298326,-0.21240224910005925
1772731630663529500,6.367529541015625,-0.016765256839990614,0.11186696829199791,-0.22718469809237865
1772731630673557200,6.37755712890625,0.011053893455862999,0.07453618554621934,-0.21772527075372636
1772731630683585300,6.387585205078125,0.0014648118555545806,0.07644801051691175,-0.19094993042238056
1772731630693613300,6.39761328125,-0.015575754794478416,0.10081117513999342,-0.1545324996618554
1772731630703641300,6.407641357421875,-0.0027834932386875152,0.08379545067027211,-0.14041832358622922
1772731630713669400,6.41766943359375,0.010739420679211615,0.08140884779468179,-0.18306973509918897
1772731630723697400,6.427697509765625,0.04579436744749546,0.11045520179793238,-0.2088518083431758
1772731630733725200,6.43772509765625,0.08581716575622558,0.1416923438437283,-0.2226375196494162
1772731630743753500,6.44775341796875,0.07952128048241137,0.11761910207793116,-0.20745313879270105
1772731630753781200,6.45778125,0.03393792543709278,0.11077902692481875,-0.18389279671879485
1772731630763808300,6.467808349609375,0.004611293187737464,0.09686886725500225,-0.11811821070648729
1772731630773836300,6.477836181640625,-0.01170563536286354,0.06161313721761107,-0.07037667298028245
1772731630783864300,6.4878642578125,0.0038426469027996062,0.042084114752709866,-0.030762345874588936
1772731630793892400,6.497892333984375,0.029756255838274955,0.04499693345949053,-0.028696901244763283
1772731630803920400,6.50792041015625,0.094007486474514,0.04336041829884052,-0.021617062519025055
1772731630813948400,6.517948486328125,0.1031529159605503,0.031189795772731302,-0.029487649763654915
1772731630823976200,6.52797607421875,0.042724458482861515,0.02423778467774391,0.03528939484497532
1772731630834004500,6.53800439453125,0.025335516786575314,0.003921265096962452,0.09961853128932416
1772731630844032300,6.5480322265625,-0.01844166561961174,-0.026127105555683372,0.16958567362064494
1772731630854060300,6.558060302734375,-0.0010223287850618362,-0.049034226151555775,0.21123514154944567
1772731630864088300,6.56808837890625,0.020110475614666938,-0.05221197940483689,0.17763841249914838
1772731630874115300,6.578115234375,0.040465865901112556,-0.03867620600536465,0.15245032309293746
1772731630884143400,6.588143310546875,0.08034896347820758,-0.03356704629808664,0.11057166778445243
1772731630894171100,6.598171142578125,0.11294307309091091,-0.043304742588847873,0.09146675248313695
1772731630904199400,6.608199462890625,0.11891104158461094,-0.04188157791793346,0.11001339458087459
1772731630914227200,6.618227294921875,0.10575871454477309,-0.03525616842880845,0.1300690712683834
1772731630924255500,6.62825537109375,0.12702829706668853,-0.050490270178765055,0.11259838783908635
1772731630934283300,6.638283203125,0.10595394485592842,-0.0390511767975986,0.10612000387152656
1772731630944311300,6.648311279296875,0.08640344121158122,-0.015112521196901797,0.09400122113050892
1772731630954339300,6.65833935546875,0.05892272908985614,-0.0009998246923089028,0.05731240781638771
1772731630964367400,6.668367431640625,0.03666179744303226,0.025448037250339985,0.009258114346582441
1772731630974395400,6.6783955078125,0.027884032225608823,0.04720350359305739,-0.0310614932179451
1772731630984423400,6.68842333984375,0.04596855497062206,0.0691952629096806,-0.057578146080486475
1772731630994450400,6.698450439453125,0.07543664151728152,0.053956631115078924,-0.06916083091711625
1772731631004478200,6.708478271484375,0.08978665390908717,0.05579071467444301,-0.06043912500217557
1772731631014506200,6.71850634765625,0.0829845726788044,0.053379854140430685,-0.05327295969985425
1772731631024534300,6.7285341796875,0.07000935577154159,0.07007438383176923,-0.10308284639902413
1772731631034562300,6.738562255859375,0.04438976134657859,0.08613032335862517,-0.11249479960044845
1772731631044590300,6.74859033203125,-0.0006996727019548416,0.10018237571716308,-0.11136972282696515
1772731631054618400,6.758618408203125,-0.03561959491372108,0.11271379437968135,-0.11627331349216401
1772731631064646100,6.768646240234375,-0.05086567936241627,0.12172843709290027,-0.15121690884046254
1772731631074674400,6.77867431640625,-0.06904840178489685,0.11541896168515085,-0.1739237941564992
1772731631084702200,6.7887021484375,-0.038245851764082905,0.10830942194089292,-0.13890963605633005
1772731631094730500,6.79873046875,0.0055921209186315535,0.09034604135751724,-0.0836219207342714
1772731631104758300,6.80875830078125,0.06884498816728592,0.07279679453298449,-0.017854805642366408
1772731631114785500,6.81878564453125,0.07486439458727837,0.06299217048585415,0.0031850049779750403
1772731631124813300,6.828813232421875,0.04379647162854671,0.050030543712526555,0.008258600181527435
1772731631134841300,6.83884130859375,0.0036538463324308395,0.04972819976508617,0.04001163759389892
1772731631144869400,6.848869384765625,-0.05348316838443279,0.042403702095896,0.043041598140634595
1772731631154897400,6.8588974609375,-0.05304828409850597,0.018574352088570594,0.08676332403253763
1772731631164925400,6.868925537109375,0.019209142860770224,0.004104512709379196,0.10647712847981601
1772731631174953200,6.878953125,0.09020107992887497,-0.02729848742261529,0.11183690194729715
1772731631184981200,6.888981201171875,0.15876725115478038,-0.04386369164586067,0.09339271557703614
1772731631195009300,6.89900927734375,0.19166355858445167,-0.05047244226112962,0.06312394363936036
1772731631205037300,6.909037353515625,0.17480594728589058,-0.05807663365453481,0.09949340707231312
1772731631215065300,6.9190654296875,0.14723931044638155,-0.0624801293104887,0.08397259733546525
1772731631225093400,6.92909326171875,0.08974690642058848,-0.06726195675954222,0.0931514906996861
1772731631235120400,6.939120361328125,0.05192775563597679,-0.09059197894260287,0.11204871806707233
1772731631245148400,6.9491484375,0.04643792604804039,-0.06861220232471824,0.09180182965639978
1772731631255176200,6.95917626953125,0.06073007077276706,-0.06654270257428288,0.06735873166490346
1772731631265204500,6.96920458984375,0.0915156696587801,-0.04383490394279361,0.032453860891796645
1772731631275232300,6.979232177734375,0.07512099969685077,-0.030161329507827756,-0.003578516073897481
1772731631285260500,6.989260498046875,0.04617489119768142,-0.015144231509417294,-0.06343984118811785
1772731631295288300,6.999288330078125,-0.0424462260633707,0.010633914478123188,-0.10081859126146882
1772731631305316400,7.00931640625,-0.08700608327984809,0.0038498072959482666,-0.0993190734187141
1772731631315344400,7.019344482421875,-0.08372282382547855,0.014208704224973915,-0.09685480219703167
1772731631325372200,7.0293720703125,-0.06771802996397018,0.013633242424577474,-0.10063779133446514
1772731631335400400,7.039400390625,-0.052070963498950004,0.02888078817799687,-0.10715521040447056
1772731631345428200,7.04942822265625,-0.04090659540593624,0.057406333177536725,-0.11810509549658744
1772731631355455500,7.05945556640625,-0.03934475291669368,0.07256006316766142,-0.16250015407279134
1772731631365483300,7.069483154296875,-0.05899462528228759,0.0736048960454762,-0.1802002075448632
1772731631375511300,7.07951123046875,-0.0567722730576992,0.09232800895497202,-0.17812299941200763
1772731631385539000,7.0895390625,-0.06683657095432281,0.081811291115731,-0.1834384588137269
1772731631395567000,7.099567138671875,-0.07438684020340443,0.08369169803485274,-0.18563081775885074
1772731631405595100,7.10959521484375,-0.03971358622908592,0.07933408734723925,-0.18879037776831536
1772731631415623200,7.119623046875,-0.0015817162334918974,0.08430296180099249,-0.18619148384891449
1772731631425651200,7.129651123046875,0.02182955449223518,0.07511500834748149,-0.18230134454257785
1772731631435679200,7.13967919921875,0.04734101236760616,0.0678220748603344,-0.1670331578599289
1772731631445707000,7.14970703125,0.04782850362360477,0.07276157708913088,-0.14190127388667315
1772731631455735300,7.1597353515625,0.0020756372302770613,0.054218935313075776,-0.1154004031151533
1772731631465763000,7.16976318359375,-0.032712183034420014,0.0523605940952897,-0.10919654350634664
1772731631475790300,7.179790283203125,-0.03945639659762382,0.08123217605352401,-0.085286712141335
1772731631485818000,7.189818115234375,-0.03388005777001381,0.0834166804857552,-0.09683587830085306
1772731631495846100,7.19984619140625,0.018228315129876136,0.08860869617089628,-0.08524961326764896
1772731631505874200,7.209874267578125,0.05170271470844745,0.07717574026957154,-0.059191079436149444
1772731631515902200,7.219902099609375,0.05196867216825485,0.054190001479536294,-0.05604845229517668
1772731631525930200,7.22993017578125,0.04930149878561496,0.04442877818271517,-0.02328501399755478
1772731631535958000,7.2399580078125,0.062331076228618616,0.05212810051366686,-0.005598112268000841
1772731631545986000,7.249986083984375,0.06335457405745983,0.047591772258281706,0.0037568865817971526
1772731631556014000,7.26001416015625,0.07761047842502594,0.05631839181035757,0.0235825539057143
1772731631566042000,7.2700419921875,0.08567454241514205,0.03313070070743561,0.03679987247316167
1772731631576070100,7.280070068359375,0.12256430339515209,0.025542145274579525,0.03333749359222129
1772731631586097200,7.29009716796875,0.12907178559303284,0.04823343116268515,0.03358052683416754
1772731631596125200,7.300125244140625,0.13982757288515568,0.03767214352935552,0.042220564081333574
1772731631606153200,7.3101533203125,0.12499299184679984,0.017152794852852822,0.054039761087577784
1772731631616181200,7.32018115234375,0.07442541864812374,0.02930865820124745,0.05130648193247616
1772731631626209300,7.330209228515625,0.046137481796741486,0.054543637222796676,0.055761963503994046
1772731631636237000,7.340237060546875,0.044671500897407526,0.08294219484180211,0.010560995372384786
1772731631646265300,7.350265380859375,0.05428571693897247,0.11606252028569579,-0.022983053642604497
1772731631656293000,7.360293212890625,0.06296937413215636,0.14524550628066063,-0.04525501814009621
1772731631666321200,7.370321044921875,0.08262918336987495,0.12317659007459879,-0.09637094593653454
1772731631676349200,7.38034912109375,0.13180208733975887,0.07966887225955724,-0.10587108887806534
1772731631686377000,7.390376953125,0.19836919370293615,0.04128127393722534,-0.12164505139207467
1772731631696405200,7.4004052734375,0.26313363455832,-0.00541077300235629,-0.09087824853807687
1772731631706433000,7.41043310546875,0.2733487391024828,-0.04574833634868264,-0.06115215037604794
1772731631716460300,7.420460205078125,0.28491408921182154,-0.09652926003709435,-0.03713009080821648
1772731631726488000,7.430488037109375,0.24434067128300666,-0.10144757334738969,0.01361667488226667
1772731631736516400,7.440516357421875,0.15757015032470226,-0.10856485800668597,0.04912427905518561
1772731631746544000,7.450544189453125,0.03161211283802986,-0.07022314465269446,0.039170528860948975
1772731631756572200,7.460572265625,-0.08243570662438869,-0.008382336159050464,-0.015548464928753673
1772731631766600200,7.47060009765625,-0.17738310429751872,0.015051292528957127,-0.02718912703031674
1772731631776628200,7.480628173828125,-0.24747020148038862,0.03688932258859277,-0.021972707556281237
1772731631786656300,7.49065625,-0.2879296376407146,0.06178761700168252,-0.03777344847936183
1772731631796684300,7.500684326171875,-0.2804717228502035,0.07508388255685568,-0.04420751838115975
1772731631806712000,7.510712158203125,-0.266977450504899,0.10793445114865899,-0.08258382812449708
1772731631816740400,7.520740234375,-0.2258604272186756,0.1071244499400258,-0.11817792327078058
1772731631826767000,7.53076708984375,-0.19163783962130546,0.1079784364208579,-0.1282261833480559
1772731631836795100,7.540795166015625,-0.11063479614853858,0.10770473404601216,-0.11003193488456309
1772731631846823200,7.5508232421875,-0.06653788026869296,0.09535437103882431,-0.05721128552947193
1772731631856851200,7.560851318359375,0.0018389058649539945,0.08913008969649672,-0.08314953571585938
1772731631866879200,7.570879150390625,0.06816343564391136,0.06504325779676437,-0.06023996743457392
1772731631876907000,7.580906982421875,0.13011515716612337,0.09509718140736222,-0.06387375735966488
1772731631886935300,7.590935302734375,0.16736556815207004,0.08746084131002425,-0.0860282694899477
1772731631896963000,7.600963134765625,0.20178572414815424,0.062261664254218335,-0.07115052516330034
1772731631906991400,7.610991455078125,0.20313012449443338,0.062089376427233216,-0.040684312691073865
1772731631917019100,7.62101904296875,0.19176468087136744,0.03533522501438856,0.022287216865550727
1772731631927047200,7.631047119140625,0.19431378083229064,0.043781858581304546,0.06486276839701459
1772731631937075200,7.6410751953125,0.19614216530323028,0.03493862691223621,0.087281922812853
1772731631947102000,7.65110205078125,0.17616846781075,0.01676554910093546,0.12295313831595703
1772731631957130200,7.661130126953125,0.1503606573373079,0.030168197640031574,0.11901094002882018
1772731631967158000,7.671157958984375,0.12145838797986507,0.009675590839982031,0.13818090165667235
1772731631977186300,7.681186279296875,0.06066285075545311,0.022849106798321007,0.12800678671002388
1772731631987214000,7.691214111328125,0.015603811845183372,0.02632043617069721,0.12457873022379352
1772731631997242000,7.7012421875,-0.006994973453879356,0.034911885035783054,0.11459595486447215
1772731632007270100,7.711270263671875,-0.01433423030078411,0.02469327336028218,0.106420630785916
1772731632017298200,7.721298095703125,-0.05156885919570923,0.030043840608000753,0.11145093483701347
1772731632027326200,7.731326171875,-0.1150911910355091,0.030434885752201078,0.10922956899311392
1772731632037354200,7.741354248046875,-0.10533435165286063,0.041344110040366644,0.033812070567719635
1772731632047382000,7.751382080078125,-0.06620820992290974,0.054876668569445605,-0.01128890778813511
1772731632057410300,7.761410400390625,-0.015035072046518326,0.05938084812089801,-0.0452201477561146
1772731632067437000,7.77143701171875,0.016504560077190398,0.049647389613837,-0.05594605136662721
1772731632077465000,7.781465087890625,0.02407002689540386,0.029108459454029796,-0.05732424438465386
1772731632087493000,7.7914931640625,0.058660863283276556,0.013942308373749256,-0.05620831903200596
1772731632097521200,7.801521240234375,0.12194237210452556,-0.015495967556536197,-0.06146236710269004
1772731632107549200,7.811549072265625,0.11006605634987354,-0.04471753199622035,-0.053507974032126364
1772731632117577000,7.821576904296875,0.11348960105776786,-0.03501300732269883,-0.06083119305968284
1772731632127605200,7.831605224609375,0.15361878235042095,-0.03820815010219812,-0.09405063149649649
1772731632137633000,7.841633056640625,0.16972411397695542,-0.03190013599917292,-0.13683598985373974
1772731632147661300,7.851661376953125,0.1722510021060705,-0.010423048206418753,-0.1733892123557627
1772731632157689000,7.861689208984375,0.1076449666827917,-0.005974544364959001,-0.18637531598322093
1772731632167717000,7.871717041015625,0.049100423255562776,0.00010550620108842849,-0.1897189273227006
1772731632177744100,7.881744140625,-0.023275077125430105,-0.0017278467059135437,-0.22396836639437823
1772731632187772200,7.891772216796875,-0.062114218607544895,0.007899521078169346,-0.22378847978282718
1772731632197800200,7.90180029296875,-0.07440729846954346,-0.011116875689476727,-0.19903138393871486
1772731632207828200,7.911828125,-0.07970891200900078,-0.036687954797595734,-0.17207827588766814
1772731632217856300,7.921856201171875,-0.1186029985487461,-0.038883126754313706,-0.17288853282462804
1772731632227884000,7.931884033203125,-0.1263718789845705,-0.05599646637961268,-0.1401646228197962
1772731632237912000,7.941912109375,-0.1121720887184143,-0.05799480058997869,-0.13809782648310065
1772731632247940000,7.951940185546875,-0.08977496347129345,-0.05688450126051903,-0.07731989798061549
1772731632257968000,7.961968017578125,-0.09939911638498306,-0.04971767837107181,-0.021016849869862197
1772731632267996200,7.97199609375,-0.1527449221253395,-0.04408829418197274,-0.006414214423857629
1772731632278024200,7.982024169921875,-0.1939753426581621,-0.021837737798690793,-0.015794950503110885
1772731632288052000,7.992052001953125,-0.19014672428071497,0.011041910757124424,-0.047778125143237406
1772731632298079200,8.002079345703125,-0.12338906378149986,0.025599282289296386,-0.061732635411433874
1772731632308107300,8.012107177734375,-0.015299275940656661,0.038003275179862975,-0.047331386022735386
1772731632318135300,8.02213525390625,-0.008059972336888313,0.06163885618075728,-0.04613939975919202
1772731632328163000,8.0321630859375,-0.04408405639827251,0.07745645690709352,-0.0670491542590782
1772731632338191400,8.04219140625,-0.014137830945849418,0.10589563879743218,-0.08811992627326398
1772731632348219100,8.05221923828125,0.050745852375030515,0.0858699188567698,-0.07436853736173361
1772731632358247000,8.062246826171876,0.14580080207586288,0.10064385574907064,-0.08864267150573432
1772731632368275000,8.07227490234375,0.1829343086838722,0.10149579640328883,-0.05916768029425293
1772731632378302700,8.082302734375,0.21413784072101114,0.1119378415711224,-0.05502004082920029
1772731632388331000,8.0923310546875,0.25926760677993294,0.10655366431474685,-0.05939414599388838
1772731632398358800,8.10235888671875,0.2964098812162876,0.12210633049458265,-0.07399018730232491
1772731632408387000,8.112386962890625,0.31037294011712074,0.12444295674860477,-0.06786527468124404
1772731632418413800,8.122413818359375,0.24249241306781769,0.13160568798482417,0.0016914054193533955
1772731632428441900,8.13244189453125,0.1841378392547369,0.12124153035879134,0.04739632275141775
1772731632438470000,8.142469970703125,0.1346633219897747,0.1005848190382123,0.055013702419959
1772731632448497700,8.15249755859375,0.15245499926805495,0.08693959391489625,0.03140442490410059
1772731632458526000,8.16252587890625,0.1844113954991102,0.07724266802594065,0.04676467378437519
1772731632468553700,8.1725537109375,0.25216858842968937,0.05722936917543411,0.06964998440723866
1772731632478582000,8.18258203125,0.270478152102232,0.028413901318609713,0.08939469544943422
1772731632488609800,8.19260986328125,0.22842706283628939,-0.00013224807754158972,0.15462244296763092
1772731632498637800,8.202637939453124,0.1251215866625309,0.011146247914433478,0.18391462495811284
1772731632508665900,8.212665771484374,-0.02653086405098438,0.0061813189834356306,0.21300050725415348
1772731632518694000,8.22269384765625,-0.12860124547183513,0.0063515609838068485,0.20778525682389734
1772731632528722000,8.232721923828125,-0.1795189472824335,0.004114157320559025,0.21464038341566918
1772731632538748700,8.242748779296875,-0.14663374576866625,-0.02356836098358035,0.2077302752336487
1772731632548777000,8.25277685546875,-0.05040858324468136,-0.05741758522391319,0.209733212553896
1772731632558804700,8.2628046875,0.05238426723182201,-0.1334689976386726,0.23067465909998863
1772731632568832800,8.272832763671875,0.12387012529671192,-0.1785812280409038,0.25851466952078045
1772731632578860800,8.28286083984375,0.18575638036727904,-0.21680223762467501,0.2733561552239582
1772731632588888800,8.292888916015626,0.18914543828368185,-0.2407616437524557,0.2707999679351225
1772731632598916900,8.302916748046876,0.17452420773506164,-0.22712971650213,0.28152857495937494
1772731632608945000,8.31294482421875,0.15753624805510044,-0.2444922085829079,0.30612693657781925
1772731632618972700,8.32297265625,0.20741408542394638,-0.2835648665599525,0.2977878185059875
1772731632629001000,8.3330009765625,0.2956570170223713,-0.29761121983006594,0.21234328545443712
1772731632639028700,8.34302880859375,0.32513620948493477,-0.272349645062536,0.10195599779356271
1772731632649057000,8.35305712890625,0.31316870831549165,-0.2378048397734761,0.01764879820886999
1772731632659083800,8.363083740234375,0.24816519800722597,-0.214499952031672,-0.05485584497712552
1772731632669111800,8.37311181640625,0.09720715929865836,-0.17752119759395718,-0.12690236913207917
1772731632679139800,8.383139892578125,0.0009264671951532363,-0.12502937833443284,-0.16134060877412557
1772731632689167600,8.393167724609375,-0.044994156980514524,-0.08104322935268282,-0.18310708970120176
1772731632699196000,8.40319580078125,-0.07797288199663162,-0.029948125148564576,-0.19711990602789445
1772731632709223700,8.4132236328125,-0.13559855701327322,-0.020517448980361223,-0.21239444938609375
1772731632719252000,8.423251953125,-0.16819851184487342,0.009896247853338718,-0.21610552406478672
1772731632729279700,8.43327978515625,-0.16271569651961326,0.05206614119336009,-0.24510462312651796
1772731632739307800,8.443307861328124,-0.14245207616984842,0.07000920964106917,-0.2815518462371081
1772731632749335800,8.453335693359374,-0.0912017814040184,0.08875891829654574,-0.3128847037423402
1772731632759363800,8.46336376953125,0.012450900772213934,0.09551233807951211,-0.33134470873624083
1772731632769390800,8.473390869140625,0.07585340562462806,0.09611965632289647,-0.29720035574054343
1772731632779419000,8.4834189453125,0.1275263097167015,0.08113061537519096,-0.25513485435675826
1772731632789447000,8.493447021484375,0.15154548320770264,0.06743117584660649,-0.19436255187746138
1772731632799474700,8.503474609375,0.1277975278735161,0.07505641002804041,-0.14475606052959336
1772731632809502700,8.513502685546875,0.10153963554501533,0.0966828431636095,-0.10312312361048534
1772731632819530800,8.52353076171875,0.04541033656597137,0.10924407244250178,-0.0686076540137641
1772731632829558800,8.533558837890626,0.02409574585855007,0.11975289923623203,-0.058720612380187956
1772731632839586800,8.5435869140625,0.03677577921152115,0.1175343464039266,-0.052133525607455516
1772731632849614800,8.55361474609375,0.0895809022039175,0.10487681714370846,-0.019406345933303235
1772731632859642600,8.563642578125,0.12894786695241928,0.059745005258172744,0.007684307424910366
1772731632869671000,8.5736708984375,0.14819851086735725,0.05613309837132692,0.035753085100278255
1772731632879698700,8.58369873046875,0.16146715776324272,0.03074132135286927,0.04026579501805827
1772731632889726000,8.593725830078125,0.16726619943082333,0.04481324745565653,0.047546818871703
1772731632899753700,8.603753662109375,0.1404056650340557,0.005639613322168589,0.07375760238915681
1772731632909782000,8.613781982421875,0.13656418717503546,-0.018018764032423494,0.09028282166188582
1772731632919809800,8.623809814453125,0.1519873817563057,-0.013699585659056901,0.10973618507469073
1772731632929837800,8.633837890625,0.16906418876349924,-0.039445144551247355,0.12386343982759862
1772731632939865900,8.643865966796875,0.1725181286096573,-0.05453355422019958,0.16337140221567822
1772731632949894000,8.653893798828125,0.12563655044734479,-0.05197802451848983,0.16004581972323356
1772731632959922000,8.663921875,0.06466448761224747,-0.04937032623812556,0.1452640465843491
1772731632969949700,8.67394970703125,-0.02121054581105709,-0.0616173750013113,0.1287718527983874
1772731632979977700,8.683977783203124,-0.06218728384375572,-0.0686963734768331,0.11264759727567433
1772731632990005800,8.694005859375,-0.036193010887503624,-0.0800911893248558,0.1066619469948113
1772731633000033800,8.70403369140625,-0.006298807883262634,-0.07446428935378789,0.047601161141134794
1772731633010060800,8.714060791015624,0.05383855769336223,-0.0678869567900896,-0.01794778115544468
1772731633020088800,8.7240888671875,0.07643675847053527,-0.072014411983639,-0.05224948013732209
1772731633030116900,8.734116943359375,0.04446750275790691,-0.09160290955081582,-0.06784516347497702
1772731633040145000,8.744144775390625,0.02732172216773033,-0.0864059254296124,-0.040616489885561165
1772731633050173000,8.7541728515625,0.001617372068762779,-0.08038330413922667,-0.05255947766825556
1772731633060201000,8.764200927734375,0.005899579432606696,-0.06809928436651826,-0.0783096762029454
1772731633070228700,8.774228759765625,0.025091186636686323,-0.030220804610103368,-0.13010777757726608
1772731633080257000,8.784257080078126,0.01823649843633175,-0.02571472536250949,-0.12806522063268347
1772731633090284800,8.794284912109376,-0.02658580910861492,-0.023034546367824076,-0.12084511491972952
1772731633100312800,8.804312744140624,-0.05717851577103138,-0.003625058629363775,-0.09911628085561096
1772731633110340900,8.8143408203125,-0.06514379556179047,-0.007193418635427952,-0.11906610428215936
1772731633120368600,8.82436865234375,-0.03733692022562027,-0.02758373410478234,-0.09597361718202009
1772731633130396000,8.83439599609375,0.03420797455012798,-0.03554550676420331,-0.027394312479905782
1772731633140423700,8.844423583984375,0.07650690109729766,-0.04566431132704019,0.014496727386116981
1772731633150452000,8.854451904296875,0.055333764687180514,-0.061369976111501454,0.03969946637218818
1772731633160479700,8.864479736328125,0.0604582680940628,-0.02076499400064349,0.03801496561765671
1772731633170508000,8.874508056640625,0.01747077476084232,-0.0071392042301595205,0.043789585230033845
1772731633180535800,8.884535888671875,-0.012929039677977561,0.010218319414556027,0.07549324880903586
1772731633190563800,8.894563720703125,-0.09431552951037883,0.025027327620238064,0.06497574551850557
1772731633200592000,8.904591796875,-0.11295008735358715,0.040442046634107824,0.026933654431905596
1772731633210620000,8.914619873046876,-0.04104863422513008,0.03267389685064554,0.04743205165192484
1772731633220648000,8.92464794921875,0.043591888967156406,0.0008409808687865734,0.08238633279101923
1772731633230676000,8.934676025390624,0.12956161493659019,-0.03393544121906161,0.08314891466135159
1772731633240703700,8.944703857421874,0.1504319690078497,-0.020671324367821216,0.08657909003943204
1772731633250730800,8.954730712890624,0.13015139752328395,-0.030462358281016347,0.09061890348214656
1772731633260758800,8.9647587890625,0.05688683934807777,-0.039227410147339103,0.08431189402611926
1772731633270786800,8.974786865234375,0.0328127207994461,0.009712269588559865,0.05462468483606353
1772731633280814800,8.98481494140625,0.02605214062333107,0.015422756189852952,0.023944354689121244
1772731633290843000,8.9948427734375,0.04503390446901321,0.03627089842930436,-0.006616440731380135
1772731633300871000,9.004870849609375,0.0753419489711523,0.02326572477519512,0.0029772074461914596
1772731633310898700,9.014898681640625,0.12503273933529854,0.02099295753762126,0.01109144898727536
1772731633320927000,9.024927001953126,0.13113339429795742,0.016575287225842474,-0.002197272582259029
1772731633330954800,9.034954833984376,0.08991700229048728,0.017354454904794692,-0.021311832494754344
1772731633340983000,9.044983154296874,0.039543490359187125,0.02979848754480481,-0.05728650619015097
1772731633351010800,9.0550107421875,0.034039632245898246,0.05078413855880499,-0.09969079280793666
1772731633361038300,9.065038330078124,0.04297931002676487,0.04843465282320976,-0.09799370656646787
1772731633371066400,9.07506640625,0.05737491512596607,0.05183145565465092,-0.08994706863518803
1772731633381094100,9.08509423828125,0.033655601364374156,0.05982186988666653,-0.08413745077466592
1772731633391122400,9.095122314453125,0.004303250151872635,0.07251987728774548,-0.08336195462383329
1772731633401150200,9.105150146484375,-0.02239303359389305,0.056984162242710586,-0.1016774183141999
1772731633411178200,9.11517822265625,-0.06013795009851455,0.06531871373727917,-0.07768316006874665
1772731633421206300,9.125206298828125,-0.07125088026523589,0.08134922656193375,-0.0875222709073685
1772731633431234300,9.135234375,-0.08523615099787711,0.08691372882127761,-0.10843922233302146
1772731633441262300,9.145262451171876,-0.07243278352618217,0.07003419795185327,-0.10596539783170446
1772731633451290400,9.155290283203126,-0.0478361024081707,0.06746069420203567,-0.08263289143061264
1772731633461318100,9.165318115234374,-0.0013666121780872343,0.021121406222879887,-0.04673444304289296
1772731633471346400,9.175346435546874,0.02909457705914974,0.005532645816355943,-0.03572325621759519
1772731633481373200,9.185373291015624,0.0655693274974823,-0.01635010016784072,-0.03153950425954535
1772731633491401500,9.1954013671875,0.019794249272346496,0.00893690130189061,-0.08915273991972207
1772731633501429200,9.20542919921875,-0.007284311789274215,-0.000817161601781845,-0.09212528945710509
1772731633511457500,9.21545751953125,-0.018938509225845335,0.019557810167968273,-0.05974063961030915
1772731633521485300,9.2254853515625,-0.029763270100951193,0.010429624077677726,-0.0345797122056596
1772731633531513000,9.23551318359375,-0.06679682346582412,-0.009620207390934228,-0.01634887632513419
1772731633541541400,9.245541259765625,-0.06809095492959022,-0.014267010283470154,0.0003290127586573362
1772731633551569200,9.255569091796875,-0.03529518526494503,-0.013881079705804586,-0.0098954441357404
1772731633561597400,9.265597412109376,-0.0343769013762474,-0.013811229339987038,-0.019480470615439116
1772731633571625200,9.275625244140626,-0.016958733585476875,-0.004078501485288143,0.0161916764694266
1772731633581653200,9.2856533203125,-0.03653612523674965,-0.02574716632738709,0.03266721138153225
1772731633591681300,9.295681396484374,-0.061895607420802114,-0.043050037175416944,0.04330647788820788
1772731633601708300,9.305708251953124,-0.09205927501618862,-0.03351692354604602,0.07192556465640663
1772731633611735300,9.3157353515625,-0.07605272758901119,-0.018139467802643774,0.0683007617553696
1772731633621763300,9.325763427734374,-0.013973580294847488,-0.030976445282995698,0.012229896698985249
1772731633631791400,9.335791259765625,0.03844458920657635,-0.008805237746238708,-0.0003917575302533805
1772731633641819100,9.345819091796875,0.05732172363400459,-0.012476911996304988,0.022902261757664383
1772731633651847400,9.355847412109375,0.05095686477720737,-0.008104688261449337,0.013374189629592
1772731633661874200,9.365874267578125,0.04023088810145855,0.019767507395893336,0.01628326374301687
1772731633671902500,9.37590234375,0.033895839861035344,0.03389394016489387,0.009613485389202833
1772731633681930200,9.38593017578125,0.06460545090138912,0.02587123109847307,-0.023005868262611327
1772731633691958500,9.39595849609375,0.1112397763043642,0.052528644138574596,-0.04278820790145546
1772731633701986300,9.405986328125,0.17643676335811614,0.06323971550613641,-0.043987062297202645
1772731633712014300,9.416014404296876,0.19924422297179697,0.05852247772589326,-0.06881291252858937
1772731633722042400,9.42604248046875,0.1630529656499624,0.07907602093294262,-0.07118439090028404
1772731633732070400,9.4360703125,0.1417699391245842,0.10207067368179559,-0.07243687517940997
1772731633742098400,9.446098388671874,0.0905003551363945,0.08346431901976466,-0.06401358595546335
1772731633752126200,9.456126220703124,0.06757423757910729,0.07902896692082285,-0.0651028424968943
1772731633762154200,9.466154296875,0.0826619165956974,0.13425196470990777,-0.07092477184971795
1772731633772182300,9.476182373046875,0.03240355547666549,0.15067936789765954,-0.09732912344420327
1772731633782209300,9.486209228515625,-0.001084288105368614,0.1451940683543682,-0.11786896691946312
1772731633792237300,9.4962373046875,-0.0075052610635757445,0.1610100616455078,-0.10860948259970173
1772731633802265300,9.506265380859375,0.007519289588928222,0.12984203931316732,-0.10450297886263578
1772731633812293400,9.51629345703125,0.018407763350009917,0.11514058313518762,-0.08669237768817692
1772731633822321400,9.5263212890625,0.04581307214796543,0.1359324651427567,-0.026793223047908394
1772731633832349200,9.53634912109375,0.046130467534065245,0.16116437542438505,-0.015963475470431147
1772731633842377500,9.54637744140625,0.058195583859086034,0.14518573891744016,-0.026610706087853757
1772731633852405200,9.5564052734375,0.03900923735201359,0.12803075210750103,-0.014489603525586425
1772731633862433500,9.56643359375,0.04927694886624813,0.13791633243635296,0.008049323078710586
1772731633872461300,9.57646142578125,0.07493979791104793,0.13162600012049078,0.017652013079263267
1772731633882489300,9.5864892578125,0.122053431263566,0.09867650119885801,0.025733356997743248
1772731633892517400,9.596517333984375,0.18238018193244934,0.09424655592739581,0.028149368630908427
1772731633902544400,9.60654443359375,0.2052384949505329,0.06531871373727917,0.025300189744867384
1772731633912572400,9.616572509765625,0.20659692382216452,0.022514175755530594,0.02619229801269248
1772731633922600200,9.62660009765625,0.21296879694163798,0.0026537293791770934,0.05288993346532807
1772731633932628500,9.63662841796875,0.1891390085428953,-0.0041873686872422695,0.04575226360512897
1772731633942656300,9.64665625,0.1770651243895292,-0.01594809523820877,0.04929435665877536
1772731633952684300,9.656684326171876,0.14866262124776838,-0.012017770051956176,0.048252537721954286
1772731633962712300,9.66671240234375,0.16137831043601036,-0.002386749006062746,0.014378635698091238
1772731633972740400,9.676740234375,0.18332769191563128,0.010147007744014263,-0.015503931667283177
1772731633982768400,9.686768310546874,0.16390227595567702,0.013104396244883536,-0.033906781380157916
1772731633992796400,9.69679638671875,0.10264555096030235,0.0280168648250401,-0.033542313715629275
1772731634002824200,9.70682421875,0.004440028274059296,0.011915917112678288,-0.054400356294587254
1772731634012852500,9.7168525390625,-0.08143500514924526,0.013436550808697939,-0.04853530018609017
1772731634022879500,9.72687939453125,-0.11499299135804175,0.035722909157723186,-0.08811744205523282
1772731634032907300,9.7369072265625,-0.08623568342924118,0.07344327574297785,-0.13546101170610636
1772731634042935300,9.746935302734375,-0.0416314025491476,0.06512143759950995,-0.1372597316911444
1772731634052963300,9.75696337890625,-0.08656652281880378,0.07248539049625397,-0.16139096898818386
1772731634062991400,9.766991455078125,-0.1516559578448534,0.09484422955960035,-0.14493726231539622
1772731634073019400,9.777019287109376,-0.2021931359052658,0.1001885131970048,-0.16629512590896336
1772731634083047400,9.78704736328125,-0.19410393747389315,0.09707958739623426,-0.19137942614713682
1772731634093075200,9.7970751953125,-0.11444763243496417,0.08391586217954754,-0.17214845504704862
1772731634103103500,9.807103515625,-0.017964695757627488,0.06023001229614019,-0.12080900242673233
1772731634113131300,9.81713134765625,-0.0009188684105873108,0.03396218309551477,-0.10252179671647027
1772731634123159300,9.8271591796875,-0.032271453529596324,0.03537234215438366,-0.116520420121029
1772731634133186300,9.837186279296875,-0.016768763971328735,0.04097425381466746,-0.1286480254893191
1772731634143214300,9.84721435546875,0.032924949002265926,0.027576135320216414,-0.13177158260364086
1772731634153242400,9.857242431640625,0.07160919218361378,0.01668839221149683,-0.11836378296539186
1772731634163270100,9.867270263671875,0.12454641712307929,0.003992284506559371,-0.09176827444666996
1772731634173298400,9.87729833984375,0.11982406477630138,-0.011099778424203396,-0.04204425766635686
1772731634183326200,9.887326171875,0.07023030504584311,-0.02687500131353736,0.0037360264568589625
1772731634193354500,9.8973544921875,0.05950549741387367,-0.0061624681524932385,-0.024912140275351703
1772731634203382300,9.90738232421875,0.06955752035081386,0.011186872185766696,-0.04843810515562072
1772731634213410300,9.917410400390626,0.08357903144061565,0.01311097211614251,-0.04869299323214218
1772731634223438300,9.927438232421874,0.08637479963898659,0.004858253686130047,-0.05520553519763052
1772731634233466400,9.93746630859375,0.0524368742018938,-0.000571077886223793,-0.027685861038696018
1772731634243494400,9.947494384765625,0.04934709149301052,-0.012671411655098198,-0.005964315231889486
1772731634253521400,9.957521484375,0.04288052582740783,-0.06171557467877865,0.03500679677762091
1772731634263549400,9.967549560546875,0.03566518762111664,-0.04416998111605644,0.07237383814686908
1772731634273577500,9.977577392578125,0.05721300256252288,-0.015086363842338323,0.04512050504023209
1772731634283605200,9.987605224609375,0.04355389504432678,0.004308218587934971,0.007597560723219067
1772731634293633300,9.99763330078125,0.049666824966669076,0.0014905308187007902,-0.024637725514452903
1772731634303661300,10.007661376953125,0.032196050205826755,0.0007221767947077751,-0.010097780041117221
1772731634313689300,10.017689453125,-0.01374912388920784,-0.005474924279749393,0.012274046367965637
1772731634323717400,10.02771728515625,-0.042236967226862904,-0.0036373335890471934,0.017764095151610673
1772731634333745200,10.0377451171875,-0.04907879594564438,-0.013715806141495705,-0.014027447640243917
1772731634343773400,10.0477734375,0.01761632071137428,-0.007768588174879551,-0.06269468537662178
1772731634353801200,10.05780126953125,0.06793313401937484,0.013938947372883558,-0.1010935174790211
1772731634363829200,10.067829345703124,0.11360942804515362,0.018082915309816597,-0.1518959223468788
1772731634373856500,10.0778564453125,0.12381225762963294,0.025542291405051945,-0.13918496413268147
1772731634383884500,10.087884521484375,0.10938041217327117,0.009170417796820401,-0.10682071775309741
1772731634393912600,10.09791259765625,0.03769055596888065,0.0019020342290401457,-0.10441625042725354
1772731634403940400,10.1079404296875,-0.023280922344326972,0.01553703021928668,-0.10463599412515759
1772731634413968600,10.11796875,-0.039862639310956,0.0612481032975018,-0.12737011450799182
1772731634423996400,10.127996337890625,-0.04571721055805683,0.09151917679011821,-0.15818957913098855
1772731634434024400,10.1380244140625,-0.057787587580084794,0.09690715343877672,-0.1986215792951174
1772731634444052500,10.148052490234376,-0.05218903692066669,0.0979135540023446,-0.19573241545856
1772731634454080300,10.158080322265626,-0.06325578985810279,0.07317205758616328,-0.1505082856470719
1772731634464108500,10.168108642578124,-0.00653729281425476,0.04833090018779039,-0.10662736887177451
1772731634474136300,10.17813623046875,0.02486614570915699,0.023591887989640233,-0.06018383506685495
1772731634484164400,10.188164306640624,0.024330723658204077,0.040810149294137954,-0.006016684739943594
1772731634494191400,10.19819140625,-0.0003092120796442032,0.059647097841650246,0.017423483286704868
1772731634504219600,10.2082197265625,-0.027594693890213965,0.06495996342748403,0.021438637212198228
1772731634514247400,10.218247314453125,-0.05481529377102851,0.0690494246982038,0.019433471402246504
1772731634524275500,10.228275390625,-0.02909282349348068,0.11055690860673785,0.04985091282930225
1772731634534303500,10.238303466796875,0.0265823019772768,0.06899214155301452,0.053290696285944426
1772731634544331500,10.24833154296875,0.11439034928977489,0.01845423284024,0.1010000487755984
1772731634554359600,10.258359619140625,0.20643734934628008,0.020635668532550333,0.11548914084453135
1772731634564387600,10.2683876953125,0.26763854476213456,-0.02644903098642826,0.13751668386058882
1772731634574415400,10.278415283203126,0.26626491832137106,-0.037145050915330644,0.13764427402932197
1772731634584443600,10.288443603515624,0.2399462357163429,-0.03484934119358658,0.12568205182319506
1772731634594471400,10.298471435546874,0.2053127292305231,-0.025900018801540133,0.1389745362523943
1772731634604499500,10.30849951171875,0.19394202491044998,-0.014915975711494684,0.14127705930741502
1772731634614526500,10.3185263671875,0.1948860277622938,-0.046949236571043725,0.1297602062486112
1772731634624554500,10.328554443359375,0.21955811220407484,-0.04713233805298805,0.13754983721151948
1772731634634582500,10.33858251953125,0.2235994965493679,-0.05129311099424958,0.12053847838966175
1772731634644610300,10.3486103515625,0.1718336534768343,-0.030559973436594008,0.09709451097073032
1772731634654638600,10.358638671875,0.09247662364542483,0.0018947277054190634,0.06564336084807292
1772731634664666400,10.368666259765625,0.0029068273574113846,0.015383300962299108,0.03948156757149845
1772731634674694700,10.378694580078125,-0.06593640724420548,0.025066344456374644,0.04217254195483401
1772731634684722400,10.388722412109376,-0.08934943153560161,0.03136062229499221,0.04665460100602358
1772731634694750500,10.39875048828125,-0.07095745027661324,0.0509307074226439,-0.004268799892999231
1772731634704778500,10.408778564453126,-0.060412675386667246,0.09513809793964027,-0.03808487078240141
1772731634714806500,10.418806640625,-0.06827683289051055,0.12217296599000692,-0.0688617566389963
1772731634724833500,10.42883349609375,-0.08080956672728061,0.09935235463380813,-0.08662771495413035
1772731634734861300,10.438861328125,-0.09106032710671425,0.09330094564035535,-0.05245451945643872
1772731634744889600,10.4488896484375,-0.11283259845376015,0.08189063996225596,-0.03576539659257978
1772731634754917400,10.45891748046875,-0.07060030740201473,0.05091141820028424,-0.04421582955177873
1772731634764945400,10.4689453125,0.045049686560034746,0.04176613484472036,-0.055977250222489235
1772731634774973400,10.478973388671875,0.13520400473773478,0.033060265819728374,-0.059579037574119864
1772731634785001500,10.48900146484375,0.17206921579837797,0.022017770540714264,-0.06891363295670598
1772731634795029500,10.499029541015625,0.16127952623665331,0.017933862227946518,-0.05190678591318428
1772731634805057500,10.5090576171875,0.11800094100236892,0.0031058570608496665,-0.06005061887493357
1772731634815085300,10.519085205078126,0.06809913823604584,-0.02622632814645767,-0.022532679526600985
1772731634825113600,10.529113525390626,0.026488778474926946,-0.038590865809470416,0.02436079000290483
1772731634835141400,10.539141357421874,0.026592238849401473,-0.023742986898124218,0.0216149984261021
1772731634845168400,10.54916845703125,0.051185997357964516,-0.03936521118283272,-0.007571512966509908
1772731634855196400,10.559196533203124,0.09057692750394344,-0.04952873167023063,-0.02130520182456821
1772731634865224400,10.569224365234374,0.12603694794178008,-0.04664747714549303,-0.027225276055932043
1772731634875252500,10.57925244140625,0.09351298095583915,-0.048181262584030625,-0.010620507007278502
1772731634885280300,10.5892802734375,0.054848026996850964,-0.08268632038459181,0.005850077735073864
1772731634895308500,10.59930859375,-0.021211130332946776,-0.08957359568029642,0.021007168726064264
1772731634905336300,10.60933642578125,-0.03440145129561424,-0.09026640025004744,0.004384316031448543
1772731634915364600,10.619364501953125,-0.034759763213992115,-0.049308805309236044,-0.05398286153487861
1772731634925392400,10.629392333984375,-0.07752981440424919,-0.04352817608118057,-0.08338456831444055
1772731634935420400,10.63942041015625,-0.1267594169974327,-0.05257219101935625,-0.09636672641914337
1772731634945448400,10.649448486328126,-0.16222528265416622,-0.04325198948830366,-0.08449903236236422
1772731634955476500,10.6594765625,-0.20747896735370158,-0.04326908675357699,-0.07342575835259631
1772731634965503500,10.66950341796875,-0.2033037274956703,-0.038258857376128434,-0.0286649534702301
1772731634975531300,10.67953125,-0.17653788564503192,-0.042967911849915975,-0.004577555314917117
1772731634985559600,10.6895595703125,-0.14109072468876838,-0.04181947246715426,0.00565042697712779
1772731634995587300,10.69958740234375,-0.10498597660660743,-0.045128597015142435,-0.019014917196612805
1772731635005615400,10.709615478515625,-0.08970014466941356,-0.02862228337228298,-0.023342315409053117
1772731635015643400,10.719643310546875,-0.09476911849677562,-0.029152883117645977,-0.023292411852721122
1772731635025671400,10.72967138671875,-0.09484919799566269,-0.022668781795352696,-0.004482881035096943
1772731635035699500,10.739699462890625,-0.06233984405696392,-0.013953122028708458,-0.019137922521773723
1772731635045727500,10.7497275390625,0.003684241470694542,-0.022744769641011953,-0.022910171069484203
1772731635055755300,10.75975537109375,0.08793664212822913,-0.007975801184773444,-0.007337192753981798
1772731635065783600,10.769783447265626,0.16031038894355296,0.02578150698840618,-0.03049821504568681
1772731635075810600,10.779810546875,0.19894494776427746,0.03468567506447434,-0.05309449786040932
1772731635085838600,10.789838623046874,0.19525252298712728,0.04847030865848064,-0.017174915353115647
1772731635095866400,10.799866455078124,0.176177820160985,0.038228900629282,0.016896975194569674
1772731635105894700,10.809894775390624,0.13625672866106034,0.029745734444260596,0.043531719745136796
1772731635115922400,10.81992236328125,0.11894026767909525,0.04529898514598608,0.06711860276609659
1772731635125950500,10.829950439453125,0.14661328750252722,0.06843465380072593,0.11089507278623059
1772731635135978500,10.839978515625,0.1514946298032999,0.09409691832363605,0.11380365370931103
1772731635146006300,10.85000634765625,0.07033668802976607,0.10643763671964407,0.09720038249799981
1772731635156034600,10.86003466796875,-0.03708674485683441,0.15352145945578813,0.048884442417323586
1772731635166062300,10.870062255859375,-0.030962124496698377,0.15131839645355938,0.04169489623941481
1772731635176090400,10.88009033203125,0.11279811166226864,0.12103460960984229,0.1170114002420567
1772731635186118400,10.890118408203126,0.2399287000596523,0.0583276858061552,0.1774027771123685
1772731635196145400,10.9001455078125,0.2920826656669378,0.010953940212726592,0.1808407339381054
1772731635206173400,10.91017333984375,0.2580892106503248,0.02219137354195118,0.1424650269829668
1772731635216201500,10.920201416015624,0.25875088942945,0.012958850294351577,0.12192010547379031
1772731635226229500,10.9302294921875,0.24903029040396213,0.00044072950482368465,0.1408638023314066
1772731635236257500,10.940257568359375,0.22289514767229557,0.0030053192958235738,0.12825688901357352
1772731635246285300,10.950285400390625,0.15864567060172557,0.017285189060866832,0.0925357334215194
1772731635256313600,10.960313720703125,0.10824760875105857,0.019282208096981047,0.11061720569292083
1772731635266341400,10.97034130859375,0.14041384834051132,-0.002787584891915321,0.1082845249616541
1772731635276369700,10.98036962890625,0.17519406982064245,-0.02358633503168821,0.07730692890118807
1772731635286397400,10.9903974609375,0.16348843445777891,-0.008099135303497314,0.05932999471649527
1772731635296425200,11.00042529296875,0.12755845842063426,0.008995499621331692,0.01813639906272292
1772731635306453500,11.01045361328125,0.04200374299287796,-0.0005389291822910309,-0.022289025230146944
1772731635316480500,11.02048046875,-0.03771569041013718,-0.011242986287176609,0.006887604089267551
1772731635326508500,11.030508544921876,-0.066480012601614,0.03461684761196375,0.010378368814475833
1772731635336536300,11.040536376953124,-0.09135200352966785,0.05428893180936575,-0.07624569287784397
1772731635346564600,11.050564697265624,-0.11376023469269275,0.03604863398075103,-0.09352412340436131
1772731635356592400,11.06059228515625,-0.09327040437161922,0.06408931807279586,-0.11068603314543142
1772731635366620200,11.0706201171875,-0.12657821521162985,0.05385843143761158,-0.12489353179400786
1772731635376648200,11.080648193359375,-0.13851649028658866,0.03844342016279697,-0.10043077925397083
1772731635386676000,11.090676025390625,-0.0808925688356161,0.05291998154371977,-0.06354956690659747
1772731635396704300,11.100704345703125,0.038624621948599815,0.0495481670230627,-0.1213695041200146
1772731635406732000,11.11073193359375,0.07820201457738876,0.028345804518461224,-0.24102880678866057
1772731635416760300,11.12076025390625,0.04600947150290012,-0.0003857844471931457,-0.16556403515543788
1772731635426787000,11.130787109375,0.13634089981317518,-0.017338965074717997,0.0013486929289065301
1772731635436815400,11.1408154296875,0.16779519174098967,-0.05848492219448089,0.030019893476832656
1772731635446843100,11.150843017578126,0.1436649590909481,-0.11890548862665891,-0.0032966303925961254
1772731635456871200,11.16087109375,0.06218319219052791,-0.0771370156943798,0.004197853548638522
1772731635466899200,11.170899169921874,0.04293780897259712,-0.0349304436057806,-0.019727211918123065
1772731635476927200,11.18092724609375,0.06166881292760372,-0.026123744554817675,-0.07893463970087468
1772731635486955300,11.190955322265625,0.06575871258974075,-0.023649755656719205,-0.08422560398215427
1772731635496983000,11.200983154296875,0.0554828177690506,0.004768237315118312,-0.0997596019941382
1772731635507011000,11.211010986328125,0.0506681109637022,0.031876024471223355,-0.12054815953345968
1772731635517039000,11.2210390625,0.04695464339852333,0.02847410707324743,-0.11982653072802349
1772731635527067100,11.231067138671875,0.11425181760191917,-0.006279518660902977,-0.11361235065460204
1772731635537095200,11.24109521484375,0.17575813344419,-0.025992519390583037,0.00049646001374349
1772731635547122200,11.2511220703125,0.1692448060274124,-0.03779547764807939,0.1606039102637209
1772731635557150200,11.261150146484376,0.18924071535170078,-0.1078778986558318,0.20115438570836558
1772731635567178200,11.27117822265625,0.1914618985325098,-0.1284931089222431,0.1376618279523216
1772731635577206000,11.2812060546875,0.09945347692072391,-0.05273468810468912,0.07058872656207531
1772731635587234300,11.291234375,0.17027648716270924,0.016397592571377753,0.07712137060067616
1772731635597262000,11.301261962890624,0.2934954550743103,0.10038725063949823,-0.03685130126629956
1772731635607290400,11.311290283203125,0.32412790922522544,0.022684125494956967,-0.14751019980963317
1772731635617318100,11.321318115234375,0.25725568243563174,0.011739829893410205,-0.1082535818341188
1772731635627346200,11.33134619140625,0.18432780886888503,0.04074088345021009,-0.04997731568794697
1772731635637374200,11.341374267578125,0.13157529284656047,0.03563245439529419,-0.04292782186812255
1772731635647402000,11.351402099609375,0.06660042411088943,0.03867255274355411,-0.06746717874174937
1772731635657430300,11.36143017578125,0.03712123164832592,0.046832478323578834,-0.045786896527092905
1772731635667457000,11.37145703125,0.06705167500972747,0.0595630728200078,-0.0846125940057449
1772731635677485300,11.3814853515625,0.1364239019215107,0.07495879487246275,-0.10161133994120172
1772731635687513000,11.39151318359375,0.1770493422985077,0.08311199845075606,-0.09619245669762604
1772731635697541000,11.401541015625,0.17336802343726157,0.08283551959693432,-0.09574071260844357
1772731635707569200,11.411569091796874,0.14038754485547542,0.07094897470921277,-0.07819803252201527
1772731635717597200,11.42159716796875,0.11569441762566565,0.09041691463664174,-0.08822634578980505
1772731635727625200,11.431625244140625,0.05997194588184356,0.1021780795790255,-0.1041492700541392
1772731635737653200,11.4416533203125,0.01862812810242176,0.10594517702758312,-0.048196606283634896
1772731635747681000,11.451680908203125,-0.06927227366864681,0.09778101366385816,-0.023938530019822064
1772731635757709300,11.461709228515625,-0.12941431542038917,0.0927254838399589,-0.05610918320619967
1772731635767737000,11.471737060546875,-0.12066110012233257,0.13183569734841585,-0.08049328558603301
1772731635777764000,11.48176416015625,-0.10759645136594771,0.1976727358713746,-0.13631032201182097
1772731635787792100,11.491792236328125,-0.06647592094838618,0.2331365557014942,-0.16915108159566297
1772731635797820200,11.501820068359375,-0.051587563896179196,0.221785578995198,-0.12726931188148446
1772731635807848200,11.51184814453125,-0.06834697551727295,0.191243287345767,-0.09529305103933439
1772731635817876200,11.521876220703126,-0.03407411903738975,0.12684139619246124,-0.08077721709394826
1772731635827904300,11.531904296875,0.03689677524268627,0.08400354046300053,-0.07113493486852385
1772731635837932000,11.54193212890625,0.14340484685003757,0.05286503648608923,-0.08379674757821486
1772731635847960300,11.551960205078124,0.21202888574302195,0.05105126506239176,-0.09091673565125093
1772731635857988000,11.561988037109375,0.2556628602862358,0.02981792289763689,-0.04287643874075729
1772731635868016000,11.57201611328125,0.22252222270667552,0.007856850980222225,-0.027909595925128084
1772731635878044200,11.582044189453125,0.134379244351387,-0.01904270025268197,0.00923081078112591
1772731635888072200,11.592072265625,0.053199675267934794,-0.0004978665195405483,0.038276877090008925
1772731635898099200,11.60209912109375,-0.003516483688354492,0.022253040601313112,-0.018103414675150996
1772731635908127000,11.612126953125,-0.041352001085877416,0.019778028789907694,-0.05250016696276143
1772731635918155300,11.6221552734375,-0.015005845952033995,0.02230433239713311,-0.0315240463955095
1772731635928183000,11.63218310546875,0.0157768303245306,0.015604396367073059,0.012031003992864862
1772731635938211300,11.64221142578125,0.0319634104937315,0.011148293741047382,0.016995923790708183
1772731635948239000,11.652239013671876,-0.01621522174179554,0.019457126272469757,0.002340969068999402
1772731635958267100,11.66226708984375,-0.09624562079012393,0.046184828069806096,-0.018830523373303
1772731635968295200,11.672295166015624,-0.18804829069674014,0.07418474176004529,-0.030295353983924724
1772731635978323200,11.6823232421875,-0.23334698358178138,0.07851897157207131,-0.03949286071707029
1772731635988351200,11.692351318359375,-0.25235505091249943,0.0872626883894205,-0.03881818545905407
1772731635998379300,11.702379150390625,-0.2545674662649631,0.10129852026551961,-0.025656629366567357
1772731636008406300,11.71240625,-0.23877134671807287,0.1301186642974615,-0.04095338912315201
1772731636018434000,11.72243408203125,-0.19936404995918272,0.1467776842840016,-0.07866144878268241
1772731636028462000,11.732462158203125,-0.13502747912704943,0.1781524812348187,-0.08810052745305001
1772731636038490000,11.742489990234375,-0.09224924463033675,0.19036665064170954,-0.08782571083335206
1772731636048518100,11.75251806640625,-0.08461129709780216,0.1830313393175602,-0.072287598335254
1772731636058546200,11.762546142578126,-0.10413900438845157,0.16289076082557438,-0.05341003464956302
1772731636068574200,11.77257421875,-0.11084522402882575,0.16709011221155523,0.007691024860064498
1772731636078602000,11.78260205078125,-0.08655892403423786,0.16332374541535974,0.02671147674832027
1772731636088630300,11.79263037109375,-0.03135200059711933,0.16157397913858293,0.04231059871865436
1772731636098658000,11.802657958984375,0.02718845117688179,0.17550854259729384,0.03819243194325827
1772731636108686300,11.812686279296875,0.10886194125711918,0.17409239218905567,0.02221019240685273
1772731636118714000,11.822714111328125,0.17756079895198343,0.15707126089185475,0.059148587434715585
1772731636128741400,11.832741455078125,0.1941623896628618,0.12426876922547817,0.081917518836027
1772731636138769200,11.84276904296875,0.16936346397101879,0.09262143894359469,0.1174728985402733
1772731636148797200,11.852797119140625,0.08271043191254139,0.07017711355388163,0.13547829163447023
1772731636158825200,11.8628251953125,0.01968728176653385,0.08207169561758637,0.14146465430138633
1772731636168853200,11.872853271484376,0.018310732716321942,0.08830459865778684,0.11953441591365262
1772731636178881300,11.88288134765625,0.05265548538863658,0.08079349237531423,0.08708512159911914
1772731636188909000,11.892908935546876,0.0695382311284542,0.0705623134791851,0.08999991306727752
1772731636198937000,11.90293701171875,0.09876607917845248,0.058399728129059074,0.1171037638337817
1772731636208965000,11.912965087890624,0.0933148280352354,0.03249123376011848,0.15096903502661735
1772731636218993200,11.9229931640625,0.05604629687070846,-0.0030661095723509787,0.17757269031917675
1772731636229021200,11.933021240234375,0.02842763758301735,0.011176204661279917,0.16560140802375972
1772731636239049200,11.94304931640625,-0.010346037447452544,0.028101328238099813,0.1138813768543303
1772731636249076200,11.953076171875,-0.033625206226110455,0.04126417667195201,0.06905275829960592
1772731636259104300,11.963104248046875,-0.0283861365288496,0.04498144362941384,0.048753294884902425
1772731636269132000,11.973132080078125,0.0033411271214485168,0.004452157103270292,0.020867636957787906
1772731636279160300,11.983160400390625,-0.01578326006531715,-0.024006606270372866,0.044882568098511544
1772731636289188000,11.99318798828125,-0.005595043528079986,-0.026806027730554342,0.07377438456059898
1772731636299216400,12.00321630859375,-0.002305354332923889,-0.05380334024950861,0.06067706194389611
1772731636309244200,12.013244140625,-0.021567104163765907,-0.07665770774483681,0.06565129299277905
1772731636319272200,12.023272216796874,0.04205459639728069,-0.08944076308086514,0.08452329002078622
