time,seconds_elapsed,z,y,x
1772639118529279700,0.09227978515625,0.07953706257343292,-0.007470008799570496,-0.005188417222257703
1772639118539324700,0.10232470703125,0.10287935971617698,0.007838279852137201,-0.0024792221956420686
1772639118549371000,0.112370849609375,0.09734276837706565,0.0100810378272261,0.009774101044703274
1772639118559415800,0.122415771484375,0.09285364026427269,-0.00440798916798085,-0.014914651404088363
1772639118569461000,0.1324609375,0.09599661446511745,0.0034029203325073466,-0.0040453481343574816
1772639118579507000,0.1425068359375,0.08746844009459018,0.0013770422405563294,-0.005292863977421075
1772639118589551600,0.152551513671875,0.08612345522642136,0.0034969296045135705,-0.0027012583153322336
1772639118599596800,0.1625966796875,0.10168693506121634,-0.005457553590662428,0.004029273782391101
1772639118609642800,0.172642822265625,0.10348433987200259,-0.009047327989980113,0.004546858782554045
1772639118619687700,0.182687744140625,0.0960036287277937,0.0013512656243721722,-0.0028220716834068296
1772639118629732900,0.19273291015625,0.09854863703548908,-0.00479020825997577,-0.012884250688180327
1772639118639778800,0.20277880859375,0.09226561124324797,-0.0002572712590306764,-0.004120998053299263
1772639118649824000,0.212823974609375,0.08717793271541595,0.0012278327534149865,-0.004533542643254623
1772639118659868700,0.22286865234375,0.09376315632462501,-0.0028028880631463834,-0.0027993483949452637
1772639118669915100,0.2329150390625,0.09870178177058696,-0.0025600837208854497,-0.0002915850914083421
1772639118679960300,0.242960205078125,0.08837795615494251,-0.0009419575960520888,0.0005924403346609324
1772639118690006300,0.25300634765625,0.08397709084749222,0.01075319233459304,-0.01931477692602202
1772639118700051000,0.263051025390625,0.09748246910870074,0.0033267869271978267,-0.00913816862818785
1772639118710096100,0.27309619140625,0.09228431594371796,0.004725594045812613,0.00041064489381387827
1772639118720142000,0.28314208984375,0.09872107099294662,-0.0010231513397913658,-0.0020684129050467163
1772639118730187300,0.293187255859375,0.09902326880991458,-0.009057508603166207,0.0017779420584905891
1772639118740232200,0.303232177734375,0.09198913238942623,-0.0022504560827102974,0.002350846575619653
1772639118750278100,0.313278076171875,0.08166004607677459,0.00009919005391129758,0.00037979309782385824
1772639118760323300,0.3233232421875,0.09243103093802929,-0.003943777181225596,0.00689191493820399
1772639118770368000,0.333367919921875,0.08884966531991959,0.0028001812244736355,0.00867684385990724
1772639118780414200,0.343414306640625,0.08271744617521762,0.0006255828399705933,0.00617841464029625
1772639118790459100,0.353459228515625,0.09079670773446559,0.004218911748865502,-0.0008911949523724615
1772639118800504300,0.36350439453125,0.08600888893604278,0.008164612600763212,0.0029567491800524294
1772639118810550300,0.37355029296875,0.09079436964690685,0.0011228642667992972,0.010774948650319128
1772639118820595200,0.38359521484375,0.09468319377899169,0.0014843134237569756,0.0021752616798505187
1772639118830641200,0.39364111328125,0.08211246601939201,0.003247978078434244,0.002204862233670428
1772639118840686000,0.40368603515625,0.08584872993826866,0.003746687702302006,0.003895235606562346
1772639118850731000,0.41373095703125,0.09617021746635436,0.003384131150358007,0.008528521430399269
1772639118860777200,0.423777099609375,0.09317571182548999,-0.000647658816105104,0.009774274574639275
1772639118870822100,0.433822265625,0.09796586871147155,0.003810858387648477,-0.005761924527585506
1772639118880867300,0.443867431640625,0.08928630317151547,0.00912248243528884,0.003411817737482488
1772639118890913300,0.453913330078125,0.09377075510919093,0.003024054820690071,0.0006703278764616698
1772639118900958000,0.4639580078125,0.10020517207086085,0.00026335279830091166,0.0021089001790620386
1772639118911003100,0.474003173828125,0.0856903245061636,-0.002131088036339497,-0.0024047595867887138
1772639118921049000,0.484049072265625,0.08703589389622211,0.005094184758787742,0.009153338797856122
1772639118931094300,0.49409423828125,0.07700783635675906,0.0066234966640739,-0.009844024475757033
1772639118941139200,0.50413916015625,0.08658113586604595,-0.004950023622810841,0.005467791286064312
1772639118951185200,0.51418505859375,0.09436462934911251,0.006580264877123408,0.007396074201213195
1772639118961230300,0.524230224609375,0.09436462934911251,0.002499532618842204,0.0029906240501906723
1772639118971276300,0.5342763671875,0.08822890307307243,-0.0007525588040618458,0.004023729957593604
1772639118981321200,0.5443212890625,0.10678396593928337,0.007585297750800964,-0.012197738861897959
1772639118991366100,0.5543662109375,0.08523673551976681,-0.00827499362308008,0.00988582692402415
1772639119001412000,0.564412109375,0.10034779541194438,-0.0030635665596375474,-0.0012930628846865146
1772639119011457300,0.574457275390625,0.08613573018610476,0.004711688247224083,0.0020704404653515665
1772639119021502200,0.584502197265625,0.0909229644626379,-0.0033709599998866906,0.0031744927171152085
1772639119031548200,0.594548095703125,0.0919686741232872,-0.003949075552495196,-0.003350899596791714
1772639119041593000,0.604593017578125,0.10079670822322367,0.002526735719598946,-0.005947236232925206
1772639119051638000,0.614637939453125,0.08298924885392188,-0.0016337723601813194,0.004564385306090117
1772639119061684200,0.624684326171875,0.09825462252497673,0.00879566106289567,0.0013823760027997195
1772639119071729200,0.634729248046875,0.10498539208471774,0.004766875904271728,-0.004465244913706556
1772639119081774300,0.6447744140625,0.09675532387793064,-0.008412746138690272,0.00766887239376083
1772639119091820300,0.6548203125,0.09391220940649508,0.006632499100326095,-0.004752738351887092
1772639119101865200,0.664865234375,0.10154372719824313,-0.0035889432822557863,-0.0037407665640581396
1772639119111911400,0.674911376953125,0.1016933648020029,-0.0011541002261015818,-0.004472734100418165
1772639119121956000,0.6849560546875,0.09286533070206641,0.003654159142973367,0.006667385467328131
1772639119132001300,0.695001220703125,0.09331365899145602,-0.013657570864947047,-0.006549786969646811
1772639119142047200,0.705047119140625,0.09510931023657321,-0.0027772467318136476,0.0009155987412668764
1772639119152092200,0.715092041015625,0.0946609819471836,0.006209217916402849,0.00784574506431818
1772639119162137300,0.725137451171875,0.08657938230037689,0.0017614698434801539,-0.0003687237145379185
1772639119172183300,0.735183349609375,0.08702887963354587,0.0017835235575505066,0.005845565956737846
1772639119182228000,0.74522802734375,0.09570786065161227,0.003298904548073187,0.006326262145768851
1772639119192273200,0.755273193359375,0.103789460298419,0.006767416342278011,-0.010609309759829193
1772639119202319000,0.765319091796875,0.10528466729223727,0.0005660420931468252,-0.005210738651920109
1772639119212364300,0.7753642578125,0.08658113586604595,-0.009124717204037005,-0.0006004044454079121
1772639119222410200,0.78541015625,0.08777823669612407,0.0043463226794410725,-0.00059289699238725
1772639119232455200,0.795455078125,0.09959785382747649,-0.0005843152520654257,0.008627122966665774
1772639119242500000,0.8055,0.09840016847550868,-0.010631849243555916,-0.014908331261156127
1772639119252546000,0.815546142578125,0.09675357031226157,-0.003911763762144255,0.0014759817035403101
1772639119262591200,0.82559130859375,0.09615501989722251,0.0000807890308293281,-0.00017687267055734992
1772639119272636200,0.83563623046875,0.09271452405452728,0.0008679487908142618,0.003720564026245847
1772639119282682000,0.84568212890625,0.09166881439387797,0.011772613351582549,0.0041697142995428295
1772639119292727300,0.855727294921875,0.08732932388484478,0.00264997907759971,0.0021193119752220806
1772639119302772200,0.865772216796875,0.08598258545100688,-0.002038913957570912,-0.008081480915797874
1772639119312818200,0.875818115234375,0.08223989179134368,0.006616202127718134,-0.004797573007456958
1772639119322863000,0.885863037109375,0.09316577495336532,0.01646639262442477,0.007903375269379466
1772639119332908000,0.895907958984375,0.07490940277278423,0.001673770439607324,-0.0014881744648329912
1772639119342954200,0.905954345703125,0.094212653657794,-0.0000866256873938255,-0.0019302556765265762
1772639119352999200,0.915999267578125,0.09555939209163189,0.009190020971366902,0.004200191636197268
1772639119363045000,0.926045166015625,0.09391279392838478,0.0004737778244772926,0.0003966072353068739
1772639119373090300,0.93609033203125,0.09570786065161227,-0.00225646512756648,0.001377261436264962
1772639119383135000,0.946135009765625,0.10184358692765236,0.007059183525954722,0.0026431166536174714
1772639119393181200,0.95618115234375,0.0933148280352354,-0.0037756169692642286,-0.00733946690945886
1772639119403226000,0.96622607421875,0.08044482506811618,-0.009297179702602442,-0.002510384518885985
1772639119413271300,0.976271240234375,0.08972294102311133,-0.0019920448918303007,-0.004273850527452305
1772639119423317200,0.986317138671875,0.0898725786268711,0.0032117245923640437,-0.004382735995715484
1772639119433362200,0.996362060546875,0.09211597363948822,0.00643704217277409,-0.003484755109529942
1772639119443407400,1.006407470703125,0.07805062340795993,0.015197048542043193,0.013226862713927402
1772639119453453000,1.016453125,0.07939736184179783,0.005533726953523,0.008704681714903562
1772639119463498200,1.026498291015625,0.08104279096126556,0.0035384089674393177,0.0031204792412463573
1772639119473544200,1.036544189453125,0.09241641789078713,-0.004626497035913052,0.005500844172295183
1772639119483589000,1.046589111328125,0.08687865750789642,0.004742800908940262,-0.006136511727329343
1772639119493634300,1.05663427734375,0.08732757031917572,0.0028416172049153827,0.000273464912828058
1772639119503680300,1.06668017578125,0.0912187325388193,0.0016171699977188835,-0.0014898275658022612
1772639119513725200,1.07672509765625,0.08927285916805267,-0.0035039992369391257,0.00699716541096568
1772639119523770000,1.08677001953125,0.08972060293555259,-0.002878971806928166,-0.001252018488245085
1772639119533816000,1.096816162109375,0.09705167647600173,-0.0045503208189416906,-0.007941871515708044
1772639119543861200,1.106861328125,0.08822364237606525,0.004540664220496546,0.009891352482512593
1772639119553906200,1.11690625,0.08807283572852612,0.0017935255034011788,0.0017228782698512077
1772639119563952000,1.1269521484375,0.08927052108049392,0.0002526647242164472,0.0035714744117576625
1772639119573997300,1.136997314453125,0.09405892440080642,0.006025841869000578,-0.008439701502630487
1772639119584042000,1.1470419921875,0.09779927997291088,-0.002654269376938464,-0.0017474829881452022
1772639119594088200,1.157088134765625,0.09316051425635814,0.0033923047528369352,-0.0032713132882490753
1772639119604133000,1.167133056640625,0.0973497826397419,-0.005806024535038159,-0.010164333338150753
1772639119614179000,1.177178955078125,0.09136427848935126,-0.0013855292243999428,-0.0033294823494274166
1772639119624224300,1.187224365234375,0.10887129360735416,0.003017279161675833,-0.011944239024864509
1772639119634269200,1.197269287109375,0.0886702170997858,0.004527730532042915,0.006464428507443517
1772639119644315100,1.207315185546875,0.10617723221778869,-0.004033222730079433,-0.0014698990226257591
1772639119654360300,1.2173603515625,0.0898679024517536,-0.005298332453693729,-0.0010963164698798208
1772639119664404700,1.22740478515625,0.09345803589820861,0.010118866211629938,-0.0008667180982418358
1772639119674450700,1.23745068359375,0.09555354687273501,0.007635821219996433,0.0008251165793742984
1772639119684495600,1.24749560546875,0.08313421028256415,-0.0028124076642736325,0.0010474723594728857
1772639119694540800,1.257540771484375,0.08657529064714908,0.008516425138051271,0.001276248747203499
1772639119704586800,1.267586669921875,0.08672434372901916,0.010571001884812721,0.0063213302423246204
1772639119714631700,1.277631591796875,0.09749766667783259,-0.01030365047729574,0.003118195952614769
1772639119724678000,1.287677978515625,0.0943558615207672,-0.0015390478480112506,-0.007158374721510335
1772639119734722600,1.29772265625,0.09600187516212463,0.0032720810440514466,-0.015384141212515532
1772639119744767700,1.307767822265625,0.09226093506813049,-0.002691215270286193,0.0060012405756395305
1772639119754813700,1.317813720703125,0.09076455903053283,-0.005575462044775486,-0.000577781621646136
1772639119764858600,1.327858642578125,0.10108955368995666,0.005033490951205022,0.0004657452150713652
1772639119774903800,1.33790380859375,0.09151216252744197,-0.001645269289263524,0.003975872227875515
1772639119784949800,1.34794970703125,0.08208382444679736,-0.00401287634508335,-0.004080729974992573
1772639119794995000,1.357994873046875,0.091209964710474,0.0010615688126621534,-0.007287818920612334
1772639119805039600,1.36803955078125,0.08013619751036166,-0.00445905491822632,-0.007677137898607179
1772639119815085600,1.37808544921875,0.10737082591652869,-0.008534070963418343,0.0008018544347956776
1772639119825130800,1.388130859375,0.09450140747129916,-0.002855424251270597,-0.0012340170406736433
1772639119835176700,1.3981767578125,0.08148293594419956,-0.0064422292337229,0.0008845916816499084
1772639119845221600,1.4082216796875,0.0822305394411087,0.0063088983065477805,-0.0015810769126750528
1772639119855266800,1.418266845703125,0.09913958866596222,0.006237330907679279,-0.0014583729816135017
1772639119865312800,1.428312744140625,0.09105915806293487,0.004241343918026541,-0.004261237641051412
1772639119875357700,1.438357666015625,0.09779285023212432,0.00233104304249573,-0.002945195739576593
1772639119885402600,1.448402587890625,0.09794307235777377,0.0010925444770604371,-0.004529624519962817
1772639119895448600,1.458448486328125,0.08537351364195346,-0.009649874160124455,-0.003489613947737962
1772639119905493800,1.46849365234375,0.09345277520120143,0.0003260450542584294,0.007948620916903019
1772639119915538700,1.47853857421875,0.08806582146584988,-0.003023200299919699,0.0010429605811368673
1772639119925585000,1.4885849609375,0.08986147271096706,-0.0014148980244237464,-0.015581883141165598
1772639119935629600,1.498629638671875,0.09734335289895533,0.0037757231421855974,-0.005521357237361371
1772639119945674800,1.5086748046875,0.08387538403868675,0.005174070178141118,0.0020541103850584474
1772639119955720700,1.518720703125,0.09689444008767605,0.006396294033032609,0.007915020041400567
1772639119965765600,1.528765625,0.08971183510720729,0.007962513586581918,0.00012190934661775827
1772639119975811800,1.538811767578125,0.08881342496275901,-0.008198767744580981,-0.00842033921503462
1772639119985856800,1.548856689453125,0.08731646440327168,-0.001175165276194457,-0.00011466675507836044
1772639119995901700,1.558901611328125,0.09928688818216323,0.008400165218330221,-0.003473630927316844
1772639120005948000,1.568947998046875,0.08851414975523948,-0.006047166072353138,0.004431698837131261
1772639120015992600,1.57899267578125,0.09913841962218284,0.011862214164063333,-0.006508642108505591
1772639120026037800,1.589037841796875,0.08567103528380393,-0.0018250217576074646,0.0027827808526344595
1772639120036083700,1.599083740234375,0.09060849168598652,-0.009377271759576979,0.007032410254282876
1772639120046128600,1.609128662109375,0.09120762662291526,0.01017481705790269,0.00010310418144799768
1772639120056173800,1.619173828125,0.09524842644631862,0.0006055589694937225,-0.0037475159652531143
1772639120066219800,1.6292197265625,0.08671908303201198,-0.006388193495789891,-0.005861284115677699
1772639120076264700,1.6392646484375,0.09464987603127956,0.00673158926035976,-0.015104264825209974
1772639120086310700,1.649310546875,0.0918073460817337,-0.005881502636510413,-0.008947660157922655
1772639120096355600,1.65935546875,0.10273147567808627,0.004721114233517437,-0.006169345417851582
1772639120106400800,1.66940087890625,0.08268062129616736,0.011880975946749094,-0.006723061177320778
1772639120116446700,1.67944677734375,0.08731880249083042,0.006462867308841669,0.0015930230787955225
1772639120126492000,1.689491943359375,0.09150748635232447,-0.011844066586019471,-0.0018330058471299707
1772639120136536800,1.699536865234375,0.08971183510720729,0.005234265657979994,-0.004522692455677315
1772639120146582500,1.70958251953125,0.09958733243346214,-0.009829854386509396,-0.0037980405760928986
1772639120156627700,1.719627685546875,0.08941255989968776,-0.0009168397086381446,-0.002819824927393347
1772639120166672600,1.729672607421875,0.09315408451557158,0.0036714053928299105,-0.00579634738699533
1772639120176718600,1.739718505859375,0.09390168801248074,0.0018926544793415813,-0.012870213029673323
1772639120186763800,1.749763671875,0.07564590035378932,-0.0000937015988631174,-0.007495990911731496
1772639120196809700,1.759809814453125,0.09868892228901385,-0.001974992150685284,0.0039367275275755675
1772639120206855000,1.76985498046875,0.10243044690489768,-0.0004966877717844909,0.004263000339874997
1772639120216899600,1.779899658203125,0.09839023160338402,-0.0024629406352323713,-0.0025991770471911874
1772639120226945500,1.789945556640625,0.09240472745299338,-0.006345234561830875,-0.00286639488232322
1772639120236990700,1.79999072265625,0.08417524376809596,-0.0006127467621059623,-0.013292813222762196
1772639120247035600,1.81003564453125,0.08656886090636252,0.000859669586236123,-0.010661049080220981
1772639120257081900,1.820081787109375,0.08597031049132346,-0.005833530171538586,-0.007179536240547895
1772639120267126800,1.830126708984375,0.09240589649677276,-0.003202391650082427,-0.012334754446102306
1772639120277171700,1.840171630859375,0.09420096322000027,-0.008053145874702022,-0.003696434231987223
1772639120287217700,1.8502177734375,0.08222878587543964,-0.004085372471602749,-0.002313062715344131
1772639120297262600,1.8602626953125,0.1019809495717287,0.010895860199804883,-0.006375224987184629
1772639120307307800,1.870307861328125,0.09838964708149432,-0.0018523698471923124,-0.008158637805236502
1772639120317353700,1.880353759765625,0.0906090762078762,-0.007397614279395202,0.012685166185814887
1772639120327398700,1.890398681640625,0.09270400266051292,-0.009256775197800016,0.005828395626228302
1772639120337444900,1.90044482421875,0.09898819749653338,0.004225286119902739,-0.005331579419458284
1772639120347489800,1.91048974609375,0.09420037869811057,-0.00354089204382617,0.0017570636672433464
1772639120357534700,1.92053466796875,0.09464929150938987,-0.010360506647510918,0.0007117741317022591
1772639120367580700,1.93058056640625,0.09270400266051292,0.0024965740475978234,0.005083477276749909
1772639120377625600,1.94062548828125,0.07893792763650417,0.0031868390295683637,-0.004006404363457113
1772639120387670800,1.9506708984375,0.0874678555727005,-0.002070959913515253,-0.006743172383587807
1772639120397716700,1.960716796875,0.10153262128233909,-0.002596564394174493,-0.0037198242407292127
1772639120407762000,1.970761962890625,0.095846392339468,-0.003669390961434692,-0.0024184684517327693
1772639120417806600,1.980806640625,0.09360124376118183,-0.007286885055562015,0.0009914495896082372
1772639120427852500,1.9908525390625,0.10392565389871597,0.005391651030888897,0.007808554859086871
1772639120437897700,2.000897705078125,0.09375088136494159,-0.0019065494323091115,0.0010004640131257474
1772639120447943700,2.010943603515625,0.08103110052347183,-0.013544752432015956,0.000762992862286046
1772639120457988900,2.02098876953125,0.08387479951679706,0.006026189499694737,-0.008465164737449958
1772639120468033800,2.03103369140625,0.08821487454771995,0.0032065283982607067,-0.0010389511262997985
1772639120478079700,2.041079833984375,0.08312778054177761,0.0008840379841567482,-0.0020250212878920137
1772639120488124700,2.051124755859375,0.09928805722594261,0.0007775756559538422,-0.0058329530703369525
1772639120498169600,2.061169677734375,0.08986088818907738,0.0007237385641317815,0.004498672259273007
1772639120508215600,2.071215576171875,0.08731704892516136,0.001196596223290544,0.0011797843690961598
1772639120518260700,2.0812607421875,0.09120762662291526,0.005718402192156645,-0.011801277757063508
1772639120528305700,2.0913056640625,0.09000994127094746,0.0170190626377007,-0.003804415517952293
1772639120538351900,2.101351806640625,0.09509878884255886,0.006782553404261125,0.005457096362113952
1772639120548396800,2.111396728515625,0.08701835823953151,0.0026705743410566354,-0.004714616564894095
1772639120558442800,2.12144287109375,0.09644494275450706,-0.008555457957208272,-0.007907339058443904
1772639120568487700,2.13148779296875,0.08492343178689479,0.004153755824474501,0.002480108111631125
1772639120578532600,2.14153271484375,0.09255436505675316,0.003644344997612643,-0.000278150221100077
1772639120588578800,2.151578857421875,0.09315233094990252,0.008898588860296876,-0.005613008443033323
1772639120598623700,2.161623779296875,0.09988602311909198,0.004303548691861215,-0.005114310806430876
1772639120608669000,2.1716689453125,0.07370002698302268,-0.006590480310461134,-0.011990370588377118
1772639120618715000,2.18171484375,0.09075871381163597,0.0029017864269349956,-0.00406724030575715
1772639120628759600,2.191759521484375,0.0828279208123684,0.002484787140859407,0.00878685270617716
1772639120638804700,2.2018046875,0.07429857739806175,-0.00831315822173492,-0.009123555580945684
1772639120648850700,2.2118505859375,0.08596972596943378,-0.004461469495954225,-0.004410126326140016
1772639120658895600,2.2218955078125,0.09345160615742205,-0.002699521303505753,0.007562014485802501
1772639120668942000,2.231942138671875,0.08222937039732933,0.00038899303854268507,-0.0009204027805477381
1772639120678987000,2.241987060546875,0.08701835823953151,0.0058960997007321565,-0.009520089751016349
1772639120689032200,2.2520322265625,0.08986205723285674,-0.0005136611686495598,-0.00840678561371751
1772639120699078100,2.262078125,0.09180851512551307,-0.0019368121398321816,-0.009065888843266293
1772639120709123000,2.272123046875,0.09869242942035197,-0.001851523888754309,-0.0006102682522963732
1772639120719168000,2.28216796875,0.09076222094297408,-0.004209919016589993,-0.00829542506057769
1772639120729214000,2.2922138671875,0.09121171827614306,0.0031269700600038046,-0.003750402042083442
1772639120739259000,2.3022587890625,0.09240881910622119,-0.009305443494982319,0.0031049620117060838
1772639120749304000,2.312303955078125,0.10273381376564503,-0.004760093966213753,-0.006170185668068006
1772639120759350000,2.32235009765625,0.09959142408668994,0.0013018153008335501,-0.006926721390103921
1772639120769395200,2.332395263671875,0.10542787515521049,-0.00272672040850739,-0.014637999020330607
1772639120779441200,2.342441162109375,0.08777122243344783,-0.004237632432355895,0.008798296548798679
1772639120789486000,2.352486083984375,0.08013970464169978,-0.00022754512433602938,0.00671534366174601
1772639120799531000,2.362531005859375,0.09211129746437072,-0.0007588195814896608,0.0011062168093863875
1772639120809577000,2.372576904296875,0.09016659313738346,-0.007180522050414583,-0.00617365626678802
1772639120819622100,2.3826220703125,0.08029051128923892,-0.0016460564530192642,-0.0057168341436889016
1772639120829667000,2.3926669921875,0.09121405636370182,0.0016119920699245993,-0.0034380572904367
1772639120839713000,2.402713134765625,0.09121405636370182,0.00959881183481193,-0.0016700521040707826
1772639120849758200,2.41275830078125,0.09809797065854071,0.009824420159566215,0.0037878114430233835
1772639120859803000,2.422802978515625,0.07595102078020573,-0.009600895335688255,0.008226506276521831
1772639120869849000,2.43284912109375,0.08537760529518126,-0.0005985429943510098,0.0057862735175527626
1772639120879894000,2.44289404296875,0.08702361893653869,0.006981294271687511,0.00022610037345439194
1772639120889940000,2.45293994140625,0.08058861745297909,0.0020544374661549225,-0.0007415208159945904
1772639120899985200,2.462985107421875,0.08388122925758361,0.006636538237915374,0.00428903896342963
1772639120910030000,2.473030029296875,0.09271043240129948,0.0018801255037978989,0.00013757270663045345
1772639120920076000,2.483075927734375,0.08328384788632393,-0.0035802587939455406,-0.003689319504611194
1772639120930121000,2.493120849609375,0.09046586834490299,0.0034646022332453863,-0.010154259468708187
1772639120940166000,2.503165771484375,0.09839607682228088,-0.00023131711715541312,-0.008712216567387803
1772639120950212000,2.513212158203125,0.09285948548316955,0.0014883531321684131,0.005188271091785282
1772639120960257000,2.523257080078125,0.09555296235084533,0.0025888919735501986,-0.007952794768521562
1772639120970302200,2.53330224609375,0.09495441193580627,0.010066074295178987,0.010903607398131862
1772639120980348200,2.54334814453125,0.08537877433896064,0.0019310576816584215,0.009512381368596107
1772639120990393000,2.55339306640625,0.10707564236223698,-0.004846148260627524,-0.0029611787599977102
1772639121000438000,2.56343798828125,0.0925613793194294,0.004727953824613359,-0.004994200691254809
1772639121010484000,2.57348388671875,0.09570376899838447,-0.015505746881745289,0.0018500848460942505
1772639121020529200,2.583529052734375,0.09704992291033267,-0.006656793862188351,-0.0027936219070572406
1772639121030575000,2.5935751953125,0.09450608364641666,0.0022492853264644507,0.0016972415050957351
1772639121040620000,2.6036201171875,0.09301029213070869,-0.01280247584748431,-0.0009545333790127187
1772639121050665200,2.613665283203125,0.09226210411190987,-0.007795203328813658,-0.0017064477248582989
1772639121060711200,2.623711181640625,0.1024380456894636,-0.005560823310536216,-0.00912875234587118
1772639121070755800,2.633755859375,0.08178805637061595,-0.0023666109711542958,-0.007180860547954217
1772639121080801000,2.643801025390625,0.09001812457740306,0.010859780814492842,-0.002257286540651694
1772639121090847000,2.653846923828125,0.10348492439389229,-0.00018033870270010082,-0.006183026883332058
1772639121100892200,2.66389208984375,0.07804653175473213,0.00728422902006132,0.0013060228309594094
1772639121110938000,2.673938232421875,0.09001754005551338,0.006207432384692947,0.004294692386081442
1772639121120983000,2.683983154296875,0.08717442558407783,-0.008733677197236101,-0.02084800524213351
1772639121131028000,2.694028076171875,0.08687631942033767,-0.0012291153908037813,0.0001901340109296143
1772639121141074000,2.704073974609375,0.10243921473324298,0.00456231036754616,0.007047781353350728
1772639121151119000,2.714119140625,0.09286299261450767,0.0038343711231544147,0.0015463069933932274
1772639121161164000,2.7241640625,0.0862783535271883,-0.003945372629156918,-0.000601098565151915
1772639121171210000,2.7342099609375,0.09780044901669024,0.005371805827747448,0.0076625248513650145
1772639121181255200,2.744255126953125,0.08478139296770096,0.006715032563669956,-0.0033498675503302365
1772639121191300000,2.754300048828125,0.08747428531348705,-0.0009044871171412524,-0.013587384855700655
1772639121201346000,2.764345947265625,0.09884791224300861,-0.0007332296241511358,0.003752676197560504
1772639121211391000,2.774390869140625,0.1018412488400936,0.006858451630841591,-0.003642831748072058
1772639121221437000,2.78443701171875,0.09091828828752041,0.0018915185432473662,-0.0010671725737862287
1772639121231482000,2.794482177734375,0.08942191224992274,-0.006190312286533299,-0.006710411758301779
1772639121241527000,2.804527099609375,0.09690437695980071,-0.001190180753057939,-0.006397318087983876
1772639121251573000,2.814572998046875,0.07924655519425869,0.0054007179700449335,0.005715144510101526
1772639121261618200,2.8246181640625,0.08343640809953212,0.01565762210836401,0.005989705401472747
1772639121271662800,2.834662841796875,0.09121814801692962,0.009169973697181557,-0.001107678114110604
1772639121281709000,2.844708984375,0.09750292737483977,0.014150738376483786,-0.005316299651935696
1772639121291754000,2.85475390625,0.08987199410498142,0.00768940943335765,-0.010336447635199874
1772639121301799200,2.864799072265625,0.08837561806738375,0.0015984675805375444,0.006452445808704942
1772639121311845000,2.87484521484375,0.09226619576513767,0.010704253467707894,-0.0049636685556732115
1772639121321890000,2.88489013671875,0.09106851041316985,0.005329994246325805,0.005023582049366086
1772639121331935200,2.894935302734375,0.09675415483415126,0.005505399903937359,0.004234623628761619
1772639121341981200,2.904981201171875,0.08762626100480556,-0.007317597570945508,-0.004490160159254446
1772639121352026000,2.915026123046875,0.10184066431820392,0.000989016174749122,0.001530378771899268
1772639121362072000,2.925072021484375,0.0849316150933504,0.005810952442727284,0.001216956308018416
1772639121372117000,2.935116943359375,0.09615443537533283,0.000028295654366957023,0.010942487236950545
1772639121382162200,2.945162109375,0.09076689711809158,-0.00026990583667356986,0.004576194474892691
1772639121392208100,2.9552080078125,0.09031798430681229,0.010051691860088613,-0.003638922757934779
1772639121402253000,2.965253173828125,0.09390928679704666,0.005206274251823197,0.0054972091767936946
1772639121412298000,2.975298095703125,0.09046703738868236,0.0032524864318373144,0.008417023879941553
1772639121422344000,2.985343994140625,0.09420739296078681,-0.004249157331723836,-0.006443595781968906
1772639121432389000,2.99538916015625,0.08777297599911689,0.007395760249026352,-0.0018299005745910106
1772639121442435000,3.00543505859375,0.09720014503598212,-0.004635285413856036,-0.007795941972685978
1772639121452480000,3.01547998046875,0.07879530429542064,0.00036233164801378735,0.002379917406477034
1772639121462525200,3.025525146484375,0.0907663125962019,0.005337456604395992,0.0020876199290156363
1772639121472571100,3.035571044921875,0.09405833987891674,0.00004799643950245809,0.00509496678514406
1772639121482616000,3.045615966796875,0.09809855518043041,0.008177341364062158,0.0037441823638509958
1772639121492661000,3.055660888671875,0.0921124665081501,-0.008079411685475497,0.01115638571595773
1772639121502707000,3.06570703125,0.09106441875994205,0.0038556148405827113,0.0022736348872538655
1772639121512752000,3.075752197265625,0.09285948548316955,-0.0004442714563134359,-0.00302105572107248
1772639121522797000,3.085797119140625,0.08882043922543525,-0.0008190955472528003,-0.006666974475374445
1772639121532843000,3.095843017578125,0.09151333157122135,-0.004187503972093691,-0.015362934027705341
1772639121542888200,3.10588818359375,0.10019172806739807,-0.005930142392584821,0.0008841898228507489
1772639121552934100,3.11593408203125,0.09016542409360408,0.004483922785535105,-0.009663023619353771
1772639121562979000,3.12597900390625,0.08941723607480526,-0.012882856740470742,-0.0026302023731172085
1772639121573024000,3.13602392578125,0.09225976602435111,-0.009566648289503063,-0.004387256907206028
1772639121583070000,3.146070068359375,0.08642389947772025,0.0007816890004236483,0.007766542348265648
1772639121593115100,3.156115234375,0.10348258630633353,-0.002225317645698669,-0.002711880174046382
1772639121603160000,3.16616015625,0.09375614206194877,-0.004971011611912399,0.0013304905519355087
1772639121613206300,3.176206298828125,0.09151216252744197,0.011198229263420217,-0.0011748524656519292
1772639121623251000,3.1862509765625,0.09181026869118213,0.006199739985293127,0.012796471940027549
1772639121633296100,3.196296142578125,0.08642389947772025,0.0016359226472501176,0.0003107007838319987
1772639121643342000,3.206342041015625,0.09525310262143612,0.006228591620441875,0.0003322550285141915
1772639121653387000,3.216386962890625,0.09555237782895565,0.01529579620878212,-0.002033003664948046
1772639121663433000,3.226432861328125,0.07774608750343322,0.005853242373117245,0.0026604970466811207
1772639121673478400,3.236478515625,0.09495499645769595,-0.0024783905077580127,0.0016723719253204762
1772639121683523300,3.2465234375,0.093009707608819,-0.007932431258860742,-0.009373283425159753
1772639121693569500,3.256569580078125,0.0861257933139801,-0.0025692511247412766,-0.008377933978568761
1772639121703614500,3.266614501953125,0.0853764362514019,0.004826649546535918,-0.0035711912839673458
1772639121713659600,3.27665966796875,0.09959200860857963,0.0036129246627533574,-0.010026349639566615
1772639121723705600,3.28670556640625,0.09211012842059135,0.003742899155640043,-0.00254312687786296
1772639121733750300,3.296750244140625,0.08971534223854541,0.004568451843142975,-0.004250597516028211
1772639121743795500,3.30679541015625,0.08926584490537642,-0.005377855971798999,0.0007692764726001769
1772639121753841400,3.31684130859375,0.08881634757220745,0.0007991042136389296,-0.003329107890091836
1772639121763886300,3.32688623046875,0.09794424140155315,0.006001560236047953,-0.010367390762735157
1772639121773932500,3.3369326171875,0.09001344840228558,-0.006667473944762605,0.0004020779948681593
1772639121783977500,3.3469775390625,0.08253156821429729,-0.008233893286067178,0.001724366974039003
1772639121794022400,3.3570224609375,0.09061258333921432,0.0032324699820484963,0.008208641826268286
1772639121804068400,3.367068359375,0.09674772509336471,-0.0034667799197777636,0.002075034442078322
1772639121814113300,3.37711328125,0.09106149615049362,-0.009321729621969279,-0.0010681406881660222
1772639121824158500,3.387158447265625,0.08432780398130417,-0.0024498642412392655,-0.003602125278348103
1772639121834204400,3.397204345703125,0.08447685706317425,0.007146483354317024,-0.008560414406005292
1772639121844249600,3.40724951171875,0.0880687440752983,0.001101389366397052,0.0035817766100633888
1772639121854294500,3.41729443359375,0.088069328597188,0.0010040385014784988,-0.007125751093542203
1772639121864340500,3.427340576171875,0.09255845670998096,-0.0027347507346246855,-0.005010859565110877
1772639121874385400,3.437385498046875,0.07983809134662151,-0.004450398400201811,0.0047173108454793685
1772639121884431400,3.447431396484375,0.09330489116311073,-0.0010467417071107774,-0.005959785187244415
1772639121894476300,3.457476318359375,0.09809329448342323,0.003408480711147422,-0.004180226560402661
1772639121904521500,3.467521484375,0.09659691844582557,0.001763747994712321,0.00016959354639984667
1772639121914567400,3.4775673828125,0.09450257651507854,-0.0005991452117275912,0.004877278047008439
1772639121924612600,3.487612548828125,0.09689677817523479,0.000296409680286888,0.006500367470504716
1772639121934657300,3.4976572265625,0.09091068950295447,-0.005956073701573768,0.0038794078497681765
1772639121944703200,3.507703125,0.08716974940896034,0.0039659296475292646,-0.00207917176107876
1772639121954748400,3.51774853515625,0.0852238760381937,0.0013849441316880983,0.00011125095528550445
1772639121964793300,3.52779345703125,0.08148352046608924,0.0002806412889971398,-0.0017830931576434522
1772639121974839600,3.537839599609375,0.10018880545794963,0.01295078800219344,-0.0017154712815303354
1772639121984884500,3.547884521484375,0.07624678885638714,-0.006798429680938716,-0.0023349731530528514
1772639121994930400,3.557930419921875,0.08492518535256385,-0.010228635312593541,-0.008390391601342707
1772639122004975400,3.567975341796875,0.08103402313292025,0.005935502983469632,0.004753195009613409
1772639122015020300,3.578020263671875,0.09225625889301299,0.000298089609897579,0.001973583361599594
1772639122025066500,3.58806640625,0.09240648101866245,-0.0006472358368861023,-0.009054463266953826
1772639122035111400,3.598111328125,0.0888140094846487,0.0029619470866222397,0.0012996570222545414
1772639122045156400,3.60815625,0.08522270699441432,-0.00385079995568085,0.002362135154614225
1772639122055202600,3.61820263671875,0.08073416340351104,0.0014741659182560397,0.007965014929277823
1772639122065247500,3.62824755859375,0.09764321262836456,0.0045260888475168026,-0.01159940764256753
1772639122075292400,3.63829248046875,0.08552315124571323,0.016797389560902955,-0.0033142299813684072
1772639122085338400,3.64833837890625,0.08627192378640175,0.008371676055251737,-0.009087178226467221
1772639122095383300,3.65838330078125,0.09884206702411175,-0.0036801167097815775,-0.015337607790203765
1772639122105429500,3.668429443359375,0.0937543884962797,0.010607414630264975,0.0014658073693979532
1772639122115474400,3.678474365234375,0.08866729449033736,0.013023810997564578,0.0060086840965785085
1772639122125519600,3.68851953125,0.09614975920021533,0.00343080442409846,-0.00007427994576282798
1772639122135565600,3.698565673828125,0.09360533541440963,-0.01176495862644515,-0.004433954726299271
1772639122145610200,3.7086103515625,0.08343056288063526,-0.00018145922659605274,-0.004073733978625387
1772639122155655400,3.718655517578125,0.0983949077785015,0.004373830028407974,-0.004337810008600354
1772639122165701400,3.728701416015625,0.09884440511167049,0.0021342144292982993,0.0000917608035262674
1772639122175746600,3.73874658203125,0.09450491460263728,0.0034996552803175287,0.004748792829131708
1772639122185792500,3.74879248046875,0.09824527017474174,-0.0003629669730755267,-0.008187169779976829
1772639122195837400,3.75883740234375,0.09390577966570854,-0.004625486680693575,-0.01034239331879653
1772639122205882600,3.768882568359375,0.0910620806723833,0.01046306968955323,-0.009612197614414618
1772639122215928300,3.77892822265625,0.08028817320168018,-0.008685310294153169,-0.0016893413264304398
1772639122225973200,3.78897314453125,0.08417933542132378,-0.0017502275010803712,-0.0007523801367264241
1772639122236018400,3.799018310546875,0.08986614888608455,0.0007681747858354356,0.004400006790924817
1772639122246064400,3.809064453125,0.09689911626279353,-0.0017968836501560872,-0.001905742289777845
1772639122256109600,3.819109619140625,0.08672317468523978,0.011787187582917977,0.0023901282732374965
1772639122266154500,3.829154541015625,0.09211012842059135,0.0032140227223717375,0.002699303820263594
1772639122276200400,3.839200439453125,0.09674947865903377,-0.0008733407769177575,-0.00022062961389310656
1772639122286245400,3.849245361328125,0.07654957119524479,-0.00821412057733978,0.004196739303786307
1772639122296290300,3.859290283203125,0.08447977967262267,-0.001985661958460696,-0.0034838143946137276
1772639122306336500,3.86933642578125,0.09106383423805237,-0.006287256155253271,-0.008105628976365551
1772639122316381400,3.87938134765625,0.09435527699887752,0.0015186717802629572,-0.010382606598176062
1772639122326427400,3.889427490234375,0.10318448014259338,-0.001789009729310055,0.007429282351071015
1772639122336472600,3.89947265625,0.08717267201840877,0.006461978538741823,0.0008271441396791487
1772639122346517200,3.909517333984375,0.09226035054624081,0.006537586787666077,-0.0045611613025423135
1772639122356563500,3.9195634765625,0.09211071294248104,-0.002371832852254738,-0.0029568039789795875
1772639122366608400,3.9296083984375,0.09839549230039119,0.006661869041994214,-0.016582246689591556
1772639122376653300,3.9396533203125,0.08956628915667533,0.004787097279215231,-0.0011983155396301298
1772639122386699500,3.949699462890625,0.08627484639585017,0.0010001083909213775,-0.009535369518538936
1772639122396744400,3.959744384765625,0.08822071976661681,0.004271893178272875,-0.003487193661788478
1772639122406790400,3.969790283203125,0.08507774556577205,0.0011671846116048982,0.00949441645364277
1772639122416835600,3.979835693359375,0.09255962575376034,0.0038642919082049047,-0.0011745145389344543
1772639122426880300,3.98988037109375,0.09031506169736385,-0.0073944176753109785,-0.007026546769076958
1772639122436926500,3.999926513671875,0.0874719472259283,-0.0024250728640996385,-0.01523051242022775
1772639122446971400,4.009971435546875,0.10677578263282775,0.0048839401124132565,-0.0018406137648504226
1772639122457016600,4.0200166015625,0.10348492439389229,0.004098928927030647,0.012969892278173937
1772639122467062500,4.0300625,0.0871755946278572,-0.009519476117196609,-0.005046670664008706
1772639122477107500,4.040107421875,0.10079203204810619,0.004236887509439839,0.0007541519687045365
1772639122487152400,4.05015234375,0.09764905784726143,-0.007800929245879524,0.009795637023076415
1772639122497198300,4.0601982421875,0.09480594337582587,-0.009594209866574966,0.00005600450355559587
1772639122507243500,4.070243408203125,0.08253507534563541,0.0006002737271337537,-0.012393453230243176
1772639122517289500,4.08028955078125,0.092412910759449,-0.0013311561305716167,0.002284594672685489
1772639122527334400,4.09033447265625,0.09420856200456619,0.008745365922563359,0.0014280783080495893
1772639122537379600,4.100379638671875,0.09884674319922923,-0.008948574615019605,-0.0010394899824168532
1772639122547425500,4.110425537109375,0.10139058246314525,0.004379497721613734,-0.001955956373363733
1772639122557470200,4.12047021484375,0.08373334521949291,0.00019937105508870443,-0.003713522364106029
1772639122567515400,4.130515380859375,0.08867138614356518,0.006042020681421854,-0.003911931013036519
1772639122577561300,4.140561279296875,0.09660334818661212,0.005390284482642891,-0.006170331798540428
1772639122587606500,4.1506064453125,0.08642799113094807,-0.00012900409521826077,0.0016306425422895699
1772639122597651500,4.1606513671875,0.09690262339413165,-0.008822216851325356,0.005669487870624289
1772639122607697400,4.170697509765625,0.09765081141293049,0.0005917091114766663,0.0023889957620762286
1772639122617742600,4.18074267578125,0.09106675684750079,-0.0019117159436602377,-0.0011793185782153159
1772639122627788500,4.19078857421875,0.09600538229346275,0.007948035253369016,-0.005901077269949018
1772639122637833500,4.20083349609375,0.09645487962663173,0.0017669445987965446,-0.0044890185149386525
1772639122647878400,4.21087841796875,0.08687807298600674,0.0032095189355459295,0.007295837830286473
1772639122657924400,4.22092431640625,0.08642916017472743,0.0111748301215237,0.00010935125914402306
1772639122667968800,4.23096875,0.10318857179582118,-0.00017980441316030918,-0.0016633392354939132
1772639122678013400,4.241013427734375,0.09944821622371673,-0.0010483223136659944,-0.0029084165262989697
1772639122688059600,4.2510595703125,0.08239069843888282,-0.005385737884155241,-0.0047806401389651
1772639122698104600,4.2611044921875,0.09481061955094337,-0.0028206657484319293,0.0021389756569173187
1772639122708149800,4.271149658203125,0.08867606231868266,0.003884157660944038,-0.0018656386082526294
1772639122718195700,4.28119580078125,0.09256722453832626,0.00462233402991551,-0.0036006365741603073
1772639122728240600,4.29124072265625,0.0885264247149229,0.0016069631267135263,-0.003343492608470842
1772639122738286800,4.301286865234375,0.08658113586604595,0.008476945935966795,0.0006779083947185426
1772639122748331800,4.311331787109375,0.09017243835628032,0.005835734686712384,-0.003031851109722629
1772639122758376700,4.321376708984375,0.09870119724869728,-0.005758632025378756,-0.0015716788966674356
1772639122768422700,4.331422607421875,0.08658055134415626,-0.0013298392438533483,-0.004563782517891377
1772639122778467600,4.341467529296875,0.09690613052546977,0.0006426133190514519,0.005686155877634882
1772639122788512800,4.3515126953125,0.09226794933080673,0.008360363501726533,0.006764553098333999
1772639122798558700,4.361558837890625,0.08583353236913681,-0.003412638579745544,0.009750354842934758
1772639122808603600,4.371603759765625,0.10334113200902938,0.006022426069207722,0.00561967564583756
1772639122818648600,4.381648681640625,0.09107143302261829,0.0019927955229679353,-0.004232011546567082
1772639122828694500,4.391694580078125,0.0867313579916954,0.008862162415112835,0.003019941476220265
1772639122838739700,4.40173974609375,0.10393968242406844,-0.0022129342298052505,-0.006052925097104161
1772639122848785700,4.41178564453125,0.09585983634293078,-0.0060947869108757,0.007292458563111722
1772639122858830600,4.42183056640625,0.08643266730606555,0.00968447283275891,0.0010624233334325254
1772639122868875800,4.431875732421875,0.0831412245452404,0.004009981135098496,0.003632812677556649
1772639122878921700,4.441921630859375,0.08149521090388298,-0.002433247608222882,-0.007144172666221857
1772639122888967000,4.451966796875,0.09256780906021594,0.00488208779451088,-0.011372704480914398
1772639122899011600,4.462011474609375,0.08987374767065048,0.007315201259526657,0.0036792182357050477
1772639122909057500,4.4720576171875,0.09166939891576767,-0.007609562259088852,0.01086514768442139
1772639122919102700,4.482102783203125,0.09735621238052844,0.0019656363755173514,-0.0045235418390482665
1772639122929147600,4.492147705078125,0.07281564536392689,-0.004290378112212056,0.007344179617194458
1772639122939193600,4.502193603515625,0.09182079008519649,0.0108116228323197,-0.0016795597179327158
1772639122949238800,4.51223876953125,0.08194412371516227,-0.007276780932545079,0.0035195250288117676
1772639122959284700,4.52228466796875,0.08239303652644157,-0.0012461812608584295,0.008434796998649834
1772639122969329700,4.53232958984375,0.08778057478368281,0.006486264167449553,-0.0013821476739365607
1772639122979374600,4.54237451171875,0.09197042768895626,0.0030284707009035627,0.005502588604809716
1772639122989420500,4.552420654296875,0.08134557330012321,0.007895077227670117,0.0066708286665845655
1772639122999465700,4.5624658203125,0.09002455431818962,0.006881802823676844,0.0030485830488149075
1772639123009510700,4.5725107421875,0.08343991523087024,0.003522084595367778,0.0059729825955349945
1772639123019556900,4.582556884765625,0.08059680075943469,0.0029855117669445462,0.005279072914086282
1772639123029601500,4.5926015625,0.07670622306168079,-0.008977616333946935,-0.010937043876852839
1772639123039646700,4.602646728515625,0.08718027080297469,0.0032673883150913753,-0.011722924424381926
1772639123049692700,4.612692626953125,0.09376432536840439,0.006796058485694811,-0.006359296765690669
1772639123059737600,4.622737548828125,0.08658172038793563,0.0031771419027500085,0.012365250049065798
1772639123069783800,4.63278369140625,0.07999766582250595,0.004026348318831878,-0.00321956483470276
1772639123079828700,4.642828857421875,0.0967570774435997,0.0005632502019725507,-0.005018668412230909
1772639123089873700,4.652873779296875,0.10513678325414658,-0.0046528461867215805,0.004394161572027952
1772639123099920000,4.662919921875,0.09211772720515728,0.0025534165180812122,0.010510297231609001
1772639123109964500,4.672964599609375,0.09615852702856063,0.009341287130743147,0.0029417799397837368
1772639123120009700,4.683009765625,0.10244389090836048,0.0003987769303290406,-0.004468130990536883
1772639123130055700,4.6930556640625,0.09017419192194938,0.011078562106238678,0.003535142723051831
1772639123140100600,4.7031005859375,0.08852876280248165,0.008836553620643098,0.008803447647951542
1772639123150146800,4.713146728515625,0.09017477644383907,0.0032352687230886657,-0.008039486671285703
1772639123160191700,4.723191650390625,0.09631050271987915,0.0031838530588604043,-0.01005480854907073
1772639123170236700,4.733236572265625,0.07640928594172,-0.0017777531163563252,-0.007630074753332883
1772639123180282600,4.74328271484375,0.09421616078913211,0.009119101455647614,0.0001769366026390344
1772639123190327600,4.75332763671875,0.08927811986505985,0.01023182278352324,0.0007609927014447748
1772639123200372700,4.763372802734375,0.09451602051854133,0.006674243324733106,0.004544064037268981
1772639123210418700,4.773418701171875,0.09092354898452758,-0.0035933391836937517,-0.0033189609554130583
1772639123220463900,4.7834638671875,0.08957739507257938,-0.0019202856967167462,-0.0026940796558745203
1772639123230508500,4.793508544921875,0.10214695378839969,0.01028733752166736,0.003452761669224128
1772639123240554500,4.803554443359375,0.09676000005304813,-0.0017472244057076748,0.007773839738732203
1772639123250599700,4.813599609375,0.09526362401545047,-0.0037089717698632735,0.0028276520408224313
1772639123260645600,4.823645751953125,0.09750818807184695,0.003159840283144149,-0.005662574072647839
1772639123270690600,4.833690673828125,0.09541384614109992,0.003829232582089025,0.0011032759336289018
1772639123280735700,4.84373583984375,0.0921212343364954,0.001623760139531805,-0.0017658314955886452
1772639123290781700,4.85378173828125,0.08448971654474735,0.0014851034416235051,0.0028831907534971834
1772639123300827000,4.863826904296875,0.07805529958307743,0.00012942593279294669,0.006634734439896419
1772639123310871600,4.87387158203125,0.0816466020733118,0.0012466025276109576,-0.01990107064768672
1772639123320917500,4.88391748046875,0.09032558309137821,-0.005061510898469714,0.0025214995679445564
1772639123330962700,4.893962646484375,0.09331775064468384,0.0022229481629212388,0.005173712843470275
1772639123341007600,4.904007568359375,0.09810673848688602,0.000491075448328047,-0.00436198546863161
1772639123351053800,4.9140537109375,0.09137304631769656,-0.007496896235673921,-0.00012253040112555026
1772639123361098800,4.9240986328125,0.09361761037409305,-0.006964174173527862,0.005662583205802366
1772639123371144700,4.934144775390625,0.0834416687965393,-0.00847660515513853,-0.012791594835510477
1772639123381189600,4.944189697265625,0.09541267709732056,0.00019527883103874046,0.004242587739508598
1772639123391234600,4.954234619140625,0.09077391138076782,-0.004274984180257888,-0.008625068006897345
1772639123401280800,4.96428076171875,0.08508709791600703,-0.013349034638737793,-0.0004365647863596678
1772639123411325700,4.97432568359375,0.08718143984675407,0.0009317655664228368,-0.0021236867562402038
1772639123421370600,4.98437060546875,0.08942658842504024,0.01656434342343127,-0.0021006164079066364
1772639123431416800,4.994416748046875,0.09092237994074821,-0.007366124304232653,-0.0034574561106506733
1772639123441461500,5.00446142578125,0.09032382952570915,-0.009781770611216779,0.0014469474053010343
1772639123451506700,5.014506591796875,0.09256839358210563,0.002530918133549858,0.010298060986725612
1772639123461552600,5.024552734375,0.09690729956924915,-0.006140738094586413,0.0017240747130941598
1772639123471597600,5.03459765625,0.08134615782201289,-0.006307940466966829,-0.0002526321873534471
1772639123481643800,5.044643798828125,0.08643383634984493,0.0015521442207798828,0.0061643952480982984
1772639123491688700,5.054688720703125,0.0795510910987854,-0.00039680702306213786,-0.0036302645274437963
1772639123501734000,5.06473388671875,0.08643442087173461,0.013553575059288413,0.00010240092854946851
1772639123511779800,5.07477978515625,0.09077391138076782,0.008115398597597958,0.004127318196231499
1772639123521824500,5.084824462890625,0.08912672869563103,-0.010251304943772264,-0.001945261449413374
1772639123531869700,5.09486962890625,0.07790332389175891,-0.012241851998260243,-0.014933776229666545
1772639123541915600,5.10491552734375,0.08852700923681259,0.0018604766634787665,-0.004800367752742022
1772639123551960800,5.1149609375,0.09211831172704696,-0.0013786479632864937,0.012849690831452607
1772639123562005800,5.125005859375,0.10513678325414658,-0.0018784078999247867,0.003715769120119512
1772639123572051700,5.1350517578125,0.08403788112401962,-0.0013656081019114935,0.010925563501613214
1772639123582096600,5.1450966796875,0.08822773402929306,-0.0061563843299343715,0.006255690260743722
1772639123592142600,5.155142578125,0.07775251724421978,0.005050291388956248,0.007560443583223968
1772639123602187500,5.1651875,0.08328852406144141,-0.008985292179504176,0.009149575938191264
1772639123612232700,5.175232666015625,0.09929974766373634,-0.006330316124734236,0.003439746924024075
1772639123622278700,5.185278564453125,0.08882511540055274,-0.003631479236995801,-0.0019007555874064564
1772639123632323800,5.19532373046875,0.08867547779679298,0.0009688724316190928,-0.002224836442619562
1772639123642368800,5.20536865234375,0.10483516995906829,0.005716084654195583,0.0024713402832858265
1772639123652414700,5.215414794921875,0.08792612073421478,-0.009592942641384434,0.008995253026159479
1772639123662459600,5.225459716796875,0.09196575151383876,0.00674058998414548,0.006545978444209322
1772639123672504600,5.235504638671875,0.09256313288509845,-0.0024176710131781874,-0.006166541539411992
1772639123682550800,5.24555078125,0.09705109195411205,-0.005799534857925027,-0.004324092010501772
1772639123692595700,5.255595703125,0.08717384106218815,-0.003439205784618389,0.000944833968905732
1772639123702641700,5.2656416015625,0.09375789562761783,0.004752453511630301,-0.005529193483944982
1772639123712686800,5.275686767578125,0.09764847332537174,-0.0008884681349241873,0.0004925053578335791
1772639123722731500,5.2857314453125,0.0847790548801422,-0.0013428939466044538,-0.0032925752719864245
1772639123732777500,5.295777587890625,0.09495499645769595,-0.0007613037995208287,0.003481384975509718
1772639123742822700,5.30582275390625,0.0886702170997858,0.002609720703269704,-0.003552970640687272
1772639123752867600,5.31586767578125,0.09375789562761783,0.005453257012279937,-0.004859797189245
1772639123762913800,5.325913818359375,0.09869652107357978,0.0051659993236506125,-0.008094650924624875
1772639123772958700,5.335958740234375,0.08582827167212963,-0.004902421050597332,-0.001171427532704547
1772639123783004700,5.346004638671875,0.09390870227515696,-0.00004629995604918804,-0.007745362562919035
1772639123793049600,5.356049560546875,0.09106500328183173,0.01079840030785417,0.0014329006136395035
1772639123803094500,5.366094482421875,0.07370645672380924,0.003273044591853977,0.010664117820141837
1772639123813140700,5.376140625,0.08926818299293518,0.0015714146060083294,-0.004929912416543811
1772639123823185700,5.386185546875,0.0966004255771637,0.00020326977042714134,-0.005226986533822492
1772639123833230800,5.39623095703125,0.08851999497413635,0.0006858593765558908,0.00028972192788496613
1772639123843276800,5.40627685546875,0.10153788197934627,0.013005568663042503,-0.009760501777613536
1772639123853321700,5.41632177734375,0.09031564621925353,0.019432231576519552,0.005535860686749219
1772639123863366700,5.42636669921875,0.09375731110572814,-0.0035561775195703375,0.00031394305368885394
1772639123873412600,5.43641259765625,0.08447977967262267,0.0008434468205086886,-0.0003002707213629037
1772639123883457500,5.44645751953125,0.10093874704241752,-0.0028890491013036806,-0.014452961309626698
1772639123893502700,5.456502685546875,0.09689853174090385,0.0009790222204086603,-0.0020315332270693033
1772639123903548700,5.466548583984375,0.08672317468523978,0.009146190962794934,0.006448801680048927
1772639123913593900,5.47659375,0.08836860380470753,0.005072275462723336,-0.0006011168314609676
1772639123923639800,5.486639892578125,0.09435469247698783,0.004822387788305058,0.012037324135797098
1772639123933684500,5.4966845703125,0.07759644989967346,-0.0038101465724175794,-0.009099736313940957
1772639123943729700,5.506729736328125,0.0808884771823883,0.013290133783553027,-0.002193856782466173
1772639123953775600,5.516775634765625,0.08941782059669494,-0.0006736340784002095,-0.005358978883037343
1772639123963820800,5.52682080078125,0.10303484253883362,-0.0027842181828280446,0.0006238583862315863
1772639123973865700,5.53686572265625,0.08313304123878479,-0.0011048034537234344,0.0038195674213115124
1772639123983911700,5.54691162109375,0.09016659313738346,0.011768295652780215,-0.009202904427470638
1772639123993956600,5.55695654296875,0.09375848014950752,0.008223073352064238,-0.0007440598329529165
1772639124004002600,5.56700244140625,0.08612696235775948,0.004336772253917297,0.0028919768481515348
1772639124014047700,5.5770478515625,0.08852233306169509,0.003090017316790181,-0.00027549247313290835
1772639124024092700,5.5870927734375,0.09420856200456619,0.0027334658139472594,-0.0023603359231725335
1772639124034138600,5.597138671875,0.10184066431820392,-0.0016523765959515003,-0.005883231086004525
1772639124044183800,5.607183837890625,0.08897183039486407,0.006326015550596639,-0.001386348925018683
1772639124054228700,5.617228759765625,0.0853805279046297,0.003711781356524443,-0.011432855436624959
1772639124064274700,5.627274658203125,0.10258768329322338,0.0010211574579938314,0.0011447861209511756
1772639124074319600,5.637319580078125,0.09001812457740306,0.010722264048433862,-0.006650306468363851
1772639124084364500,5.647364501953125,0.07759703442156314,0.009691159443516516,-0.0016472192177549004
1772639124094410800,5.65741064453125,0.09241174171566963,0.004839926869928604,0.0022970066296868026
1772639124104455700,5.66745556640625,0.09585340660214424,0.012912836320203496,0.0006513583145104348
1772639124114501600,5.677501708984375,0.08193652493059635,0.0078002208555815735,-0.007811139541817828
1772639124124546800,5.687546875,0.09555296235084533,0.007124184757540933,0.01621013457472436
1772639124134591500,5.697591552734375,0.09749766667783259,0.0067179511773632836,-0.002553246413078159
1772639124144637700,5.7076376953125,0.07999123608171939,0.0017791807425732258,-0.013197189094871282
1772639124154682600,5.7176826171875,0.0964513724952936,0.007839031054096994,0.0027099256789777427
1772639124164727800,5.727727783203125,0.08882043922543525,-0.008042070212372346,-0.008786286450596526
1772639124174773800,5.737773681640625,0.07849544456601143,0.001544124169461429,0.0047161418016999955
1772639124184818700,5.747818603515625,0.09884615867733955,-0.0005145630676590371,0.007383634844748303
1772639124194863900,5.75786376953125,0.07280921562314033,0.010578994536667595,-0.0036406763236038384
1772639124204909600,5.76790966796875,0.09959493121802807,-0.005160311080847168,-0.0007883008334785699
1772639124214954500,5.77795458984375,0.09166413821876049,0.0019704986386583187,0.002096205094270408
1772639124225000700,5.788000732421875,0.08463175536394119,0.005370379343174863,-0.0038376328009646385
1772639124235045600,5.798045654296875,0.09420856200456619,0.009433196918852627,0.0012250208834651856
1772639124245090800,5.8080908203125,0.09660334818661212,0.0061894269413664,0.00954279477316886
1772639124255136800,5.81813671875,0.09735095168352126,0.013044493025989503,-0.012947543449047952
1772639124265181700,5.828181640625,0.09136544753313064,0.0076507179658510715,0.006467004057019949
1772639124275226600,5.8382265625,0.09301146117448807,-0.010799313623306807,-0.004169842163706198
1772639124285272600,5.8482724609375,0.09181377582252025,0.010560514740127838,0.007919577485509217
1772639124295317800,5.85831787109375,0.0867266818165779,-0.004830410122912144,0.010799279373977332
1772639124305362700,5.86836279296875,0.09405892440080642,0.014926029031339567,-0.003867443417338654
1772639124315408600,5.87840869140625,0.09211363555192947,0.014296223819867008,-0.011800985496118663
1772639124325453800,5.888453857421875,0.08508066817522049,0.002731792734202463,-0.0013198412937577813
1772639124335499800,5.898499755859375,0.09405892440080642,-0.0027216047003283165,-0.00012137049050070345
1772639124345544700,5.908544677734375,0.09989537546932696,0.0043095280539651865,-0.011873009552713483
1772639124355589600,5.918589599609375,0.0958551601678133,-0.002773412519379053,0.004337855674372986
1772639124365635600,5.928635498046875,0.09331132090389728,-0.008856801253405865,-0.0027342472694814202
1772639124375680800,5.9386806640625,0.0906178440362215,-0.003386650188540807,-0.003600709639396518
1772639124385725700,5.9487255859375,0.08283727316260338,0.0048159683223173485,-0.007716857987642288
1772639124395771600,5.958771728515625,0.08283785768449306,0.0024622402364446313,-0.0051154615839011965
1772639124405816800,5.96881689453125,0.08493395318090916,0.0034292323798756114,0.00019501111544668672
1772639124415861500,5.978861572265625,0.0856815566778183,0.004120027655630838,0.009279175400920213
1772639124425907700,5.98890771484375,0.09525894784033298,0.0036083712143998125,0.006338692369079217
1772639124435952600,5.99895263671875,0.09136837014257908,0.000429271962470375,-0.0012738923933357
1772639124445998600,6.00899853515625,0.09226619576513767,0.0028262615180457942,-0.000263345377612859
1772639124456043800,6.019043701171875,0.09615677346289157,-0.0006531963618588634,0.007546652519889175
1772639124466088700,6.029088623046875,0.0750584558546543,0.000310344019983313,-0.0010702139142435044
1772639124476134700,6.039134765625,0.09271686214208602,-0.00023267396142473442,0.004266361340740695
1772639124486179600,6.0491796875,0.0771545513510704,0.010759592392627382,0.004292947953566909
1772639124496224800,6.059224853515625,0.08388824352025985,0.0014384198930842103,0.008806890847207979
1772639124506270700,6.069270751953125,0.08284136481583118,0.007606854278771788,-0.0029504290371201933
1772639124516315600,6.079315673828125,0.10229483782649039,0.01804444874624023,0.002777173095755279
1772639124526361600,6.089361572265625,0.08658347395360469,0.007596634278856799,-0.011402770825615152
1772639124536406800,6.09940673828125,0.08733107745051384,0.002647709488699911,0.0015628014704678207
1772639124546451500,6.109451416015625,0.0892757817775011,0.006692207668864285,0.004075715873157605
1772639124556497700,6.11949755859375,0.08059738528132439,0.007585764683326124,0.007430341796996072
1772639124566542600,6.12954248046875,0.10468962400853633,0.008643270954690524,-0.0066092255393043154
1772639124576587800,6.139587890625,0.09316752851903438,0.008848466108256252,-0.01376036680242978
1772639124586633700,6.1496337890625,0.08329144667088985,0.014088603242952375,-0.004462897692993283
1772639124596678700,6.1596787109375,0.09122223967015743,0.008443456370785134,-0.006697579676192254
1772639124606723800,6.169723876953125,0.07865209643244743,-0.007945074398836004,0.004130934925423935
1772639124616769800,6.179769775390625,0.07640753237605094,0.0014939249272516461,-0.0012341723043005912
1772639124626814700,6.189814697265625,0.0900251388400793,0.0033908565770223503,0.005130156829534098
1772639124636860700,6.199860595703125,0.09047346712946891,-0.0005511196602950803,0.009233874954469501
1772639124646905600,6.209905517578125,0.08733049292862415,-0.004166176914630341,-0.004296519016986713
1772639124656950800,6.21995068359375,0.09421382270157337,-0.00630737306974188,0.0036037418466992673
1772639124666996700,6.229996826171875,0.09062310473322868,-0.005583139031977043,0.012223074232554063
1772639124677042200,6.240042236328125,0.07521101606786251,0.01000897609636886,0.0046538080220576376
1772639124687087400,6.25008740234375,0.07835340574681758,0.0024870436008495745,-0.003261632144451141
1772639124697133000,6.260133056640625,0.09077332685887814,0.006496792982151964,-0.01268944050213322
1772639124707178200,6.27017822265625,0.09451485147476196,0.008251395835072617,-0.000986764281336218
1772639124717223200,6.28022314453125,0.07970131322443484,0.004198028220218839,-0.0033260574164800344
1772639124727269000,6.29026904296875,0.09257073166966438,-0.004453661219656351,0.003474133250815794
1772639124737314300,6.300314208984375,0.0933189196884632,-0.0049352176376793065,0.011121707128221168
1772639124747360300,6.3103603515625,0.09137363083958626,0.0021992841595434584,-0.0014527012926526368
1772639124757405200,6.3204052734375,0.08239479009211063,-0.005503681729242089,-0.00032651940747164187
1772639124767450000,6.3304501953125,0.10020224946141243,0.0019158252923749386,0.005728789442963898
1772639124777496000,6.34049609375,0.09092588707208633,0.0032894859824678857,-0.006886498977569863
1772639124787541200,6.350541259765625,0.08883096061944962,-0.0017594422831753035,0.016909798143524675
1772639124797586200,6.360586181640625,0.08778408191502093,-0.003541357263884856,0.006047472603851929
1772639124807632100,6.370632080078125,0.08943068007826804,0.0036830507356731684,-0.002837716777110472
1772639124817677300,6.38067724609375,0.09002806144952774,-0.005231614189056563,0.0025674667346756905
1772639124827722000,6.390721923828125,0.08314473167657851,0.011605144405254396,0.0073604914311785246
1772639124837768200,6.400768310546875,0.09496668689548969,0.008336522543479804,0.010246897055068984
1772639124847813000,6.410813232421875,0.08703589389622211,-0.00852682723023463,-0.0009608443887904285
1772639124857859000,6.420859130859375,0.09391922366917133,-0.011910799121210583,-0.002614484214177355
1772639124867904300,6.430904296875,0.09945464596450328,0.017390672429068943,-0.0007753500203602015
1772639124877949200,6.44094921875,0.09047638973891735,-0.005214460412389599,0.010247189316013827
1772639124887995100,6.4509951171875,0.09526420853734016,-0.004332137177995173,0.00035015601138584313
1772639124898040300,6.461040283203125,0.09271978475153446,0.007382766053423984,0.00429379733693786
1772639124908085000,6.4710849609375,0.09376666345596313,-0.001925138255881029,-0.003263851501001045
1772639124918131200,6.481131103515625,0.08433890989720821,-0.009728213793074246,-0.007203510771179571
1772639124928176000,6.491176025390625,0.08329203119277953,-0.001461809331004042,-0.0050503878579009325
1772639124938221300,6.50122119140625,0.07715747396051884,0.0038265588511014353,-0.001812100056419149
1772639124948267300,6.511267333984375,0.08987725480198859,0.0033346454358455955,-0.0010296170423738657
1772639124958312200,6.521312255859375,0.09720832834243774,0.0018182563733920686,-0.0006905578137375414
1772639124968358400,6.5313583984375,0.09541209257543086,-0.0017789661134418565,0.007764770516287535
1772639124978403000,6.541403076171875,0.0927180311858654,0.007022266744537046,0.0030632326286751774
1772639124988448300,6.5514482421875,0.08553484168350696,0.0034375977785995925,0.00028238800480030475
1772639124998494200,6.561494140625,0.09855389773249626,0.0009552965682378271,-0.009066902623418718
1772639125008539100,6.5715390625,0.1004991865813732,0.0020504588357143803,-0.007981737735215573
1772639125018584300,6.581584228515625,0.0888274534881115,0.003968790608184645,0.009050810005143285
1772639125028630300,6.59163037109375,0.0849362912684679,0.00002515384920989163,0.008854017924563959
1772639125038675000,6.601675048828125,0.0823918674826622,-0.004637670308831729,0.009088931792136282
1772639125048720100,6.61172021484375,0.07520984702408313,0.004190255334894755,-0.0038926326575223352
1772639125058766000,6.62176611328125,0.1006482396632433,0.006875103654831764,-0.0007579148283693939
1772639125068811300,6.631811279296875,0.09960077643692493,0.002957054569906904,0.001923442343249917
1772639125078857200,6.641857177734375,0.0849362912684679,0.003122615828583366,-0.0019214969813358038
1772639125088902100,6.651902099609375,0.09915186362564563,0.004735405907884706,-0.0005996555267367512
1772639125098947300,6.661947265625,0.08598316997289657,0.005053722030125209,-0.003816690477635711
1772639125108993300,6.6719931640625,0.08493512222468852,-0.0009611480661784298,-0.006420351903699338
1772639125119038200,6.6820380859375,0.08673018894791602,0.0002501120075263316,-0.004651068075699732
1772639125129083100,6.692083251953125,0.09720482121109962,0.006050419758653151,-0.008574753458611667
1772639125139129000,6.702129150390625,0.08987199410498142,-0.004775664853036869,-0.003981708313617855
1772639125149174300,6.71217431640625,0.07505787133276462,0.0009943961735873017,-0.006242602450307458
1772639125159219200,6.72221923828125,0.08628069161474704,0.0023421415377117226,0.011018146289046854
1772639125169265200,6.73226513671875,0.07580664387345314,0.0013478640951332635,0.0022030538690742106
1772639125179310000,6.74231005859375,0.08673077346980572,0.011091351947508519,-0.0072976827275007955
1772639125189356000,6.75235595703125,0.100346626368165,0.004131276277074357,-0.005580868872255087
1772639125199401200,6.762401123046875,0.08134265069067478,-0.0006248185091011692,-0.008597394548682495
1772639125209446100,6.772446044921875,0.08014554986059665,0.0027952852828253523,0.008325144345406443
1772639125219492000,6.7824921875,0.09795242470800876,0.00955119613368879,-0.004286573011707514
1772639125229537300,6.792537353515625,0.07565700626969336,0.0021976070840435567,-0.008261659788293763
1772639125239582000,6.80258203125,0.08792670525610446,0.015973633821553083,0.006644525181548669
1772639125249628200,6.812628173828125,0.08987140958309173,0.0128570270378259,-0.00025927199069410563
1772639125259673000,6.822673095703125,0.09585749825537204,0.00582030479296227,-0.0017506704590748994
1772639125269718300,6.83271826171875,0.0943605376958847,0.00841145722225774,0.0008834774367976933
1772639125279764200,6.84276416015625,0.08388590543270111,0.0005705664295703172,0.008414037338411435
1772639125289809200,6.85280908203125,0.08568214119970798,0.003716094488749513,0.00020893917609937488
1772639125299855400,6.86285546875,0.08463467797338962,0.00036891436913865614,-0.0038241248654201625
1772639125309900300,6.872900390625,0.08583236332535743,0.00349545574170188,0.00026710823727771636
1772639125319945200,6.8829453125,0.09825169991552829,0.001584934528818121,-0.0015889040261041372
1772639125329991200,6.8929912109375,0.09944821622371673,0.004903761911846232,-0.0028162538639735428
1772639125340036000,6.9030361328125,0.09810089326798915,-0.0019398146643827203,0.0021915186949074267
1772639125350081300,6.913081298828125,0.082239307269454,0.005840225344628561,0.005446017845673486
1772639125360127200,6.923127197265625,0.08657821325659751,0.009272755934932502,-0.006553705092938617
1772639125370172200,6.933172119140625,0.1018418333619833,0.006139556492719566,0.002883757009077817
1772639125380218400,6.94321826171875,0.08867372423112392,-0.00004742961309966631,-0.0026303028378169982
1772639125390263000,6.953262939453125,0.09211480459570884,-0.0005324480675102677,0.00706325291711837
1772639125400308200,6.96330810546875,0.09600479777157306,0.0015371281730942427,0.01029939442728646
1772639125410354200,6.973354248046875,0.08597907831966876,0.0042081169310375114,0.007864933821978047
1772639125420399000,6.983399169921875,0.08508066817522049,0.006448169209097978,-0.004778795241750776
1772639125430444300,6.9934443359375,0.0823871913075447,0.018222745047259375,0.0025531276820693165
1772639125440490200,7.003490234375,0.07804711627662181,0.004357609545969171,0.0006733144179917872
1772639125450535400,7.013535400390625,0.08463058632016182,0.006480988058244111,-0.00354148113229312
1772639125460580000,7.023580078125,0.09630231941342353,0.010966751745238434,-0.0020864052194636312
1772639125470626000,7.0336259765625,0.08133855903744697,0.005277250849758275,0.0015370003089308737
1772639125480671200,7.043671142578125,0.09480594337582587,0.0049051330266695,-0.0017696674204897135
1772639125490716200,7.053716064453125,0.0934586204200983,0.005535410308066639,-0.004194264218909666
1772639125500762000,7.06376220703125,0.09959376217424869,-0.0012691922436875757,0.0016188242403324692
1772639125510807300,7.073807373046875,0.0957025999546051,0.0021099082509928846,0.010996701642218977
1772639125520853200,7.083853271484375,0.10064005635678767,0.00423395576683688,0.0053457084095105524
1772639125530898200,7.093898193359375,0.0940554172694683,0.0189528619781835,-0.0016040650626178829
1772639125540943000,7.103943115234375,0.08672317468523978,0.013744489954930031,0.014256132696429266
1772639125550989000,7.113989013671875,0.08328092527687549,0.008158794210507766,0.0019184830403421074
1772639125561034200,7.1240341796875,0.08657295255959034,0.000499187402013922,0.0023886304358951746
1772639125571079200,7.1340791015625,0.08657295255959034,0.004013189726448036,-0.005104437866387888
1772639125581125400,7.14412548828125,0.0885176568865776,0.006891745974845253,0.0014395678164437413
1772639125591170000,7.154170166015625,0.10198445670306681,0.005479590750890202,-0.0005858096644748002
1772639125601215200,7.16421533203125,0.08372866904437541,-0.012039488693419843,0.001796208367543295
1772639125611261200,7.17426123046875,0.08717033393085002,0.01700908694966929,0.007455969428597018
1772639125621306000,7.18430615234375,0.0855243202894926,0.015508638666797196,0.01297409352925606
1772639125631352000,7.19435205078125,0.09195756820738316,0.0023307325152418343,0.00014333572713658212
1772639125641397200,7.204397216796875,0.09554828617572785,0.006794142806532909,-0.007547355772787705
1772639125651442200,7.214442138671875,0.08537292912006378,0.006193697261929628,0.0065017831094563005
1772639125661488400,7.22448828125,0.0865700299501419,0.002289458077470772,-0.0020226375345606356
1772639125671533000,7.234532958984375,0.08552256672382354,0.009309704111568862,0.0014180592375341802
1772639125681578200,7.244578125,0.08597147953510284,0.007228919777894043,0.003543691355688497
1772639125691624200,7.254624267578125,0.09315466903746128,0.005678234578549745,-0.01276852448717691
1772639125701669000,7.264669189453125,0.09614683659076691,0.006734467916502035,0.004564193509845063
1772639125711714300,7.27471435546875,0.09764321262836456,0.005892927071178565,-0.0049334195478819304
1772639125721760300,7.28476025390625,0.08926350681781768,-0.006419831313891336,-0.003391688264906406
1772639125731805200,7.29480517578125,0.08507365391254425,-0.012655156923329922,0.005139755774941295
1772639125741851100,7.30485107421875,0.09495032028257847,-0.006385874245362356,0.00023444807669147847
1772639125751896000,7.31489599609375,0.09150865539610385,0.009251978008385049,-0.0027548607992473988
1772639125761941200,7.324941162109375,0.09195756820738316,0.003518157909743604,-0.0067634479866363105
1772639125771987200,7.3349873046875,0.08971358867287635,-0.0007603807800915091,0.013910506729688495
1772639125782032100,7.3450322265625,0.08357786239683627,0.008190095243536052,-0.011121195671567692
1772639125792077000,7.3550771484375,0.08776713078022003,0.003422081119881477,-0.00329416444087401
1772639125802123000,7.365123046875,0.0927051717042923,0.010739059919607824,0.0054053570417221634
1772639125812168200,7.375168212890625,0.08193067971169948,0.006358614633211982,-0.006611024770746007
1772639125822213000,7.385213134765625,0.09345335972309111,0.009994857381115434,-0.014069487550528718
1772639125832259000,7.395259033203125,0.0983908161252737,0.0013009836129494942,-0.006606723054964095
1772639125842304300,7.40530419921875,0.09809212543964385,0.0007263769041455816,0.008111264132708311
1772639125852350200,7.41535009765625,0.08507365391254425,0.011897694186109583,0.004686376851098612
1772639125862395400,7.4253955078125,0.08686930515766143,0.007122814784361981,-0.018212514772545544
1772639125872440000,7.435440185546875,0.09390168801248074,-0.0016954422736540436,0.001036019383696839
1772639125882486000,7.445486083984375,0.09435001630187034,0.011622004208510043,0.0008083481076639145
1772639125892531200,7.45553125,0.0840256061643362,0.000289711653086124,0.01488871324523352
1772639125902576000,7.465576171875,0.0983908161252737,0.005603912962769391,0.004697738495329395
1772639125912622300,7.475622314453125,0.09120821114480494,0.004382866143167484,-0.008254736857162787
1772639125922667300,7.485667236328125,0.09435118534564971,0.003972649365972029,-0.006730422499869018
1772639125932712200,7.495712158203125,0.09958791695535182,-0.0005378531825233949,-0.006205448777694255
1772639125942758100,7.505758056640625,0.07639350385069847,-0.0018657607641944195,0.0031836898037232455
1772639125952803000,7.515802978515625,0.08746668652892112,-0.0008095268554199719,-0.003227108820341527
1772639125962849000,7.52584912109375,0.09420037869811057,0.0011547064392332686,-0.007304578259168192
1772639125972894200,7.535894287109375,0.10407587602436542,0.003194273988174973,-0.005871421917201951
1772639125982939100,7.545939208984375,0.09584580781757832,-0.001604287683259463,-0.0006326992798130959
1772639125992985300,7.5559853515625,0.09779109666645526,-0.011489369113545398,-0.005538646298879757
1772639126003030000,7.566030029296875,0.09120762662291526,0.000735906780071673,-0.002655272882292047
1772639126013075200,7.5760751953125,0.09479892911314963,0.012840658141626044,-0.00028252500211820003
1772639126023121200,7.58612109375,0.0840256061643362,-0.00019906109865696633,-0.007252528411522507
1772639126033166000,7.596166015625,0.08896364708840847,0.002405657490043086,-0.010350330030079931
1772639126043211300,7.606211181640625,0.08357610883116721,0.012634928127698366,0.014820917839184402
1772639126053257200,7.61625732421875,0.086269585698843,-0.004101392595464131,0.004668521533999592
1772639126063302400,7.626302490234375,0.09300327786803245,-0.00567291851179325,-0.0005952442131005227
1772639126073348400,7.636348388671875,0.08791501481831074,0.004923090520934784,0.0032869309824891386
1772639126083393000,7.64639306640625,0.09659399583637714,0.013058865186281035,-0.00883260067719966
1772639126093438200,7.656438232421875,0.09734218385517597,0.006178918105439515,-0.012724530081823468
1772639126103484200,7.666484130859375,0.08821429002583027,-0.0036858951424859694,0.004773881604615599
1772639126113529000,7.676529052734375,0.09195639916360378,0.0033910552231332983,-0.010853566844481974
1772639126123574300,7.68657421875,0.09479951363503933,0.0014461214256385573,0.0042367607869207855
1772639126133620200,7.6966201171875,0.09210662128925323,-0.011399682677740929,-0.0019684687950648366
1772639126143665200,7.7066650390625,0.09764321262836456,-0.009856977572164033,-0.0073612677493132645
1772639126153710000,7.7167099609375,0.0879161838620901,-0.006732541391719133,-0.0061746243811678135
1772639126163756000,7.726756103515625,0.08986205723285674,-0.009803905952855711,-0.012099201257713138
1772639126173801200,7.73680126953125,0.09061082977354526,0.010980549658439122,-0.002945588465221226
1772639126183846100,7.74684619140625,0.09734335289895533,0.00529891297982831,-0.005446529302326962
1772639126193892400,7.756892333984375,0.09599661446511745,0.006950558923417702,0.00024924378702417013
1772639126203937300,7.766937255859375,0.09779285023212432,0.0009739373366261133,0.009854162277281284
1772639126213983200,7.776983154296875,0.09405191013813018,-0.003825757416791748,0.0013374226162210106
1772639126224028200,7.787028076171875,0.09450082294940948,0.004163228047362645,-0.001045645728567615
1772639126234073000,7.797072998046875,0.08268003677427768,-0.005928719903767341,-0.0067081010702066115
1772639126244119000,7.807119140625,0.09899053558409214,0.0011093820182519266,0.009463007535226643
1772639126254164200,7.817164306640625,0.09360358184874057,0.003408135363741894,0.008127996071800588
1772639126264209200,7.827209228515625,0.09225684341490269,0.0027168845719046657,-0.0069603587982244785
1772639126274255400,7.83725537109375,0.07879062812030314,0.004000445550950826,-0.0011885247979778796
1772639126284300000,7.847300048828125,0.07849076839089393,-0.004349283533974084,0.0014789408456068484
1772639126294345200,7.85734521484375,0.08746902461647987,0.004856119952903828,0.003432833126047626
1772639126304391200,7.86739111328125,0.08642156139016151,0.004069021270889789,0.007005357850575819
1772639126314436000,7.87743603515625,0.09300620047748089,-0.006492678496037843,0.0008908570256549865
1772639126324482300,7.887482421875,0.08986322627663612,-0.002419619800025248,-0.0049601340248715126
1772639126334527200,7.89752734375,0.09988894572854042,0.0021906653157813707,-0.006364192136516794
1772639126344572200,7.907572265625,0.09495032028257847,0.010277031898428685,-0.00011034677298739552
1772639126354618000,7.9176181640625,0.08462591014504432,0.012432100173621438,0.0017418295654933898
1772639126364663000,7.9276630859375,0.09824351660907268,-0.004282841547261341,-0.004667681283783167
1772639126374708200,7.937708251953125,0.08926467586159706,0.004196726745698834,-0.006033160950709134
1772639126384754200,7.947754150390625,0.09105974258482456,-0.010805336938716936,-0.005991184972506016
1772639126394799400,7.95779931640625,0.08971241962909698,0.0026417712257913077,0.00006134739895351231
1772639126404844300,7.96784423828125,0.09839140064716338,-0.002774811033665901,0.006785504554817453
1772639126414890200,7.97789013671875,0.08881459400653839,-0.006840458745602518,-0.0030390571686439213
1772639126424935200,7.98793505859375,0.09255553410053252,0.002403610521784867,-0.0051829373295418915
1772639126434980000,7.99797998046875,0.08237959252297877,-0.0020656672504672314,0.007768679506424814
1772639126445026000,8.008026123046875,0.0880646524220705,0.010945905320032033,0.006639620677568018
1772639126455071200,8.0180712890625,0.09030980100035667,0.002228136365514365,-0.0031836258716415613
1772639126465117200,8.0281171875,0.09255378053486346,-0.00819641766975692,-0.005352129017142579
1772639126475162400,8.038162353515625,0.0880646524220705,0.0018668321973847922,-0.010598395640170202
1772639126485207000,8.04820703125,0.0971925462514162,0.0007027682705171173,-0.006423493708856404
1772639126495253000,8.0582529296875,0.08118132264912128,0.008180529405814013,0.0022853253250475973
1772639126505298200,8.068298095703126,0.08866320283710956,0.005271950195200043,0.002144400750705972
1772639126515343000,8.078343017578124,0.1003337668865919,-0.004759233737221803,-0.008046674463897943
1772639126525389300,8.088389404296874,0.0977893431007862,0.008913960530186886,0.0050409533092752095
1772639126535434200,8.098434326171875,0.08551789054870605,0.01026284240122768,0.01210390483229421
1772639126545479400,8.1084794921875,0.09105389736592769,0.009088545345535385,-0.002915028930176049
1772639126555525000,8.118525146484375,0.08776187008321285,0.010444867312582208,0.005449031786667183
1772639126565570000,8.128570068359375,0.09255027340352534,-0.00007693483961920719,-0.012936291402671486
1772639126575616000,8.138615966796875,0.09943418769836425,0.0015377680647332454,0.0031134193127974868
1772639126585661200,8.1486611328125,0.10317512779235839,0.0003389205188519554,0.006406761769764125
1772639126595706000,8.1587060546875,0.09479542198181151,-0.0032702344343706496,-0.0014743286025710404
1772639126605752300,8.16875244140625,0.08866086474955082,-0.010672675585933029,-0.00622772454158403
1772639126615797200,8.17879736328125,0.10138006106913089,-0.0030791026263090313,-0.0005303714164998382
1772639126625842200,8.18884228515625,0.09464636889994144,0.002592271240724949,-0.007019340710155666
1772639126635888000,8.19888818359375,0.09614157589375973,0.01702158338834997,-0.0020119426106102764
1772639126645933000,8.20893310546875,0.09344868354797363,0.002134341151817352,0.004422556549450382
1772639126655978200,8.218978271484374,0.0924000512778759,0.005016778420066112,0.0020896200898569074
1772639126666024200,8.229024169921875,0.08671499137878418,0.002500890604755841,-0.010364623416913672
1772639126676068900,8.23906884765625,0.08896013995707035,-0.014245640985167118,-0.015254039426287636
1772639126686114800,8.24911474609375,0.09763853645324706,0.004991111972558428,0.001931077660433948
1772639126696159700,8.25915966796875,0.09659107322692871,-0.0022957765079365342,-0.011263307555997743
1772639126706205000,8.269204833984375,0.09195230751037597,0.0023228220617776967,-0.003621697628498077
1772639126716251000,8.2792509765625,0.09554361000061035,0.006540515105336089,-0.0027366858217399564
1772639126726295800,8.2892958984375,0.09539397239685057,-0.006364287463817163,-0.011700666926801204
1772639126736340700,8.2993408203125,0.08207681018412112,-0.0011326755580492317,-0.0007153451951220631
1772639126746386700,8.30938671875,0.08117898456156253,-0.003451513851986965,-0.00488659386462532
1772639126756432000,8.319431884765624,0.08686521350443363,0.006593166599536198,-0.00936412287116982
1772639126766476800,8.329476806640624,0.09075637572407722,0.007221995134296594,-0.011872169302497059
1772639126776522800,8.339522705078124,0.08866086474955082,0.00022059936031873801,-0.005177229107962921
1772639126786567700,8.349567626953124,0.09389759635925292,-0.0007041633598710177,-0.0010262195088900626
1772639126796613600,8.359613525390625,0.08806114529073238,0.006006013790523866,0.002073764933599159
1772639126806658800,8.369658935546875,0.0892582461208105,0.01366856033313088,0.00013454963248223065
1772639126816703700,8.379703857421875,0.07848433865010739,-0.0038385769408138,-0.0033310897846240547
1772639126826749700,8.389749755859375,0.0891097775608301,0.004595510525893769,-0.0027585597268305717
1772639126836795000,8.399794921875,0.09644260466694832,0.006145209915371378,0.008998705358570442
1772639126846839800,8.40983984375,0.09030746291279793,0.00498001518980891,0.002659675062773749
1772639126856886000,8.419885986328126,0.0822264477878809,0.0057791102702933125,0.003374572733324021
1772639126866930700,8.4299306640625,0.08327274197041988,-0.0017791716094186995,-0.007515380598790943
1772639126876975900,8.439975830078126,0.08626607856750487,0.005849933887890074,0.01376542657003738
1772639126887021800,8.450021728515624,0.08312310436666011,0.005161354543751804,0.009093251774227247
1772639126897066800,8.460066650390624,0.09868599967956543,-0.002972888034922653,0.0073298496977426105
1772639126907112000,8.47011181640625,0.08462006492614746,-0.003465136522785178,-0.007341074344655498
1772639126917158000,8.480157958984375,0.08865969570577144,-0.004558736450015567,-0.007082834400422871
1772639126927202800,8.490202880859375,0.0935977366298437,-0.008193719393416541,-0.011753876685071735
1772639126937248800,8.500248779296875,0.07788578823506832,-0.003718252196506364,-0.004852143605751916
1772639126947293700,8.510293701171875,0.08910860851705074,0.0015122648723627206,-0.006036859878292307
1772639126957339000,8.5203388671875,0.08267360703349114,-0.0024198447039554595,-0.002255048917792737
1772639126967384800,8.530384765625,0.08252338490784168,-0.00414635111944226,0.004994118492864072
1772639126977429800,8.5404296875,0.08880757974386215,-0.004024887014107662,0.007058302747365087
1772639126987475000,8.550474853515626,0.09449322416484356,0.0031351510831707854,-0.0012781301770359277
1772639126997521000,8.56052099609375,0.09374445162415504,0.0022418343848374205,0.0070682122200261795
1772639127007565800,8.57056591796875,0.09389292018413543,-0.0009838194098236272,0.0010975220462772996
1772639127017610800,8.58061083984375,0.09134908092021941,0.0013394667303684399,-0.0015980006480123847
1772639127027656700,8.59065673828125,0.09927928939759731,0.0022760117907193486,0.004142908491007983
1772639127037702000,8.600701904296875,0.09927812035381793,0.009616647743957582,-0.00611205313950777
1772639127047747800,8.610747802734375,0.09478840771913528,0.0009434189007763052,0.004454002000484615
1772639127057793000,8.62079296875,0.08371522504091262,-0.0024897264649916904,-0.008759772903006523
1772639127067837700,8.630837646484375,0.08805296198427677,0.004928492211014964,-0.011801204691827296
1772639127077883600,8.640883544921875,0.040455344507098194,0.007523251665526185,-0.01660049473233521
1772639127087928800,8.6509287109375,0.1300795013308525,0.0009845260876551038,-0.010487893603555858
1772639127097973800,8.660973876953125,0.12843348768949508,-0.00621413612011529,0.009747669695504009
1772639127108019700,8.671019775390626,0.04957154789865017,0.01671874967549811,-0.012716931297257542
1772639127118065000,8.68106494140625,0.13232523443102837,0.01317682330192183,0.015854918795730918
1772639127128109600,8.691109619140626,0.06558803219795227,0.0018936477098963223,-0.01095339222345501
1772639127138155800,8.70115576171875,0.1208072305947542,-0.0065273011432029305,-0.003917173443734646
1772639127148200700,8.71120068359375,0.13188859657943247,-0.003742522983837989,-0.010276598073588683
1772639127158246000,8.721245849609375,0.0790717831492424,0.014258918308559805,0.003160381993371993
1772639127168291800,8.731291748046875,0.06754968765974044,0.007965036620519821,-0.012699596569966524
