time,seconds_elapsed,z,y,x
1772732490070345200,0.07134521484375,-0.26911446253359317,0.32013620924055575,-0.11830445399358867
1772732490080373000,0.081373046875,-0.15211130039691925,0.1809893120959401,-0.16251772626210004
1772732490090400000,0.09139990234375,-0.02200783366858959,0.11043123640045523,-0.22490422247238456
1772732490100428000,0.101427978515625,0.18543255524039268,0.11410963265225291,-0.28734398323986676
1772732490110456000,0.1114560546875,0.5001823952674865,0.08820786028504371,-0.40018882012069223
1772732490120484000,0.121484130859375,0.7316536481052637,0.020311551144719123,-0.5710758403971791
1772732490130511000,0.131510986328125,0.8025304343611002,-0.04960048173218965,-0.6848243115868419
1772732490140539100,0.1415390625,0.6761030257970094,-0.09378931367918848,-0.7605544561579823
1772732490150567200,0.151567138671875,0.5091209040045738,-0.18662410311251879,-0.6917942236647009
1772732490160595200,0.16159521484375,0.4198755173653364,-0.3063661886937916,-0.539714231721498
1772732490170623000,0.171623046875,0.3259977947503328,-0.4223815088368952,-0.555932010746561
1772732490180650000,0.18164990234375,0.08203238652050494,-0.47234220218360423,-0.6448785971023142
1772732490190678000,0.191677978515625,-0.32843992720544335,-0.5174081092260777,-0.6239973563108593
1772732490200706000,0.2017060546875,-0.7279594697624444,-0.571238337482512,-0.48797761474344875
1772732490210734300,0.211734375,-1.1418898149877785,-0.6762127697817981,-0.3248365689512342
1772732490220762400,0.221762451171875,-1.5158569831371307,-0.7771725596122443,-0.16298296915367244
1772732490230789000,0.2317890625,-1.7557804224997757,-0.7936565152928232,-0.04401574040241539
1772732490240817400,0.2418173828125,-1.7898352523148058,-0.8052246418811381,0.07185925795454531
1772732490250845200,0.25184521484375,-1.7223691512852906,-0.8755516852997243,0.13797756110429762
1772732490260873200,0.261873291015625,-1.6539280677437782,-0.915630159318447,0.17343820259664205
1772732490270901200,0.2719013671875,-1.6731477319985628,-0.9447165530711412,0.23125402989052235
1772732490280928300,0.28192822265625,-1.7879577680051326,-0.9602684885986149,0.2512396735491231
1772732490290956300,0.291956298828125,-1.847991673207283,-0.9498485091321169,0.1321938631363213
1772732490300984300,0.301984375,-1.875436729493737,-0.883489784822613,-0.04697776854578405
1772732490311012400,0.312012451171875,-1.7050737330913543,-0.8013359638795257,-0.18505955720953643
1772732490321040400,0.322040283203125,-1.3083236552476882,-0.6706326315619051,-0.2644702169243246
1772732490331067400,0.3320673828125,-0.8927665856033563,-0.6292306538544595,-0.37477099534552544
1772732490341095200,0.34209521484375,-0.6876122618049383,-0.555830486600846,-0.4920537781411782
1772732490351123500,0.35212353515625,-0.7147311548769474,-0.4445608996801078,-0.6001436390472575
1772732490361151200,0.362151123046875,-0.7805787147939205,-0.3958259487360716,-0.6570059650085867
1772732490371178500,0.372178466796875,-0.7329629771381616,-0.30892566391825677,-0.6658955931026488
1772732490381206300,0.382206298828125,-0.5706044234931469,-0.2207189726769924,-0.6966830186195672
1772732490391234300,0.392234375,-0.2823158894121647,-0.17401406625583768,-0.7122470829762518
1772732490401262300,0.402262451171875,0.11601239753365516,-0.0639478637754917,-0.6903706206023693
1772732490411290000,0.4122900390625,0.5895388410657644,0.032300679624080654,-0.6855170430913567
1772732490421317400,0.4223173828125,0.9710440035045146,0.04283931703418493,-0.7251262921631336
1772732490431345200,0.43234521484375,1.220765783303976,0.001921761842817068,-0.7161180791907013
1772732490441373400,0.44237353515625,1.364949213311076,0.011262860031425952,-0.703816450696066
1772732490451401200,0.452401123046875,1.4435177231132983,-0.008075754427909851,-0.5454689593233167
1772732490461429200,0.46242919921875,1.3756126461446285,-0.15294716669917105,-0.18683538950933143
1772732490471456300,0.472456298828125,1.2530448356181383,-0.38504897252544756,0.08019385511488654
1772732490481484300,0.482484375,1.2452245172560215,-0.5201720209814608,0.2678931953766383
1772732490491512300,0.49251220703125,1.3323019122064113,-0.5129816710859537,0.3212741272293031
1772732490501540000,0.5025400390625,1.2883651553243398,-0.5678834740966558,0.34226357763558624
1772732490511568400,0.512568359375,1.0921522628724574,-0.7218390871860086,0.3342140901600942
1772732490521595100,0.52259521484375,0.9375766181886196,-0.7019383087992668,0.3185995011925697
1772732490531623400,0.53262353515625,1.0046440752893686,-0.5915474044092,0.18540219663474708
1772732490541651200,0.542651123046875,1.0574147114902734,-0.5687715089775621,-0.023537463521817698
1772732490551679500,0.552679443359375,1.1142477748245,-0.5675622793182731,-0.17241357225663959
1772732490561707300,0.562707275390625,1.138366317036748,-0.5845275887750089,-0.1831982568496838
1772732490571734300,0.572734375,1.1416133361339569,-0.5824823466829955,-0.148499247379601
1772732490581762300,0.58276220703125,1.1114923386365174,-0.5431782180376351,-0.10280254988661035
1772732490591790000,0.5927900390625,0.9768237559497356,-0.36774800137355923,0.01925726545196958
1772732490601818400,0.602818359375,0.9179407743483782,-0.4433637988500297,-0.038231279816036114
1772732490611846100,0.61284619140625,0.867783535516262,-0.6295284677572548,-0.16859971305690705
1772732490621873400,0.622873291015625,0.8115326559841632,-0.6789207135662436,-0.15295903980005532
1772732490631901200,0.632901123046875,0.7862713734775781,-0.7559715122818946,-0.18906762380711734
1772732490641929500,0.642929443359375,0.824457604008913,-0.7934510558485984,-0.3148142105001956
1772732490651957200,0.652957275390625,0.919955036780238,-0.7755185087949037,-0.39017194156236945
1772732490661985300,0.6629853515625,0.9558142856687307,-0.7795756752312183,-0.5727205753969028
1772732490672013300,0.673013427734375,0.991802713894844,-0.796082427265495,-0.6809891173381358
1772732490682040300,0.683040283203125,1.1590887870699167,-0.7763859392791986,-0.6618115386594087
1772732490692068400,0.693068359375,1.2689578595429658,-0.8112896410085261,-0.6065083152409643
1772732490702096100,0.70309619140625,1.2046493457615375,-1.0061584253750742,-0.5903180818099528
1772732490712124400,0.71312451171875,1.0987041687339543,-1.0981376208923757,-0.6093372550565749
1772732490722152200,0.723152099609375,0.9456956272363662,-1.1828927103750406,-0.6055027183949947
1772732490732179200,0.73317919921875,0.7503548414438963,-1.28572574673146,-0.6008956629909574
1772732490742207200,0.743207275390625,0.5164133991003036,-1.3540427655018865,-0.6119613930150866
1772732490752235300,0.7532353515625,0.3383130864441395,-1.3984025701016187,-0.6911475963242352
1772732490762263300,0.76326318359375,0.28877719438076016,-1.3681499090485274,-0.7304350660957396
1772732490772291000,0.773291015625,0.26604338452517984,-1.271439739486575,-0.7508076267126947
1772732490782318300,0.783318359375,0.17099954074025153,-1.155632216875255,-0.6653796794697642
1772732490792346000,0.79334619140625,-0.04632511332333088,-1.0029662052050232,-0.48404692423101514
1772732490802374400,0.80337451171875,-0.25167349838912484,-0.8066806859083473,-0.3052585562454536
1772732490812402200,0.813402099609375,-0.3420581181913614,-0.6821579419218003,-0.24948389765666795
1772732490822430500,0.823430419921875,-0.297888137075305,-0.7428316063322127,-0.23257928714491424
1772732490832457200,0.833457275390625,-0.218740950602293,-0.8887012358605861,-0.25054135255403814
1772732490842485200,0.8434853515625,-0.18977321479320525,-1.0413406517848371,-0.3029133082935586
1772732490852513300,0.85351318359375,-0.087658994230628,-1.0409681652106344,-0.28567462525554
1772732490862541300,0.863541259765625,-0.0020510873109102247,-1.024464335785806,-0.11644900798578746
1772732490872569300,0.8735693359375,-0.06461071159839629,-1.2283179522491992,0.11368427424649707
1772732490882597000,0.88359716796875,-0.19938217013776302,-1.4517293788805603,0.19501206529475748
1772732490892624400,0.893624267578125,-0.21310031436681745,-1.5605675008706748,0.22553921417398376
1772732490902652200,0.903652099609375,-0.09484218373298645,-1.648411642409861,0.39879678124040363
1772732490912680400,0.913680419921875,0.021098317608237264,-1.7909223168991506,0.4856077072743326
1772732490922708200,0.923708251953125,-0.13595102371275425,-1.8701019443370401,0.3357317281814292
1772732490932736500,0.933736572265625,-0.3333738764762878,-1.805208470274508,0.06079306213953532
1772732490942763300,0.94376318359375,-0.3756149353563785,-1.5233808027707039,-0.07540604544961825
1772732490952791300,0.953791259765625,-0.29507950939536093,-1.225481559779495,-0.22240071521885693
1772732490962819300,0.9638193359375,-0.1798895341604948,-0.9670708620898425,-0.3975067048972472
1772732490972847000,0.97384716796875,-0.13707915095984935,-0.8101236659690737,-0.465356288819015
1772732490982875400,0.98387548828125,-0.06625906332731246,-0.7924396868489683,-0.5186977106451988
1772732490992903200,0.993903076171875,0.009609539866447449,-0.9011666035495698,-0.7306408908661455
1772732491002930400,1.003930419921875,-0.037924364724755286,-1.0469355491824448,-1.0117468930318951
1772732491012958200,1.013958251953125,-0.26324878537058827,-1.1185763055481015,-1.128497760907933
1772732491022986200,1.023986328125,-0.5462140786021947,-1.10558004585281,-1.1121674614191055
1772732491033014300,1.03401416015625,-0.9391232631087303,-0.8201255661539733,-0.7352462657697498
1772732491043042300,1.044042236328125,-1.492978211852908,-0.6521747454598545,-0.3007521482042968
1772732491053069300,1.0540693359375,-2.1404063473075627,-0.742577339310199,-0.008070000540558248
1772732491063097300,1.064097412109375,-2.9441286218017337,-0.7430820739619434,0.2532042150877416
1772732491073125400,1.07412548828125,-3.7405788594663143,-0.5704883958980441,0.514795405977033
1772732491083153200,1.084153076171875,-4.306245826557278,-0.3538737897999584,0.6231242998033761
1772732491093181400,1.094181396484375,-4.540454979926348,-0.07958119397610426,0.646825931777805
1772732491103208200,1.104208251953125,-4.33764984960258,0.2042149971216917,0.5016393160775303
1772732491113236200,1.114236328125,-3.907185718205571,0.4767195404849946,0.1636205729374662
1772732491123264300,1.12426416015625,-3.5238194380700585,0.7496817644879221,-0.2831566876178607
1772732491133292300,1.134292236328125,-3.086609339544177,1.0448198722027242,-0.5575025479989126
1772732491143320300,1.1443203125,-2.475379475674033,1.263947922426462,-0.5681166252654045
1772732491153348000,1.15434814453125,-1.8261960209846495,1.2978624669879675,-0.49892242180164903
1772732491163375400,1.164375244140625,-1.1080483356624842,1.2746947957597672,-0.2844306713427417
1772732491173403100,1.174403076171875,-0.36864275825619697,1.2948251451186834,-0.07577321652788668
1772732491183431400,1.184431396484375,0.29186639256775376,1.296275051666051,0.11361079801833257
1772732491193459200,1.194459228515625,0.934450010600686,1.2852546220883727,0.30868301426880057
1772732491203487500,1.204487548828125,1.607495402392745,1.321162970815599,0.5591603616759181
1772732491213515300,1.214515380859375,2.3335411474883556,1.2585294045090674,0.8741139075815677
1772732491223542300,1.224542236328125,2.85043794619143,0.9815630594313144,1.0560421810280531
1772732491233570300,1.2345703125,3.0703111156940457,0.73683572691828,1.206122121727839
1772732491243598300,1.244598388671875,3.1606904747992752,0.6538353721484541,1.457374252899736
1772732491253626400,1.25462646484375,3.1896254773825405,0.5874272557392716,1.6379695972420274
1772732491263654100,1.264654052734375,3.0926807684123516,0.450682451300323,1.662202413483709
1772732491273681400,1.274681396484375,2.7674294081151483,0.35940994274765253,1.7239453145608306
1772732491283709200,1.284709228515625,2.3238450983822343,0.2693228445872664,1.8865521438784896
1772732491293737200,1.2947373046875,1.8571967239260672,0.1942345781162381,2.0209384024925527
1772732491303765200,1.30476513671875,1.3420260183632373,0.16808453007638455,2.022997088588029
1772732491313793300,1.314793212890625,0.8791571624457836,0.23869214400202035,1.818548428840935
1772732491323821300,1.3248212890625,0.48756782836616036,0.38382980599403377,1.546202875431627
1772732491333848300,1.334848388671875,0.16618892558813095,0.5464113547399639,1.1797261361029
1772732491343876400,1.34487646484375,-0.019680267503857613,0.6929173824757338,0.7790968787383288
1772732491353904000,1.354904052734375,-0.013019056048989295,0.823198836119473,0.4385755416601896
1772732491363932400,1.364932373046875,0.10938450382649897,0.8935834549441933,0.24808699993817135
1772732491373960200,1.374960205078125,0.3565098373919725,0.8592226279199123,0.08587251267265528
1772732491383988500,1.384988525390625,0.6999830830782652,0.7843757689893245,-0.0196747876111418
1772732491394015200,1.39501513671875,1.1426683981448411,0.6414698115721345,-0.06653729574680328
1772732491404043300,1.405043212890625,1.5935434494078158,0.44885202100276944,-0.09692870768345892
1772732491414071300,1.4150712890625,1.8930530502051115,0.22389847949594258,-0.12790423965100198
1772732491424099300,1.425099365234375,1.9328262576669453,0.03369827146232128,-0.10679795793201774
1772732491434127400,1.43512744140625,1.8054361415505409,-0.045803135275840755,-0.12069796153400092
1772732491444155100,1.445155029296875,1.5917805313885212,-0.08959756107777357,-0.14286339691709726
1772732491454182400,1.455182373046875,1.3213216685086488,-0.19257745855897665,-0.16012593575473874
1772732491464210200,1.465210205078125,1.08086456066072,-0.2991580108806491,-0.1747251371346414
1772732491474238500,1.475238525390625,0.9299848478853702,-0.31867548903822895,-0.1782105680976063
1772732491484266200,1.485266357421875,0.9386533075094222,-0.2192310722067952,-0.09982121425457298
1772732491494294300,1.495294189453125,1.0686509757757185,-0.16930647308677435,-0.03951143298679963
1772732491504321300,1.5053212890625,1.1296984419345855,-0.2656508780762553,-0.07042076785033569
1772732491514349300,1.515349365234375,1.1145791987359523,-0.3815641991496086,-0.03388051442774012
1772732491524377300,1.52537744140625,1.0549006828427314,-0.466044563344121,0.016702000611741093
1772732491534405000,1.535405029296875,0.9347942939937114,-0.5653732448413967,0.07330328275039792
1772732491544433400,1.545433349609375,0.7603004813969135,-0.6783958129093051,0.13898819945156574
1772732491554461200,1.555461181640625,0.7530658539682626,-0.7297051443859934,0.24107551374090835
1772732491564488200,1.56548828125,0.8177595676749945,-0.7843307608038187,0.3319093568816781
1772732491574516200,1.57551611328125,0.8975561579674481,-0.8841726525202394,0.3435143814142793
1772732491584544300,1.585544189453125,0.9620084641337394,-0.9872551335930824,0.4285593206889927
1772732491594572300,1.595572265625,0.935417978850007,-1.1000985457018018,0.49465000517945734
1772732491604600000,1.60560009765625,0.8316016305446624,-1.2017653147578238,0.536447448477894
1772732491614628400,1.61562841796875,0.8046779677838086,-1.2542936666354536,0.5310747424636035
1772732491624655400,1.6256552734375,0.8401011633425951,-1.2493401358813048,0.4985126354243606
1772732491634683400,1.635683349609375,0.8986901304334401,-1.2513242954358457,0.49740843704212456
1772732491644711200,1.645711181640625,0.9244763135969638,-1.2964091994397342,0.506361924152635
1772732491654739500,1.655739501953125,0.844237824755907,-1.4129104034036397,0.5783263229820877
1772732491664767200,1.665767333984375,0.7340367438495159,-1.4994446313880383,0.6717284639745951
1772732491674795300,1.675795166015625,0.7227572249442339,-1.4999047962456942,0.7556159768424928
1772732491684822300,1.685822265625,0.7183242109328508,-1.4583692552864551,0.7485567059807479
1772732491694850300,1.695850341796875,0.6791068837881088,-1.4880183974884449,0.7265661157079041
1772732491704878300,1.70587841796875,0.5777233155876398,-1.5655600484609602,0.7040314086209982
1772732491714906000,1.715906005859375,0.48292730908393855,-1.6465066855713724,0.7122155918594449
1772732491724934400,1.725934326171875,0.3201426389813423,-1.6836814009726047,0.7916125153098255
1772732491734962200,1.735962158203125,0.10102642532587051,-1.721660856885463,0.8533939948316663
1772732491744989400,1.745989501953125,-0.16064181285500526,-1.7132079397082327,0.8812981199972331
1772732491755017200,1.756017333984375,-0.3594529051065445,-1.6450450885862111,0.870552634903416
1772732491765045200,1.766045166015625,-0.5086351663142442,-1.542307475428283,0.798674416520074
1772732491775073300,1.7760732421875,-0.690930592572689,-1.4606874691009522,0.7106413282800466
1772732491785101000,1.78610107421875,-0.9427619118720293,-1.4245299679182468,0.5704501827795058
1772732491795128300,1.79612841796875,-1.165309853541851,-1.3787461218647659,0.4412001910753548
1772732491805156400,1.80615625,-1.2931482979476452,-1.3603759140461682,0.261713721290417
1772732491815184400,1.816184326171875,-1.1497352677911519,-1.3888321932017802,0.09702950117681175
1772732491825212200,1.826212158203125,-0.5593588068574666,-1.457372499334067,-0.010088555555045604
1772732491835240400,1.836240478515625,0.17076865459382534,-1.5306553238183258,-0.10263177816327661
1772732491845268200,1.846268310546875,0.736830173960328,-1.5645754213377832,0.05365004938393831
1772732491855295200,1.856295166015625,1.0319669665008784,-1.6572189259827137,0.34936208452917633
1772732491865323300,1.8663232421875,0.8940437659323215,-1.6831703827105462,0.6704608551915735
1772732491875351300,1.876351318359375,0.1481178468465805,-1.63300408378914,0.8114997766278683
1772732491885379300,1.88637939453125,-1.1628683056086302,-1.388275874493271,0.833458437392488
1772732491895407000,1.896406982421875,-2.4392887561172247,-0.8607759948417544,0.6850507407538592
1772732491905435400,1.906435302734375,-3.467522965830564,-0.40810909172594545,0.4255145461656153
1772732491915462100,1.916462158203125,-3.8578871420294045,-0.13072408284470438,0.2058643717639148
1772732491925490400,1.926490478515625,-3.7242981712728738,0.15182254658341407,0.057022229230776426
1772732491935518200,1.936518310546875,-3.2345126668572424,0.3423131158657372,-0.12295319311488419
1772732491945546500,1.94654638671875,-2.7256676571846006,0.36474253594726325,-0.46766876701246946
1772732491955574300,1.95657421875,-2.4474200401246544,0.37998102161139247,-0.7137411939915269
1772732491965602300,1.966602294921875,-2.3750755194038153,0.40999154447168107,-0.8785607309225946
1772732491975630300,1.97663037109375,-2.3819214397758244,0.4423635357663035,-1.0710830252282322
1772732491985657000,1.986656982421875,-2.289490408837795,0.513590012242645,-1.1918847028650343
1772732491995685400,1.996685302734375,-2.0133459015369413,0.5990127718538045,-1.2842062820792197
1772732492005713200,2.006713134765625,-1.5251374371796846,0.6307564021170139,-1.3687588347271085
1772732492015741400,2.016741455078125,-0.829698427271843,0.6108082774572074,-1.4414710197165608
1772732492025769200,2.026769287109375,-0.05505611678957939,0.5213546548947692,-1.4031218537084758
1772732492035796200,2.036796142578125,0.7098106496095657,0.34049130726605653,-1.2765465611062943
1772732492045824300,2.04682421875,1.2999381042182445,0.11574614781290292,-1.1765593426350502
1772732492055852300,2.056852294921875,1.6308090579628944,-0.07068155594468116,-1.117304897372797
1772732492065880300,2.06688037109375,1.7360551468104124,-0.2300906121343374,-1.021548594469577
1772732492075908000,2.076908203125,1.586415204963088,-0.3419906059131026,-0.9365253555700183
1772732492085936400,2.086936279296875,1.1223089162051676,-0.37950668209791183,-0.8555084297023713
1772732492095964200,2.096964111328125,0.5213397495865821,-0.31998890972435473,-0.7198821078993379
1772732492105991400,2.106991455078125,-0.07771335427761078,-0.26515023507773877,-0.6028035789715126
1772732492116019200,2.117019287109375,-0.6390314785093069,-0.1915145055025816,-0.6546098636522889
1772732492126047500,2.127047607421875,-0.9253981046169996,0.06105448042154312,-0.7608872683089226
1772732492136075300,2.1370751953125,-0.9072475308984518,0.4153510256782174,-0.9268791369549929
1772732492146103300,2.147103271484375,-0.6375561452597379,0.6858563580483198,-1.1621326848104596
1772732492156131300,2.15713134765625,-0.22387539088129996,0.8019093798533081,-1.3075592467464505
1772732492166158000,2.167157958984375,0.2340034016638994,0.7860434099406004,-1.383362529619038
1772732492176186400,2.177186279296875,0.6361468629837036,0.7484434548646212,-1.454691443556547
1772732492186214100,2.187214111328125,1.0377408737272023,0.7878960520699619,-1.4159016941741107
1772732492196242400,2.197242431640625,1.39705758523345,0.7730605942487716,-1.3206829322136937
1772732492206269700,2.207269775390625,1.7419208239734172,0.6457441278904676,-1.2339566887885332
1772732492216298000,2.217298095703125,2.12019474940598,0.5491071696951985,-1.174781665438041
1772732492226324700,2.22732470703125,2.486183778283,0.5068967982143163,-1.102880577635765
1772732492236352800,2.237352783203125,2.7959400478065013,0.4395636759147048,-1.0414785989508033
1772732492246380800,2.247380859375,3.0510891133517024,0.3209849350243807,-0.9270935103580356
1772732492256408600,2.25740869140625,3.302611805093288,0.2557169285610318,-0.8080283011250198
1772732492266436900,2.267436767578125,3.4503497127115725,0.20237375316917894,-0.772435886479169
1772732492276464600,2.277464599609375,3.4516397525221105,0.15926058762967585,-0.770147117954865
1772732492286492000,2.287491943359375,3.3064766638278957,0.08136427800059318,-0.7329214760839938
1772732492296519700,2.297519775390625,3.0549779374837875,-0.01473901170939207,-0.6591218611840158
1772732492306548000,2.3075478515625,2.7186498873770235,-0.04913257195949554,-0.6140834997355937
1772732492316575700,2.31757568359375,2.3254081099152564,-0.06334025327116251,-0.5910395279522985
1772732492326603800,2.327603759765625,1.9389947171688078,-0.09067483492046594,-0.5677114785306155
1772732492336631800,2.3376318359375,1.5806553262621164,-0.12588292642384766,-0.5026647866677493
1772732492346658800,2.347658935546875,1.3448714709222316,-0.17469956430196762,-0.4203279373079538
1772732492356686800,2.357686767578125,1.3039578612536191,-0.21588176177889107,-0.3843692466329783
1772732492366714600,2.367714599609375,1.339904203903675,-0.23489275171905755,-0.46678708880711345
1772732492376743000,2.377742919921875,1.3479092311829328,-0.23186551285237073,-0.5903809179130941
1772732492386770700,2.387770751953125,1.2825783886164426,-0.21240502557903526,-0.6436608188103884
1772732492396799000,2.397799072265625,1.1062269654542207,-0.2299973808929324,-0.6943731342419982
1772732492406825700,2.40782568359375,0.8353285421133041,-0.3056406508982181,-0.6900598741527646
1772732492416853800,2.417853759765625,0.4235609278798103,-0.33627076696157454,-0.5758600789990276
1772732492426881800,2.4278818359375,-0.11517594670951366,-0.3543482754439115,-0.4423653623972088
1772732492436909600,2.43790966796875,-0.5824105966210364,-0.3294762845158577,-0.35525362678579986
1772732492446937900,2.447937744140625,-0.9720365216732024,-0.31274580672830343,-0.24261972924191502
1772732492456965600,2.457965576171875,-1.2551485298991203,-0.3318678558275103,-0.10716796028818934
1772732492466993000,2.467992919921875,-1.3846861794382332,-0.3067687781453132,0.04929459412079304
1772732492477020700,2.478020751953125,-1.5175643715769052,-0.3015127573132515,0.14090415260810404
1772732492487049000,2.488049072265625,-1.8048849374085663,-0.2771355641648173,0.14800656849183141
1772732492497076700,2.49807666015625,-2.194091760265827,-0.20401041446030138,0.25305183753762395
1772732492507104800,2.508104736328125,-2.591919696474075,-0.22457623262703416,0.4161301568245515
1772732492517132800,2.5181328125,-2.7923803094983097,-0.2775844769760966,0.5210341177035123
1772732492527159800,2.528159912109375,-2.7875708633899685,-0.26075609177201986,0.6109824284477159
1772732492537187800,2.538187744140625,-2.684504456669092,-0.23323767798840997,0.5497933618610724
1772732492547215600,2.548215576171875,-2.302881805330515,-0.44276744039207694,0.3238602347323671
1772732492557244000,2.558243896484375,-1.5525252103209495,-0.6694251554682851,0.3921786782748997
1772732492567271700,2.568271728515625,-0.5686848536074162,-0.7471648132309318,0.823233176780492
1772732492577299700,2.5782998046875,0.36746319308280945,-0.9579951368391513,1.2720837364785373
1772732492587327700,2.58832763671875,1.000325627568364,-1.4613131997838615,1.583273545936495
1772732492597355000,2.59835498046875,1.2549597293287515,-1.9130776011019943,1.9010820428818462
1772732492607382800,2.6083828125,1.1267682337015867,-2.0663453780576586,2.2172722909756004
1772732492617410800,2.618410888671875,0.575852261018753,-1.992537214525044,2.4943644543901082
1772732492627438800,2.62843896484375,-0.37794250152111053,-1.820518267609179,2.636954477725923
1772732492637466600,2.638466552734375,-1.3869985480338334,-1.4557073426008225,2.6119249581485984
1772732492647495000,2.648494873046875,-2.2100147210627794,-0.7954577194958925,2.2907902393899855
1772732492657521700,2.658521728515625,-2.8304367761701346,-0.15158961461037396,1.9127137362256645
1772732492667550000,2.668550048828125,-3.0894261505305765,0.43010260460823774,1.5713748722195624
1772732492677577700,2.67857763671875,-2.9640193171858784,1.1502563690558074,1.4050262260250745
1772732492687605800,2.688605712890625,-2.555686353576183,1.7165882297962902,1.1607935451611875
1772732492697633800,2.6986337890625,-1.9786977820038794,1.9690365119501947,0.8188729357443749
1772732492707661800,2.708661865234375,-1.2745792065560817,2.045376239787042,0.5975383884523063
1772732492717688800,2.718688720703125,-0.6087362934887409,2.0764842024952173,0.3238761264212429
1772732492727716600,2.728716552734375,-0.2083849762827158,2.0741747565090654,-0.018494930176809428
1772732492737745000,2.738744873046875,0.08485095107257366,2.1445956156909465,-0.3270812060728669
1772732492747772700,2.748772705078125,0.4389461285382509,2.2492633201286196,-0.5842986753899604
1772732492757800700,2.75880078125,0.9875520707130432,2.279020160488784,-0.7470307385224848
1772732492767828700,2.768828857421875,1.6789590486258268,2.1535759177431464,-0.8745834247894585
1772732492777856000,2.77885595703125,2.4582068070769307,1.8790408914655445,-0.9845369606755673
1772732492787883800,2.7888837890625,3.3560879592150448,1.5734113464832304,-1.0876827893082053
1772732492797911800,2.798911865234375,4.18848629309535,1.178321895328164,-1.0763748480260371
1772732492807939800,2.80893994140625,4.909423901396989,0.6810109638437628,-0.9694878601036965
1772732492817967900,2.8189677734375,5.340775921544433,0.03780336869359016,-0.8831533924750983
1772732492827996000,2.828995849609375,5.3475189660638565,-0.6405792924731969,-0.8528416947111487
1772732492838022700,2.839022705078125,5.07553917722702,-1.180910450516641,-0.6807963712450117
1772732492848051000,2.849051025390625,4.644218721261621,-1.5456389579385519,-0.3159841310624033
1772732492858078700,2.85907861328125,4.054401647776365,-1.8795444570735096,0.20727211966998874
1772732492868106800,2.869106689453125,3.3195541720658537,-2.1793317057684063,0.7243985624104737
1772732492878134800,2.879134765625,2.277166933837533,-2.288121458572149,1.068904073753953
1772732492888162800,2.889162841796875,0.9285936857879161,-2.2085849805206057,1.3369842248037456
1772732492898189800,2.89918994140625,-0.6271130771785974,-2.0227879758819935,1.3817375587657093
1772732492908217600,2.909217529296875,-2.222525827589631,-1.7209692213594912,1.1664567585546524
1772732492918246000,2.919245849609375,-3.586622807985544,-1.1763126013323664,0.7774716886892914
1772732492928273700,2.929273681640625,-4.442837486261129,-0.5005334006622434,0.28056648846156895
1772732492938301700,2.9393017578125,-4.564403426268696,-0.05355155744552612,-0.41092444140762086
1772732492948329700,2.949329833984375,-4.044216938370466,0.07101677924841641,-1.067914989651367
1772732492958357800,2.959357666015625,-2.9876474455326796,0.056195642213523384,-1.291489570955187
1772732492968384800,2.969384765625,-1.6963351308405399,-0.05909633209109306,-1.2323016150578856
1772732492978412800,2.979412841796875,-0.5254448468178511,-0.21354045934975147,-0.9901686829522252
1772732492988440800,2.98944091796875,0.4814017069518566,-0.37998306743800636,-0.6346741600826382
1772732492998468900,2.99946875,1.3636205950558185,-0.5393029840394854,-0.19701496608238667
1772732493008496600,3.00949658203125,2.2262457248955965,-0.5478975016444921,0.11773604298848658
1772732493018525000,3.01952490234375,2.8528853393435476,-0.5445712798312307,0.2929305146679282
1772732493028552000,3.029552001953125,3.2027380569338795,-0.5313438417285681,0.39448834345676004
1772732493038579700,3.039579833984375,3.2634558527469633,-0.4893374683871865,0.6194891581714153
1772732493048607700,3.049607666015625,3.2477462424397467,-0.5326899956405162,0.8537073716297745
1772732493058635800,3.0596357421875,3.2946967941850422,-0.6220622235298157,0.9502757946334779
1772732493068663800,3.069663818359375,3.3712720843434334,-0.7453639012888074,0.9352604502007364
1772732493078691800,3.07969189453125,3.44994346999824,-0.8875140719026327,0.9649911332063377
1772732493088718800,3.08971875,3.3648990421801805,-1.0331830642923712,1.0936822489187121
1772732493098747000,3.099746826171875,3.1249691730767486,-1.1214160590186715,1.262363721974939
1772732493108775000,3.10977490234375,2.674603240379691,-1.1872130577921867,1.3289274673372506
1772732493118802700,3.119802734375,2.1071721862256525,-1.0705392737403512,1.1887154251791536
1772732493128830700,3.129830810546875,1.5693313836932181,-0.8679895794823765,0.9166517574511468
1772732493138858800,3.139858642578125,1.1551450178802012,-0.9120248283028602,0.2652928584188223
1772732493148885800,3.1498857421875,0.9764753809034824,-1.1897554357513784,-0.6010264497637748
1772732493158913800,3.159913818359375,0.9814134218275546,-1.1317805089056492,-1.1198486635714768
1772732493168941800,3.16994189453125,0.9536609070271252,-0.996793361788988,-1.1387823504917323
1772732493178969900,3.179969970703125,0.24717151079475877,-1.1369532353684306,-0.7986916599158197
1772732493188997600,3.18999755859375,-1.8172645265102385,-1.1294903521418571,-0.33011220779921857
1772732493199026000,3.20002587890625,-4.853128598201274,-0.6242676246196032,0.4759770515546202
1772732493209053200,3.21005322265625,-7.606912927323579,0.2693687295556068,1.0195203765776009
1772732493219081500,3.22008154296875,-9.492290036073326,1.15552992554456,0.7973718825541436
1772732493229109200,3.230109130859375,-10.092586417996882,1.8462006981372832,0.25110106879603117
1772732493239137300,3.24013720703125,-9.186308608913421,2.21043294647485,-0.5446758361842483
1772732493249165300,3.250165283203125,-7.380610601556301,2.3116984412536024,-1.1505325556486845
1772732493259193000,3.260193115234375,-5.341738629096747,2.3217545558437704,-1.3935416860669851
1772732493269220400,3.270220458984375,-3.493001105958223,2.1081591514363884,-1.464307413163781
1772732493279248100,3.280248046875,-2.0757523810893295,1.8028069620907305,-1.2407707527175544
1772732493289276400,3.2902763671875,-1.105284716168046,1.4840613304257393,-0.8814173624627292
1772732493299304200,3.30030419921875,-0.43781098702847954,1.2265303381800652,-0.5452359908176586
1772732493309332500,3.31033251953125,-0.10075462264716624,1.0670692595422266,-0.15497231585122645
1772732493319360300,3.3203603515625,0.18377894281446933,1.0289844435587525,0.2992150382975116
1772732493329388300,3.33038818359375,0.45827860551774496,1.1287521009951829,0.6549225828632712
1772732493339415300,3.340415283203125,0.49964755773842334,1.2206456640556453,0.6812211725283414
1772732493349443000,3.350443115234375,0.36335692680776116,1.3241975162059068,0.7091884260579944
1772732493359471400,3.360471435546875,0.2893804209709167,1.4376786416962741,0.82771989374049
1772732493369499100,3.3704990234375,0.39040041655600066,1.4890110617876051,0.7997493522752076
1772732493379527400,3.38052734375,0.6231143629312514,1.4507982355102895,0.6768780287574976
1772732493389555200,3.39055517578125,0.8607768716245889,1.4364377017244696,0.5347427269192412
1772732493399582500,3.40058251953125,1.0288643243104219,1.3965791540667414,0.40408896936438976
1772732493409610200,3.4106103515625,1.1335481031000614,1.2373165206104517,0.3809936327200383
1772732493419638300,3.42063818359375,1.3472042977839707,1.0643766594573856,0.42433304476346817
1772732493429666300,3.430666259765625,1.6720248654484748,0.9686386959284543,0.415018176994659
1772732493439694000,3.440694091796875,1.9699334607899188,0.9314245252996682,0.2557759835381992
1772732493449722400,3.450722412109375,2.1414228308737275,0.8819149367213248,0.13443907564668917
1772732493459749000,3.4607490234375,2.306616900205612,0.8160726375013589,0.1296471925945021
1772732493469777400,3.47077734375,2.553931618863344,0.7336532974898815,0.13833310567685403
1772732493479805200,3.48080517578125,2.66899124571681,0.6341176952436566,0.10057768604452721
1772732493489833500,3.49083349609375,2.5425316884487867,0.465223894611001,0.11238321071844547
1772732493499861200,3.500861328125,2.264839367184043,0.32597090674340723,0.13970789202824235
1772732493509889300,3.51088916015625,1.9129940144717692,0.219904733684659,0.2250522891735658
1772732493519916300,3.520916259765625,1.5827590205430984,0.09399959542900323,0.30655619484055785
1772732493529944000,3.530944091796875,1.4416986909925937,0.009223755419254303,0.37804355074279006
1772732493539972400,3.540972412109375,1.3446248026847838,-0.04165595246851444,0.38887974632736294
1772732493550000000,3.551000244140625,1.2046014149665831,-0.15491174477040767,0.24508140664771197
1772732493560028400,3.5610283203125,1.0544652140349149,-0.23059710035175085,0.07355868228357285
1772732493570056200,3.57105615234375,0.9412626132249832,-0.2768701912268996,-0.041300270898640155
1772732493580083500,3.58108349609375,0.8425374505788087,-0.29470716895163057,-0.15426676139775664
1772732493590111200,3.591111328125,0.7539356225401163,-0.3429761098191142,-0.2779388799043372
1772732493600139300,3.60113916015625,0.6729489456802606,-0.4000812680929899,-0.2517351289158687
1772732493610167300,3.611167236328125,0.5554448482841253,-0.4907663321465254,-0.21979049618784338
1772732493620195300,3.6211953125,0.4289589875310659,-0.55965106780231,-0.1908847562316805
1772732493630223400,3.631223388671875,0.322237565433979,-0.6078378833442926,-0.17802922018133102
1772732493640250000,3.64125,0.26034604966640473,-0.6499044624403119,-0.24140750390794127
1772732493650278400,3.6512783203125,0.1985714382767677,-0.6595899901524186,-0.3567480300620198
1772732493660306200,3.66130615234375,0.08046528333425522,-0.6760071642071008,-0.42185989611558616
1772732493670334500,3.67133447265625,-0.12889935163557528,-0.6957344857230782,-0.40713367082253094
1772732493680362200,3.6813623046875,-0.3675520404100418,-0.7623457234889268,-0.3962055226381868
1772732493690390300,3.691390380859375,-0.545730678999424,-0.7832868047088384,-0.38791692917719484
1772732493700418300,3.701418212890625,-0.6390525212973356,-0.7581672687605023,-0.305645107877627
1772732493710445000,3.711445068359375,-0.6270785903871059,-0.7238190089568496,-0.29908421499207616
1772732493720473300,3.721473388671875,-0.6485691221833229,-0.6293591025397182,-0.39262978304326535
1772732493730501000,3.731501220703125,-0.7817688013613223,-0.4079845885634422,-0.5062027515355497
1772732493740529400,3.741529296875,-1.0539835679978131,-0.19128595744371413,-0.6344147054288536
1772732493750557200,3.75155712890625,-1.2558891191333532,-0.06038257250934839,-0.7681670500535518
1772732493760585200,3.761585205078125,-1.379611944913864,0.0010164835661649703,-0.9607850598186254
1772732493770612200,3.7716123046875,-1.3963544054001569,-0.005788520273566245,-1.108948645503074
1772732493780640300,3.78164013671875,-1.2917600584596394,0.012269114464521407,-1.0856893504686653
1772732493790668300,3.791668212890625,-1.062001454758644,-0.028761399582028387,-0.9848396699491888
1772732493800696300,3.8016962890625,-0.7108680497080088,-0.23819179326444864,-0.7091986551910638
1772732493810724400,3.811724365234375,-0.5715010800719261,-0.5248354827478527,-0.1753056769689545
1772732493820752400,3.82175244140625,-0.7805079876452684,-0.7867536040365696,0.42627829707972703
1772732493830779400,3.831779296875,-1.2612620443433522,-0.909261208808422,0.9777705352805555
1772732493840807200,3.84180712890625,-1.8787632435679436,-0.8318295940816401,1.531218510659039
1772732493850835200,3.851835205078125,-2.3987439797610044,-0.5936246490746736,2.0668021819144484
1772732493860863200,3.86186328125,-2.6761013699829577,-0.25840894412398335,2.3249672342799603
1772732493870891300,3.871891357421875,-2.9046956060796973,0.08523410517126322,2.278594920814037
1772732493880919300,3.881919189453125,-3.1510517088383434,0.4313251321405172,2.094649389261007
1772732493890946300,3.8919462890625,-3.52364934220016,0.7295452776491641,1.8484929007276891
1772732493900974300,3.901974365234375,-3.8519524912834164,0.9960136095881461,1.468334184461832
1772732493911002400,3.91200244140625,-4.050354418212176,1.195118131828308,0.9219139888282865
1772732493921030400,3.922030517578125,-3.961460329228639,1.3753463964238761,0.45484874066691844
1772732493931058200,3.93205810546875,-3.487499585932493,1.5486813943743705,0.1858378481056541
1772732493941086200,3.942086181640625,-2.6534616681516168,1.6207921063393353,-0.05293945342916995
1772732493951113200,3.95211328125,-1.714777965503931,1.587136797235906,-0.22703838495686648
1772732493961141200,3.962141357421875,-0.7538292395561933,1.4426839026376603,-0.1242342276350595
1772732493971169300,3.972169189453125,0.19419629193246363,1.3017340477243065,0.0582996835543774
1772732493981197300,3.982197265625,1.1612597013682127,1.1615250743061303,0.20546380987269802
1772732493991225300,3.992225341796875,2.180350235161185,1.0172191869631408,0.32470863172262904
1772732494001253400,4.00225341796875,3.061082684099674,0.8054206028446554,0.40106969460844993
1772732494011280400,4.0122802734375,3.724103525483608,0.5911503679156304,0.3780564102243632
1772732494021308200,4.02230810546875,4.279904347598553,0.4315004887074232,0.3923996275492012
1772732494031336200,4.032336181640625,4.621801137748361,0.3026166269019246,0.4073529395963996
1772732494041364200,4.0423642578125,4.680218255403638,0.144019471617043,0.3214212806150317
1772732494051392300,4.052392333984375,4.468918268457055,0.04773059620708227,0.20443696930930016
1772732494061420300,4.062420166015625,3.92128672427237,-0.004563654653728008,0.08984857669677584
1772732494071447300,4.072447265625,3.267406636199355,0.024108313079178333,0.021691168934851884
1772732494081475300,4.082475341796875,2.643506091326475,0.018606500792503356,-0.14139347049500792
1772732494091503400,4.09250341796875,2.1212533185482023,0.014823182861506938,-0.37661066839545965
1772732494101531400,4.102531494140625,1.7155524570077656,0.037677988748252386,-0.4328630092322826
1772732494111559400,4.112559326171875,1.3577818058997393,0.05027092833966017,-0.3658401949908584
1772732494121587200,4.122587158203125,1.0309650959819554,0.037604631251096726,-0.3529655158486217
1772732494131614200,4.1326142578125,0.7579121249556541,0.061253217864036556,-0.35103396326415237
1772732494141642200,4.142642333984375,0.5332195724725723,0.08707213425338267,-0.43937746916022147
1772732494151670300,4.152670166015625,0.3629816637545824,0.11344137800186872,-0.5082844897130504
1772732494161698300,4.1626982421875,0.22220190471112727,0.11937222935557365,-0.4794796163154766
1772732494171726300,4.172726318359375,0.0965916577488184,0.06657616645246744,-0.40091315233986824
1772732494181754400,4.18275439453125,-0.025499767437577245,-0.024258681335300205,-0.18166523859612643
1772732494191781400,4.192781494140625,-0.11868483161330222,-0.1708399662643671,0.07666490467060356
1772732494201809200,4.20280908203125,-0.14293898290395735,-0.3532173717178404,0.3242492340499535
1772732494211836700,4.212836669921875,-0.0072165072500705715,-0.5360447128958999,0.5246174560829997
1772732494221864400,4.222864501953125,0.17698913654386997,-0.7036281615823506,0.5771225366828963
1772732494231892500,4.232892578125,0.44665129608809945,-0.8777531408667564,0.5764258231230079
1772732494241920500,4.24292041015625,0.6612661066710949,-1.0467954100593924,0.5571952356154098
1772732494251947500,4.252947509765625,0.7932499803185462,-1.2127195472314953,0.6410959367584437
1772732494261975600,4.2629755859375,0.8844131832778453,-1.3493249431997536,0.7591331911832093
1772732494272003600,4.273003662109375,0.9235673820585012,-1.4693955300830304,0.8230451799277215
1772732494282031600,4.283031494140625,0.9316554114460944,-1.587625165274739,0.7937550072312355
1772732494292059600,4.2930595703125,0.8608160345911979,-1.6925659875653682,0.7174168868295848
1772732494302087400,4.30308740234375,0.74697221326828,-1.7516047442503273,0.5802057069879025
1772732494312114400,4.313114501953125,0.6141735161066055,-1.6873448919162153,0.43758558077476917
1772732494322142700,4.323142822265625,0.39773499722778793,-1.6202265814110637,0.3577062075696885
1772732494332170500,4.33317041015625,0.10618366195857525,-1.5866620193310081,0.30228169585913417
1772732494342198500,4.343198486328125,-0.25014029747247696,-1.5497158519886434,0.3871440451085567
1772732494352226600,4.3532265625,-0.694198069936037,-1.5139777452617882,0.5586686326362192
1772732494362254600,4.363254638671875,-1.2305723070472478,-1.4424471712723375,0.6844399153791367
1772732494372281600,4.373281494140625,-1.7639216433793306,-1.3258446988910435,0.7905755734775215
1772732494382309600,4.3833095703125,-2.072446325281262,-1.2606661242768167,0.8876048919912427
1772732494392337700,4.393337646484375,-2.046390093004703,-1.5039394585892558,0.8772166228372603
1772732494402365700,4.40336572265625,-1.8246183964043854,-1.8108716106027363,0.8855995435182005
1772732494412393500,4.4133935546875,-1.6593904248028992,-1.8573495764002204,1.126115103555098
1772732494422421800,4.423421875,-1.7792869702935217,-1.7490888159066438,1.320503191732615
1772732494432448500,4.433448486328125,-2.1976474069207907,-1.8188550105720758,1.062260324890539
1772732494442476500,4.4434765625,-2.9422955611556767,-1.641130837751925,0.7577420290857553
1772732494452504600,4.453504638671875,-3.7982816913723942,-1.1644877235040068,0.6698970107637345
1772732494462532600,4.46353271484375,-4.535814460644126,-0.5114548999100923,0.7052266097549349
1772732494472560600,4.473560546875,-4.993056708851456,0.11413900487720965,0.42113497937452044
1772732494482588400,4.48358837890625,-5.245810988214612,0.5773433763593435,-0.011980257903027813
1772732494492615400,4.493615478515625,-5.064969267895817,1.0040455248743294,-0.2813959250230342
1772732494502643700,4.503643798828125,-4.494933584201336,1.3634914157181977,-0.40456487978044897
1772732494512671500,4.51367138671875,-3.6195582783818243,1.523892405554652,-0.4427823091676458
1772732494522699500,4.523699462890625,-2.577686003938317,1.534674204070866,-0.3965917454767972
1772732494532727600,4.5337275390625,-1.599210973650217,1.4692857860982418,-0.2804317378996871
1772732494542755600,4.543755615234375,-0.631651305130124,1.4414093526571987,-0.12307689255978911
1772732494552782600,4.553782470703125,0.24572189650833606,1.404170632109046,0.013606071289861575
1772732494562810600,4.563810546875,0.997455625090003,1.343723469930887,-0.043343951221229506
1772732494572838700,4.573838623046875,1.5861574308097361,1.3482201968282461,-0.1749459037458524
1772732494582866700,4.58386669921875,1.9339070386409758,1.422550046147406,-0.31349932850934564
1772732494592894500,4.59389453125,2.0021464621305465,1.5633818276390432,-0.5253520174352452
1772732494602922800,4.6039228515625,1.8308622592300177,1.7502780256912112,-0.6867413241893052
1772732494612949500,4.613949462890625,1.4919833555966615,1.9040961300060153,-0.7888106826968491
1772732494622977500,4.6239775390625,1.208266367214918,1.9935221339091658,-0.9053180241405964
1772732494633005600,4.634005615234375,1.042113097462058,2.029945154160261,-0.964965268112719
1772732494643033600,4.64403369140625,1.0312976889371872,2.0512030462443827,-0.918837650122866
1772732494653061600,4.6540615234375,1.1834610117822886,2.0078040495008227,-0.827830441442877
1772732494663089400,4.66408935546875,1.3439666310369969,1.9166008067920803,-0.7756693885076791
1772732494673116700,4.67411669921875,1.3829232614189386,1.781121784505248,-0.6916364027544856
1772732494683144400,4.68414453125,1.2426391769379377,1.6649007126569746,-0.5653290403734892
1772732494693172700,4.6941728515625,1.0118769491523503,1.5754218095228074,-0.492674430790171
1772732494703200500,4.704200439453125,0.8319254556715487,1.5237690714359282,-0.4684836635919288
1772732494713228500,4.714228515625,0.7760743891119957,1.534970848929882,-0.5790317313050851
1772732494723256600,4.724256591796875,0.7837801411837338,1.5031298957720398,-0.8018934516318142
1772732494733283600,4.73428369140625,0.8505828098684549,1.4395061493843793,-0.9800015092030167
1772732494743311600,4.7443115234375,0.9735784904181957,1.3518304962798953,-1.0903735627621411
1772732494753339600,4.754339599609375,1.139262973615527,1.2068430564135313,-1.1132036725990473
1772732494763367700,4.76436767578125,1.3158254091799257,1.0267574151590466,-1.0712899459771812
1772732494773395500,4.7743955078125,1.550739495947957,0.82539576164186,-0.9981576358795166
1772732494783423700,4.784423828125,1.8737761028051376,0.5823410385161638,-0.8793340533826499
1772732494793450500,4.794450439453125,2.1498323473006486,0.3209522017985582,-0.7770822509802877
1772732494803478500,4.804478515625,2.3835241987973452,0.08475976565778255,-0.6893594707984477
1772732494813506600,4.814506591796875,2.5600112310379743,-0.12464286323487758,-0.6157533326439559
1772732494823534600,4.82453466796875,2.6043355259329077,-0.3040080812603235,-0.5159367945645004
1772732494833562600,4.834562744140625,2.5488135451972482,-0.4860451488435268,-0.4540342459462583
1772732494843590400,4.84459033203125,2.4494495001256467,-0.6032832887798547,-0.45855523050203917
1772732494853617700,4.85461767578125,2.3686872796714304,-0.6093205231174826,-0.5148020183809101
1772732494863645400,4.8646455078125,2.3174100968986746,-0.5417629444122314,-0.5922532145909964
1772732494873673700,4.874673828125,2.2194892363727092,-0.5260083259195089,-0.6655812664564699
1772732494883701500,4.884701416015625,2.006882843002677,-0.5069938288480043,-0.6541045444786548
1772732494893729800,4.894729736328125,1.6897352941840886,-0.4799529694482684,-0.6037471799645573
1772732494903757600,4.904757568359375,1.3797323564231394,-0.4431742676272988,-0.5788615989025682
1772732494913784600,4.91478466796875,1.1772668333172798,-0.4512482684895396,-0.5362243803117424
1772732494923812600,4.9248125,1.1464572690337895,-0.5417074148327112,-0.4354278912842273
1772732494933840600,4.934840576171875,1.142152265316248,-0.6269666544452309,-0.31832842916622756
1772732494943868700,4.94486865234375,1.2138310156047343,-0.7366542328715324,-0.23148498910218476
1772732494953896400,4.954896484375,1.3657482547342776,-0.8132692705184221,-0.18122100195996463
1772732494963924700,4.9649248046875,1.521741949522495,-0.8855793044477701,-0.22541779801771045
1772732494973951500,4.974951416015625,1.5931687708765268,-0.9826590379744767,-0.28804529990963634
1772732494983979500,4.9849794921875,1.6444903773128985,-1.0280635293215512,-0.396992654427886
1772732494994007600,4.995007568359375,1.6692612459540366,-0.9878370251342654,-0.5561212131757289
1772732495004035600,5.00503564453125,1.7466864309400318,-0.9937252063900232,-0.7465892783652991
1772732495014063600,5.015063720703125,1.749410887467861,-1.0139110853284596,-0.8736775619909167
1772732495024091400,5.02509130859375,1.6765946575820445,-1.0486787395879626,-0.818755812170729
1772732495034118700,5.03511865234375,1.6557587903022766,-1.0554933880388737,-0.701957451891154
1772732495044146400,5.045146484375,1.7104104179441928,-1.0748930850356817,-0.6450437245361507
1772732495054174700,5.0551748046875,1.8134265557825564,-1.0632634375184773,-0.49212110775634643
1772732495064202500,5.065202392578125,1.9326912331104278,-1.1012936007052658,-0.3333930195681751
1772732495074230800,5.075230712890625,2.076047564643621,-1.1156415672704576,-0.2832143726218492
1772732495084258600,5.085258544921875,2.2613094394922255,-1.0942293614074587,-0.2679981718547642
1772732495094285600,5.09528564453125,2.4615701460301875,-1.0510711876824497,-0.26181517237089574
1772732495104313600,5.105313720703125,2.750141004183888,-0.9372165527045726,-0.3265040637720376
1772732495114341400,5.11534130859375,3.0280338164567944,-0.7975105603724718,-0.4449486934212967
1772732495124369700,5.12536962890625,3.233071820399165,-0.6329758317321539,-0.5963979497129097
1772732495134397400,5.1353974609375,3.2666631243556736,-0.5083329684972763,-0.7875830405980349
1772732495144425700,5.14542578125,3.124959236204624,-0.4337766169458627,-0.8792696829095482
1772732495154452500,5.155452392578125,2.8839900871813295,-0.3104597416177392,-0.8403798341535031
1772732495164480800,5.165480712890625,2.4921762966960666,-0.20498598149418829,-0.6336562152117491
1772732495174508500,5.175508544921875,1.7875772442549467,-0.2903594951361418,-0.3119696712566539
1772732495184536600,5.18553662109375,0.7388356685638428,-0.6134437405273317,0.033618703420087694
1772732495194564600,5.195564697265625,-0.5098632468044757,-0.9555813536956905,0.5261110556416213
1772732495204592400,5.20559228515625,-1.8347236108332872,-1.006963458147645,1.1335549712322652
1772732495214619400,5.215619384765625,-3.0185154620051384,-1.0543293126955628,1.2735475254207849
1772732495224647400,5.2256474609375,-3.765786950480938,-1.3318214352130888,0.8143949866127222
1772732495234675500,5.235675537109375,-4.117416614615917,-1.3834639441668986,0.26950784576535225
1772732495244703200,5.245703125,-4.071453904864192,-0.7985238290682435,-0.015625731416046618
1772732495254731500,5.2557314453125,-3.7189772685110567,0.12433423567712307,-0.24101306123025715
1772732495264759300,5.26575927734375,-3.239228004941344,0.68506345410496,-0.5887792914027348
1772732495274786600,5.27578662109375,-2.945519783899188,0.8309732695132493,-0.6044591641588136
1772732495284814300,5.285814453125,-3.0417028608471153,0.7817343145698309,-0.22377825064975768
1772732495294842400,5.29584228515625,-3.5511382376283405,0.49352819807529447,0.4473334696659818
1772732495304870400,5.305870361328125,-4.503164236930012,-0.13123217849731444,1.17859019087553
1772732495314898400,5.3158984375,-5.573628984129429,-0.7614765394389629,1.953525492954999
1772732495324924400,5.32592431640625,-6.281455766445398,-1.0690002276048063,2.4727885823979974
1772732495334952400,5.335952392578125,-6.211438227367401,-0.9169617001831531,2.3324071750223636
1772732495344980500,5.34598046875,-5.328693269562721,-0.5225462027668952,1.5417111169703304
1772732495355008300,5.35600830078125,-4.024878031650186,-0.14639584535956382,0.594565729317069
1772732495365035300,5.36603515625,-2.7045857061892744,0.2791302451133728,-0.06429831661439966
1772732495375063300,5.376063232421875,-1.6107827535003423,0.44306730012148615,-0.38190745962932704
1772732495385091300,5.38609130859375,-0.9866618438750505,0.26655454891771074,-0.48154436682555823
1772732495395119400,5.396119384765625,-0.874454683843255,0.03478343635052442,-0.2518627373509109
1772732495405147400,5.4061474609375,-0.9971370606601238,-0.17725304817706344,0.18196027601994574
1772732495415175400,5.416175537109375,-1.117391918069124,-0.44936230861246584,0.4852854895826429
1772732495425202400,5.426202392578125,-0.9636427873373031,-0.7180985854834318,0.570450949964486
1772732495435230500,5.43623046875,-0.45254210769236086,-0.9762354346677661,0.7449531285308301
1772732495445258500,5.446258544921875,0.20801965010166168,-1.1604162362813948,0.8858237807281315
1772732495455286500,5.45628662109375,0.8770476229459047,-1.3424477509066461,1.0531377648234366
1772732495465314300,5.466314208984375,1.428840962985158,-1.4881988686218857,1.1724134019367396
1772732495475342600,5.476342529296875,1.6159961042344568,-1.5818787305772304,1.2164403943855315
1772732495485369300,5.486369384765625,1.44877374394536,-1.6177090456321834,1.1931581568669527
1772732495495397400,5.4963974609375,1.1774071185708046,-1.5224617882296443,1.0223669251151382
1772732495505425400,5.50642529296875,0.896277224072814,-1.3629112777426837,0.7271496877495199
1772732495515453400,5.516453369140625,0.6641980684697628,-1.0954080497980117,0.32498401459790766
1772732495525481500,5.5264814453125,0.6788502786785364,-0.8231617189794779,-0.13969510561190546
1772732495535509200,5.53650927734375,0.9268921425670384,-0.6270058174118399,-0.6251386353004723
1772732495545536500,5.54653662109375,1.3670096529722213,-0.4844317222975194,-0.9545517914522439
1772732495555564300,5.556564208984375,1.9528736049175262,-0.4293592388950288,-1.093272937465459
1772732495565592600,5.566592529296875,2.6078964332848784,-0.4924028473071754,-1.188219239160046
1772732495575620400,5.576620361328125,3.1939760738074776,-0.6119929571971297,-1.242383156350255
1772732495585648400,5.5866484375,3.7085990823596715,-0.6720597417555749,-1.269720368348062
1772732495595676400,5.596676513671875,4.151630434384942,-0.6190661104537546,-1.3255074297606944
1772732495605703400,5.606703369140625,4.442078192326426,-0.6838033710412681,-1.3006545819245279
1772732495615731500,5.6167314453125,4.480231689631939,-0.7693455192483961,-1.2899867651768029
1772732495625759500,5.626759521484375,4.221838527598977,-0.7761991845354438,-1.2825839415743947
1772732495635787500,5.63678759765625,3.772642223203182,-0.6244862358063459,-1.350724873125553
1772732495645815300,5.646815185546875,3.198558140900731,-0.34281302821189163,-1.3741536795079707
1772732495655843600,5.656843505859375,2.5899966194570063,-0.0821279558494687,-1.322185445731133
1772732495665870300,5.666870361328125,1.7358365356236696,0.048902708726376296,-1.4366267945557831
1772732495675898400,5.6768984375,0.7742682164728641,0.25193010349869727,-1.5108771488979458
1772732495685926400,5.686926513671875,-0.045269466790556906,0.42899288980066774,-1.4667112594351173
1772732495695954400,5.696954345703125,-0.6825432879775762,0.24072481887340544,-1.3355071379885077
1772732495705983500,5.7069833984375,-0.8839391360253095,-0.25182751990705726,-1.1081092720694838
1772732495716011500,5.717011474609375,-0.7316501409739256,-0.9159463856607675,-0.9485005285892635
1772732495726039300,5.727039306640625,-0.8879290824443101,-1.6718962706327438,-0.49360166517030446
1772732495736067300,5.7370673828125,-1.7187684964448213,-2.543952661162615,0.5466374916460365
1772732495746095400,5.747095458984375,-3.420222869995236,-3.1796903588235375,1.7189549589276312
1772732495756122400,5.757122314453125,-5.5211827575773,-3.2448706870034334,2.369644726526737
1772732495766150400,5.767150390625,-7.431129659438133,-2.6624092369779944,2.3294734596580264
1772732495776178400,5.777178466796875,-8.826192855983972,-1.619531877145171,2.0205751221381125
1772732495786206500,5.78720654296875,-9.703001993998885,-0.5787646413341164,1.5580373978711664
1772732495796234500,5.797234375,-10.015696070539951,0.4227759149819612,1.064232355615869
1772732495806262500,5.807262451171875,-9.734642163887619,1.2737816264376043,0.5682235562385991
1772732495816289500,5.81728955078125,-8.972714958071709,1.8805226544559002,-0.21273111572824419
1772732495826317300,5.8273173828125,-7.807573446834087,2.0879539832755922,-0.9463597171682864
1772732495836345300,5.837345458984375,-6.496815257915854,2.0377754093945026,-1.3529112772539258
1772732495846373400,5.847373291015625,-5.1963353019058705,1.9474945422276853,-1.4161895712047814
1772732495856401400,5.8574013671875,-3.8086867655307053,1.9168816695600748,-1.0985717014607042
1772732495866429400,5.867429443359375,-2.339226791909337,1.94342948474586,-0.69073755421862
1772732495876456400,5.87745654296875,-0.9959013813853264,1.8865104966938495,-0.21040113841071723
1772732495886484500,5.887484375,0.0585585719525814,1.8013909578129648,0.35344789253808556
1772732495896512500,5.897512451171875,0.7083961066365242,1.712349569313228,0.7965341165557503
1772732495906540300,5.907540283203125,0.8924901067495346,1.654916494259238,1.0078631104011089
1772732495916568600,5.917568603515625,0.7755079874008893,1.5361290790542959,1.2360684202454983
1772732495926596400,5.927596435546875,0.7717816603541374,1.45153385630846,1.3867748222805558
1772732495936623400,5.937623291015625,0.7861807725846767,1.359063662403822,1.3540261066280304
1772732495946651400,5.9476513671875,0.9826543617993593,1.2402391300588846,1.3763102730199694
1772732495956679400,5.957679443359375,1.3893296213299036,1.2336170815706253,1.4848038193561135
1772732495966707500,5.96770751953125,1.8776836316376924,1.2326798007205129,1.475952550511062
1772732495976735200,5.9777353515625,2.3706091876447197,1.1395301001191138,1.384150318995863
1772732495986763500,5.987763427734375,2.846659012174606,1.0439327141046524,1.3311257080338894
1772732495996790500,5.99779052734375,3.2735359327346085,1.0101187073081732,1.3095748243525624
1772732496006818300,6.007818359375,3.6043805829942226,0.9932859381899237,1.270657210806757
1772732496016846300,6.017846435546875,3.7238264621078967,0.9210121446177363,1.1784965212427079
1772732496026874400,6.027874267578125,3.6640251966178417,0.8844652057260274,1.011358039844781
1772732496036902400,6.03790234375,3.6213445772767066,0.9652700962781906,0.7724179124310612
1772732496046930400,6.047930419921875,3.6006764677792784,1.1102815015420318,0.5088833323890343
1772732496056957400,6.05795751953125,3.5661037515699863,1.2207409411236643,0.1525572175335139
1772732496066985500,6.0679853515625,3.5254444089233874,1.3070242630869149,-0.21301950421556828
1772732496077013500,6.078013427734375,3.433925816655159,1.3551771763592957,-0.5807128162598237
1772732496087041300,6.088041259765625,3.4078725069880482,1.3705606234520673,-0.8892948178395629
1772732496097069600,6.098069580078125,3.4294898800343274,1.3607488390117883,-1.0865044662438332
1772732496107097300,6.108097412109375,3.4330110398977993,1.2915996072009206,-1.1806931545041501
1772732496117124400,6.118124267578125,3.450403488725424,1.1216995521351694,-1.2410232661738991
1772732496127152400,6.12815234375,3.47465588645041,0.9439806400120258,-1.0847663904048501
1772732496137180400,6.138180419921875,3.3416835862874983,0.7611790177971124,-0.9333458487510681
1772732496147208400,6.14820849609375,2.9194664742320775,0.5845771270051598,-0.8663800984591246
1772732496157236200,6.158236328125,2.2763766602426765,0.4298068365320563,-0.7121542170610279
1772732496167264500,6.168264404296875,1.628819929972291,0.35224838055521246,-0.5191685430273414
1772732496177291500,6.17829150390625,1.1346212852895259,0.32502719615250825,-0.4408635795321315
1772732496187319600,6.188319580078125,0.7415443430006503,0.31873744835853574,-0.4768098491169512
1772732496197347300,6.198347412109375,0.36269057185351844,0.3846282628953457,-0.4877181966222822
1772732496207375600,6.208375732421875,-0.06701894178390502,0.4807867899239063,-0.4971502610299736
1772732496217403600,6.218403564453125,-0.450326185208559,0.5824497595876454,-0.5413760639864951
1772732496227431400,6.228431396484375,-0.7655594248384237,0.6274006619483232,-0.5034584212634712
1772732496237458400,6.23845849609375,-0.9867834244281053,0.584414629919827,-0.4979577049553394
1772732496247486500,6.248486572265625,-1.2406108859807252,0.5249368972957134,-0.5204843748662621
1772732496257514500,6.258514404296875,-1.6261802291184664,0.49361733766347166,-0.6151939451955258
1772732496267542500,6.26854248046875,-2.1407149748653174,0.3923731779336929,-0.8422968467559665
1772732496277570600,6.278570556640625,-2.6419384036183358,0.21218203047811984,-0.9200145118825137
1772732496287598600,6.2885986328125,-2.7621681265860794,0.12260580444931983,-0.8928061869613826
1772732496297625600,6.29862548828125,-2.3374913464188576,0.05284487048089504,-0.8058933349229395
1772732496307653600,6.308653564453125,-1.696549650374055,-0.14065963979512452,-0.5677433349736034
1772732496317681700,6.318681640625,-1.2315373526871203,-0.35049773749560115,-0.09497333583198488
1772732496327709700,6.328709716796875,-1.2570096475958823,-0.5514958183974027,0.369239920431748
1772732496337737500,6.338737548828125,-1.9063474160641432,-0.7188906126439571,0.6973952585421502
1772732496347765800,6.348765869140625,-3.0683477066665885,-0.7225757308974862,0.7814727410241961
1772732496357792500,6.35879248046875,-4.312570353403688,-0.44154345155507324,0.5955345743492245
1772732496367820500,6.368820556640625,-5.288944027498364,-0.027385142792761323,0.3137096102591604
1772732496377848600,6.3788486328125,-5.693977949562669,0.36650603848844765,-0.002009056533779949
1772732496387876600,6.388876708984375,-5.5174511698335404,0.638667613632977,-0.3243869620202109
1772732496397904600,6.398904541015625,-4.892649292206764,0.8300833349362016,-0.5664676159493625
1772732496407932400,6.408932373046875,-3.9349189437836407,0.9258619227364658,-0.5676588715605437
1772732496417959700,6.418959716796875,-3.032143589863181,0.9700441788122057,-0.47436311355195937
1772732496427987500,6.428987548828125,-2.3613901084005833,0.9026558191940188,-0.23287067130692302
1772732496438015500,6.439015380859375,-1.7078092955350874,0.8453779347017407,0.2781750632803887
1772732496448043500,6.44904345703125,-1.055858129698038,0.8314870642542839,0.7054490203339606
1772732496458071600,6.459071533203125,-0.48708793589472765,0.7708651300311088,1.0230740504711866
1772732496468099600,6.469099609375,0.03235620920360088,0.6315124811813235,1.1751838895633817
1772732496478126600,6.479126708984375,0.4397977769315243,0.5347700167849659,1.2358144454844295
1772732496488154600,6.489154541015625,0.5882564000397921,0.42181408421248195,1.2574630904518067
1772732496498182700,6.4991826171875,0.4260714493960142,0.339712724108994,1.271448068923503
1772732496508210700,6.509210693359375,0.15668050800859928,0.3053770315259695,1.2852432239115237
1772732496518238500,6.519238525390625,-0.03939151466786861,0.3099704967960715,1.1749614789843559
1772732496528266800,6.529266845703125,-0.08280453993678093,0.4103372891694307,0.99437914025411
1772732496538293500,6.53929345703125,0.12204290986955166,0.5304743654176592,0.858838889299333
1772732496548321500,6.549321533203125,0.5892354742050171,0.6136231887474656,0.748445500691235
1772732496558349600,6.559349609375,1.273655661970377,0.6342649947598576,0.6361643986403942
1772732496568377600,6.569377685546875,2.034283475625515,0.56880818772614,0.5308077986231073
1772732496578405600,6.579405517578125,2.6698656904637814,0.4467337136745453,0.5393928542800247
1772732496588433400,6.589433349609375,3.1063807924628257,0.3194534876734018,0.6220454185254871
1772732496598460700,6.599460693359375,3.3738755448400974,0.24134178172796963,0.6033721361070871
1772732496608488400,6.609488525390625,3.4384605374753474,0.23535130914151667,0.43609892241358755
1772732496618516700,6.619516845703125,3.3560920508682726,0.28984511587321754,0.21576774347778407
1772732496628544500,6.62954443359375,3.2537019359737633,0.35635815396159887,0.08675123173594475
1772732496638572800,6.63957275390625,3.1770740388453005,0.424005456776917,-0.05937986174020916
1772732496648600600,6.6496005859375,3.13451558457911,0.4492515417143702,-0.23245416292790322
1772732496658627600,6.659627685546875,3.1327222714215517,0.4388689716488123,-0.36718492413070053
1772732496668655600,6.669655517578125,3.1677193505227565,0.43013972174823284,-0.39036647775378075
1772732496678683400,6.679683349609375,3.061229983615875,0.35024580856114623,-0.3955172481130808
1772732496688711700,6.689711669921875,2.7363427804559466,0.22682079668343066,-0.2525453858528286
1772732496698739500,6.699739501953125,2.2779040159404276,0.171619718465209,0.05383541588820517
1772732496708767700,6.709767822265625,1.7888193532705305,0.06831219646483659,0.35712508321348574
1772732496718794500,6.71979443359375,1.3000123384982347,-0.034332769973576066,0.6007543182915076
1772732496728822500,6.729822509765625,0.8450929802805185,-0.0755991386026144,0.8086209332559258
1772732496738850600,6.7398505859375,0.43830607706904406,-0.07287409755289555,0.8050503812927752
1772732496748878600,6.749878662109375,0.16781506548523903,-0.026346447394788263,0.7707350739106535
1772732496758906600,6.75990673828125,0.08223112396299838,0.0030330840855836865,0.6672855130910873
1772732496768934400,6.769934326171875,0.2992833908259868,-0.04579319840371608,0.5651567890791223
1772732496778961700,6.779961669921875,0.7194751345336436,-0.17701251741945742,0.5406961188983171
1772732496788989400,6.789989501953125,1.1257429823070764,-0.3129489280849695,0.5824898358697072
1772732496799017700,6.800017822265625,1.3096364914119243,-0.4977119135007262,0.6760513686750084
1772732496809045500,6.81004541015625,1.3058394372165203,-0.6384528018385172,0.7664733248129486
1772732496819073800,6.82007373046875,1.136943006235361,-0.7274594112858176,0.847995350658521
1772732496829101600,6.8301015625,0.9056102850854396,-0.7993085497051476,0.9059848905514926
1772732496839128600,6.840128662109375,0.6858405759572982,-0.7879621030434966,0.9122573949497192
1772732496849156600,6.850156494140625,0.30978783370554447,-0.73218264041543,0.901024564730376
1772732496859184400,6.860184326171875,-0.4166343434870243,-0.6646297378852963,0.9691398503836244
1772732496869212700,6.870212646484375,-1.1236188297599554,-0.5636936211913823,0.9223548644635826
1772732496879240400,6.880240478515625,-1.6420307092010973,-0.40352205619662995,0.6998885366626083
1772732496889268700,6.890268798828125,-2.025469470050931,-0.26193974859863517,0.5649074174279347
1772732496899295500,6.90029541015625,-2.022158153545856,-0.336894744078815,0.38895441899877037
1772732496909323800,6.91032373046875,-1.7695798152714968,-0.5243810169786215,0.2294329884758219
1772732496919351600,6.9203515625,-1.4320418048530816,-0.6323153219968081,0.24028854634799063
1772732496929379600,6.930379638671875,-0.9081897801846265,-0.7406959094777703,0.26928583704512565
1772732496939407600,6.94040771484375,-0.39998949815630913,-0.8839426431566476,0.31784839056432246
1772732496949435400,6.950435302734375,-0.10117314032018183,-1.0876786245897412,0.37093262275904415
1772732496959462700,6.960462646484375,-0.13876958826482294,-1.2579571575790642,0.4545509267641231
1772732496969490400,6.970490478515625,-0.5196323611468077,-1.2417486578390002,0.5453590692080557
1772732496979518700,6.980518798828125,-1.3330290574371815,-1.0674147119790316,0.5071437221800909
1772732496989546500,6.99054638671875,-2.302888819593191,-0.7236264089941978,0.31138690293263643
1772732496999574800,7.00057470703125,-3.145390614336729,-0.2972743890911341,-0.015344704251270741
1772732497009601500,7.0106015625,-3.5354718819409605,0.09967705654352903,-0.5512257692843675
1772732497019629600,7.020629638671875,-3.2156197503387927,0.42117607856988903,-1.0429255828887223
1772732497029657600,7.03065771484375,-2.353290973097086,0.5293178888589144,-1.3087591240555048
1772732497039685400,7.040685302734375,-1.2204717687934636,0.39210868177860975,-1.4266880227349699
1772732497049713700,7.050713623046875,-0.3235983323931694,0.18013415657132864,-1.4656591200336813
1772732497059741400,7.060741455078125,0.2977355768620968,0.07661766799539327,-1.3525785381682216
1772732497069768700,7.070768798828125,0.47333004417717456,-0.021855565716326235,-1.231028818643093
1772732497079796500,7.08079638671875,0.15757891815304756,-0.1405237384557724,-1.1323369737446307
1772732497089824800,7.09082470703125,-0.49930619695484635,-0.14814765746295452,-0.9348048153877258
1772732497099852500,7.1008525390625,-1.208325988447666,0.047431905521452426,-0.7414369371034204
1772732497109880600,7.110880615234375,-1.7160954778432844,0.25091332767158747,-0.659953343572095
1772732497119908600,7.12090869140625,-1.8655594786018133,0.4319572925642132,-0.6285752586856485
1772732497129935600,7.130935546875,-1.7973562954694031,0.5588984958693385,-0.5112602541208267
1772732497139963600,7.140963623046875,-1.5526877074062824,0.6173533151865005,-0.4910165440479293
1772732497149991400,7.150991455078125,-1.1914403200984,0.659324324953556,-0.534898246274516
1772732497160019700,7.161019775390625,-0.7418295896828174,0.6467065431818365,-0.6138657653316855
1772732497170047500,7.171047607421875,-0.27280980992019177,0.6096876028642058,-0.6203063928384334
1772732497180075500,7.181075439453125,0.2401771218627691,0.5402899492502212,-0.5840092639893293
1772732497190102500,7.1911025390625,0.6961550492227077,0.4177367517709732,-0.514724350034818
1772732497200130600,7.201130615234375,1.1251765805959701,0.2665054490789771,-0.38672983828447755
1772732497210158600,7.21115869140625,1.6117606586217879,0.13481062150597573,-0.3537525015078485
1772732497220187000,7.221186767578125,2.004907159015536,0.0363096230044961,-0.37444782780576497
1772732497230215000,7.23121484375,2.222214861944318,0.013515022872388363,-0.40829475049115715
1772732497240243000,7.241242919921875,2.175799732249975,0.03256663708388805,-0.45404136980678883
1772732497250270000,7.25127001953125,1.9728449643224477,0.10686492222100495,-0.535949399295263
1772732497260298000,7.261298095703125,1.838330695414543,0.2617015559285879,-0.6277285787284373
1772732497270326000,7.271325927734375,1.781319352903962,0.4062772001236677,-0.7105944934636355
1772732497280354000,7.28135400390625,1.7555349233061075,0.45247751802355046,-0.825971077311784
1772732497290381800,7.2913818359375,1.6724281855523586,0.512328175613284,-0.8611195475824177
1772732497300409900,7.301409912109375,1.5453069495052099,0.5665650849744677,-0.891406183970347
1772732497310436900,7.311436767578125,1.3806699295341969,0.6251788942456245,-0.9608505993355065
1772732497320465000,7.32146484375,1.2119061850219963,0.6546221386119723,-0.9615048985257745
1772732497330493000,7.331492919921875,1.2635942866832017,0.6132955642282962,-1.000937621986866
1772732497340521000,7.34152099609375,1.3895751205235718,0.5137073550119996,-0.9237108091171831
1772732497350549000,7.351549072265625,1.6004723718881606,0.3721668407291174,-0.7218782501526176
1772732497360576800,7.36157666015625,1.7810370288312434,0.21086305683404205,-0.6590982611127197
1772732497370603800,7.371603759765625,1.9545242947340011,0.014098375718295574,-0.4708509041799232
1772732497380631800,7.3816318359375,2.2176871553868054,-0.07161240705400705,-0.2973192876787856
1772732497390659800,7.391659912109375,2.4240742358505725,-0.06306845059245825,-0.4262760320574045
1772732497400687900,7.40168798828125,2.4215122764080763,-0.09387596904933453,-0.5943222759500145
1772732497410716000,7.4117158203125,2.024223269382119,-0.18629910894185303,-0.6916103915303945
1772732497420744000,7.421743896484375,1.0349573804885148,-0.26692776614427566,-0.6972532197229564
1772732497430771000,7.43177099609375,-0.3817547532856464,-0.2462617024734616,-0.6593300240419805
1772732497440799000,7.441799072265625,-1.9104577739924191,-0.021422142735123634,-0.595840754221566
1772732497450827000,7.451826904296875,-3.169071934175491,0.16003741722106932,-0.5141085196914151
1772732497460855000,7.46185498046875,-3.756263335332274,0.2941322916731238,-0.4150369182277471
1772732497470882800,7.4718828125,-3.684623163488507,0.3204474671468138,-0.3158627697050571
1772732497480909800,7.481909912109375,-3.25404446580112,0.3410825511574745,-0.3099297994595021
1772732497490937900,7.491937744140625,-2.7998621896862983,0.38356034140288825,-0.3061318684812635
1772732497500966000,7.5019658203125,-2.523601362529397,0.41543198195993897,-0.2298812071673572
1772732497510994000,7.511993896484375,-2.4076643683195114,0.3270367824092507,-0.24597280252948403
1772732497521022000,7.52202197265625,-2.3179425963401794,0.11647387756556273,-0.20510306853521615
1772732497531050000,7.532050048828125,-2.202612920373678,-0.013973580294847488,0.012528897911868989
1772732497541077000,7.542076904296875,-2.1683295424997806,-0.1308010936036706,0.24146157218273728
1772732497551105000,7.55210498046875,-2.172536346539855,-0.3121902186721563,0.42293183619603514
1772732497561132800,7.5621328125,-2.122961876031756,-0.5498842915475368,0.69952174917683
1772732497571160800,7.572160888671875,-1.9989082108616827,-0.6533256690606475,0.9984861371815204
1772732497581188900,7.58218896484375,-1.930335025373101,-0.6968138053923845,1.2486277498282492
1772732497591217000,7.592216796875,-1.9307699096590278,-0.6324877559542655,1.33122712258175
1772732497601244000,7.602243896484375,-2.134570480760932,-0.45732846518605946,1.2535538080535829
1772732497611272000,7.61227197265625,-2.4817554404467344,-0.14770575891435145,1.0871984398573635
1772732497621300000,7.622300048828125,-2.965109450510144,0.267251591271162,0.7629904511332511
1772732497631327700,7.63232763671875,-3.5515059018969533,0.6077616032376885,0.32852694790177045
1772732497641356000,7.64235595703125,-4.0497395011842245,0.8315943240210414,-0.03655234571918845
1772732497651383800,7.6523837890625,-4.205351503178477,1.08913525313884,-0.26156287811025974
1772732497661410800,7.662410888671875,-4.002420700648427,1.3246268475338816,-0.4089121152045205
1772732497671438800,7.67243896484375,-3.3750089327841994,1.45383716481477,-0.4127327329386025
1772732497681467000,7.682466796875,-2.3112129958242176,1.4454977910146116,-0.26632362623866646
1772732497691495000,7.692494873046875,-1.1284861435353755,1.3627347521319984,0.07535718307290226
1772732497701523000,7.70252294921875,-0.04528115722835064,1.27472212215811,0.564574824472703
1772732497711551000,7.712551025390625,0.9012205256938933,1.1693950770288706,0.9614945232622325
1772732497721578000,7.722577880859375,1.722226527944207,1.0174679010272025,1.2283420637771487
1772732497731606000,7.73260595703125,2.2750474574655293,0.9068474256649612,1.5262623495563863
1772732497741633800,7.7426337890625,2.7279133902847765,0.8410413668021559,1.847363019914925
1772732497751662000,7.752662109375,3.101993371158838,0.7357081841930747,2.154167746156454
1772732497761689900,7.76268994140625,3.340936567312479,0.6142904204845429,2.298008500205725
1772732497771718100,7.77271826171875,3.4203812754273413,0.5423416210830211,2.1950034682832658
1772732497781745000,7.782744873046875,3.312207900956273,0.5565583624839783,1.9649319992408156
1772732497791773000,7.79277294921875,3.0224983941614627,0.5318751721262932,1.727565112493187
1772732497801801000,7.802801025390625,2.5398849733322857,0.5302227287441492,1.5391132094316184
1772732497811828700,7.812828857421875,1.8901924000769852,0.5384598112136125,1.3801955900207161
1772732497821857000,7.82285693359375,1.319848088824749,0.5765718074649572,1.2603121962726116
1772732497831884000,7.832884033203125,0.9212257873684168,0.6031868426680564,1.129050499419868
1772732497841911800,7.842911865234375,0.7175625789105892,0.5344657731413841,1.038551678653434
1772732497851939800,7.85293994140625,0.7027922952800989,0.49338294438570734,1.0232483110595494
1772732497861968000,7.8629677734375,0.829310304737091,0.45823710446357724,0.9974445191740989
1772732497871996000,7.872995849609375,1.0205793110460042,0.38939357760101556,0.9367594565868377
1772732497882024000,7.88302392578125,1.2777438080668448,0.31467619026899335,0.99883882307671
1772732497892051000,7.893051025390625,1.4666285495877265,0.2571259185761213,1.0520808761816471
1772732497902079000,7.903078857421875,1.5917390303343533,0.2556310038432479,1.0300655898589641
1772732497912107000,7.91310693359375,1.677388438308239,0.26485125213116406,1.0031617277771234
1772732497922134800,7.923134765625,1.6900556121796368,0.20972557723671198,1.1278216152120382
1772732497932163000,7.9331630859375,1.6466069310754536,0.06922785000503062,1.2804150731027126
1772732497942190800,7.94319091796875,1.6215952394157647,-0.002670388253033161,1.4080446970634162
1772732497952217900,7.9532177734375,1.6640876427084206,-0.048639235484600064,1.4683726167760789
1772732497962246000,7.963245849609375,1.7599439719200134,-0.1660010018005967,1.4723115636602042
1772732497972274000,7.97327392578125,1.8032547058582304,-0.24369857398718595,1.4317287933811544
1772732497982302000,7.983302001953125,1.8305267436653374,-0.31402240253537894,1.3092135898247361
1772732497992329700,7.993329833984375,1.8382851027071474,-0.3871984056442976,1.2321892407245933
1772732498002357000,8.00335693359375,1.7325538606911897,-0.48873365727514023,1.1966241524770855
1772732498012384800,8.013384765625,1.575260189220309,-0.6301613588333129,1.173695916027948
1772732498022413000,8.0234130859375,1.4309177692592143,-0.6835866595506668,1.1125863444183022
1772732498032440800,8.03344091796875,1.325715519553423,-0.6831918150141835,0.982796692879498
1772732498042469000,8.04346923828125,1.2144126148849725,-0.7191185761809349,0.778708098616451
1772732498052497000,8.053496826171875,1.0688152264267206,-0.7334457922190427,0.7019888699427247
1772732498062524000,8.06352392578125,0.8605980079263448,-0.7284013683110475,0.7283016342636197
1772732498072552000,8.073552001953125,0.6209300046294928,-0.7236579731762409,0.7239043491527438
1772732498082580000,8.083580078125,0.34853111359775063,-0.7035434059083462,0.702456487454474
1772732498092608000,8.09360791015625,0.06088672263920307,-0.6593769319236278,0.7315241765066981
1772732498102635800,8.1036357421875,-0.27482173426449297,-0.6444260310292244,0.7850886664990335
1772732498112664000,8.1136640625,-0.707883480939269,-0.6249731425404548,0.7890479985840618
1772732498122690800,8.12369091796875,-1.208465689179301,-0.5697866773694753,0.8076596139430999
1772732498132718800,8.13371875,-1.8759078541368246,-0.5059203543975949,0.7443987095184623
1772732498142747000,8.143746826171874,-2.3588509453117847,-0.5030062205165624,0.6996548740372062
1772732498152775000,8.15377490234375,-2.4174773218035694,-0.5692571005374193,0.6209694598570465
1772732498162803000,8.163802978515625,-2.0914783580094576,-0.7265583707928657,0.47942346568144856
1772732498172830700,8.173830810546875,-1.4089865079581736,-0.8296411441266536,0.43998763694781806
1772732498182858000,8.18385791015625,-0.635060821312666,-0.8708554903075099,0.4568215751098469
1772732498192885800,8.1938857421875,-0.11285130315423011,-0.9421522555410862,0.43279809076990927
1772732498202914000,8.2039140625,-0.0020347206979990005,-1.025766358295083,0.37778117347955703
1772732498212941300,8.21394140625,-0.3920873467296362,-1.0201327363222836,0.48708099469728766
1772732498222969300,8.22396923828125,-0.9696692080199718,-0.8401122692584991,0.6036466421995311
1772732498232996400,8.233996337890625,-1.7370605244606732,-0.5481058836981654,0.5134238984281196
1772732498243024400,8.2440244140625,-2.5893729346007106,-0.10440262376070022,0.35732148256842045
1772732498253052400,8.254052490234375,-3.2046605494290588,0.46342473623454566,0.16881912796124815
1772732498263080400,8.26408056640625,-3.4061657030701635,0.886907338181138,-0.14287420143890195
1772732498273108500,8.2741083984375,-3.255836025393009,1.1639289205774663,-0.5888655083814636
1772732498283136300,8.28413623046875,-2.8994436769008636,1.3361252698868513,-0.941927287678793
1772732498293163300,8.294163330078124,-2.2193431059002875,1.4154790848478673,-1.194944455761835
1772732498303191300,8.30419140625,-1.2551502834647894,1.3732260432690382,-1.3987687730655074
1772732498313219300,8.31421923828125,-0.26813889549970626,1.2326330389693378,-1.474265035815537
1772732498323247400,8.324247314453125,0.5609025291681289,1.0040472784399985,-1.3471122355863452
1772732498333275400,8.334275390625,1.0984206756174564,0.7936062464103102,-1.0934603497963398
1772732498343303400,8.344303466796875,1.2786112385511397,0.6172624220326542,-0.8045023189559578
1772732498353330400,8.354330322265625,1.1747516356259584,0.5064280116587877,-0.48881059496887025
1772732498363358500,8.3643583984375,0.9113432757794856,0.512949522382021,-0.1308109026116319
1772732498373386500,8.374386474609375,0.731419839349389,0.6793383544564247,0.14109096215078606
1772732498383414500,8.38441455078125,0.5691150617182255,0.8728802741333842,0.31818397919423874
1772732498393442300,8.3944423828125,0.33838790524601936,1.039578318287432,0.4542527475351468
1772732498403469300,8.40446923828125,-0.03780862939059734,1.152183829987049,0.39617191262952983
1772732498413497300,8.414497314453126,-0.46421617887318134,1.2744585027858615,0.3223543967466801
1772732498423525400,8.424525390625,-0.8503402332842349,1.4021560774162412,0.31583862164448945
1772732498433553400,8.434553466796874,-0.920695626014471,1.5487071133375168,0.18755884494567288
1772732498443581400,8.44458154296875,-0.7687889082789421,1.574697002379596,-0.04214437530627474
1772732498453609500,8.454609375,-0.4026777143269777,1.491137552422285,-0.2563869550433941
1772732498463636500,8.464636474609375,0.14560674080848693,1.3220134501650929,-0.27876806073747573
1772732498473664500,8.47466455078125,0.8583318165600299,1.0445289264321327,-0.27674733203221114
1772732498483692300,8.4846923828125,1.5833447114765644,0.7792807839378714,-0.3614372838567942
1772732498493720300,8.49472021484375,2.1820751592576504,0.5479930709734558,-0.36256033306997265
1772732498503748400,8.504748291015625,2.656957109051943,0.35014264044761656,-0.3373523516532034
1772732498513776400,8.5147763671875,2.965055674496293,0.16406798791140317,-0.33136297504529355
1772732498523803400,8.524803466796875,3.027280952262878,0.04675649047791958,-0.3830580909691751
1772732498533831400,8.53483154296875,2.9590193169414993,-0.023578151725232598,-0.44433987734057007
1772732498543859500,8.544859375,2.76632583078742,-0.06541413693577051,-0.5415102117601782
1772732498553887500,8.554887451171876,2.438376317447424,-0.03977700685411691,-0.6996380690328776
1772732498563915500,8.56491552734375,2.053226076504588,0.04978869778066873,-0.8655410903517157
1772732498573942500,8.574942626953124,1.6682237195998428,0.118840022175014,-0.9869910027641803
1772732498583970300,8.58497021484375,1.4284376428812742,0.11814853277951479,-1.0694786587715148
1772732498593998300,8.594998291015624,1.2701146283626557,0.10328969408273696,-1.146548527513817
1772732498604026400,8.6050263671875,1.0792290684133767,0.05411357524245977,-1.1060917947672306
1772732498614054400,8.615054443359375,0.9335451707154512,-0.07192541852593422,-0.9858167713530361
1772732498624082400,8.62508251953125,0.788742732027173,-0.19758944150209426,-0.8010542243286967
1772732498634109400,8.635109375,0.576801524567604,-0.3636953649818897,-0.6308585473172367
1772732498644137500,8.645137451171875,0.33705110368430613,-0.5132417833268642,-0.5334051947051659
1772732498654165500,8.65516552734375,0.09326397463083266,-0.5833563530385494,-0.46505361607801166
1772732498664193300,8.665193359375,-0.09197568838596343,-0.6356684318169951,-0.4691936750248074
1772732498674221600,8.6752216796875,-0.15250234554111958,-0.6725988170683384,-0.5439270636435598
1772732498684249300,8.685249267578126,-0.06774433344900607,-0.6373235055476427,-0.6189357620723546
1772732498694276400,8.6952763671875,0.08265197972357273,-0.579421936199069,-0.6917315336920321
1772732498704304400,8.705304443359376,0.20530162331461904,-0.5142158890560269,-0.7444264743082225
1772732498714332400,8.71533251953125,0.18283377091884612,-0.45011020437031984,-0.658770490463078
1772732498724360400,8.7253603515625,0.021769933259487152,-0.4148895456463098,-0.5094931713830679
1772732498734388200,8.73538818359375,-0.2716501184910536,-0.39869244408309457,-0.44461471222657706
1772732498744415500,8.74541552734375,-0.6119768828451633,-0.370986983294785,-0.4072440723944455
1772732498754443500,8.755443603515625,-0.9502893847674131,-0.26746128849908707,-0.29903120616320517
1772732498764471300,8.76547119140625,-1.2427291933089495,-0.20998159782439468,-0.2316020030779764
1772732498774499300,8.775499267578125,-1.449019827660918,-0.18751900612562894,-0.2108980002832599
1772732498784527400,8.78552734375,-1.6694412786960602,-0.15366905123293398,-0.1952910648992285
1772732498794555400,8.795555419921875,-1.820270138067007,-0.11021218682229518,-0.2016591751590371
1772732498804582400,8.80558251953125,-1.9196616556674242,-0.0809951524272561,-0.13053800395438447
1772732498814610400,8.8156103515625,-1.835654754203558,-0.07407426712289453,-0.07659446978289633
1772732498824638500,8.825638427734376,-1.5575433307439088,-0.1474076527506113,-0.04218209523446858
1772732498834666500,8.83566650390625,-1.182434006822109,-0.2715066183671355,-0.007411390501353889
1772732498844694300,8.8456943359375,-0.9019552697092295,-0.3443837846599519,0.08424527679700404
1772732498854721300,8.85572119140625,-0.6890981164485216,-0.4036369147479534,0.2408025785510428
1772732498864749300,8.865749267578124,-0.5210889896959066,-0.49955213453993197,0.37473902930468317
1772732498874777300,8.87577734375,-0.40773967389166355,-0.6078022275090217,0.46793746441863476
1772732498884805400,8.885805419921875,-0.5368927080273628,-0.566330545566231,0.6351471844218671
1772732498894833400,8.89583349609375,-1.0435217952162026,-0.43661447072029114,0.9002014117792249
1772732498904861400,8.905861328125,-1.8933827205508946,-0.3169023418858647,1.1310536559358237
1772732498914888400,8.915888427734375,-2.7384751163095236,-0.17291954901739953,1.3383422152839601
1772732498924916500,8.92591650390625,-3.372626421561837,0.01262085051164031,1.4089670726053416
1772732498934944500,8.935944580078125,-3.7586739036053416,0.18823592222332952,1.4424457099676131
1772732498944972500,8.94597265625,-3.887514218530059,0.4011223015785217,1.4154083576992154
1772732498955000300,8.956000244140625,-3.7471956472575663,0.5362403815984725,1.2679571580678224
1772732498965028600,8.966028564453126,-3.2193817332208154,0.6244279297478497,1.129156882403791
1772732498975055400,8.976055419921876,-2.3421312811791895,0.682120386390388,1.0515917044252157
1772732498985083400,8.98608349609375,-1.228261107495427,0.6807103734619915,0.9520529603738337
1772732498995111400,8.996111328125,-0.20005904648602008,0.6319888665214181,0.85009524554722
1772732499005139500,9.006139404296874,0.5977490355283022,0.6146335348337888,0.8525621471174061
1772732499015167500,9.01616748046875,1.2139718853801489,0.6328605347894132,0.9307317207299173
1772732499025194500,9.026194580078124,1.6101801114320755,0.7347289638973772,0.9314856078371405
1772732499035222300,9.03622216796875,1.8309090209811925,0.8206973746925592,0.9583765373721719
1772732499045250300,9.046250244140625,1.8996704225182532,0.9010248569913208,0.9824963947586715
1772732499055278300,9.0562783203125,1.7451485538482665,1.0002426254600285,0.9746583946093916
1772732499065306400,9.066306396484375,1.4273895951330662,1.1167951212197542,0.9434798508830368
1772732499075334400,9.07633447265625,1.178804710409045,1.203826046679914,0.8975964899778366
1772732499085361400,9.086361328125,0.9025134881138801,1.2381947647497058,0.8105679756704718
1772732499095389400,9.096389404296875,0.6306541107863187,1.261725277940929,0.6936134019158781
1772732499105417500,9.10641748046875,0.42483986177444455,1.2871639628410338,0.5563716808054596
1772732499115445200,9.1164453125,0.3114122200369835,1.292022216527164,0.46438992800489065
1772732499125473500,9.1264736328125,0.27312369817495347,1.266645198686421,0.3741660517223179
1772732499135500500,9.13650048828125,0.46260757463276386,1.1819731113120913,0.1962726598151028
1772732499145528300,9.1465283203125,0.8916372893124819,1.027230293367803,0.06385813966542482
1772732499155556400,9.156556396484374,1.4451339261382818,0.8078969298303127,-0.004227043110504747
1772732499165584400,9.16658447265625,2.02159233635664,0.5747790788292885,-0.04727101587131619
1772732499175612400,9.1766123046875,2.5148060616552828,0.357081499800086,-0.08026106599904596
1772732499185640400,9.186640380859375,2.8341461520820856,0.1938140146166086,-0.08186371542271226
1772732499195667500,9.19666748046875,2.9688123966813085,0.014819091208279131,-0.06082176764421165
1772732499205695500,9.206695556640625,2.8846652099639174,-0.14095949952453374,-0.014391148119792342
1772732499215723800,9.216723876953125,2.672924493512511,-0.20885873127430676,0.09005074820537119
1772732499225751600,9.22675146484375,2.305436165988445,-0.2091822641402483,0.17717811977732925
1772732499235779800,9.23677978515625,1.7725152842015026,-0.23690438380241394,0.27652978029139336
1772732499245806600,9.246806640625,1.2367460272461175,-0.2418140754148364,0.3113699517978355
1772732499255834600,9.256834716796876,0.7988923701196908,-0.22113588291481137,0.22165238106958568
1772732499265862700,9.266862548828126,0.47362055155634875,-0.18725071057826279,0.13428626883830874
1772732499275890700,9.276890625,0.23764906468987462,-0.17546397280320525,0.016375307674333452
1772732499285918700,9.286918701171874,0.06645020198523997,-0.23657091406434774,-0.07390639974270015
1772732499295946500,9.296946533203124,-0.017215338695049286,-0.3223183755852282,0.0047847865911200636
1772732499305973800,9.306973876953125,-0.0448556252926588,-0.4491455971218645,0.23787403255216777
1772732499316001500,9.31700146484375,0.17376257571280002,-0.6496082559727132,0.3997959483455866
1772732499326028500,9.327028564453125,0.647477819815278,-0.8557724874660372,0.4511394743528217
1772732499336055800,9.337055908203125,1.0569178678840399,-0.9828728268556296,0.31112324702776967
1772732499346083600,9.34708349609375,1.322492465853691,-1.0572836324565111,0.14424783701281993
1772732499356112000,9.35711181640625,1.409410870850086,-1.0121358923494814,0.07446750422418118
1772732499366139600,9.3671396484375,1.2822545634895561,-0.9396605848558246,-0.0006690446682507172
1772732499376167700,9.377167724609375,0.9089414753347634,-0.8650722307309507,-0.16234763039220124
1772732499386194700,9.387194580078125,0.41653497476577755,-0.7701547898046672,-0.21040121147595345
1772732499396222500,9.397222412109375,-0.15770459035933015,-0.6809757463999092,-0.11235010303328745
1772732499406250800,9.407250732421875,-0.5533031600803137,-0.6436788659237325,0.028228107839368747
1772732499416278500,9.417278564453126,-0.7332499773859977,-0.5702566329687834,0.00795392727968283
1772732499426306800,9.427306884765626,-0.7570365111649036,-0.4362599581941962,-0.07873811248177662
1772732499436334600,9.43733447265625,-0.7998083159208297,-0.3504183886490762,-0.16084146361295132
1772732499446361600,9.447361572265624,-0.9242080180495977,-0.34342151549905536,-0.21899403031421824
1772732499456389600,9.4573896484375,-0.9780646959215402,-0.45633828510493035,-0.25400228839656336
1772732499466417700,9.467417724609374,-0.9164110805630683,-0.5375938420340418,-0.21769304898455738
1772732499476445700,9.47744580078125,-0.6748883893102408,-0.4508487477779388,-0.2610135553981177
1772732499486473500,9.487473388671875,-0.35365912413597106,-0.3709019353598356,-0.4454404224609956
1772732499496500700,9.497500732421875,-0.17403204030394553,-0.3907300869017839,-0.6061281568169593
1772732499506528500,9.507528564453125,-0.2673030291974544,-0.39456893441230056,-0.5452422378953546
1772732499516556800,9.517556884765625,-0.6333779827922582,-0.28696429973989723,-0.302842727275379
1772732499526584600,9.52758447265625,-1.2195435480326413,-0.10122136337608098,-0.006934219709970057
1772732499536612900,9.53761279296875,-1.8922662837415933,0.0015653496205806732,0.10646133725563994
1772732499546640600,9.547640625,-2.490166710439324,0.1203852057904005,0.04406472151014022
1772732499556667600,9.557667724609376,-2.9437042589098215,0.41323359513282776,-0.035791700077615674
1772732499566695700,9.56769580078125,-3.1761709525257347,0.7170996375739574,-0.26612912657987325
1772732499576723500,9.577723388671876,-3.184070765864849,0.9295303821161389,-0.5363343069596216
1772732499586751700,9.587751708984374,-3.0348452500373124,1.0501099414348603,-0.7505532135602087
1772732499596779500,9.597779541015624,-2.663579157540202,1.0678516420915722,-0.9048248337961733
1772732499606806800,9.607806884765624,-2.096317614734173,1.011349710407853,-0.9372435137767344
1772732499616834600,9.61783447265625,-1.403290342143178,0.8220286232963204,-0.9222790227483958
1772732499626862800,9.62786279296875,-0.6901426570653915,0.6956681424885988,-0.886987052353844
1772732499636890600,9.637890625,-0.11039748026132583,0.6912193463861942,-0.7658464250862598
1772732499646918700,9.647918701171875,0.2725765856862068,0.691684041288495,-0.7621639371812343
1772732499656946700,9.65794677734375,0.41674540264606474,0.7129360881537199,-0.7720730445161461
1772732499666973700,9.6679736328125,0.29964462535381314,0.7708633764654398,-0.7590269543297589
1772732499677001700,9.678001708984375,0.0609159487336874,0.8536959734529256,-0.8349376430995762
1772732499687029500,9.688029541015625,-0.1275473525047302,0.945994610182941,-0.8060133080407976
1772732499697057800,9.698057861328126,-0.1921025345236063,0.9835396202012896,-0.7355852884657681
1772732499707085600,9.70808544921875,-0.051045127582550046,0.9895219094812869,-0.6968379899855702
1772732499717112600,9.718112548828126,0.22355273479819296,0.9179638629630208,-0.6034291269913316
1772732499727140600,9.728140625,0.449983070859313,0.7956646402448415,-0.434574854651466
1772732499737168600,9.738168701171874,0.5755968249529599,0.6516030830517411,-0.2935900745552033
1772732499747196700,9.74819677734375,0.5826303768515586,0.593133358426392,-0.28169353799642993
1772732499757224400,9.758224365234375,0.57900984826684,0.5877031500712037,-0.34150355304852126
1772732499767252700,9.768252685546875,0.5142611895024776,0.5997384557798504,-0.41039406085796654
1772732499777279500,9.778279541015625,0.5416062925457954,0.6135726276040077,-0.47291649494022125
1772732499787307800,9.788307861328125,0.6115478437781333,0.646116468334198,-0.5266092144221067
1772732499797335600,9.79833544921875,0.7387544200211763,0.660016398870945,-0.5811566875698044
1772732499807363800,9.80836376953125,0.8437251990586518,0.6274056303843856,-0.5916617515038699
1772732499817391600,9.8183916015625,0.9562076689004898,0.5642585615977644,-0.5508237643547356
1772732499827418600,9.828418701171875,1.1100140827775,0.4769800911173224,-0.4501715061035007
1772732499837446700,9.83844677734375,1.250124564257264,0.39318624788224693,-0.4104039611974731
1772732499847474700,9.848474609375,1.3679156619012356,0.3278063054770231,-0.35339331280663605
1772732499857502700,9.858502685546876,1.4650322203069925,0.24916210009008644,-0.29139397101672365
1772732499867530500,9.868530517578124,1.5590139878183602,0.13238368661999703,-0.2787692663138732
1772732499877558800,9.878558837890624,1.625551868087053,0.051229544238746164,-0.25117899287045
1772732499887585500,9.88858544921875,1.591678240057826,-0.03675269059687852,-0.20227148010479284
1772732499897613800,9.89861376953125,1.5097960756629705,-0.09922843599319457,-0.17892726499959827
1772732499907641600,9.9086416015625,1.41688222964406,-0.16238398034721613,-0.207180020939745
1772732499917670000,9.918669921875,1.3492577231824396,-0.17610124779343603,-0.23923216916285453
1772732499927697700,9.92869775390625,1.2856073810487985,-0.165858670720458,-0.2763673197386786
1772732499937724700,9.938724609375,1.1904039627879857,-0.13962021374478936,-0.33744558289460835
1772732499947752700,9.948752685546875,1.1059446413815022,-0.11082213541418313,-0.4066989326670766
1772732499957780500,9.958780517578125,1.0453291368991136,-0.04797200374752283,-0.5300281925527378
1772732499967808800,9.968808837890625,0.9563315875411033,-0.019569354475289583,-0.6324965968478471
1772732499977836500,9.97883642578125,0.8545137195765972,-0.06598755290955305,-0.6481110762175172
1772732499987863600,9.988863525390625,0.7600386155903339,-0.11528481391146779,-0.6630806087471545
1772732499997891600,9.9988916015625,0.658082215937972,-0.1587505922809243,-0.6400321069192141
1772732500007919600,10.008919677734376,0.48937283196151254,-0.20112536054328084,-0.565065567131713
1772732500017947600,10.01894775390625,0.3016173867315054,-0.2792478801436722,-0.415110019996576
1772732500027975700,10.0289755859375,0.08462883275449276,-0.3650726446844637,-0.28353996958071365
1772732500038003700,10.039003662109375,-0.059064767909049985,-0.3997165264338255,-0.23577439339179546
1772732500048030700,10.04903076171875,-0.16227613605856894,-0.3770896840840578,-0.2353745073540136
1772732500058058800,10.059058837890625,-0.2537532272726297,-0.2699215411327779,-0.27362262414041905
1772732500068086500,10.06908642578125,-0.4165636163383722,-0.15111337540075181,-0.24846111221387981
1772732500078114800,10.07911474609375,-0.734079413947463,-0.11710749929398298,-0.16447854147367177
1772732500088142600,10.089142578125,-1.108477374729514,-0.08692088921442627,0.011813881510309874
1772732500098169600,10.099169677734375,-1.4325690435975789,-0.07149038810953498,0.2453380848225206
1772732500108197600,10.10919775390625,-1.6437644011259078,-0.03485854741334915,0.2946611378528178
1772732500118225700,10.1192255859375,-1.581088456982374,-0.050234687982499596,0.14678477161191403
1772732500128253700,10.129253662109376,-1.3114695520579813,-0.13997574918419123,0.009546849893778561
1772732500138281500,10.139281494140626,-0.9429752623617649,-0.18588351387828586,-0.025138021453097462
1772732500148309800,10.149309814453124,-0.6514461389243602,-0.1862529317125678,-0.0018274346228688955
1772732500158336500,10.15933642578125,-0.45822541402578354,-0.20696298065558075,0.055411250370182095
1772732500168364800,10.16936474609375,-0.4768108720302581,-0.22988164555877447,0.20606077111884952
1772732500178392600,10.179392578125,-0.684384531930089,-0.22795813015028832,0.45167803820893165
1772732500188420900,10.1894208984375,-1.1025047300606965,-0.18090674837902188,0.7387080235961824
1772732500198448600,10.19944873046875,-1.741221735793352,-0.05164864643365145,0.942671018718183
1772732500208475600,10.2094755859375,-2.461032385891676,0.16483268867358564,1.0429732214227319
1772732500218503400,10.21950341796875,-2.991309475171566,0.412440398928523,1.1045362358883022
1772732500228531700,10.22953173828125,-3.224807849922776,0.6870872150175273,1.0718220070272684
1772732500238559500,10.2395595703125,-3.1734447424322365,0.9584100012503564,0.8593838098309934
1772732500248587500,10.24958740234375,-2.920241550257802,1.2068725747689604,0.567708190594986
1772732500258614500,10.259614501953125,-2.6171079137444493,1.3914564042255282,0.27501137508507817
1772732500268642300,10.269642333984375,-2.2634762621372935,1.475090965245664,0.04093432366307825
1772732500278670600,10.279670654296876,-1.7450585374772547,1.421912625026703,-0.041717875256203116
1772732500288698400,10.289698486328126,-1.0320575673937797,1.3452348974071442,0.07119019958656281
1772732500298726700,10.2997265625,-0.23559096311628816,1.1664433876164257,0.23603180221896616
1772732500308754400,10.30975439453125,0.639952685007453,1.00808734761104,0.42483701223023235
1772732500318781700,10.31978173828125,1.4310995555669068,0.9415180492907762,0.5817552745174617
1772732500328809500,10.3298095703125,1.9842168376863,0.8967502484120428,0.6582863602079451
1772732500338837500,10.33983740234375,2.251431604078412,0.9029495414435863,0.7383494924820959
1772732500348865500,10.349865478515625,2.293243039369583,0.9324706733517348,0.8082925050191581
1772732500358893600,10.3598935546875,2.1843121245294808,1.0073319991990923,0.8765239643979817
1772732500368920600,10.369920654296875,1.868776687082648,1.0081336709707975,1.027838488394022
1772732500378948400,10.3799482421875,1.514545316016674,0.932144948528707,1.184903977132216
1772732500388976600,10.3899765625,1.1993325346529482,0.8787120490267872,1.3461803615637122
1772732500399004400,10.40000439453125,0.9162164347738027,0.8211511098094284,1.4395210546925663
1772732500409032700,10.41003271484375,0.693511841237545,0.7860109689757228,1.4978056320093571
1772732500419060500,10.420060546875,0.4082797721177339,0.7758784281484782,1.4838378969334065
1772732500429087700,10.430087646484376,-0.029735213050246238,0.7282116909578442,1.3861606359049676
1772732500439115500,10.440115478515626,-0.5351946719378232,0.6996164417229592,1.230567923133075
1772732500449143600,10.4501435546875,-0.9984674324810504,0.7371301798202097,1.0160560614679008
1772732500459171600,10.460171630859374,-1.2258651522696018,0.7726479217946529,0.7127116317480802
1772732500469199400,10.470199462890625,-1.1660697319984434,0.7632730674669146,0.45736404795609414
1772732500479226600,10.4802265625,-0.7283037531554698,0.6844266175061464,0.2768823931213468
1772732500489254400,10.49025439453125,-0.04997194539308548,0.5185315602980554,0.10026234561819583
1772732500499282700,10.50028271484375,0.6509773523688316,0.3003247165724635,-0.00963845543367788
1772732500509310500,10.510310546875,1.2567618103146552,0.11580737648084759,0.0027136976717971263
1772732500519338500,10.52033837890625,1.6603823584496975,-0.02405132219493389,0.06370204492141493
1772732500529365500,10.530365478515625,1.9367104056239126,-0.16589958725273607,0.06010429442408494
1772732500539393500,10.5403935546875,2.093610693863034,-0.2866828524500131,0.058352272258140145
1772732500549421600,10.550421630859375,2.0970400837898255,-0.3698698158331215,0.14034258233574218
1772732500559449300,10.560449462890626,2.069847540959716,-0.46299452812373637,0.2407441811610013
1772732500569477600,10.5704775390625,2.01308695833981,-0.554387009794265,0.33102395234927534
1772732500579505400,10.58050537109375,1.9517723656773567,-0.6158170455299318,0.3911072496511042
1772732500589532700,10.59053271484375,1.9204671268314122,-0.683660893830657,0.4685155931001529
1772732500599560400,10.600560546875,1.7787562244176864,-0.7780611790150403,0.5417668534023687
1772732500609588700,10.610588623046874,1.4839713140547275,-0.8312691837199032,0.619180969005078
1772732500619616500,10.620616455078125,1.1973451602280138,-0.8399000878125429,0.6850644770182669
1772732500629644500,10.63064453125,0.9563257423222065,-0.8300184530064463,0.6951083897139877
1772732500639671600,10.640671630859375,0.7379483643352985,-0.80613474246338,0.6689209322731942
1772732500649699300,10.65069921875,0.5044792156785727,-0.7241533554777503,0.6403379579979926
1772732500659727600,10.6607275390625,0.25650048015415666,-0.6776983321644365,0.6028610813124105
1772732500669755400,10.67075537109375,0.028994623816013334,-0.6197669521994889,0.4650689232449978
1772732500679783700,10.68078369140625,-0.18541969575881956,-0.5389601619511842,0.38579010974895206
1772732500689810400,10.690810546875,-0.31337270645499227,-0.4458069542184472,0.4022103890761733
1772732500699838700,10.700838623046875,-0.39602819330990313,-0.36805867475792764,0.41581725495047867
1772732500709866500,10.710866455078126,-0.5013642985284328,-0.2766337521225214,0.4424037581788376
1772732500719894500,10.72089453125,-0.643790655735135,-0.13075769285336136,0.43912426158413287
1772732500729922600,10.730922607421874,-0.7983896812945603,0.027729718446731565,0.4160723256900906
1772732500739949600,10.740949462890624,-1.0184493132799863,0.22153014292940496,0.38306594548206774
1772732500749977600,10.7509775390625,-1.3188602468311785,0.3833643804393708,0.24319287122106178
1772732500760005400,10.76100537109375,-1.7785715155005455,0.46988750250786543,-0.06288027107659727
1772732500770033700,10.77103369140625,-2.2624527643084527,0.4262289780452847,-0.5358032322902232
1772732500780061400,10.7810615234375,-2.5112831482261417,0.47501931243836876,-0.9090339759238064
1772732500790089700,10.79108984375,-2.4563404286831614,0.6650372957728803,-1.0337098646454512
1772732500800116500,10.801116455078125,-2.0023060366064307,0.7001327206820249,-0.9855861044023185
1772732500810144500,10.81114453125,-1.2258955474078654,0.5911576744392514,-0.7555254490148275
1772732500820172500,10.821172607421875,-0.466721439692378,0.5200675376936793,-0.4622792194612324
1772732500830200300,10.831200439453125,0.01948153006136417,0.5184142175287008,-0.1827681948693469
1772732500840228600,10.841228515625,0.17744331005215644,0.5855939028322696,0.030882501655537634
1772732500850255600,10.851255615234376,-0.15536299566924572,0.6697346598088741,0.17246946716234088
1772732500860283600,10.86128369140625,-0.7657990788131952,0.7684434558421372,0.23694961118362842
1772732500870311400,10.8713115234375,-1.4695453138172625,0.8681064838603139,0.21429241022821516
1772732500880339700,10.881339599609374,-1.9316677352815865,0.9427513904780149,0.05929517913144081
1772732500890367500,10.891367431640624,-1.9514479560285805,1.014910325498879,-0.2085977422505617
1772732500900394500,10.90139453125,-1.5218442408531903,1.0692141626164315,-0.4399424460992217
1772732500910422500,10.911422607421875,-0.8417617900311947,1.067573994193971,-0.584431252261065
1772732500920450600,10.921450439453125,-0.245113993743062,0.9885916428938507,-0.6648094783663749
1772732500930478600,10.931478515625,0.07832651773989201,0.9618313540011644,-0.6841217893406748
1772732500940506400,10.94150634765625,0.12589432460069655,0.9321066623449324,-0.6192721544198692
1772732500950534700,10.95153466796875,0.03006663696169853,0.8916378738343715,-0.501036856672354
1772732500960561400,10.9615615234375,-0.2155956383138895,0.8907524693019687,-0.339080929011479
1772732500970589700,10.971589599609375,-0.4628203406006097,0.9854904620081185,-0.35094328930601476
1772732500980617500,10.981617431640625,-0.7044657814502716,1.1317172344110906,-0.4566962316971272
1772732500990645800,10.991645751953126,-0.9019044163048267,1.2558853197410702,-0.556033571424894
1772732501000673500,11.001673583984376,-0.9644313073664903,1.3823884238898754,-0.5925786836856975
1772732501010700500,11.011700439453126,-0.8820558064967393,1.4651394800737498,-0.5680240881437435
1772732501020728600,11.021728515625,-0.703959585493803,1.4649959799498318,-0.5071509556384757
1772732501030756400,11.03175634765625,-0.4748141452550888,1.4296926113784312,-0.29227606934718786
1772732501040784600,11.04178466796875,-0.26729835302233695,1.3506459626704455,0.011492330538900569
1772732501050812400,11.0518125,-0.1240279462069273,1.1963102642223238,0.30649474697690454
1772732501060839700,11.061839599609375,-0.1739467001080513,1.080312479735911,0.5404079496067017
1772732501070867500,11.071867431640625,-0.3488303888052702,1.0815455286622047,0.5533154715726152
1772732501080895500,11.0818955078125,-0.43973698665499683,1.2059914080202578,0.47604481956120576
1772732501090923500,11.091923583984375,-0.424706590783596,1.3521172042667864,0.2710039843409322
1772732501100951600,11.10195166015625,-0.32142566452920435,1.4666788184702395,0.03491069772569463
1772732501110978600,11.111978515625,-0.12565700871348381,1.5939353713348507,-0.06017542343153618
1772732501121006600,11.122006591796875,0.10143032995164394,1.639246923701465,-0.14772335850312374
1772732501131034600,11.13203466796875,0.3752203830808401,1.651777903972566,-0.18638371848538518
1772732501141062400,11.1420625,0.6304395912528038,1.6150325198993085,-0.14991890491917728
1772732501151090700,11.152090576171876,0.8586129715889692,1.5135542591527102,-0.0854142840437591
1772732501161117400,11.162117431640626,1.043292078113556,1.4083102161318062,-0.05647405272952746
1772732501171145500,11.1721455078125,1.1569120275527238,1.3306740187436341,-0.06279999978146515
1772732501181173500,11.182173583984374,1.1195546490609645,1.2541855300858615,0.07170589859031606
1772732501191201500,11.192201416015624,0.9680880763083696,1.1810627184689044,0.23942140812464058
1772732501201229600,11.2022294921875,0.8118021205753088,1.1049953778326511,0.26611244943970813
1772732501211257300,11.21225732421875,0.6696960813641548,1.0594517702758313,0.24887683514161035
1772732501221284900,11.222284912109375,0.6069575933784246,1.0520981926426292,0.22161133667314423
1772732501231312600,11.232312744140625,0.6572662233799695,1.0628288454934953,0.18931480350121854
1772732501241341000,11.2423408203125,0.7466951498925686,0.9911074251070618,0.16063019548244772
1772732501251368700,11.25236865234375,0.833596019232273,0.8889458582714199,0.10623802249431609
1772732501261397000,11.26239697265625,0.9229273305892943,0.8506170043990016,0.030094952024018858
1772732501271423700,11.272423828125,1.0000602546304465,0.8313993859708309,-0.05909489361925516
1772732501281452000,11.2824521484375,1.0401870978355408,0.8052765181988477,-0.16608811382846905
1772732501291479800,11.292479736328126,0.9643670099586248,0.770366825120151,-0.28332645469419654
1772732501301507600,11.302507568359376,0.7485662044614553,0.7393880417495966,-0.33046693952102213
1772732501311535900,11.312535888671874,0.3769032216012478,0.6694710404366254,-0.28887813400458545
1772732501321563000,11.32256298828125,-0.08635141876339912,0.6399310576975346,-0.25487317121326925
1772732501331591000,11.3325908203125,-0.425663453117013,0.7278565939098596,-0.24878294631307943
1772732501341618700,11.34261865234375,-0.6770785928308963,0.7928677030026913,-0.35825861728806047
1772732501351647000,11.35264697265625,-0.9114876526862382,0.7928376001253724,-0.5190566801507026
1772732501361674800,11.3626748046875,-1.157732111763954,0.8073612155184149,-0.517237684562616
1772732501371701800,11.37270166015625,-1.3124492107450962,0.7240677230209112,-0.4004957671780139
1772732501381729800,11.382729736328125,-1.4627455706745385,0.5748986135557294,-0.37486882969681173
1772732501391757800,11.3927578125,-1.53102064999938,0.47018780062869187,-0.3289399856820702
1772732501401785900,11.402785888671875,-1.5677601888537407,0.4211066665954888,-0.21635177217712626
1772732501411813600,11.412813720703125,-1.5108955613374708,0.4106362721160054,-0.08281167293046601
1772732501421841000,11.4228408203125,-1.3672645045161247,0.4129762593708932,-0.019038967075769322
1772732501431868700,11.43286865234375,-1.1579448777318,0.41949718557223675,-0.0038391900038113815
1772732501441897000,11.44289697265625,-0.954504372113943,0.40809696289673447,0.10954981392342597
1772732501451924700,11.4529248046875,-0.8475479722172021,0.3465641974389553,0.1473009775057435
1772732501461953000,11.462953125,-0.5946919860452413,0.3059390493229031,0.06850444936761632
1772732501471980800,11.472980712890624,-0.1695721382856369,0.27181875305622816,0.000504405858181417
1772732501482007800,11.4830078125,0.3434527874201536,0.21385054821223018,-0.058425264429114755
1772732501492035800,11.493035888671875,0.7581441801458597,0.15661328799128532,-0.0937341128932312
1772732501502063900,11.50306396484375,1.0661281792998314,0.1251115036599338,-0.04190835632700473
1772732501512092000,11.513091796875,1.1360299830436706,0.08574614634662867,-0.0017228782698512077
1772732501522119700,11.52311962890625,0.9085293874025344,0.02341843111887574,0.12720453041642904
1772732501532147000,11.53314697265625,0.47116497509777544,-0.010953940212726592,0.2752433389437385
1772732501542174700,11.5431748046875,0.0931581761687994,0.030423341444879768,0.2621128584095277
1772732501552203000,11.553203125,-0.08461538875102996,0.11918036004528403,0.18394626220539212
1772732501562230800,11.563230712890626,-0.07131810028254985,0.2205442006319761,0.08273721945476718
1772732501572258800,11.5732587890625,0.09482464807629584,0.3134405109941959,0.02771150693660602
1772732501582285800,11.583285888671876,0.24561609804630277,0.3641925008490681,-0.0323998839485459
1772732501592313900,11.59331396484375,0.35635026291608807,0.34418782369643447,-0.026318189414683727
1772732501602342000,11.603341796875,0.4002648079663515,0.3224927092388272,-0.00513465947471559
1772732501612369700,11.61336962890625,0.4111445138990879,0.3063718877822161,-0.10497138182567432
1772732501622398000,11.62339794921875,0.4510451471328735,0.2936203966282308,-0.21638907198021187
1772732501632424700,11.6334248046875,0.4665525128662586,0.2970001021943986,-0.29220972611270846
1772732501642452700,11.64345263671875,0.4816372692734003,0.2789519659370184,-0.3008837752273306
1772732501652480800,11.653480712890625,0.42610652070939536,0.22677754206359385,-0.30147585936896504
1772732501662508800,11.6635087890625,0.32439620477259157,0.16764321604967117,-0.29423918611370026
1772732501672536800,11.673536865234375,0.2366746666997671,0.13477365049645304,-0.34764136168379334
1772732501682563800,11.683563720703125,0.10877309392988681,0.14658026201575994,-0.39509931496195494
1772732501692591900,11.693591796875,-0.0859644652724266,0.17664280732423066,-0.3834131149519235
1772732501702620000,11.703619873046875,-0.42500002077221866,0.24637583037242292,-0.3794904250828549
1772732501712648000,11.71364794921875,-0.7917138567924499,0.34271921244859693,-0.2955890663526952
1772732501722675700,11.72367578125,-1.0680658693641423,0.41712241926491256,-0.2650640911642462
1772732501732702700,11.73370263671875,-1.2016063248038291,0.43917467659711834,-0.2822498749712482
1772732501742730800,11.743730712890626,-1.2846575329780578,0.4607186921462416,-0.23145404597464947
1772732501752758800,11.7537587890625,-1.1491659434705972,0.4797600772246718,-0.13193046295978128
1772732501762786800,11.763786865234374,-0.8511433663606643,0.4939984459355473,-0.11194032578915357
1772732501772814800,11.77381494140625,-0.38903146629035473,0.4893167178601026,-0.09023553018774837
1772732501782843000,11.7838427734375,0.14491758950054645,0.45942456068247556,-0.04958225195575505
1772732501792870000,11.793869873046875,0.6348936480522155,0.3919605054795742,-0.07105473663862794
1772732501802898000,11.80389794921875,1.000077790287137,0.3122907564371824,-0.09521580281835049
1772732501812925700,11.81392578125,1.1669161196947098,0.2280544301316142,-0.028582937742583452
1772732501822954000,11.8239541015625,1.202863631388545,0.15305924877151847,0.0003546586565673351
1772732501832981800,11.833981689453125,1.1436848817110061,0.1199422843284905,-0.006166888599283993
1772732501843008800,11.8440087890625,1.0540981342881917,0.11794599594473838,-0.026696685604564844
1772732501853036800,11.854036865234375,0.9356681542187929,0.13434841082170604,-0.06868197962529957
1772732501863064800,11.86406494140625,0.6931663888007402,0.16723142037838695,-0.11777622886840253
1772732501873092900,11.8740927734375,0.5314245057493447,0.2113764131836593,-0.1915178665034473
1772732501883121000,11.884120849609374,0.38370238022208214,0.23234219045341015,-0.22088694965504108
1772732501893147600,11.894147705078124,0.18495967703163624,0.21958733829855917,-0.17608999574705958
1772732501903176000,11.904176025390624,-0.0536222845941782,0.20066344211995601,-0.07767769844233989
1772732501913203700,11.91420361328125,-0.2952887682318687,0.20494725691899657,-0.03881937733571976
1772732501923231700,11.924231689453125,-0.502240496841073,0.17799685228168963,0.026344310236629098
1772732501933259800,11.934259765625,-0.6441197415590286,0.10851166651472449,0.04009244774514809
1772732501943286800,11.944286865234375,-0.6948486427992582,0.08747969214096665,0.043720118456706404
1772732501953314800,11.954314697265625,-0.7085849072068929,0.06754106596186757,0.11591403345940635
1772732501963342800,11.9643427734375,-0.6510550937801599,0.04028028020113707,0.1915094822675921
1772732501973371000,11.974370849609375,-0.5938719018340111,0.01804652882218361,0.22178097588531673
1772732501983399000,11.98439892578125,-0.6099141050964594,-0.05698109350278973,0.23223736010575666
1772732501993426000,11.994426025390625,-0.6881190422832966,-0.07893515115752815,0.3170313020277768
1772732502003453700,12.00445361328125,-0.7661427776843309,-0.0417711032807827,0.4268386709088459
1772732502013481700,12.014481689453126,-0.7868722619801759,0.016764380057156084,0.41850532499067483
1772732502023509800,12.024509765625,-0.7534370253682137,0.05087342427745461,0.35978378102872516
1772732502033537800,12.034537841796874,-0.6408955188155174,0.03012961919531226,0.3734179367687553
1772732502043564800,12.044564697265624,-0.5105559052437544,-0.02018164115473628,0.5666482332132756
1772732502053592800,12.0545927734375,-0.3413467550516128,-0.08740706529617309,0.7417227683074772
1772732502063620900,12.064620849609375,-0.2731663682729006,-0.14686039413139224,0.8421455286517738
1772732502073649000,12.07464892578125,-0.17229191863834856,-0.08475362817794084,0.9078683662105351
1772732502083677000,12.084677001953125,0.020944003829360007,-0.0007249532736837863,0.9443907551828771
1772732502093703700,12.09470361328125,0.23241993186473844,-0.028255057495087384,0.9996672367248683
1772732502103732000,12.10473193359375,0.3980214129537344,-0.0981504314981401,1.14211076426208
1772732502113759700,12.114759765625,0.4295224666327238,-0.17116963661015033,1.2222628169286995
1772732502123787800,12.124787841796875,0.34640696105062957,-0.17490063983201978,1.1896820782542228
1772732502133815800,12.13481591796875,0.21637948216795921,-0.10772153905034064,1.1285475913990288
1772732502143842800,12.1448427734375,0.13478197993338106,-0.050250323943048715,1.0325160517510026
1772732502153870800,12.154870849609376,0.17016951965689658,-0.058819268715381616,0.9373800727032124
1772732502163898600,12.164898681640626,0.25495383523404597,-0.050759150248020884,0.7873428021013736
1772732502173927000,12.174927001953124,0.4385661893099546,-0.0069976038023829455,0.6170096163153648
1772732502183954700,12.18495458984375,0.6726309657722711,0.031196371643990275,0.5641472101777791
1772732502193982000,12.19498193359375,0.9874503639042377,-0.014148936861753463,0.6369771763280033
1772732502204009700,12.205009765625,1.276768241032958,-0.11508198481574654,0.6415667691405862
1772732502214038000,12.2150380859375,1.4256985733062029,-0.17135829105004668,0.6711681266780942
1772732502224066000,12.225066162109375,1.4907897618979216,-0.24988383849337695,0.6961576065059751
1772732502234093800,12.23509375,1.5120692812919616,-0.34908246387019753,0.6563873947188258
1772732502244120800,12.245120849609375,1.495900821301341,-0.4032297952517867,0.5697185440367087
1772732502254148900,12.25514892578125,1.4427157590806483,-0.3886678936749697,0.5053922388702631
1772732502264177000,12.265177001953125,1.3992647398889064,-0.38541064544469117,0.4613248048132285
1772732502274205000,12.275204833984375,1.3449503813773394,-0.42281040177345275,0.43066973697170613
1772732502284233000,12.28523291015625,1.2159680276334286,-0.5274345593303442,0.39774526289347556
1772732502294260000,12.295260009765625,0.9899556247234343,-0.6326919002242386,0.39382940462399274
1772732502304288000,12.3052880859375,0.618911650544405,-0.7103516246184707,0.3635906624983996
1772732502314315800,12.315315673828126,0.2738695481061935,-0.7045739179998636,0.2555556005194783
1772732502324343800,12.32534375,0.184756847935915,-0.6289632350899279,0.22995058260913936
1772732502334371800,12.335371826171874,0.18027941026091573,-0.6633769613452255,0.2972839241044596
1772732502344398800,12.34539892578125,0.02787818700671196,-0.7941193104989827,0.3698589656455442
1772732502354427000,12.355427001953124,-0.2823281643718481,-0.8512621704347432,0.3781754700267687
1772732502364455000,12.365454833984375,-0.7396347099870443,-0.8270809382498264,0.38385453857649116
1772732502374483000,12.37548291015625,-1.0570277579993008,-0.8086291896276175,0.4681024091893807
1772732502384511000,12.385510986328125,-1.0647101291954517,-0.7870856124699115,0.5289593212122097
1772732502394538000,12.3955380859375,-0.7540928589284419,-0.7562520827889442,0.5727409240651875
1772732502404565800,12.405565673828125,-0.3738824124753475,-0.7138495497368276,0.5704692528061568
1772732502414594000,12.415593994140625,-0.16811726330220697,-0.6671057726100087,0.5854743681058288
1772732502424621800,12.425621826171875,-0.1297580142915249,-0.5945384029187262,0.6511668105263263
1772732502434649900,12.43564990234375,-0.22920038529634473,-0.46332405233904717,0.626807956752181
1772732502444676900,12.4456767578125,-0.29744506948292254,-0.3845440917432308,0.6368298768118024
1772732502454705000,12.455704833984376,-0.30171383284330366,-0.27323636476919055,0.5992791677050292
1772732502464733000,12.46573291015625,-0.3033516631782055,-0.18580694151073693,0.5347348724063485
1772732502474761000,12.475760986328124,-0.3786836752772331,-0.1191018879815936,0.3791291174897924
1772732502484789000,12.4857890625,-0.5271475590825081,0.030079350312799215,0.11298234565537423
1772732502494815700,12.495815673828124,-0.4825988077819347,0.1842174803622067,0.05277944056186825
1772732502504844000,12.505843994140625,-0.1740413926541805,0.2709098215177655,0.008320230708271264
1772732502514871800,12.515871826171875,0.197836109739542,0.25683833380639554,-0.015114384360425174
1772732502524899800,12.52589990234375,0.48704117414355275,0.12478519431501627,0.09867043678425252
1772732502534928000,12.535927978515625,0.1330465344429016,0.12450199345946311,0.09734404701869934
1772732502544955100,12.545955078125,0.18775719879567623,0.10126227990835905,0.059323820704035454
1772732502554983000,12.55598291015625,0.6020160453230142,0.3622901743590832,-0.060646995599195355
1772732502565011000,12.566010986328125,0.5232172338962554,0.3842334183588624,0.011050020998343825
1772732502575039000,12.5760390625,0.35960078914463517,0.2328456099309027,0.09716839819084852
1772732502585066800,12.586066650390626,-0.04686170441806316,0.2586766551494598,0.267388478991203
