time,seconds_elapsed,z,y,x
1772732490070345200,0.07134521484375,0.30147022008895874,-0.0942486822605133,-0.17029501497745514
1772732490080373000,0.081373046875,0.25301480293273926,-0.16791971027851105,-0.10921194404363632
1772732490090400000,0.09139990234375,0.20489653944969177,-0.22604691982269287,-0.05180564150214195
1772732490100428000,0.101427978515625,0.15131719410419464,-0.245089590549469,-0.04434932395815849
1772732490110456000,0.1114560546875,0.07411783188581467,-0.22051692008972168,-0.07881267368793488
1772732490120484000,0.121484130859375,-0.014274082146584988,-0.16456922888755798,-0.12913097441196442
1772732490130511000,0.131510986328125,-0.09656096994876862,-0.09909967333078384,-0.17084327340126038
1772732490140539100,0.1415390625,-0.1745215356349945,-0.0832381546497345,-0.19619576632976532
1772732490150567200,0.151567138671875,-0.24636268615722656,-0.10883129388093948,-0.2314126193523407
1772732490160595200,0.16159521484375,-0.311516672372818,-0.10055658966302872,-0.2873682975769043
1772732490170623000,0.171623046875,-0.3807573616504669,-0.040150292217731476,-0.3348139226436615
1772732490180650000,0.18164990234375,-0.4419160485267639,0.032425373792648315,-0.34718722105026245
1772732490190678000,0.191677978515625,-0.48308423161506653,0.06459247320890427,-0.3119100332260132
1772732490200706000,0.2017060546875,-0.5070340037345886,0.08541759103536606,-0.25262725353240967
1772732490210734300,0.211734375,-0.5250293612480164,0.10657601058483124,-0.17707881331443787
1772732490220762400,0.221762451171875,-0.5369209051132202,0.10852091759443283,-0.08655929565429688
1772732490230789000,0.2317890625,-0.5378257632255554,0.1103169173002243,-0.008163209073245525
1772732490240817400,0.2418173828125,-0.5293896794319153,0.10497727990150452,0.033503543585538864
1772732490250845200,0.25184521484375,-0.520500898361206,0.08419603109359741,0.04554362595081329
1772732490260873200,0.261873291015625,-0.5130112767219543,0.0364796444773674,0.03954325616359711
1772732490270901200,0.2719013671875,-0.5000439882278442,-0.04724102094769478,0.04188584163784981
1772732490280928300,0.28192822265625,-0.4859186112880707,-0.12299489974975586,0.06278739869594574
1772732490290956300,0.291956298828125,-0.47254589200019836,-0.18167008459568024,0.1141338124871254
1772732490300984300,0.301984375,-0.4734726548194885,-0.2775699496269226,0.18073680996894836
1772732490311012400,0.312012451171875,-0.4683224558830261,-0.33465373516082764,0.22059200704097748
1772732490321040400,0.322040283203125,-0.47747308015823364,-0.31822842359542847,0.2182377725839615
1772732490331067400,0.3320673828125,-0.4881914258003235,-0.23160399496555328,0.2109011560678482
1772732490341095200,0.34209521484375,-0.4993450343608856,-0.10609454661607742,0.23999859392642975
1772732490351123500,0.35212353515625,-0.5128999948501587,0.015534748323261738,0.32688024640083313
1772732490361151200,0.362151123046875,-0.5135096311569214,0.14806562662124634,0.4418124258518219
1772732490371178500,0.372178466796875,-0.5122007727622986,0.2670932412147522,0.5504579544067383
1772732490381206300,0.382206298828125,-0.5259760022163391,0.33126235008239746,0.633943498134613
1772732490391234300,0.392234375,-0.5448961853981018,0.3629409074783325,0.6697559356689453
1772732490401262300,0.402262451171875,-0.570059597492218,0.40752753615379333,0.6465115547180176
1772732490411290000,0.4122900390625,-0.5930942893028259,0.46591436862945557,0.6013104915618896
1772732490421317400,0.4223173828125,-0.6017197370529175,0.535368025302887,0.5536121726036072
1772732490431345200,0.43234521484375,-0.6035854816436768,0.5850312113761902,0.5111767649650574
1772732490441373400,0.44237353515625,-0.596095860004425,0.6150253415107727,0.46647128462791443
1772732490451401200,0.452401123046875,-0.5666559934616089,0.6034746170043945,0.42433032393455505
1772732490461429200,0.46242919921875,-0.5161057114601135,0.5235390663146973,0.38765034079551697
1772732490471456300,0.472456298828125,-0.4382249116897583,0.40973910689353943,0.34702080488204956
1772732490481484300,0.482484375,-0.34915682673454285,0.3258034586906433,0.27037397027015686
1772732490491512300,0.49251220703125,-0.26155924797058105,0.2590220868587494,0.17799776792526245
1772732490501540000,0.5025400390625,-0.18565623462200165,0.15386450290679932,0.10965492576360703
1772732490511568400,0.512568359375,-0.11624784767627716,0.01709306612610817,0.06696152687072754
1772732490521595100,0.52259521484375,-0.06887410581111908,-0.09387456625699997,0.02210410311818123
1772732490531623400,0.53262353515625,-0.03659198433160782,-0.1717367321252823,-0.02320200391113758
1772732490541651200,0.542651123046875,-0.004765877965837717,-0.20429041981697083,-0.0651494488120079
1772732490551679500,0.552679443359375,0.032067567110061646,-0.2166527658700943,-0.11184918135404587
1772732490561707300,0.562707275390625,0.07624994218349457,-0.21477124094963074,-0.15588800609111786
1772732490571734300,0.572734375,0.11554155498743057,-0.19685855507850647,-0.18585021793842316
1772732490581762300,0.58276220703125,0.15974096953868866,-0.15916790068149567,-0.19484397768974304
1772732490591790000,0.5927900390625,0.18531441688537598,-0.1439911425113678,-0.1766783595085144
1772732490601818400,0.602818359375,0.18932515382766724,-0.13419310748577118,-0.13810592889785767
1772732490611846100,0.61284619140625,0.2059590220451355,-0.10601311177015305,-0.08422012627124786
1772732490621873400,0.622873291015625,0.21508993208408356,-0.08186063915491104,-0.02204597182571888
1772732490631901200,0.632901123046875,0.23130734264850616,-0.06289920955896378,0.0426132008433342
1772732490641929500,0.642929443359375,0.24776381254196167,-0.011168373748660088,0.08581579476594925
1772732490651957200,0.652957275390625,0.25032496452331543,0.04021178185939789,0.11866733431816101
1772732490661985300,0.6629853515625,0.2317211627960205,0.05086709186434746,0.13630865514278412
1772732490672013300,0.673013427734375,0.20526424050331116,-0.0039491187781095505,0.11209706217050552
1772732490682040300,0.683040283203125,0.1694580316543579,-0.07100724428892136,0.05709719657897949
1772732490692068400,0.693068359375,0.11408407241106033,-0.10104197263717651,-0.010226057842373848
1772732490702096100,0.70309619140625,0.060657065361738205,-0.07255493849515915,-0.06885581463575363
1772732490712124400,0.71312451171875,0.010639973916113377,-0.02809000015258789,-0.10817685723304749
1772732490722152200,0.723152099609375,-0.027623258531093597,0.01849135011434555,-0.13028667867183685
1772732490732179200,0.73317919921875,-0.05972291901707649,0.06718233972787857,-0.13768887519836426
1772732490742207200,0.743207275390625,-0.09394826740026474,0.11147549748420715,-0.13058222830295563
1772732490752235300,0.7532353515625,-0.1366351991891861,0.14894497394561768,-0.12552660703659058
1772732490762263300,0.76326318359375,-0.17514583468437195,0.1872795820236206,-0.13487990200519562
1772732490772291000,0.773291015625,-0.2013121396303177,0.21611660718917847,-0.1465313583612442
1772732490782318300,0.783318359375,-0.21289661526679993,0.19496284425258636,-0.13703373074531555
1772732490792346000,0.79334619140625,-0.2120584100484848,0.13479137420654297,-0.10445766150951385
1772732490802374400,0.80337451171875,-0.21107810735702515,0.06887201219797134,-0.046284906566143036
1772732490812402200,0.813402099609375,-0.20061655342578888,0.012001268565654755,0.010340339504182339
1772732490822430500,0.823430419921875,-0.18854017555713654,-0.04541994258761406,0.06045810133218765
1772732490832457200,0.833457275390625,-0.19280940294265747,-0.10548465698957443,0.10868217051029205
1772732490842485200,0.8434853515625,-0.19513487815856934,-0.17865952849388123,0.12366058677434921
1772732490852513300,0.85351318359375,-0.2038666009902954,-0.23632407188415527,0.09816300868988037
1772732490862541300,0.863541259765625,-0.19804146885871887,-0.2732059359550476,0.07040674239397049
1772732490872569300,0.8735693359375,-0.19775569438934326,-0.2657147943973541,0.0589178092777729
1772732490882597000,0.88359716796875,-0.1882932186126709,-0.2592441141605377,0.055790990591049194
1772732490892624400,0.893624267578125,-0.15487125515937805,-0.2564946115016937,0.038351088762283325
1772732490902652200,0.903652099609375,-0.10096009075641632,-0.21919704973697662,0.010411864146590233
1772732490912680400,0.913680419921875,-0.05920512229204178,-0.12865644693374634,-0.008341447450220585
1772732490922708200,0.923708251953125,-0.03549526631832123,-0.06206144019961357,-0.008429598063230515
1772732490932736500,0.933736572265625,-0.01902081072330475,-0.06347566097974777,0.006616191007196903
1772732490942763300,0.94376318359375,-0.006570000201463699,-0.12697526812553406,0.01370312925428152
1772732490952791300,0.953791259765625,0.00021263182861730456,-0.21919648349285126,-0.003668333636596799
1772732490962819300,0.9638193359375,0.005636692047119141,-0.3296380341053009,-0.025341138243675232
1772732490972847000,0.97384716796875,-0.0024669156409800053,-0.4455549716949463,-0.06680814921855927
1772732490982875400,0.98387548828125,-0.04262552037835121,-0.4986054003238678,-0.12684938311576843
1772732490992903200,0.993903076171875,-0.10165020823478699,-0.459163099527359,-0.1933397352695465
1772732491002930400,1.003930419921875,-0.17083539068698883,-0.3546540141105652,-0.24569375813007355
1772732491012958200,1.013958251953125,-0.22387553751468658,-0.22303691506385803,-0.27729862928390503
1772732491022986200,1.023986328125,-0.22836562991142273,-0.0462150014936924,-0.29047566652297974
1772732491033014300,1.03401416015625,-0.19629274308681488,0.14842650294303894,-0.2944369912147522
1772732491043042300,1.044042236328125,-0.14969460666179657,0.3332078158855438,-0.2854168713092804
1772732491053069300,1.0540693359375,-0.09610176086425781,0.44553154706954956,-0.2636813223361969
1772732491063097300,1.064097412109375,-0.04336877912282944,0.42078572511672974,-0.2081858366727829
1772732491073125400,1.07412548828125,0.010117162019014359,0.30094200372695923,-0.12053230404853821
1772732491083153200,1.084153076171875,0.05507824569940567,0.14281469583511353,-0.01457417942583561
1772732491093181400,1.094181396484375,0.0768621489405632,0.0012001655995845795,0.07508345693349838
1772732491103208200,1.104208251953125,0.044744960963726044,-0.09933602809906006,0.14061373472213745
1772732491113236200,1.114236328125,-0.049341559410095215,-0.18264998495578766,0.23442800343036652
1772732491123264300,1.12426416015625,-0.17748966813087463,-0.2699960768222809,0.38648730516433716
1772732491133292300,1.134292236328125,-0.3159456253051758,-0.29985007643699646,0.5698897838592529
1772732491143320300,1.1443203125,-0.4397786259651184,-0.2933921813964844,0.7807943224906921
1772732491153348000,1.15434814453125,-0.5364294648170471,-0.26990821957588196,0.9982112050056458
1772732491163375400,1.164375244140625,-0.6122480630874634,-0.21883465349674225,1.213513970375061
1772732491173403100,1.174403076171875,-0.6640617847442627,-0.15007683634757996,1.407625436782837
1772732491183431400,1.184431396484375,-0.6994776129722595,-0.07697118818759918,1.577012062072754
1772732491193459200,1.194459228515625,-0.6944292783737183,0.012603601440787315,1.662415623664856
1772732491203487500,1.204487548828125,-0.6508575677871704,0.1096196249127388,1.6116396188735962
1772732491213515300,1.214515380859375,-0.5999751687049866,0.1470092236995697,1.4597162008285522
1772732491223542300,1.224542236328125,-0.5227932929992676,0.1040433719754219,1.2634474039077759
1772732491233570300,1.2345703125,-0.4178934395313263,0.061441898345947266,1.0445703268051147
1772732491243598300,1.244598388671875,-0.2936468720436096,0.04992479085922241,0.8044280409812927
1772732491253626400,1.25462646484375,-0.18803119659423828,0.05736665055155754,0.5613721609115601
1772732491263654100,1.264654052734375,-0.07614701241254807,0.09995672106742859,0.3312974274158478
1772732491273681400,1.274681396484375,0.045622047036886215,0.16560639441013336,0.13768480718135834
1772732491283709200,1.284709228515625,0.18527954816818237,0.22260309755802155,-0.01797083392739296
1772732491293737200,1.2947373046875,0.3342936933040619,0.27480781078338623,-0.13882994651794434
1772732491303765200,1.30476513671875,0.46244099736213684,0.2937961518764496,-0.21929068863391876
1772732491313793300,1.314793212890625,0.5616127252578735,0.2694680094718933,-0.2773883640766144
1772732491323821300,1.3248212890625,0.6188299059867859,0.20581765472888947,-0.3102773427963257
1772732491333848300,1.334848388671875,0.6289604902267456,0.08898550271987915,-0.31799250841140747
1772732491343876400,1.34487646484375,0.5907342433929443,-0.06781876087188721,-0.31093963980674744
1772732491353904000,1.354904052734375,0.5238601565361023,-0.2176077514886856,-0.29464665055274963
1772732491363932400,1.364932373046875,0.4436097741127014,-0.3318040668964386,-0.26945340633392334
1772732491373960200,1.374960205078125,0.36817213892936707,-0.40665408968925476,-0.24393236637115479
1772732491383988500,1.384988525390625,0.2955160439014435,-0.4072034955024719,-0.22068217396736145
1772732491394015200,1.39501513671875,0.23393754661083221,-0.34488317370414734,-0.22884750366210938
1772732491404043300,1.405043212890625,0.18381792306900024,-0.2398286908864975,-0.25811856985092163
1772732491414071300,1.4150712890625,0.13889525830745697,-0.1302996426820755,-0.2886238694190979
1772732491424099300,1.425099365234375,0.0894283652305603,-0.032862044870853424,-0.30211812257766724
1772732491434127400,1.43512744140625,0.04602627083659172,0.05975308641791344,-0.30049991607666016
1772732491444155100,1.445155029296875,0.006586986128240824,0.13722124695777893,-0.2788372337818146
1772732491454182400,1.455182373046875,-0.028631987050175667,0.18388861417770386,-0.2382863610982895
1772732491464210200,1.465210205078125,-0.05886445939540863,0.2047576755285263,-0.18306997418403625
1772732491474238500,1.475238525390625,-0.08663308620452881,0.21388256549835205,-0.15498192608356476
1772732491484266200,1.485266357421875,-0.11983630806207657,0.22006110846996307,-0.17743369936943054
1772732491494294300,1.495294189453125,-0.15820825099945068,0.19704441726207733,-0.2206449806690216
1772732491504321300,1.5053212890625,-0.19699080288410187,0.1728096604347229,-0.2823624014854431
1772732491514349300,1.515349365234375,-0.22532236576080322,0.1456325203180313,-0.3377579152584076
1772732491524377300,1.52537744140625,-0.23930716514587402,0.11400695145130157,-0.37260326743125916
1772732491534405000,1.535405029296875,-0.2439136505126953,0.06816363334655762,-0.386453777551651
1772732491544433400,1.545433349609375,-0.24774514138698578,0.016055162996053696,-0.38542765378952026
1772732491554461200,1.555461181640625,-0.2543798089027405,-0.016071118414402008,-0.3821263313293457
1772732491564488200,1.56548828125,-0.26511818170547485,-0.03377901017665863,-0.3724777102470398
1772732491574516200,1.57551611328125,-0.26619264483451843,-0.027689265087246895,-0.3664168119430542
1772732491584544300,1.585544189453125,-0.2611750066280365,-0.0004555119667202234,-0.3385010361671448
1772732491594572300,1.595572265625,-0.24276959896087646,0.028613079339265823,-0.29520606994628906
1772732491604600000,1.60560009765625,-0.2214675098657608,0.05973318591713905,-0.23522236943244934
1772732491614628400,1.61562841796875,-0.2067968249320984,0.08258789032697678,-0.17569507658481598
1772732491624655400,1.6256552734375,-0.18890438973903656,0.11341264843940735,-0.13089138269424438
1772732491634683400,1.635683349609375,-0.17149999737739563,0.1450810730457306,-0.11256934702396393
1772732491644711200,1.645711181640625,-0.14697228372097015,0.15649351477622986,-0.11255070567131042
1772732491654739500,1.655739501953125,-0.10716763883829117,0.13490726053714752,-0.12260700762271881
1772732491664767200,1.665767333984375,-0.06600289046764374,0.08168930560350418,-0.14194262027740479
1772732491674795300,1.675795166015625,-0.03747822716832161,0.009684228338301182,-0.16309572756290436
1772732491684822300,1.685822265625,-0.02838139794766903,-0.04679209738969803,-0.1922016739845276
1772732491694850300,1.695850341796875,-0.02067009173333645,-0.0866914913058281,-0.20809833705425262
1772732491704878300,1.70587841796875,-0.0052213603630661964,-0.1141449585556984,-0.2075614482164383
1772732491714906000,1.715906005859375,0.024658290669322014,-0.11297375708818436,-0.18637186288833618
1772732491724934400,1.725934326171875,0.06524220108985901,-0.09448263049125671,-0.15635164082050323
1772732491734962200,1.735962158203125,0.10853035748004913,-0.07905035465955734,-0.11948452889919281
1772732491744989400,1.745989501953125,0.1408560872077942,-0.08556710928678513,-0.0918707475066185
1772732491755017200,1.756017333984375,0.1520308256149292,-0.10672887414693832,-0.08007878810167313
1772732491765045200,1.766045166015625,0.1503218710422516,-0.13633443415164948,-0.06480050086975098
1772732491775073300,1.7760732421875,0.14017684757709503,-0.16819487512111664,-0.03977803513407707
1772732491785101000,1.78610107421875,0.11337852478027344,-0.22801586985588074,0.014224211685359478
1772732491795128300,1.79612841796875,0.07612386345863342,-0.3255051076412201,0.10613062977790833
1772732491805156400,1.80615625,0.03192231059074402,-0.45949220657348633,0.21269410848617554
1772732491815184400,1.816184326171875,-0.0008088781032711267,-0.5689901113510132,0.27855008840560913
1772732491825212200,1.826212158203125,-0.030350258573889732,-0.617201566696167,0.2896011471748352
1772732491835240400,1.836240478515625,-0.03689911216497421,-0.5447624921798706,0.23385772109031677
1772732491845268200,1.846268310546875,0.016755327582359314,-0.32908716797828674,0.11312570422887802
1772732491855295200,1.856295166015625,0.13742412626743317,0.034564219415187836,-0.07008573412895203
1772732491865323300,1.8663232421875,0.2803719639778137,0.4156937301158905,-0.269429475069046
1772732491875351300,1.876351318359375,0.3689875304698944,0.6348731517791748,-0.3933664560317993
1772732491885379300,1.88637939453125,0.40216064453125,0.7010111808776855,-0.3910630941390991
1772732491895407000,1.896406982421875,0.39468565583229065,0.602856457233429,-0.2653447091579437
1772732491905435400,1.906435302734375,0.3693198561668396,0.35794922709465027,-0.09300438314676285
1772732491915462100,1.916462158203125,0.34170323610305786,0.09845142066478729,0.015329821035265923
1772732491925490400,1.926490478515625,0.29041314125061035,-0.10504177212715149,0.01339104026556015
1772732491935518200,1.936518310546875,0.18752853572368622,-0.22704316675662994,-0.04766984283924103
1772732491945546500,1.94654638671875,0.08488285541534424,-0.2629718780517578,-0.09873569011688232
1772732491955574300,1.95657421875,0.004575720522552729,-0.23598219454288483,-0.07615120708942413
1772732491965602300,1.966602294921875,-0.07669702917337418,-0.17542830109596252,0.028947515413165092
1772732491975630300,1.97663037109375,-0.15683700144290924,-0.10374390333890915,0.1941961646080017
1772732491985657000,1.986656982421875,-0.2402927428483963,-0.033187974244356155,0.38382628560066223
1772732491995685400,1.996685302734375,-0.3288656175136566,0.02878129482269287,0.5697580575942993
1772732492005713200,2.006713134765625,-0.42755359411239624,0.09955106675624847,0.7156135439872742
1772732492015741400,2.016741455078125,-0.5150829553604126,0.16461607813835144,0.797138512134552
1772732492025769200,2.026769287109375,-0.5788171887397766,0.229355126619339,0.7957355976104736
1772732492035796200,2.036796142578125,-0.6096935868263245,0.3099900484085083,0.7279327511787415
1772732492045824300,2.04682421875,-0.6127521991729736,0.4187426269054413,0.6135870218276978
1772732492055852300,2.056852294921875,-0.5875583291053772,0.5223574042320251,0.4738609790802002
1772732492065880300,2.06688037109375,-0.5423187017440796,0.6125400066375732,0.34068986773490906
1772732492075908000,2.076908203125,-0.4914435148239136,0.6701325178146362,0.23979347944259644
1772732492085936400,2.086936279296875,-0.4311783015727997,0.6937696933746338,0.18426337838172913
1772732492095964200,2.096964111328125,-0.3461272716522217,0.6840283870697021,0.17389291524887085
1772732492105991400,2.106991455078125,-0.26104938983917236,0.6255251169204712,0.19581632316112518
1772732492116019200,2.117019287109375,-0.20812608301639557,0.48284319043159485,0.23968304693698883
1772732492126047500,2.127047607421875,-0.20473401248455048,0.27455204725265503,0.28146135807037354
1772732492136075300,2.1370751953125,-0.24545811116695404,0.07286041975021362,0.3130144476890564
1772732492146103300,2.147103271484375,-0.29822835326194763,-0.09041212499141693,0.3225903809070587
1772732492156131300,2.15713134765625,-0.34286466240882874,-0.19062119722366333,0.30998051166534424
1772732492166158000,2.167157958984375,-0.38190582394599915,-0.2544720470905304,0.3060648739337921
1772732492176186400,2.177186279296875,-0.4356379210948944,-0.288419246673584,0.30671772360801697
1772732492186214100,2.187214111328125,-0.4692821502685547,-0.2858178913593292,0.318032443523407
1772732492196242400,2.197242431640625,-0.48496854305267334,-0.2741667628288269,0.3406720459461212
1772732492206269700,2.207269775390625,-0.4893092215061188,-0.2614573538303375,0.3701460361480713
1772732492216298000,2.217298095703125,-0.48119139671325684,-0.23307225108146667,0.38302889466285706
1772732492226324700,2.22732470703125,-0.4592338800430298,-0.2026219218969345,0.37276986241340637
1772732492236352800,2.237352783203125,-0.42022648453712463,-0.18458987772464752,0.3267582952976227
1772732492246380800,2.247380859375,-0.3850381374359131,-0.18066465854644775,0.24310946464538574
1772732492256408600,2.25740869140625,-0.36382126808166504,-0.19455675780773163,0.13779103755950928
1772732492266436900,2.267436767578125,-0.35095101594924927,-0.19457674026489258,0.02979479730129242
1772732492276464600,2.277464599609375,-0.32625052332878113,-0.17801901698112488,-0.05550959333777428
1772732492286492000,2.287491943359375,-0.29395756125450134,-0.13868917524814606,-0.1167612373828888
1772732492296519700,2.297519775390625,-0.2599011957645416,-0.09398332983255386,-0.15277670323848724
1772732492306548000,2.3075478515625,-0.23572155833244324,-0.06352528929710388,-0.1681836098432541
1772732492316575700,2.31757568359375,-0.22672390937805176,-0.05774514004588127,-0.15669511258602142
1772732492326603800,2.327603759765625,-0.20859123766422272,-0.06287385523319244,-0.1263318806886673
1772732492336631800,2.3376318359375,-0.1816733181476593,-0.08968468010425568,-0.08104756474494934
1772732492346658800,2.347658935546875,-0.1500040590763092,-0.1140613928437233,-0.04940707981586456
1772732492356686800,2.357686767578125,-0.13173146545886993,-0.11618474125862122,-0.05320766195654869
1772732492366714600,2.367714599609375,-0.13293522596359253,-0.11075375974178314,-0.07179705798625946
1772732492376743000,2.377742919921875,-0.14352571964263916,-0.07815775275230408,-0.09974655508995056
1772732492386770700,2.387770751953125,-0.14566263556480408,-0.01832212135195732,-0.1217019185423851
1772732492396799000,2.397799072265625,-0.1550309807062149,0.039987966418266296,-0.13196605443954468
1772732492406825700,2.40782568359375,-0.1550046056509018,0.09360378980636597,-0.1216694712638855
1772732492416853800,2.417853759765625,-0.14870527386665344,0.1352967619895935,-0.08849343657493591
1772732492426881800,2.4278818359375,-0.14597153663635254,0.15959863364696503,-0.04123137891292572
1772732492436909600,2.43790966796875,-0.13693444430828094,0.19211488962173462,0.015324451960623264
1772732492446937900,2.447937744140625,-0.1284504234790802,0.20327219367027283,0.06171085685491562
1772732492456965600,2.457965576171875,-0.1093517541885376,0.2069585919380188,0.07626383751630783
1772732492466993000,2.467992919921875,-0.09756407141685486,0.21915213763713837,0.05421685799956322
1772732492477020700,2.478020751953125,-0.10320422053337097,0.21666476130485535,0.04173407331109047
1772732492487049000,2.488049072265625,-0.11776772141456604,0.20055130124092102,0.06848712265491486
1772732492497076700,2.49807666015625,-0.1311286985874176,0.19468335807323456,0.14867711067199707
1772732492507104800,2.508104736328125,-0.15256129205226898,0.19704903662204742,0.2762949764728546
1772732492517132800,2.5181328125,-0.1737983375787735,0.22817477583885193,0.4391234517097473
1772732492527159800,2.528159912109375,-0.22364579141139984,0.2575443983078003,0.6165885329246521
1772732492537187800,2.538187744140625,-0.30725064873695374,0.2172127068042755,0.8078916072845459
1772732492547215600,2.548215576171875,-0.3720985949039459,0.1809535026550293,0.9402594566345215
1772732492557244000,2.558243896484375,-0.3867987394332886,0.17002679407596588,0.9530707001686096
1772732492567271700,2.568271728515625,-0.3487275242805481,0.1534467488527298,0.8487083315849304
1772732492577299700,2.5782998046875,-0.2615583837032318,0.1868879348039627,0.650779664516449
1772732492587327700,2.58832763671875,-0.1093326136469841,0.3005465567111969,0.3981436491012573
1772732492597355000,2.59835498046875,0.08779271692037582,0.4732007384300232,0.12285616248846054
1772732492607382800,2.6083828125,0.30624276399612427,0.7234311103820801,-0.13114042580127716
1772732492617410800,2.618410888671875,0.5171830654144287,0.9479119181632996,-0.3330248296260834
1772732492627438800,2.62843896484375,0.7243253588676453,1.077280879020691,-0.48837047815322876
1772732492637466600,2.638466552734375,0.882411539554596,1.0515435934066772,-0.5947908759117126
1772732492647495000,2.648494873046875,0.9745462536811829,0.8528485894203186,-0.6450785398483276
1772732492657521700,2.658521728515625,0.9984434247016907,0.5103351473808289,-0.6577003002166748
1772732492667550000,2.668550048828125,0.9534913897514343,0.0900891050696373,-0.6404414176940918
1772732492677577700,2.67857763671875,0.847291111946106,-0.3017963469028473,-0.5915879011154175
1772732492687605800,2.688605712890625,0.7171469926834106,-0.5962295532226562,-0.5285990834236145
1772732492697633800,2.6986337890625,0.6075738668441772,-0.695583701133728,-0.4629613161087036
1772732492707661800,2.708661865234375,0.5219172835350037,-0.6161935329437256,-0.40821337699890137
1772732492717688800,2.718688720703125,0.40937817096710205,-0.460212379693985,-0.318692147731781
1772732492727716600,2.728716552734375,0.26225876808166504,-0.29895851016044617,-0.16786830127239227
1772732492737745000,2.738744873046875,0.09722692519426346,-0.17198024690151215,0.050619855523109436
1772732492747772700,2.748772705078125,-0.059493184089660645,-0.08116432279348373,0.316919207572937
1772732492757800700,2.75880078125,-0.18513627350330353,-0.016325725242495537,0.5808486938476562
1772732492767828700,2.768828857421875,-0.2929826080799103,0.02752615138888359,0.7934512495994568
1772732492777856000,2.77885595703125,-0.40306514501571655,0.07267801463603973,0.931069016456604
1772732492787883800,2.7888837890625,-0.4919566810131073,0.1400623768568039,0.9631542563438416
1772732492797911800,2.798911865234375,-0.5305221676826477,0.20417948067188263,0.8614133596420288
1772732492807939800,2.80893994140625,-0.536406397819519,0.23981577157974243,0.6472477912902832
1772732492817967900,2.8189677734375,-0.5218164920806885,0.24249087274074554,0.37512317299842834
1772732492827996000,2.828995849609375,-0.4859977662563324,0.22288867831230164,0.09912433475255966
1772732492838022700,2.839022705078125,-0.3991052806377411,0.2115367352962494,-0.15298528969287872
1772732492848051000,2.849051025390625,-0.2439415156841278,0.23927143216133118,-0.3983737528324127
1772732492858078700,2.85907861328125,-0.017172418534755707,0.2972865402698517,-0.6499199867248535
1772732492868106800,2.869106689453125,0.2230266034603119,0.37347742915153503,-0.9207637310028076
1772732492878134800,2.879134765625,0.4404009282588959,0.4456879198551178,-1.204858660697937
1772732492888162800,2.889162841796875,0.6245792508125305,0.4363354444503784,-1.4405001401901245
1772732492898189800,2.89918994140625,0.7446219325065613,0.27867454290390015,-1.5467911958694458
1772732492908217600,2.909217529296875,0.795746386051178,0.011684106662869453,-1.4767827987670898
1772732492918246000,2.919245849609375,0.7622541785240173,-0.2984458804130554,-1.2425520420074463
1772732492928273700,2.929273681640625,0.6166213154792786,-0.6345080137252808,-0.896964967250824
1772732492938301700,2.9393017578125,0.3837321102619171,-0.9268267154693604,-0.5141133666038513
1772732492948329700,2.949329833984375,0.14287102222442627,-1.0353845357894897,-0.1793747991323471
1772732492958357800,2.959357666015625,-0.05918975546956062,-0.9979913234710693,0.08916492015123367
1772732492968384800,2.969384765625,-0.2290980964899063,-0.8434624671936035,0.31420576572418213
1772732492978412800,2.979412841796875,-0.34367164969444275,-0.6271373629570007,0.5070621967315674
1772732492988440800,2.98944091796875,-0.38766175508499146,-0.41860145330429077,0.6528817415237427
1772732492998468900,2.99946875,-0.3910839259624481,-0.22081011533737183,0.7235948443412781
1772732493008496600,3.00949658203125,-0.4090730547904968,-0.03731965646147728,0.7175185680389404
1772732493018525000,3.01952490234375,-0.44960907101631165,0.06280060857534409,0.6849527359008789
1772732493028552000,3.029552001953125,-0.4773746430873871,0.10206226259469986,0.6636477112770081
1772732493038579700,3.039579833984375,-0.46349912881851196,0.0908115953207016,0.6642351150512695
1772732493048607700,3.049607666015625,-0.43866273760795593,0.04995045065879822,0.6660828590393066
1772732493058635800,3.0596357421875,-0.4104110300540924,0.013256779871881008,0.6445615887641907
1772732493068663800,3.069663818359375,-0.3746519684791565,-0.012857910245656967,0.5809876918792725
1772732493078691800,3.07969189453125,-0.3269534409046173,-0.034571461379528046,0.48439326882362366
1772732493088718800,3.08971875,-0.24531514942646027,-0.06394354999065399,0.3450004756450653
1772732493098747000,3.099746826171875,-0.16053703427314758,-0.09818755090236664,0.2111137956380844
1772732493108775000,3.10977490234375,-0.08528542518615723,-0.1504073590040207,0.1118101105093956
1772732493118802700,3.119802734375,-0.02638205513358116,-0.22468142211437225,0.04226597771048546
1772732493128830700,3.129830810546875,-0.003453835379332304,-0.36921727657318115,-0.021785708144307137
1772732493138858800,3.139858642578125,-0.04476834461092949,-0.5276914238929749,-0.10338077694177628
1772732493148885800,3.1498857421875,-0.10323378443717957,-0.581412672996521,-0.2516312003135681
1772732493158913800,3.159913818359375,-0.12714776396751404,-0.4587433338165283,-0.4970705509185791
1772732493168941800,3.16994189453125,-0.08057600259780884,-0.1162477657198906,-0.8189481496810913
1772732493178969900,3.179969970703125,0.0334833487868309,0.4126281440258026,-1.0826762914657593
1772732493188997600,3.18999755859375,0.20108166337013245,0.7748987674713135,-1.1293940544128418
1772732493199026000,3.20002587890625,0.35088667273521423,0.8219948410987854,-0.9214681386947632
1772732493209053200,3.21005322265625,0.4195147454738617,0.634324848651886,-0.5640485286712646
1772732493219081500,3.22008154296875,0.3886888921260834,0.215827077627182,-0.15018686652183533
1772732493229109200,3.230109130859375,0.26383137702941895,-0.32670941948890686,0.18703164160251617
1772732493239137300,3.24013720703125,0.09833540767431259,-0.7622556686401367,0.3548653721809387
1772732493249165300,3.250165283203125,-0.08224528282880783,-1.0985162258148193,0.3799334466457367
1772732493259193000,3.260193115234375,-0.25701266527175903,-1.2981786727905273,0.3161008059978485
1772732493269220400,3.270220458984375,-0.38095805048942566,-1.3088757991790771,0.23136700689792633
1772732493279248100,3.280248046875,-0.4409323036670685,-1.1511399745941162,0.14811238646507263
1772732493289276400,3.2902763671875,-0.4318575859069824,-0.85370934009552,0.10059386491775513
1772732493299304200,3.30030419921875,-0.36912551522254944,-0.4766954183578491,0.08735881000757217
1772732493309332500,3.31033251953125,-0.2635152041912079,-0.1647559255361557,0.09168191999197006
1772732493319360300,3.3203603515625,-0.16501720249652863,0.06955444812774658,0.06535938382148743
1772732493329388300,3.33038818359375,-0.11793330311775208,0.23778606951236725,0.005322939250618219
1772732493339415300,3.340415283203125,-0.09932484477758408,0.3005262315273285,-0.05562569200992584
1772732493349443000,3.350443115234375,-0.0608576163649559,0.26831743121147156,-0.11020424962043762
1772732493359471400,3.360471435546875,-0.02967102639377117,0.15254712104797363,-0.16778026521205902
1772732493369499100,3.3704990234375,-0.027830516919493675,0.006483913864940405,-0.24985381960868835
1772732493379527400,3.38052734375,-0.048639941960573196,-0.11369381844997406,-0.33482885360717773
1772732493389555200,3.39055517578125,-0.09403352439403534,-0.1806776374578476,-0.39148736000061035
1772732493399582500,3.40058251953125,-0.12002722173929214,-0.2030322402715683,-0.39003318548202515
1772732493409610200,3.4106103515625,-0.10911492258310318,-0.20165672898292542,-0.3397130072116852
1772732493419638300,3.42063818359375,-0.08438338339328766,-0.14188307523727417,-0.2809106111526489
1772732493429666300,3.430666259765625,-0.08474370837211609,-0.00963769294321537,-0.23219925165176392
1772732493439694000,3.440694091796875,-0.08905378729104996,0.1465916633605957,-0.17955943942070007
1772732493449722400,3.450722412109375,-0.07791297882795334,0.29054778814315796,-0.14698576927185059
1772732493459749000,3.4607490234375,-0.06039535254240036,0.3697340488433838,-0.15638840198516846
1772732493469777400,3.47077734375,-0.04103364050388336,0.42103904485702515,-0.2103957086801529
1772732493479805200,3.48080517578125,-0.018140604719519615,0.44250649213790894,-0.26834094524383545
1772732493489833500,3.49083349609375,0.000811781152151525,0.4295627176761627,-0.3095954358577728
1772732493499861200,3.500861328125,0.03283148258924484,0.4058130979537964,-0.32046595215797424
1772732493509889300,3.51088916015625,0.06916792690753937,0.36255669593811035,-0.30548620223999023
1772732493519916300,3.520916259765625,0.11692462861537933,0.29984286427497864,-0.2936134934425354
1772732493529944000,3.530944091796875,0.15988941490650177,0.27637243270874023,-0.2991296947002411
1772732493539972400,3.540972412109375,0.188204824924469,0.27129852771759033,-0.2950800955295563
1772732493550000000,3.551000244140625,0.20581044256687164,0.27279147505760193,-0.2737617492675781
1772732493560028400,3.5610283203125,0.22878967225551605,0.28126850724220276,-0.24504436552524567
1772732493570056200,3.57105615234375,0.24229216575622559,0.3004358112812042,-0.21845696866512299
1772732493580083500,3.58108349609375,0.24486631155014038,0.31841203570365906,-0.20022834837436676
1772732493590111200,3.591111328125,0.2451736479997635,0.3197486698627472,-0.1937456727027893
1772732493600139300,3.60113916015625,0.24952416121959686,0.3003886044025421,-0.18641021847724915
1772732493610167300,3.611167236328125,0.25525930523872375,0.2695438861846924,-0.1707468330860138
1772732493620195300,3.6211953125,0.27793964743614197,0.270192950963974,-0.1422298401594162
1772732493630223400,3.631223388671875,0.3045281171798706,0.29130277037620544,-0.11936313658952713
1772732493640250000,3.64125,0.3214612901210785,0.3234606981277466,-0.0992344319820404
1772732493650278400,3.6512783203125,0.3243066072463989,0.35084253549575806,-0.08227462321519852
1772732493660306200,3.66130615234375,0.32821688055992126,0.3662984073162079,-0.06392724066972733
1772732493670334500,3.67133447265625,0.33386680483818054,0.3567850589752197,-0.036385633051395416
1772732493680362200,3.6813623046875,0.34941205382347107,0.3034069836139679,-0.002582665765658021
1772732493690390300,3.691390380859375,0.37198179960250854,0.22968031466007233,0.012846357189118862
1772732493700418300,3.701418212890625,0.3937895894050598,0.1499921828508377,0.0004225325828883797
1772732493710445000,3.711445068359375,0.405434250831604,0.09546954929828644,-0.01574605144560337
1772732493720473300,3.721473388671875,0.4038955867290497,0.06637237966060638,-0.015297526493668556
1772732493730501000,3.731501220703125,0.38870519399642944,0.03937937691807747,0.029009485617280006
1772732493740529400,3.741529296875,0.36549055576324463,-0.007873348891735077,0.10764352232217789
1772732493750557200,3.75155712890625,0.31873026490211487,-0.058585796505212784,0.2062755674123764
1772732493760585200,3.761585205078125,0.24068638682365417,-0.10188955068588257,0.31536567211151123
1772732493770612200,3.7716123046875,0.1509154886007309,-0.1293211728334427,0.40312057733535767
1772732493780640300,3.78164013671875,0.05337540805339813,-0.11849671602249146,0.453831285238266
1772732493790668300,3.791668212890625,-0.012453141622245312,-0.04220700263977051,0.43679293990135193
1772732493800696300,3.8016962890625,-0.018740488216280937,0.14696919918060303,0.3443349599838257
1772732493810724400,3.811724365234375,0.031762897968292236,0.3625161349773407,0.20998647809028625
1772732493820752400,3.82175244140625,0.12680849432945251,0.4921890199184418,0.08875264972448349
1772732493830779400,3.831779296875,0.24644142389297485,0.5182528495788574,0.011152130551636219
1772732493840807200,3.84180712890625,0.3882584571838379,0.4854120910167694,-0.05832967907190323
1772732493850835200,3.851835205078125,0.5375128984451294,0.43491268157958984,-0.1562996506690979
1772732493860863200,3.86186328125,0.6466758251190186,0.34443435072898865,-0.29094401001930237
1772732493870891300,3.871891357421875,0.7134210467338562,0.1778608113527298,-0.44222113490104675
1772732493880919300,3.881919189453125,0.7331706285476685,-0.038873735815286636,-0.5597202777862549
1772732493890946300,3.8919462890625,0.693670928478241,-0.24988718330860138,-0.598789632320404
1772732493900974300,3.901974365234375,0.6026939749717712,-0.4435635507106781,-0.5255920886993408
1772732493911002400,3.91200244140625,0.48248130083084106,-0.6185206770896912,-0.35847020149230957
1772732493921030400,3.922030517578125,0.3487567603588104,-0.7308189868927002,-0.15006792545318604
1772732493931058200,3.93205810546875,0.20756952464580536,-0.7779654860496521,0.06976164132356644
1772732493941086200,3.942086181640625,0.04705354571342468,-0.8008765578269958,0.282953679561615
1772732493951113200,3.95211328125,-0.09902244061231613,-0.7547524571418762,0.47522807121276855
1772732493961141200,3.962141357421875,-0.20569469034671783,-0.6199749708175659,0.6464994549751282
1772732493971169300,3.972169189453125,-0.2577464282512665,-0.4565972089767456,0.765978991985321
1772732493981197300,3.982197265625,-0.24834038317203522,-0.3079908490180969,0.804868757724762
1772732493991225300,3.992225341796875,-0.21565914154052734,-0.17761047184467316,0.7576826214790344
1772732494001253400,4.00225341796875,-0.17929217219352722,-0.09742941707372665,0.635650634765625
1772732494011280400,4.0122802734375,-0.12998294830322266,-0.05407848209142685,0.45032790303230286
1772732494021308200,4.02230810546875,-0.07841052114963531,-0.01101202517747879,0.21500180661678314
1772732494031336200,4.032336181640625,-0.030329812318086624,0.022838350385427475,-0.03580137714743614
1772732494041364200,4.0423642578125,0.020910657942295074,0.04449388012290001,-0.2653670012950897
1772732494051392300,4.052392333984375,0.06482432037591934,0.070278599858284,-0.4455953538417816
1772732494061420300,4.062420166015625,0.11554425209760666,0.08202262967824936,-0.5603446364402771
1772732494071447300,4.072447265625,0.14669737219810486,0.1004042997956276,-0.6167368292808533
1772732494081475300,4.082475341796875,0.1496201902627945,0.08714522421360016,-0.6247878074645996
1772732494091503400,4.09250341796875,0.14345045387744904,0.08879132568836212,-0.6180726289749146
1772732494101531400,4.102531494140625,0.13761375844478607,0.11240372061729431,-0.5966629981994629
1772732494111559400,4.112559326171875,0.12931214272975922,0.1343148797750473,-0.5576636791229248
1772732494121587200,4.122587158203125,0.11845933645963669,0.17133153975009918,-0.510597288608551
1772732494131614200,4.1326142578125,0.10459571331739426,0.21813634037971497,-0.4511347711086273
1772732494141642200,4.142642333984375,0.07910392433404922,0.25111842155456543,-0.3982451558113098
1772732494151670300,4.152670166015625,0.03584672883152962,0.24773569405078888,-0.3608144223690033
1772732494161698300,4.1626982421875,-0.016282564029097557,0.21600018441677094,-0.3308422863483429
1772732494171726300,4.172726318359375,-0.059957608580589294,0.1616213619709015,-0.2949069142341614
1772732494181754400,4.18275439453125,-0.09618450701236725,0.11768582463264465,-0.24202926456928253
1772732494191781400,4.192781494140625,-0.11758247762918472,0.053302302956581116,-0.1680021733045578
1772732494201809200,4.20280908203125,-0.127006396651268,-0.005278757307678461,-0.09426123648881912
1772732494211836700,4.212836669921875,-0.13229383528232574,-0.03731552138924599,-0.03190465644001961
1772732494221864400,4.222864501953125,-0.14443832635879517,-0.056562766432762146,0.017059070989489555
1772732494231892500,4.232892578125,-0.14976811408996582,-0.06755949556827545,0.05005190521478653
1772732494241920500,4.24292041015625,-0.15868505835533142,-0.08990369737148285,0.07088050246238708
1772732494251947500,4.252947509765625,-0.14978930354118347,-0.1296931803226471,0.08591111749410629
1772732494261975600,4.2629755859375,-0.13517670333385468,-0.17346590757369995,0.09284313768148422
1772732494272003600,4.273003662109375,-0.11898735910654068,-0.21532094478607178,0.0873895138502121
1772732494282031600,4.283031494140625,-0.10971835255622864,-0.24058589339256287,0.0797845870256424
1772732494292059600,4.2930595703125,-0.1013733372092247,-0.27276939153671265,0.08144214004278183
1772732494302087400,4.30308740234375,-0.10564065724611282,-0.2896316349506378,0.08544088155031204
1772732494312114400,4.313114501953125,-0.12688149511814117,-0.28798553347587585,0.08822228759527206
1772732494322142700,4.323142822265625,-0.16436158120632172,-0.27541840076446533,0.09045127779245377
1772732494332170500,4.33317041015625,-0.1993826925754547,-0.2497687190771103,0.1038626879453659
1772732494342198500,4.343198486328125,-0.22119925916194916,-0.23115471005439758,0.13266897201538086
1772732494352226600,4.3532265625,-0.2460646629333496,-0.230619415640831,0.18781131505966187
1772732494362254600,4.363254638671875,-0.26788008213043213,-0.2632744014263153,0.27586373686790466
1772732494372281600,4.373281494140625,-0.2732756435871124,-0.31284114718437195,0.3681776821613312
1772732494382309600,4.3833095703125,-0.25827857851982117,-0.4032748341560364,0.4288348853588104
1772732494392337700,4.393337646484375,-0.20874860882759094,-0.4769945740699768,0.40817832946777344
1772732494402365700,4.40336572265625,-0.11004092544317245,-0.4047621190547943,0.29995277523994446
1772732494412393500,4.4133935546875,0.018581504002213478,-0.23477678000926971,0.1299661248922348
1772732494422421800,4.423421875,0.11282230913639069,-0.05777400732040405,-0.05427201837301254
1772732494432448500,4.433448486328125,0.16863232851028442,0.06336866319179535,-0.20534756779670715
1772732494442476500,4.4434765625,0.2074572592973709,0.11838356405496597,-0.2986868917942047
1772732494452504600,4.453504638671875,0.24432551860809326,0.16872982680797577,-0.3123987019062042
1772732494462532600,4.46353271484375,0.2293023318052292,0.16741250455379486,-0.23659415543079376
1772732494472560600,4.473560546875,0.1559799164533615,0.11591043323278427,-0.07585267722606659
1772732494482588400,4.48358837890625,0.054512590169906616,0.028407344594597816,0.1379561573266983
1772732494492615400,4.493615478515625,-0.045323193073272705,-0.05112263560295105,0.3427172899246216
1772732494502643700,4.503643798828125,-0.14456585049629211,-0.09636402875185013,0.4998359978199005
1772732494512671500,4.51367138671875,-0.22993721067905426,-0.14026011526584625,0.5993471145629883
1772732494522699500,4.523699462890625,-0.2914370000362396,-0.18211859464645386,0.6485369801521301
1772732494532727600,4.5337275390625,-0.30505162477493286,-0.21303042769432068,0.6606873869895935
1772732494542755600,4.543755615234375,-0.2806183695793152,-0.20076590776443481,0.6260510087013245
1772732494552782600,4.553782470703125,-0.24391229450702667,-0.18650442361831665,0.5581329464912415
1772732494562810600,4.563810546875,-0.21498669683933258,-0.15927310287952423,0.4550101161003113
1772732494572838700,4.573838623046875,-0.19190961122512817,-0.08084274083375931,0.3286535143852234
1772732494582866700,4.58386669921875,-0.18588446080684662,0.021406853571534157,0.2096485048532486
1772732494592894500,4.59389453125,-0.19955845177173615,0.11198361963033676,0.1233876571059227
1772732494602922800,4.6039228515625,-0.23022915422916412,0.17836806178092957,0.08720462024211884
1772732494612949500,4.613949462890625,-0.262565016746521,0.2250088006258011,0.094551220536232
1772732494622977500,4.6239775390625,-0.29928839206695557,0.25018709897994995,0.12042329460382462
1772732494633005600,4.634005615234375,-0.32839542627334595,0.25299328565597534,0.12658771872520447
1772732494643033600,4.64403369140625,-0.3548594117164612,0.25491568446159363,0.09519051015377045
1772732494653061600,4.6540615234375,-0.3770187795162201,0.26795294880867004,0.03038487769663334
1772732494663089400,4.66408935546875,-0.38493993878364563,0.29195666313171387,-0.04329366236925125
1772732494673116700,4.67411669921875,-0.3727051317691803,0.31341347098350525,-0.11007215827703476
1772732494683144400,4.68414453125,-0.3485974967479706,0.32392647862434387,-0.14473028481006622
1772732494693172700,4.6941728515625,-0.3151921331882477,0.3251059949398041,-0.16456817090511322
1772732494703200500,4.704200439453125,-0.2963196337223053,0.3139495849609375,-0.18085287511348724
1772732494713228500,4.714228515625,-0.31115904450416565,0.2905140221118927,-0.17351481318473816
1772732494723256600,4.724256591796875,-0.3308930993080139,0.26033666729927063,-0.151188924908638
1772732494733283600,4.73428369140625,-0.3619585931301117,0.23306456208229065,-0.11272595077753067
1772732494743311600,4.7443115234375,-0.3851402997970581,0.21149326860904694,-0.07634357362985611
1772732494753339600,4.754339599609375,-0.4034883975982666,0.19685573875904083,-0.043821852654218674
1772732494763367700,4.76436767578125,-0.4130706191062927,0.1876106560230255,-0.021959688514471054
1772732494773395500,4.7743955078125,-0.4090510904788971,0.17327645421028137,-0.014024002477526665
1772732494783423700,4.784423828125,-0.39202192425727844,0.17598311603069305,-0.021743169054389
1772732494793450500,4.794450439453125,-0.3591603636741638,0.1801925003528595,-0.03132975101470947
1772732494803478500,4.804478515625,-0.3065837621688843,0.18573832511901855,-0.04449417069554329
1772732494813506600,4.814506591796875,-0.2441944032907486,0.1938559114933014,-0.06608840823173523
1772732494823534600,4.82453466796875,-0.17369693517684937,0.19595491886138916,-0.08772207051515579
1772732494833562600,4.834562744140625,-0.10632696002721786,0.19461748003959656,-0.10435910522937775
1772732494843590400,4.84459033203125,-0.04056907445192337,0.1927887201309204,-0.10516242682933807
1772732494853617700,4.85461767578125,0.01900503970682621,0.2062786966562271,-0.11250343173742294
1772732494863645400,4.8646455078125,0.0633065402507782,0.23162823915481567,-0.13176119327545166
1772732494873673700,4.874673828125,0.1022145226597786,0.24395520985126495,-0.147983580827713
1772732494883701500,4.884701416015625,0.1270560771226883,0.233700692653656,-0.15128664672374725
1772732494893729800,4.894729736328125,0.1401154100894928,0.21035276353359222,-0.1256989985704422
1772732494903757600,4.904757568359375,0.1486511379480362,0.1896294802427292,-0.08872713893651962
1772732494913784600,4.91478466796875,0.16800139844417572,0.17434212565422058,-0.05278965085744858
1772732494923812600,4.9248125,0.1958576887845993,0.14610101282596588,-0.02364780195057392
1772732494933840600,4.934840576171875,0.2407418042421341,0.10110636800527573,0.0003310335159767419
1772732494943868700,4.94486865234375,0.2969283163547516,0.051782988011837006,0.014395317994058132
1772732494953896400,4.954896484375,0.3491329252719879,0.027055803686380386,0.010124939493834972
1772732494963924700,4.9649248046875,0.3941636085510254,-0.0031393200624734163,0.009698370471596718
1772732494973951500,4.974951416015625,0.43561863899230957,-0.023229140788316727,0.01814565248787403
1772732494983979500,4.9849794921875,0.45925992727279663,-0.015788620337843895,0.034936077892780304
1772732494994007600,4.995007568359375,0.4604913890361786,0.0005179152358323336,0.047390084713697433
1772732495004035600,5.00503564453125,0.44731754064559937,0.012595105916261673,0.058546267449855804
1772732495014063600,5.015063720703125,0.43235617876052856,0.023238694295287132,0.07815565168857574
1772732495024091400,5.02509130859375,0.4292847812175751,0.018766924738883972,0.11635778099298477
1772732495034118700,5.03511865234375,0.42263755202293396,0.01366910059005022,0.15043824911117554
1772732495044146400,5.045146484375,0.42232176661491394,0.01754102297127247,0.17702877521514893
1772732495054174700,5.0551748046875,0.42872563004493713,0.015233926475048065,0.19788424670696259
1772732495064202500,5.065202392578125,0.4398983120918274,-0.008418070152401924,0.21674558520317078
1772732495074230800,5.075230712890625,0.46133169531822205,-0.026675371453166008,0.2335866093635559
1772732495084258600,5.085258544921875,0.48958659172058105,-0.04829079657793045,0.25117990374565125
1772732495094285600,5.09528564453125,0.5058315992355347,-0.08534921705722809,0.2607553005218506
1772732495104313600,5.105313720703125,0.5143635272979736,-0.10508154332637787,0.2591182589530945
1772732495114341400,5.11534130859375,0.5077424049377441,-0.09144296497106552,0.25063368678092957
1772732495124369700,5.12536962890625,0.4736015200614929,-0.03684816136956215,0.2586945593357086
1772732495134397400,5.1353974609375,0.40836283564567566,0.013350825756788254,0.30624130368232727
1772732495144425700,5.14542578125,0.3177829086780548,0.06858037412166595,0.3724745213985443
1772732495154452500,5.155452392578125,0.21931812167167664,0.13326029479503632,0.44984307885169983
1772732495164480800,5.165480712890625,0.13475379347801208,0.23590826988220215,0.5335516333580017
1772732495174508500,5.175508544921875,0.07193490117788315,0.3756730854511261,0.6325157284736633
1772732495184536600,5.18553662109375,0.05020058900117874,0.5234954357147217,0.7734928131103516
1772732495194564600,5.195564697265625,0.10894300043582916,0.6542568802833557,0.9267510771751404
1772732495204592400,5.20559228515625,0.21849095821380615,0.6905414462089539,1.0583076477050781
1772732495214619400,5.215619384765625,0.3308055102825165,0.5284031629562378,1.1404534578323364
1772732495224647400,5.2256474609375,0.4247501790523529,0.23611916601657867,1.1304478645324707
1772732495234675500,5.235675537109375,0.46044105291366577,-0.09819329530000687,1.0169825553894043
1772732495244703200,5.245703125,0.3912331163883209,-0.4904179871082306,0.8377137184143066
1772732495254731500,5.2557314453125,0.22963885962963104,-0.8162525296211243,0.5981360077857971
1772732495264759300,5.26575927734375,0.023784851655364037,-0.9248571991920471,0.3036760091781616
1772732495274786600,5.27578662109375,-0.14769448339939117,-0.8020796179771423,-0.042130667716264725
1772732495284814300,5.285814453125,-0.24600322544574738,-0.5887163877487183,-0.3898504972457886
1772732495294842400,5.29584228515625,-0.2728486955165863,-0.42716899514198303,-0.6666903495788574
1772732495304870400,5.305870361328125,-0.21122945845127106,-0.4024379253387451,-0.8048918843269348
1772732495314898400,5.3158984375,-0.08602066338062286,-0.5477067232131958,-0.782243013381958
1772732495324924400,5.32592431640625,0.031618881970644,-0.7468137145042419,-0.6544229984283447
1772732495334952400,5.335952392578125,0.06715825200080872,-0.8786813616752625,-0.5180486440658569
1772732495344980500,5.34598046875,0.004926379770040512,-0.8784551620483398,-0.42581528425216675
1772732495355008300,5.35600830078125,-0.12355676293373108,-0.7241108417510986,-0.4073222875595093
1772732495365035300,5.36603515625,-0.27415019273757935,-0.4411637783050537,-0.4627417325973511
1772732495375063300,5.376063232421875,-0.43516597151756287,-0.09709266573190689,-0.5542032122612
1772732495385091300,5.38609130859375,-0.5720797181129456,0.22334162890911102,-0.6181380748748779
1772732495395119400,5.396119384765625,-0.6732625365257263,0.4310825765132904,-0.6271102428436279
1772732495405147400,5.4061474609375,-0.7435892820358276,0.5200856328010559,-0.5807816982269287
1772732495415175400,5.416175537109375,-0.7892653942108154,0.5442487597465515,-0.505666971206665
1772732495425202400,5.426202392578125,-0.7944669127464294,0.5421906113624573,-0.45648545026779175
1772732495435230500,5.43623046875,-0.7686688303947449,0.5410680770874023,-0.4579794704914093
1772732495445258500,5.446258544921875,-0.7056387662887573,0.542766809463501,-0.5395342111587524
1772732495455286500,5.45628662109375,-0.6124827265739441,0.5613003373146057,-0.6821776628494263
1772732495465314300,5.466314208984375,-0.5085628032684326,0.5786133408546448,-0.8489664196968079
1772732495475342600,5.476342529296875,-0.39705151319503784,0.5770777463912964,-0.987183690071106
1772732495485369300,5.486369384765625,-0.28486838936805725,0.5375267267227173,-1.0740371942520142
1772732495495397400,5.4963974609375,-0.18683744966983795,0.46832898259162903,-1.0939459800720215
1772732495505425400,5.50642529296875,-0.12518951296806335,0.3361639082431793,-1.051986575126648
1772732495515453400,5.516453369140625,-0.12208187580108643,0.1438959538936615,-0.9605871438980103
1772732495525481500,5.5264814453125,-0.17684538662433624,-0.08960433304309845,-0.8482760787010193
1772732495535509200,5.53650927734375,-0.2616657316684723,-0.32333827018737793,-0.7194656133651733
1772732495545536500,5.54653662109375,-0.34755751490592957,-0.5180350542068481,-0.5995103716850281
1772732495555564300,5.556564208984375,-0.40479496121406555,-0.6493973135948181,-0.48600298166275024
1772732495565592600,5.566592529296875,-0.44402962923049927,-0.7267810106277466,-0.37269100546836853
1772732495575620400,5.576620361328125,-0.4746173620223999,-0.7454053163528442,-0.25347432494163513
1772732495585648400,5.5866484375,-0.499892920255661,-0.711895227432251,-0.13543236255645752
1772732495595676400,5.596676513671875,-0.5088558197021484,-0.6115092635154724,-0.024435531347990036
1772732495605703400,5.606703369140625,-0.5062872767448425,-0.44719457626342773,0.07080894708633423
1772732495615731500,5.6167314453125,-0.49588096141815186,-0.2175629734992981,0.16785027086734772
1772732495625759500,5.626759521484375,-0.5079393982887268,0.013315411284565926,0.28319236636161804
1772732495635787500,5.63678759765625,-0.5244920253753662,0.19313044846057892,0.4111942648887634
1772732495645815300,5.646815185546875,-0.5302793383598328,0.3262118101119995,0.49360817670822144
1772732495655843600,5.656843505859375,-0.5720589756965637,0.39488062262535095,0.5766162276268005
1772732495665870300,5.666870361328125,-0.6534648537635803,0.36220109462738037,0.7000201344490051
1772732495675898400,5.6768984375,-0.7697435021400452,0.1843072474002838,0.8564148545265198
1772732495685926400,5.686926513671875,-0.8960562944412231,-0.12601588666439056,1.0152432918548584
1772732495695954400,5.696954345703125,-0.9794231057167053,-0.47527986764907837,1.109012484550476
1772732495705983500,5.7069833984375,-1.0108230113983154,-0.723889172077179,1.0862207412719727
1772732495716011500,5.717011474609375,-0.9844355583190918,-0.7898082733154297,0.9614772200584412
1772732495726039300,5.727039306640625,-0.8396764993667603,-0.5846925377845764,0.7202591896057129
1772732495736067300,5.7370673828125,-0.5458056926727295,-0.16802126169204712,0.4580635130405426
1772732495746095400,5.747095458984375,-0.15435445308685303,0.3226151168346405,0.28698793053627014
1772732495756122400,5.757122314453125,0.24962711334228516,0.6404769420623779,0.2533351480960846
1772732495766150400,5.767150390625,0.5722885727882385,0.6841650009155273,0.26547080278396606
1772732495776178400,5.777178466796875,0.7919924855232239,0.5033289194107056,0.23376189172267914
1772732495786206500,5.78720654296875,0.8886375427246094,0.0496700182557106,0.17923487722873688
1772732495796234500,5.797234375,0.8547291159629822,-0.5811188220977783,0.10475585609674454
1772732495806262500,5.807262451171875,0.6675522327423096,-1.1975018978118896,0.03157312050461769
1772732495816289500,5.81728955078125,0.41329464316368103,-1.6634488105773926,-0.005573449656367302
1772732495826317300,5.8273173828125,0.19856850802898407,-1.929163932800293,0.027941633015871048
1772732495836345300,5.837345458984375,-0.000458578288089484,-2.016857624053955,0.1413177251815796
1772732495846373400,5.847373291015625,-0.15914592146873474,-1.9096311330795288,0.2814401388168335
1772732495856401400,5.8574013671875,-0.2689584493637085,-1.6242228746414185,0.414208322763443
1772732495866429400,5.867429443359375,-0.32662829756736755,-1.2126421928405762,0.5059071779251099
1772732495876456400,5.87745654296875,-0.3409518301486969,-0.6854369640350342,0.5414667725563049
1772732495886484500,5.887484375,-0.34504392743110657,-0.14998693764209747,0.5243423581123352
1772732495896512500,5.897512451171875,-0.3675793409347534,0.30344074964523315,0.4907931685447693
1772732495906540300,5.907540283203125,-0.357479065656662,0.605483889579773,0.4733242094516754
1772732495916568600,5.917568603515625,-0.3236430585384369,0.7728766202926636,0.466891884803772
1772732495926596400,5.927596435546875,-0.30217039585113525,0.8588256239891052,0.4645848572254181
1772732495936623400,5.937623291015625,-0.30189236998558044,0.8164203763008118,0.47062331438064575
1772732495946651400,5.9476513671875,-0.29730239510536194,0.7062408328056335,0.45981186628341675
1772732495956679400,5.957679443359375,-0.30115729570388794,0.5902199149131775,0.42656177282333374
1772732495966707500,5.96770751953125,-0.29728224873542786,0.4906686842441559,0.37351229786872864
1772732495976735200,5.9777353515625,-0.28106173872947693,0.4304037392139435,0.31395575404167175
1772732495986763500,5.987763427734375,-0.247172012925148,0.4062037467956543,0.25858503580093384
1772732495996790500,5.99779052734375,-0.19536340236663818,0.43027153611183167,0.193289116024971
1772732496006818300,6.007818359375,-0.13413047790527344,0.4927763044834137,0.132784903049469
1772732496016846300,6.017846435546875,-0.07176031917333603,0.5423718094825745,0.09483939409255981
1772732496026874400,6.027874267578125,-0.003193723503500223,0.5735665559768677,0.07779859006404877
1772732496036902400,6.03790234375,0.05964116379618645,0.5804217457771301,0.06387797743082047
1772732496046930400,6.047930419921875,0.10160277783870697,0.5631595849990845,0.045229606330394745
1772732496056957400,6.05795751953125,0.11565148830413818,0.5174221992492676,0.022121893242001534
1772732496066985500,6.0679853515625,0.10378846526145935,0.4398033916950226,0.01534754503518343
1772732496077013500,6.078013427734375,0.0805521160364151,0.3346647024154663,0.02879943884909153
1772732496087041300,6.088041259765625,0.06102949008345604,0.24746182560920715,0.050509389489889145
1772732496097069600,6.098069580078125,0.048071879893541336,0.22145074605941772,0.06839118152856827
1772732496107097300,6.108097412109375,0.03772963210940361,0.24271902441978455,0.07718862593173981
1772732496117124400,6.118124267578125,0.06175294518470764,0.3124621510505676,0.05077698826789856
1772732496127152400,6.12815234375,0.09041256457567215,0.42933952808380127,0.0005074597429484129
1772732496137180400,6.138180419921875,0.12122534215450287,0.5822582244873047,-0.04993600770831108
1772732496147208400,6.14820849609375,0.17368483543395996,0.7032458782196045,-0.05497986450791359
1772732496157236200,6.158236328125,0.26486936211586,0.745272159576416,-0.02904094196856022
1772732496167264500,6.168264404296875,0.3750387132167816,0.7142122387886047,-0.007568576373159885
1772732496177291500,6.17829150390625,0.46635663509368896,0.6492905020713806,-0.01664889045059681
1772732496187319600,6.188319580078125,0.5314263105392456,0.5634544491767883,-0.032938964664936066
1772732496197347300,6.198347412109375,0.5724472403526306,0.4578140377998352,-0.04817064851522446
1772732496207375600,6.208375732421875,0.6002652645111084,0.3339059054851532,-0.051689084619283676
1772732496217403600,6.218403564453125,0.6365002393722534,0.22645799815654755,-0.06806512922048569
1772732496227431400,6.228431396484375,0.6844428777694702,0.15776102244853973,-0.10621079057455063
1772732496237458400,6.23845849609375,0.7298164963722229,0.09686118364334106,-0.16722194850444794
1772732496247486500,6.248486572265625,0.7496746182441711,0.022664010524749756,-0.23459412157535553
1772732496257514500,6.258514404296875,0.7220017313957214,-0.1143614798784256,-0.262931227684021
1772732496267542500,6.26854248046875,0.6741397380828857,-0.343318909406662,-0.22870194911956787
1772732496277570600,6.278570556640625,0.621518611907959,-0.5885683298110962,-0.16194342076778412
1772732496287598600,6.2885986328125,0.5784008502960205,-0.7752610445022583,-0.15032118558883667
1772732496297625600,6.29862548828125,0.5472437739372253,-0.8472649455070496,-0.23302538692951202
1772732496307653600,6.308653564453125,0.550935685634613,-0.7969395518302917,-0.4092023968696594
1772732496317681700,6.318681640625,0.5901073217391968,-0.6132096648216248,-0.6180040836334229
1772732496327709700,6.328709716796875,0.6685272455215454,-0.3304910957813263,-0.782447099685669
1772732496337737500,6.338737548828125,0.7640247344970703,-0.02830807864665985,-0.8328649997711182
1772732496347765800,6.348765869140625,0.8142430186271667,0.18247783184051514,-0.7382173538208008
1772732496357792500,6.35879248046875,0.7925137281417847,0.2596101760864258,-0.5349845886230469
1772732496367820500,6.368820556640625,0.7135535478591919,0.20008210837841034,-0.29677680134773254
1772732496377848600,6.3788486328125,0.5757434964179993,0.016847848892211914,-0.08208712935447693
1772732496387876600,6.388876708984375,0.39324235916137695,-0.24332116544246674,0.0729251578450203
1772732496397904600,6.398904541015625,0.2012508064508438,-0.4804469048976898,0.15655586123466492
1772732496407932400,6.408932373046875,0.01311749592423439,-0.5987027883529663,0.1955917328596115
1772732496417959700,6.418959716796875,-0.15306402742862701,-0.6250023245811462,0.23794159293174744
1772732496427987500,6.428987548828125,-0.25497233867645264,-0.6097539067268372,0.28149452805519104
1772732496438015500,6.439015380859375,-0.31462663412094116,-0.5120819211006165,0.2929093539714813
1772732496448043500,6.44904345703125,-0.3515881896018982,-0.3310241401195526,0.2761921286582947
1772732496458071600,6.459071533203125,-0.36373913288116455,-0.13690635561943054,0.22662723064422607
1772732496468099600,6.469099609375,-0.3626934587955475,0.061675094068050385,0.1450735181570053
1772732496478126600,6.479126708984375,-0.3499385118484497,0.2424248903989792,0.047110188752412796
1772732496488154600,6.489154541015625,-0.3367423713207245,0.3700411915779114,-0.03492557257413864
1772732496498182700,6.4991826171875,-0.31526026129722595,0.44128739833831787,-0.0810384750366211
1772732496508210700,6.509210693359375,-0.29795852303504944,0.4562171697616577,-0.07699523866176605
1772732496518238500,6.519238525390625,-0.3060374855995178,0.41965970396995544,-0.012452200055122375
1772732496528266800,6.529266845703125,-0.322152316570282,0.34835806488990784,0.09281330555677414
1772732496538293500,6.53929345703125,-0.3325876295566559,0.25374552607536316,0.19378598034381866
1772732496548321500,6.549321533203125,-0.34117868542671204,0.1690368950366974,0.2536371648311615
1772732496558349600,6.559349609375,-0.332705557346344,0.11966296285390854,0.25368431210517883
1772732496568377600,6.569377685546875,-0.3036133646965027,0.09192780405282974,0.20901361107826233
1772732496578405600,6.579405517578125,-0.24213427305221558,0.055786047130823135,0.14160580933094025
1772732496588433400,6.589433349609375,-0.16350021958351135,0.031178317964076996,0.05998292192816734
1772732496598460700,6.599460693359375,-0.09718672186136246,0.009369960054755211,-0.013917666859924793
1772732496608488400,6.609488525390625,-0.04573928564786911,-0.009132470935583115,-0.06086992099881172
1772732496618516700,6.619516845703125,-0.0028959494084119797,-0.02873094007372856,-0.08541760593652725
1772732496628544500,6.62954443359375,0.027974285185337067,-0.053147729486227036,-0.10218575596809387
1772732496638572800,6.63957275390625,0.03725326806306839,-0.07894417643547058,-0.11379528045654297
1772732496648600600,6.6496005859375,0.0325973741710186,-0.09865877032279968,-0.12096555531024933
1772732496658627600,6.659627685546875,0.023138893768191338,-0.08215808868408203,-0.14297738671302795
1772732496668655600,6.669655517578125,0.01545540802180767,-0.016774024814367294,-0.16889739036560059
1772732496678683400,6.679683349609375,0.011409000493586063,0.06118921563029289,-0.18009145557880402
1772732496688711700,6.689711669921875,0.01686468906700611,0.14266538619995117,-0.17908331751823425
1772732496698739500,6.699739501953125,0.04211145639419556,0.20979328453540802,-0.17567260563373566
1772732496708767700,6.709767822265625,0.06788485497236252,0.23827774822711945,-0.16883867979049683
1772732496718794500,6.71979443359375,0.09774554520845413,0.25011709332466125,-0.15242108702659607
1772732496728822500,6.729822509765625,0.11387501657009125,0.22493205964565277,-0.1011456698179245
1772732496738850600,6.7398505859375,0.12352311611175537,0.14080412685871124,-0.01647045835852623
1772732496748878600,6.749878662109375,0.12347970902919769,0.029431350529193878,0.07238107919692993
1772732496758906600,6.75990673828125,0.10720992833375931,-0.09169108420610428,0.12645629048347473
1772732496768934400,6.769934326171875,0.08844985067844391,-0.20219546556472778,0.12499735504388809
1772732496778961700,6.779961669921875,0.07824541628360748,-0.2715495228767395,0.06553934514522552
1772732496788989400,6.789989501953125,0.07865944504737854,-0.30599597096443176,-0.01577022671699524
1772732496799017700,6.800017822265625,0.09347354620695114,-0.31430503726005554,-0.09452229738235474
1772732496809045500,6.81004541015625,0.12609803676605225,-0.2992427349090576,-0.15428756177425385
1772732496819073800,6.82007373046875,0.17276674509048462,-0.26882755756378174,-0.20893296599388123
1772732496829101600,6.8301015625,0.2145184874534607,-0.24670352041721344,-0.2600010335445404
1772732496839128600,6.840128662109375,0.2319675236940384,-0.20912018418312073,-0.3022632598876953
1772732496849156600,6.850156494140625,0.2263597548007965,-0.18011511862277985,-0.29817861318588257
1772732496859184400,6.860184326171875,0.2046067863702774,-0.17361222207546234,-0.22394967079162598
1772732496869212700,6.870212646484375,0.15895527601242065,-0.16244256496429443,-0.10337823629379272
1772732496879240400,6.880240478515625,0.08762864023447037,-0.16278530657291412,0.050160448998212814
1772732496889268700,6.890268798828125,0.007932588458061218,-0.18994566798210144,0.19427932798862457
1772732496899295500,6.90029541015625,-0.07497374713420868,-0.2247135043144226,0.29634684324264526
1772732496909323800,6.91032373046875,-0.1326514184474945,-0.2443600744009018,0.34871551394462585
1772732496919351600,6.9203515625,-0.1556563377380371,-0.2570455074310303,0.3210199773311615
1772732496929379600,6.930379638671875,-0.1518869698047638,-0.25223225355148315,0.20208492875099182
1772732496939407600,6.94040771484375,-0.12531207501888275,-0.23500719666481018,0.00709226680919528
1772732496949435400,6.950435302734375,-0.06518451869487762,-0.20250922441482544,-0.23458945751190186
1772732496959462700,6.960462646484375,0.02811480686068535,-0.15561415255069733,-0.4713210165500641
1772732496969490400,6.970490478515625,0.11894533038139343,-0.10878507792949677,-0.6372667551040649
1772732496979518700,6.980518798828125,0.181757852435112,-0.10777174681425095,-0.68807053565979
1772732496989546500,6.99054638671875,0.19474594295024872,-0.16193822026252747,-0.6223514676094055
1772732496999574800,7.00057470703125,0.14949218928813934,-0.2668505311012268,-0.46272262930870056
1772732497009601500,7.0106015625,0.05092047154903412,-0.4006401002407074,-0.26236000657081604
1772732497019629600,7.020629638671875,-0.052368633449077606,-0.4720152020454407,-0.10513680428266525
1772732497029657600,7.03065771484375,-0.14453327655792236,-0.47398415207862854,-0.04522400721907616
1772732497039685400,7.040685302734375,-0.237619549036026,-0.4274139702320099,-0.06258648633956909
1772732497049713700,7.050713623046875,-0.2945087254047394,-0.31576085090637207,-0.1447451263666153
1772732497059741400,7.060741455078125,-0.3154694139957428,-0.1360991895198822,-0.2428426593542099
1772732497069768700,7.070768798828125,-0.30434754490852356,0.060770973563194275,-0.31400707364082336
1772732497079796500,7.08079638671875,-0.27245140075683594,0.21227741241455078,-0.3282743990421295
1772732497089824800,7.09082470703125,-0.26047566533088684,0.27840495109558105,-0.2965703308582306
1772732497099852500,7.1008525390625,-0.26673516631126404,0.29688677191734314,-0.24685363471508026
1772732497109880600,7.110880615234375,-0.29558590054512024,0.2522449493408203,-0.19939839839935303
1772732497119908600,7.12090869140625,-0.31996074318885803,0.1894814521074295,-0.16360098123550415
1772732497129935600,7.130935546875,-0.34836873412132263,0.13011839985847473,-0.1440591663122177
1772732497139963600,7.140963623046875,-0.3910083472728729,0.07230675965547562,-0.12874972820281982
1772732497149991400,7.150991455078125,-0.4361023008823395,0.04310573637485504,-0.11360564827919006
1772732497160019700,7.161019775390625,-0.4746702015399933,0.03579775616526604,-0.08719028532505035
1772732497170047500,7.171047607421875,-0.4966592490673065,0.03265675902366638,-0.05811476707458496
1772732497180075500,7.181075439453125,-0.5027424097061157,0.0470878966152668,-0.03589468076825142
1772732497190102500,7.1911025390625,-0.4780162274837494,0.0582503117620945,-0.023837614804506302
1772732497200130600,7.201130615234375,-0.4434449374675751,0.07455365359783173,-0.045892052352428436
1772732497210158600,7.21115869140625,-0.41149765253067017,0.10055391490459442,-0.08997699618339539
1772732497220187000,7.221186767578125,-0.3806007206439972,0.13018077611923218,-0.1446455717086792
1772732497230215000,7.23121484375,-0.3439311385154724,0.18582701683044434,-0.18538230657577515
1772732497240243000,7.241242919921875,-0.31315669417381287,0.2208569049835205,-0.20072904229164124
1772732497250270000,7.25127001953125,-0.2904191017150879,0.22270554304122925,-0.19765140116214752
1772732497260298000,7.261298095703125,-0.2832948863506317,0.22884438931941986,-0.2015598565340042
1772732497270326000,7.271325927734375,-0.28390586376190186,0.21619123220443726,-0.20117145776748657
1772732497280354000,7.28135400390625,-0.2924426198005676,0.18662641942501068,-0.1925625205039978
1772732497290381800,7.2913818359375,-0.296110600233078,0.13715358078479767,-0.16372230648994446
1772732497300409900,7.301409912109375,-0.3056580126285553,0.05957809463143349,-0.10502596199512482
1772732497310436900,7.311436767578125,-0.32210543751716614,-0.029338102787733078,-0.01340394839644432
1772732497320465000,7.32146484375,-0.3486158847808838,-0.08008197695016861,0.08921431005001068
1772732497330493000,7.331492919921875,-0.3612913489341736,-0.1307525336742401,0.18887671828269958
1772732497340521000,7.34152099609375,-0.3609427511692047,-0.13808341324329376,0.2660522162914276
1772732497350549000,7.351549072265625,-0.3273375332355499,-0.09154167771339417,0.30259135365486145
1772732497360576800,7.36157666015625,-0.2752026915550232,-0.10364387929439545,0.3047400116920471
1772732497370603800,7.371603759765625,-0.2181263118982315,-0.14423201978206635,0.24104595184326172
1772732497380631800,7.3816318359375,-0.18536649644374847,-0.09261037409305573,0.11235322803258896
1772732497390659800,7.391659912109375,-0.17668499052524567,0.059882231056690216,-0.06202022358775139
1772732497400687900,7.40168798828125,-0.15544627606868744,0.2649903893470764,-0.23930232226848602
1772732497410716000,7.4117158203125,-0.12438013404607773,0.47170111536979675,-0.3646780550479889
1772732497420744000,7.421743896484375,-0.10014696419239044,0.5863328576087952,-0.3950202465057373
1772732497430771000,7.43177099609375,-0.10283204168081284,0.5915921926498413,-0.31301018595695496
1772732497440799000,7.441799072265625,-0.12012980133295059,0.5137956738471985,-0.14555193483829498
1772732497450827000,7.451826904296875,-0.12724220752716064,0.3809080123901367,0.044334184378385544
1772732497460855000,7.46185498046875,-0.12192095816135406,0.2370869368314743,0.17917774617671967
1772732497470882800,7.4718828125,-0.13000386953353882,0.08556143939495087,0.23329444229602814
1772732497480909800,7.481909912109375,-0.16559354960918427,-0.0501929335296154,0.2202063351869583
1772732497490937900,7.491937744140625,-0.20262092351913452,-0.11880651116371155,0.1637645661830902
1772732497500966000,7.5019658203125,-0.2512989640235901,-0.16255025565624237,0.12321794033050537
1772732497510994000,7.511993896484375,-0.2969534993171692,-0.229694664478302,0.10418640077114105
1772732497521022000,7.52202197265625,-0.3127620220184326,-0.27523738145828247,0.09414947777986526
1772732497531050000,7.532050048828125,-0.3036201000213623,-0.2713831663131714,0.07814788073301315
1772732497541077000,7.542076904296875,-0.276560515165329,-0.25573843717575073,0.07218426465988159
1772732497551105000,7.55210498046875,-0.21430933475494385,-0.2226550281047821,0.05159476399421692
1772732497561132800,7.5621328125,-0.11542005091905594,-0.1943991482257843,-0.003488194663077593
1772732497571160800,7.572160888671875,0.02101917378604412,-0.14867691695690155,-0.09167958796024323
1772732497581188900,7.58218896484375,0.16347245872020721,-0.08584495633840561,-0.1929396390914917
1772732497591217000,7.592216796875,0.2779659032821655,0.008645966649055481,-0.2839955687522888
1772732497601244000,7.602243896484375,0.35345664620399475,0.12156399339437485,-0.34010252356529236
1772732497611272000,7.61227197265625,0.3697061836719513,0.23269511759281158,-0.3404718339443207
1772732497621300000,7.622300048828125,0.33332499861717224,0.30568328499794006,-0.27071699500083923
1772732497631327700,7.63232763671875,0.2467319220304489,0.2833542823791504,-0.13784627616405487
1772732497641356000,7.64235595703125,0.13699130713939667,0.15290893614292145,0.04201669991016388
1772732497651383800,7.6523837890625,-0.000956605770625174,-0.06337323039770126,0.2289707213640213
1772732497661410800,7.662410888671875,-0.15437358617782593,-0.292448490858078,0.3795887231826782
1772732497671438800,7.67243896484375,-0.3044244349002838,-0.43882760405540466,0.4858756363391876
1772732497681467000,7.682466796875,-0.4334934949874878,-0.5077806115150452,0.5655744671821594
1772732497691495000,7.692494873046875,-0.5036152601242065,-0.48776060342788696,0.6111946105957031
1772732497701523000,7.70252294921875,-0.5236606001853943,-0.3816829025745392,0.6271988749504089
1772732497711551000,7.712551025390625,-0.5095381140708923,-0.24150338768959045,0.6161555051803589
1772732497721578000,7.722577880859375,-0.47804009914398193,-0.10145546495914459,0.5790467262268066
1772732497731606000,7.73260595703125,-0.4195637106895447,0.019118638709187508,0.5239101648330688
1772732497741633800,7.7426337890625,-0.3162916600704193,0.11865375190973282,0.4259132742881775
1772732497751662000,7.752662109375,-0.1898994743824005,0.1816312074661255,0.2870400846004486
1772732497761689900,7.76268994140625,-0.06401719152927399,0.2370438575744629,0.10371127724647522
1772732497771718100,7.77271826171875,0.04492492973804474,0.29206570982933044,-0.10282311588525772
1772732497781745000,7.782744873046875,0.13693101704120636,0.34283140301704407,-0.30768758058547974
1772732497791773000,7.79277294921875,0.20273546874523163,0.3625034689903259,-0.4760909378528595
1772732497801801000,7.802801025390625,0.2403523474931717,0.353829026222229,-0.5683841109275818
1772732497811828700,7.812828857421875,0.264568954706192,0.3176666498184204,-0.5811570882797241
1772732497821857000,7.82285693359375,0.2744503617286682,0.274959921836853,-0.5333285927772522
1772732497831884000,7.832884033203125,0.28288528323173523,0.21527689695358276,-0.45236408710479736
1772732497841911800,7.842911865234375,0.2854461669921875,0.15169286727905273,-0.3700180649757385
1772732497851939800,7.85293994140625,0.2873808741569519,0.09070649743080139,-0.29575634002685547
1772732497861968000,7.8629677734375,0.2825927734375,0.056132543832063675,-0.24371500313282013
1772732497871996000,7.872995849609375,0.2925890386104584,0.028474343940615654,-0.21565213799476624
1772732497882024000,7.88302392578125,0.3019534945487976,0.017705585807561874,-0.2104717642068863
1772732497892051000,7.893051025390625,0.2993980944156647,0.018868062645196915,-0.21399357914924622
1772732497902079000,7.903078857421875,0.2932291328907013,0.049604132771492004,-0.22807742655277252
1772732497912107000,7.91310693359375,0.29103025794029236,0.06648961454629898,-0.24177075922489166
1772732497922134800,7.923134765625,0.2954745292663574,0.039979446679353714,-0.24200113117694855
1772732497932163000,7.9331630859375,0.30506661534309387,-0.018493514508008957,-0.2355177402496338
1772732497942190800,7.94319091796875,0.31719785928726196,-0.07440978288650513,-0.2251037061214447
1772732497952217900,7.9532177734375,0.3273230791091919,-0.112801194190979,-0.21621088683605194
1772732497962246000,7.963245849609375,0.334751695394516,-0.13695073127746582,-0.2109452784061432
1772732497972274000,7.97327392578125,0.3246569335460663,-0.15844257175922394,-0.19984808564186096
1772732497982302000,7.983302001953125,0.3154362440109253,-0.15029489994049072,-0.19018134474754333
1772732497992329700,7.993329833984375,0.3112715780735016,-0.12080396711826324,-0.17379455268383026
1772732498002357000,8.00335693359375,0.31733718514442444,-0.12683576345443726,-0.1482737511396408
1772732498012384800,8.013384765625,0.3201061189174652,-0.14064911007881165,-0.11137151718139648
1772732498022413000,8.0234130859375,0.3162631690502167,-0.12674793601036072,-0.07875099033117294
1772732498032440800,8.03344091796875,0.2969999611377716,-0.10198846459388733,-0.056372594088315964
1772732498042469000,8.04346923828125,0.2704274654388428,-0.10819841921329498,-0.03931291773915291
1772732498052497000,8.053496826171875,0.24350646138191223,-0.11854430288076401,-0.029438868165016174
1772732498062524000,8.06352392578125,0.21059565246105194,-0.10345190018415451,-0.012357085943222046
1772732498072552000,8.073552001953125,0.17840296030044556,-0.0816311165690422,0.013635060749948025
1772732498082580000,8.083580078125,0.15328562259674072,-0.058334317058324814,0.04476421698927879
1772732498092608000,8.09360791015625,0.13358786702156067,-0.016343502327799797,0.08559198677539825
1772732498102635800,8.1036357421875,0.10798877477645874,0.07268357276916504,0.14446675777435303
1772732498112664000,8.1136640625,0.0692596510052681,0.24574823677539825,0.2466985136270523
1772732498122690800,8.12369091796875,0.029432615265250206,0.5122603178024292,0.42412710189819336
1772732498132718800,8.13371875,0.033327534794807434,0.6444347500801086,0.6425325870513916
1772732498142747000,8.143746826171874,0.06981976330280304,0.5631729364395142,0.8232342004776001
1772732498152775000,8.15377490234375,0.09682390093803406,0.29113224148750305,0.8835372924804688
1772732498162803000,8.163802978515625,0.0976545438170433,-0.08104852586984634,0.7989904284477234
1772732498172830700,8.173830810546875,0.08557969331741333,-0.4050111174583435,0.585049569606781
1772732498182858000,8.18385791015625,0.0837748721241951,-0.6231415867805481,0.3095381259918213
1772732498192885800,8.1938857421875,0.10580577701330185,-0.7146855592727661,0.04982946440577507
1772732498202914000,8.2039140625,0.16782920062541962,-0.6629608273506165,-0.165123850107193
1772732498212941300,8.21394140625,0.2660497725009918,-0.49689626693725586,-0.31633201241493225
1772732498222969300,8.22396923828125,0.35917600989341736,-0.29489994049072266,-0.37778446078300476
1772732498232996400,8.233996337890625,0.41533249616622925,-0.12431282550096512,-0.3471783995628357
1772732498243024400,8.2440244140625,0.42752471566200256,-0.043650735169649124,-0.26860636472702026
1772732498253052400,8.254052490234375,0.3839135766029358,-0.0653570145368576,-0.17543508112430573
1772732498263080400,8.26408056640625,0.2892938554286957,-0.20581212639808655,-0.07694367319345474
1772732498273108500,8.2741083984375,0.15687072277069092,-0.4001770615577698,0.027139538899064064
1772732498283136300,8.28413623046875,0.020609015598893166,-0.580895185470581,0.13479436933994293
1772732498293163300,8.294163330078124,-0.10880298912525177,-0.6755728125572205,0.21611656248569489
1772732498303191300,8.30419140625,-0.24128593504428864,-0.6806312203407288,0.2491765171289444
1772732498313219300,8.31421923828125,-0.35522496700286865,-0.5938462018966675,0.21947580575942993
1772732498323247400,8.324247314453125,-0.40465858578681946,-0.42861220240592957,0.14844557642936707
1772732498333275400,8.334275390625,-0.4029894471168518,-0.22841815650463104,0.05557636916637421
1772732498343303400,8.344303466796875,-0.3522375822067261,-0.054997626692056656,-0.011265244334936142
1772732498353330400,8.354330322265625,-0.26942571997642517,0.07409142702817917,-0.06657709926366806
1772732498363358500,8.3643583984375,-0.20080512762069702,0.1549934595823288,-0.13908751308918
1772732498373386500,8.374386474609375,-0.15019406378269196,0.20824262499809265,-0.23278464376926422
1772732498383414500,8.38441455078125,-0.09261438250541687,0.25599896907806396,-0.33383721113204956
1772732498393442300,8.3944423828125,-0.047364238649606705,0.2723636329174042,-0.39321550726890564
1772732498403469300,8.40446923828125,-0.015186594799160957,0.23592333495616913,-0.3921419680118561
1772732498413497300,8.414497314453126,0.00748078990727663,0.15782277286052704,-0.3306049108505249
1772732498423525400,8.424525390625,0.007814751006662846,0.0563930980861187,-0.2512829303741455
1772732498433553400,8.434553466796874,-0.028866862878203392,-0.047241441905498505,-0.16028212010860443
1772732498443581400,8.44458154296875,-0.07390331476926804,-0.13221412897109985,-0.06709703803062439
1772732498453609500,8.454609375,-0.09606189280748367,-0.19029296934604645,0.01260179840028286
1772732498463636500,8.464636474609375,-0.09546960890293121,-0.21108613908290863,0.051798202097415924
1772732498473664500,8.47466455078125,-0.10073671489953995,-0.2177245318889618,0.05277298763394356
1772732498483692300,8.4846923828125,-0.10077692568302155,-0.20882585644721985,0.0138298524543643
1772732498493720300,8.49472021484375,-0.07950223237276077,-0.17308034002780914,-0.050290342420339584
1772732498503748400,8.504748291015625,-0.04067014902830124,-0.12193326652050018,-0.12243324518203735
1772732498513776400,8.5147763671875,0.003658182453364134,-0.05350644141435623,-0.1823703646659851
1772732498523803400,8.524803466796875,0.05562657490372658,0.043708790093660355,-0.22566057741641998
1772732498533831400,8.53483154296875,0.11118144541978836,0.1533503383398056,-0.260459840297699
1772732498543859500,8.544859375,0.14659136533737183,0.23462282121181488,-0.263110488653183
1772732498553887500,8.554887451171876,0.16208483278751373,0.2790144085884094,-0.25289323925971985
1772732498563915500,8.56491552734375,0.15649005770683289,0.28777459263801575,-0.23821710050106049
1772732498573942500,8.574942626953124,0.14656059443950653,0.25986117124557495,-0.22651997208595276
1772732498583970300,8.58497021484375,0.11532624810934067,0.22110043466091156,-0.22977782785892487
1772732498593998300,8.594998291015624,0.08209969848394394,0.17595122754573822,-0.23700638115406036
1772732498604026400,8.6050263671875,0.06011956185102463,0.14458291232585907,-0.23746657371520996
1772732498614054400,8.615054443359375,0.05290314927697182,0.13805219531059265,-0.2247736006975174
1772732498624082400,8.62508251953125,0.06645570695400238,0.17237527668476105,-0.19093947112560272
1772732498634109400,8.635109375,0.09293939173221588,0.23359087109565735,-0.14210696518421173
1772732498644137500,8.645137451171875,0.13049980998039246,0.2933359742164612,-0.08277519047260284
1772732498654165500,8.65516552734375,0.16636605560779572,0.3205072283744812,-0.010987014509737492
1772732498664193300,8.665193359375,0.20169687271118164,0.2973683476448059,0.04790692776441574
1772732498674221600,8.6752216796875,0.22491103410720825,0.24283793568611145,0.0773097574710846
1772732498684249300,8.685249267578126,0.23369014263153076,0.1875360608100891,0.06546827405691147
1772732498694276400,8.6952763671875,0.22879841923713684,0.15154367685317993,0.014407285489141941
1772732498704304400,8.705304443359376,0.22371843457221985,0.1503646969795227,-0.05462317913770676
1772732498714332400,8.71533251953125,0.2309107929468155,0.14503790438175201,-0.12117625772953033
1772732498724360400,8.7253603515625,0.2442668080329895,0.13859064877033234,-0.1676662564277649
1772732498734388200,8.73538818359375,0.25203052163124084,0.13374587893486023,-0.18876634538173676
1772732498744415500,8.74541552734375,0.26423606276512146,0.14883294701576233,-0.18272604048252106
1772732498754443500,8.755443603515625,0.2715832591056824,0.1712392419576645,-0.16074210405349731
1772732498764471300,8.76547119140625,0.27983561158180237,0.19065210223197937,-0.13499359786510468
1772732498774499300,8.775499267578125,0.2726588845252991,0.1957017034292221,-0.1157977283000946
1772732498784527400,8.78552734375,0.25501173734664917,0.17197799682617188,-0.08334045112133026
1772732498794555400,8.795555419921875,0.22250452637672424,0.11542009562253952,-0.046245820820331573
1772732498804582400,8.80558251953125,0.18565809726715088,0.03650743514299393,-0.010298207402229309
1772732498814610400,8.8156103515625,0.15388353168964386,-0.028357744216918945,0.0014689096715301275
1772732498824638500,8.825638427734376,0.11898521333932877,-0.0763164758682251,-0.025386406108736992
1772732498834666500,8.83566650390625,0.09266046434640884,-0.09081495553255081,-0.06936677545309067
1772732498844694300,8.8456943359375,0.08508004248142242,-0.07445382326841354,-0.12310270965099335
1772732498854721300,8.85572119140625,0.10840516537427902,-0.01705891266465187,-0.20049117505550385
1772732498864749300,8.865749267578124,0.1516474336385727,0.0541958287358284,-0.30569350719451904
1772732498874777300,8.87577734375,0.2022126317024231,0.14938396215438843,-0.42189332842826843
1772732498884805400,8.885805419921875,0.2405959814786911,0.26244714856147766,-0.5239054560661316
1772732498894833400,8.89583349609375,0.2678731679916382,0.3534422516822815,-0.5650002956390381
1772732498904861400,8.905861328125,0.30266445875167847,0.42379283905029297,-0.5375513434410095
1772732498914888400,8.915888427734375,0.32588180899620056,0.4569060802459717,-0.43938809633255005
1772732498924916500,8.92591650390625,0.3365251421928406,0.44125601649284363,-0.3055136799812317
1772732498934944500,8.935944580078125,0.3268130123615265,0.3794935941696167,-0.15190373361110687
1772732498944972500,8.94597265625,0.288738876581192,0.24103212356567383,0.02367795631289482
1772732498955000300,8.956000244140625,0.22655707597732544,0.05783591419458389,0.20368964970111847
1772732498965028600,8.966028564453126,0.15869787335395813,-0.08872369676828384,0.35059282183647156
1772732498975055400,8.976055419921876,0.11494600027799606,-0.1472681611776352,0.44474488496780396
1772732498985083400,8.98608349609375,0.09057647734880447,-0.12114094197750092,0.48715677857398987
1772732498995111400,8.996111328125,0.08965834230184555,-0.051426492631435394,0.4899621605873108
1772732499005139500,9.006139404296874,0.11256499588489532,0.0333845354616642,0.4670584499835968
1772732499015167500,9.01616748046875,0.14895430207252502,0.15975962579250336,0.4264132082462311
1772732499025194500,9.026194580078124,0.19640810787677765,0.2970477044582367,0.37443071603775024
1772732499035222300,9.03622216796875,0.25322794914245605,0.40879541635513306,0.30722910165786743
1772732499045250300,9.046250244140625,0.30007562041282654,0.48868119716644287,0.23285581171512604
1772732499055278300,9.0562783203125,0.3397606611251831,0.5294851064682007,0.16727373003959656
1772732499065306400,9.066306396484375,0.38707491755485535,0.5277827978134155,0.10692330449819565
1772732499075334400,9.07633447265625,0.4320509433746338,0.4838951528072357,0.05868539214134216
1772732499085361400,9.086361328125,0.4556761085987091,0.43184924125671387,0.02292313426733017
1772732499095389400,9.096389404296875,0.4655036926269531,0.35436615347862244,0.012372820638120174
1772732499105417500,9.10641748046875,0.45185044407844543,0.2616167664527893,0.033394213765859604
1772732499115445200,9.1164453125,0.42362043261528015,0.17445552349090576,0.08013402670621872
1772732499125473500,9.1264736328125,0.39280152320861816,0.08207551389932632,0.1446475088596344
1772732499135500500,9.13650048828125,0.36296555399894714,-0.002703574951738119,0.18390309810638428
1772732499145528300,9.1465283203125,0.34384673833847046,-0.07351889461278915,0.18407273292541504
1772732499155556400,9.156556396484374,0.33340349793434143,-0.12471623718738556,0.14140604436397552
1772732499165584400,9.16658447265625,0.32507047057151794,-0.15978208184242249,0.07127195596694946
1772732499175612400,9.1766123046875,0.3330861032009125,-0.16954712569713593,-0.017322804778814316
1772732499185640400,9.186640380859375,0.34784403443336487,-0.1400829702615738,-0.10801994800567627
1772732499195667500,9.19666748046875,0.3732662796974182,-0.08678631484508514,-0.18627256155014038
1772732499205695500,9.206695556640625,0.40315333008766174,-0.023712536320090294,-0.2607273757457733
1772732499215723800,9.216723876953125,0.4380725026130676,0.04191186651587486,-0.3185774087905884
1772732499225751600,9.22675146484375,0.47172099351882935,0.0755515918135643,-0.3603515028953552
1772732499235779800,9.23677978515625,0.49114301800727844,0.05791124701499939,-0.3839212954044342
1772732499245806600,9.246806640625,0.4976065158843994,0.002949991961941123,-0.3915685713291168
1772732499255834600,9.256834716796876,0.48018166422843933,-0.06922597438097,-0.38357019424438477
1772732499265862700,9.266862548828126,0.433362752199173,-0.13721860945224762,-0.3654228746891022
1772732499275890700,9.276890625,0.3636941909790039,-0.23010949790477753,-0.32532042264938354
1772732499285918700,9.286918701171874,0.28406405448913574,-0.3321903347969055,-0.259644478559494
1772732499295946500,9.296946533203124,0.21997235715389252,-0.41659286618232727,-0.1811644732952118
1772732499305973800,9.306973876953125,0.1810353547334671,-0.4839721918106079,-0.10326061397790909
1772732499316001500,9.31700146484375,0.17025607824325562,-0.517928957939148,-0.055869895964860916
1772732499326028500,9.327028564453125,0.1549018919467926,-0.5143230557441711,-0.03993567079305649
1772732499336055800,9.337055908203125,0.12888070940971375,-0.49004361033439636,-0.04588795453310013
1772732499346083600,9.34708349609375,0.10494370013475418,-0.42351117730140686,-0.059400301426649094
1772732499356112000,9.35711181640625,0.0708971917629242,-0.32973283529281616,-0.07254939526319504
1772732499366139600,9.3671396484375,0.020523231476545334,-0.2260088473558426,-0.05474350228905678
1772732499376167700,9.377167724609375,-0.039903424680233,-0.1390097290277481,-0.0018027020851150155
1772732499386194700,9.387194580078125,-0.10095825791358948,-0.09152769297361374,0.08500756323337555
1772732499396222500,9.397222412109375,-0.144350066781044,-0.07987893372774124,0.19020219147205353
1772732499406250800,9.407250732421875,-0.18596622347831726,-0.06408531963825226,0.29385003447532654
1772732499416278500,9.417278564453126,-0.24224041402339935,-0.028541620820760727,0.3633158802986145
1772732499426306800,9.427306884765626,-0.3058537244796753,0.006592397578060627,0.3924495279788971
1772732499436334600,9.43733447265625,-0.3646780848503113,-0.006763459648936987,0.39935463666915894
1772732499446361600,9.447361572265624,-0.4087216854095459,-0.10028808563947678,0.3871115446090698
1772732499456389600,9.4573896484375,-0.42635780572891235,-0.2079208791255951,0.3591858744621277
1772732499466417700,9.467417724609374,-0.4346335828304291,-0.28001800179481506,0.29552382230758667
1772732499476445700,9.47744580078125,-0.4500090777873993,-0.31526413559913635,0.19482891261577606
1772732499486473500,9.487473388671875,-0.4855271875858307,-0.2821461856365204,0.07128772884607315
1772732499496500700,9.497500732421875,-0.5017935633659363,-0.16369584202766418,-0.03961893543601036
1772732499506528500,9.507528564453125,-0.47925901412963867,-0.004807654768228531,-0.1084563285112381
1772732499516556800,9.517556884765625,-0.43001529574394226,0.19729484617710114,-0.13456222414970398
1772732499526584600,9.52758447265625,-0.3610735237598419,0.3744909167289734,-0.12514981627464294
1772732499536612900,9.53761279296875,-0.30039316415786743,0.4657348096370697,-0.08260709047317505
1772732499546640600,9.547640625,-0.2467493712902069,0.4748428165912628,-0.016574006527662277
1772732499556667600,9.557667724609376,-0.2257785201072693,0.40037044882774353,0.037785306572914124
1772732499566695700,9.56769580078125,-0.26437121629714966,0.2560739815235138,0.07890291512012482
1772732499576723500,9.577723388671876,-0.34120088815689087,0.06289166212081909,0.11364071071147919
1772732499586751700,9.587751708984374,-0.4154047966003418,-0.14198584854602814,0.15480972826480865
1772732499596779500,9.597779541015624,-0.4541130065917969,-0.2770180404186249,0.18785198032855988
1772732499606806800,9.607806884765624,-0.4524005949497223,-0.3527365028858185,0.20318539440631866
1772732499616834600,9.61783447265625,-0.43694815039634705,-0.4244318902492523,0.1989733874797821
1772732499626862800,9.62786279296875,-0.4189254641532898,-0.4207801818847656,0.14388670027256012
1772732499636890600,9.637890625,-0.40414419770240784,-0.3410950005054474,0.07544039934873581
1772732499646918700,9.647918701171875,-0.386054128408432,-0.21930943429470062,0.026594029739499092
1772732499656946700,9.65794677734375,-0.3628152310848236,-0.06541979312896729,0.01310771144926548
1772732499666973700,9.6679736328125,-0.3461904525756836,0.07725213468074799,0.04529254510998726
1772732499677001700,9.678001708984375,-0.3326394855976105,0.1537189483642578,0.10341283679008484
1772732499687029500,9.688029541015625,-0.33056196570396423,0.14997810125350952,0.14161771535873413
1772732499697057800,9.698057861328126,-0.33603182435035706,0.07312219589948654,0.13727648556232452
1772732499707085600,9.70808544921875,-0.3384673297405243,-0.009788872674107552,0.08626136183738708
1772732499717112600,9.718112548828126,-0.32162734866142273,-0.07108578830957413,0.012613771483302116
1772732499727140600,9.728140625,-0.28999456763267517,-0.11314985901117325,-0.05192480981349945
1772732499737168600,9.738168701171874,-0.25183361768722534,-0.12364377826452255,-0.08795471489429474
1772732499747196700,9.74819677734375,-0.21631057560443878,-0.10853520035743713,-0.08318612724542618
1772732499757224400,9.758224365234375,-0.18184688687324524,-0.07433968037366867,-0.05800114572048187
1772732499767252700,9.768252685546875,-0.1570747047662735,-0.04922731965780258,-0.02709936909377575
1772732499777279500,9.778279541015625,-0.15019868314266205,-0.04168152064085007,-0.009582160040736198
1772732499787307800,9.788307861328125,-0.15721195936203003,-0.05264288932085037,-0.013174568302929401
1772732499797335600,9.79833544921875,-0.17032669484615326,-0.07082375884056091,-0.023998986929655075
1772732499807363800,9.80836376953125,-0.1742003709077835,-0.09974691271781921,-0.03820488229393959
1772732499817391600,9.8183916015625,-0.17002560198307037,-0.13687804341316223,-0.0535886324942112
1772732499827418600,9.828418701171875,-0.16184501349925995,-0.15895527601242065,-0.06973863393068314
1772732499837446700,9.83844677734375,-0.14623808860778809,-0.16491995751857758,-0.08568084239959717
1772732499847474700,9.848474609375,-0.13474273681640625,-0.1548496037721634,-0.10181255638599396
1772732499857502700,9.858502685546876,-0.12164744734764099,-0.131606325507164,-0.12430774420499802
1772732499867530500,9.868530517578124,-0.11061407625675201,-0.10887055099010468,-0.1458655595779419
1772732499877558800,9.878558837890624,-0.09716431796550751,-0.07986447215080261,-0.16829045116901398
1772732499887585500,9.88858544921875,-0.07590090483427048,-0.06354732066392899,-0.18464398384094238
1772732499897613800,9.89861376953125,-0.052956439554691315,-0.04913455992937088,-0.1905013471841812
1772732499907641600,9.9086416015625,-0.037945907562971115,-0.027908796444535255,-0.18952961266040802
1772732499917670000,9.918669921875,-0.025903094559907913,-0.010562030598521233,-0.1841478943824768
1772732499927697700,9.92869775390625,-0.0179845429956913,0.010071279481053352,-0.17781230807304382
1772732499937724700,9.938724609375,-0.018216772004961967,0.025021733716130257,-0.16810321807861328
1772732499947752700,9.948752685546875,-0.028889890760183334,0.053767915815114975,-0.15339277684688568
1772732499957780500,9.958780517578125,-0.04673333466053009,0.08326801657676697,-0.14296197891235352
1772732499967808800,9.968808837890625,-0.0658596083521843,0.10194522142410278,-0.1312052309513092
1772732499977836500,9.97883642578125,-0.07658948749303818,0.1200627014040947,-0.11535197496414185
1772732499987863600,9.988863525390625,-0.08915518969297409,0.152322918176651,-0.10124709457159042
1772732499997891600,9.9988916015625,-0.08522729575634003,0.19719424843788147,-0.08747562021017075
1772732500007919600,10.008919677734376,-0.06926723569631577,0.2276693433523178,-0.05867087095975876
1772732500017947600,10.01894775390625,-0.04162921756505966,0.23757043480873108,-0.028083400800824165
1772732500027975700,10.0289755859375,-0.003723927540704608,0.23374336957931519,-0.009421021677553654
1772732500038003700,10.039003662109375,0.0250115804374218,0.24160422384738922,-0.006715782918035984
1772732500048030700,10.04903076171875,0.035161152482032776,0.2559191584587097,-0.02744125761091709
1772732500058058800,10.059058837890625,0.037862133234739304,0.27931877970695496,-0.0590207576751709
1772732500068086500,10.06908642578125,0.040293093770742416,0.2903217077255249,-0.09110476821660995
1772732500078114800,10.07911474609375,0.05363526567816734,0.2588631212711334,-0.09796826541423798
1772732500088142600,10.089142578125,0.07852847874164581,0.21284866333007812,-0.0851602628827095
1772732500098169600,10.099169677734375,0.10486580431461334,0.14788857102394104,-0.047746315598487854
1772732500108197600,10.10919775390625,0.1209033653140068,0.06626588851213455,-0.0018430029740557075
1772732500118225700,10.1192255859375,0.13852868974208832,-0.00028651044704020023,0.027111150324344635
1772732500128253700,10.129253662109376,0.1600348949432373,-0.004461119882762432,0.011998836882412434
1772732500138281500,10.139281494140626,0.1734100878238678,0.02019762247800827,-0.03900895267724991
1772732500148309800,10.149309814453124,0.19414830207824707,0.047032102942466736,-0.12449250370264053
1772732500158336500,10.15933642578125,0.22104303538799286,0.08689562976360321,-0.23056647181510925
1772732500168364800,10.16936474609375,0.267223596572876,0.14496923983097076,-0.3395515978336334
1772732500178392600,10.179392578125,0.3353893458843231,0.20795433223247528,-0.4475840628147125
1772732500188420900,10.1894208984375,0.3995725214481354,0.23230800032615662,-0.5233428478240967
1772732500198448600,10.19944873046875,0.4469895660877228,0.18699590861797333,-0.5446739792823792
1772732500208475600,10.2094755859375,0.4930621087551117,0.07343757152557373,-0.5042876601219177
1772732500218503400,10.21950341796875,0.5182511210441589,-0.03482258692383766,-0.4257095158100128
1772732500228531700,10.22953173828125,0.512954592704773,-0.0999017208814621,-0.3231959342956543
1772732500238559500,10.2395595703125,0.46300408244132996,-0.1316591203212738,-0.21485960483551025
1772732500248587500,10.24958740234375,0.3747791647911072,-0.13207916915416718,-0.09620197862386703
1772732500258614500,10.259614501953125,0.26238149404525757,-0.1305941939353943,0.04799647256731987
1772732500268642300,10.269642333984375,0.1494692713022232,-0.17088209092617035,0.2218073159456253
1772732500278670600,10.279670654296876,0.06206592544913292,-0.20886623859405518,0.39568084478378296
1772732500288698400,10.289698486328126,0.0031848771031945944,-0.20475734770298004,0.5325791239738464
1772732500298726700,10.2997265625,-0.010009488090872765,-0.16466931998729706,0.6228150129318237
1772732500308754400,10.30975439453125,-0.0006505138007923961,-0.08599041402339935,0.6560254693031311
1772732500318781700,10.31978173828125,0.023876400664448738,0.028560929000377655,0.6259746551513672
1772732500328809500,10.3298095703125,0.05783215910196304,0.15690039098262787,0.5499820113182068
1772732500338837500,10.33983740234375,0.07941575348377228,0.25453612208366394,0.44607052206993103
1772732500348865500,10.349865478515625,0.10234832018613815,0.307369589805603,0.3342236876487732
1772732500358893600,10.3598935546875,0.1341637670993805,0.3289233446121216,0.2256476879119873
1772732500368920600,10.369920654296875,0.18546758592128754,0.29629313945770264,0.12046346068382263
1772732500378948400,10.3799482421875,0.2453080266714096,0.23589317500591278,0.015908025205135345
1772732500388976600,10.3899765625,0.30666664242744446,0.1752537488937378,-0.09317651391029358
1772732500399004400,10.40000439453125,0.37881380319595337,0.1334059089422226,-0.19866059720516205
1772732500409032700,10.41003271484375,0.44787484407424927,0.1376456320285797,-0.30811160802841187
1772732500419060500,10.420060546875,0.5041386485099792,0.1576124131679535,-0.39937761425971985
1772732500429087700,10.430087646484376,0.5414451360702515,0.14439024031162262,-0.4470859467983246
1772732500439115500,10.440115478515626,0.5554203391075134,0.06844247877597809,-0.4410184621810913
1772732500449143600,10.4501435546875,0.5274713635444641,-0.06439147889614105,-0.38296473026275635
1772732500459171600,10.460171630859374,0.47856906056404114,-0.21428990364074707,-0.2948801517486572
1772732500469199400,10.470199462890625,0.4238717257976532,-0.3363194167613983,-0.21702581644058228
1772732500479226600,10.4802265625,0.3682846426963806,-0.3994635045528412,-0.1712695211172104
1772732500489254400,10.49025439453125,0.30996623635292053,-0.4287616014480591,-0.14965404570102692
1772732500499282700,10.50028271484375,0.254790335893631,-0.42511653900146484,-0.14448058605194092
1772732500509310500,10.510310546875,0.21477730572223663,-0.37210094928741455,-0.14367473125457764
1772732500519338500,10.52033837890625,0.17973995208740234,-0.2838999927043915,-0.1312721222639084
1772732500529365500,10.530365478515625,0.14951667189598083,-0.17464187741279602,-0.10128919035196304
1772732500539393500,10.5403935546875,0.13069210946559906,-0.06631139665842056,-0.06457272171974182
1772732500549421600,10.550421630859375,0.12137717008590698,-0.0032668334897607565,-0.035031914710998535
1772732500559449300,10.560449462890626,0.1082611009478569,0.022954916581511497,-0.02970958687365055
1772732500569477600,10.5704775390625,0.09275892376899719,0.02481980435550213,-0.04178236797451973
1772732500579505400,10.58050537109375,0.08901185542345047,0.01429499126970768,-0.06508263200521469
1772732500589532700,10.59053271484375,0.09142912924289703,0.04009466618299484,-0.09290875494480133
1772732500599560400,10.600560546875,0.09789341688156128,0.07828306406736374,-0.09693465381860733
1772732500609588700,10.610588623046874,0.1127147376537323,0.092056505382061,-0.08578304201364517
1772732500619616500,10.620616455078125,0.13360963761806488,0.1100754588842392,-0.06812547892332077
1772732500629644500,10.63064453125,0.14061389863491058,0.11935260146856308,-0.05343257635831833
1772732500639671600,10.640671630859375,0.14195001125335693,0.10907705873250961,-0.04612220078706741
1772732500649699300,10.65069921875,0.13504669070243835,0.06654379516839981,-0.052138008177280426
1772732500659727600,10.6607275390625,0.11134561896324158,-0.01210814155638218,-0.0540914386510849
1772732500669755400,10.67075537109375,0.08242899179458618,-0.10296323150396347,-0.04885266721248627
1772732500679783700,10.68078369140625,0.0508769191801548,-0.20185306668281555,-0.03714780509471893
1772732500689810400,10.690810546875,0.019737333059310913,-0.274122953414917,-0.022956499829888344
1772732500699838700,10.700838623046875,-0.012876803055405617,-0.30718928575515747,-0.0027034275699406862
1772732500709866500,10.710866455078126,-0.04736451804637909,-0.30343860387802124,0.03388262167572975
1772732500719894500,10.72089453125,-0.08523121476173401,-0.25627002120018005,0.09284155070781708
1772732500729922600,10.730922607421874,-0.1173989400267601,-0.13686741888523102,0.16527247428894043
1772732500739949600,10.740949462890624,-0.15862679481506348,0.0501709058880806,0.25693660974502563
1772732500749977600,10.7509775390625,-0.20916500687599182,0.2731313407421112,0.3490656018257141
1772732500760005400,10.76100537109375,-0.2823619842529297,0.40046319365501404,0.4747346043586731
1772732500770033700,10.77103369140625,-0.3768371641635895,0.40484464168548584,0.623695969581604
1772732500780061400,10.7810615234375,-0.4738297760486603,0.358656644821167,0.7543123364448547
1772732500790089700,10.79108984375,-0.548856794834137,0.25737208127975464,0.8194608092308044
1772732500800116500,10.801116455078125,-0.5883280634880066,0.15052790939807892,0.7811837196350098
1772732500810144500,10.81114453125,-0.5849205255508423,0.09332595020532608,0.6251031160354614
1772732500820172500,10.821172607421875,-0.5566853880882263,0.05216014012694359,0.40052592754364014
1772732500830200300,10.831200439453125,-0.5141376256942749,0.031208213418722153,0.16116215288639069
1772732500840228600,10.841228515625,-0.46343186497688293,0.030937105417251587,-0.03763376548886299
1772732500850255600,10.851255615234376,-0.42484238743782043,0.012064448557794094,-0.1536293476819992
1772732500860283600,10.86128369140625,-0.39990052580833435,-0.03938010334968567,-0.15961267054080963
1772732500870311400,10.8713115234375,-0.3728538155555725,-0.11639619618654251,-0.07914405316114426
1772732500880339700,10.881339599609374,-0.35167396068573,-0.21010538935661316,0.028936872258782387
1772732500890367500,10.891367431640624,-0.3483322560787201,-0.3135836720466614,0.10464159399271011
1772732500900394500,10.90139453125,-0.3446727991104126,-0.39713743329048157,0.10325755178928375
1772732500910422500,10.911422607421875,-0.3433747887611389,-0.45021119713783264,0.031432319432497025
1772732500920450600,10.921450439453125,-0.34563925862312317,-0.4924231171607971,-0.06545588374137878
1772732500930478600,10.931478515625,-0.3248338997364044,-0.4776160418987274,-0.13564500212669373
1772732500940506400,10.94150634765625,-0.282799631357193,-0.4188763201236725,-0.16105102002620697
1772732500950534700,10.95153466796875,-0.22639760375022888,-0.32670971751213074,-0.14204853773117065
1772732500960561400,10.9615615234375,-0.18001465499401093,-0.21543672680854797,-0.08932886272668839
1772732500970589700,10.971589599609375,-0.14999046921730042,-0.10509220510721207,-0.005371371284127235
1772732500980617500,10.981617431640625,-0.14530783891677856,-0.007389082573354244,0.08414679020643234
1772732500990645800,10.991645751953126,-0.15431614220142365,0.05898148566484451,0.17550714313983917
1772732501000673500,11.001673583984376,-0.16579969227313995,0.10686191916465759,0.2371808886528015
1772732501010700500,11.011700439453126,-0.1796669214963913,0.11672040820121765,0.2599504292011261
1772732501020728600,11.021728515625,-0.18443956971168518,0.0865505263209343,0.24693290889263153
1772732501030756400,11.03175634765625,-0.16543225944042206,0.03601503744721413,0.1994224637746811
1772732501040784600,11.04178466796875,-0.11144865304231644,0.004083736799657345,0.12873046100139618
1772732501050812400,11.0518125,-0.03294026106595993,-0.01618771255016327,0.06943969428539276
1772732501060839700,11.061839599609375,0.04124608635902405,-0.04728544503450394,0.03862372785806656
1772732501070867500,11.071867431640625,0.10666642338037491,-0.06310316920280457,0.04919666796922684
1772732501080895500,11.0818955078125,0.15259982645511627,-0.06465605646371841,0.07984299212694168
1772732501090923500,11.091923583984375,0.1671549677848816,-0.06190614402294159,0.1170147955417633
1772732501100951600,11.10195166015625,0.16355809569358826,-0.05407298728823662,0.14878682792186737
1772732501110978600,11.111978515625,0.1553484946489334,-0.0419698990881443,0.17154648900032043
1772732501121006600,11.122006591796875,0.14267131686210632,-0.0573163665831089,0.18940165638923645
1772732501131034600,11.13203466796875,0.13388663530349731,-0.06741070747375488,0.18911029398441315
1772732501141062400,11.1420625,0.14346948266029358,-0.051070619374513626,0.17689409852027893
1772732501151090700,11.152090576171876,0.163602814078331,-0.030925875529646873,0.14857998490333557
1772732501161117400,11.162117431640626,0.1794789880514145,0.0021804128773510456,0.10539814829826355
1772732501171145500,11.1721455078125,0.2067582756280899,0.027129970490932465,0.0697924792766571
1772732501181173500,11.182173583984374,0.24412801861763,0.045782219618558884,0.038756005465984344
1772732501191201500,11.192201416015624,0.28070104122161865,0.06207869574427605,0.017147721722722054
1772732501201229600,11.2022294921875,0.3117159605026245,0.05759846046566963,0.011918604373931885
1772732501211257300,11.21225732421875,0.34133321046829224,0.04236552119255066,0.016738714650273323
1772732501221284900,11.222284912109375,0.3723108470439911,0.02337345853447914,0.01785511150956154
1772732501231312600,11.232312744140625,0.3967866599559784,0.025405757129192352,0.0020216889679431915
1772732501241341000,11.2423408203125,0.41446101665496826,0.024169517681002617,-0.019629277288913727
1772732501251368700,11.25236865234375,0.44328543543815613,0.029464026913046837,-0.04262586683034897
1772732501261397000,11.26239697265625,0.4667412042617798,0.04236145317554474,-0.07819504290819168
1772732501271423700,11.272423828125,0.4840264320373535,0.08716466277837753,-0.12680746614933014
1772732501281452000,11.2824521484375,0.4933783710002899,0.1456620693206787,-0.1816861629486084
1772732501291479800,11.292479736328126,0.49949783086776733,0.21077470481395721,-0.22880451381206512
1772732501301507600,11.302507568359376,0.5193101763725281,0.2725621461868286,-0.2493196427822113
1772732501311535900,11.312535888671874,0.5412610769271851,0.30547136068344116,-0.23682619631290436
1772732501321563000,11.32256298828125,0.5520269274711609,0.3115100860595703,-0.21436695754528046
1772732501331591000,11.3325908203125,0.5385904312133789,0.32526248693466187,-0.22072404623031616
1772732501341618700,11.34261865234375,0.4997093379497528,0.30903133749961853,-0.23330934345722198
1772732501351647000,11.35264697265625,0.46088889241218567,0.24767687916755676,-0.2462116926908493
1772732501361674800,11.3626748046875,0.4496362507343292,0.1885075569152832,-0.26695746183395386
1772732501371701800,11.37270166015625,0.4437187910079956,0.11985985189676285,-0.2794979512691498
1772732501381729800,11.382729736328125,0.45255622267723083,0.0385010726749897,-0.285085529088974
1772732501391757800,11.3927578125,0.471479207277298,-0.05248076096177101,-0.2817869782447815
1772732501401785900,11.402785888671875,0.4951198101043701,-0.13116413354873657,-0.27483931183815
1772732501411813600,11.412813720703125,0.5101780295372009,-0.17915138602256775,-0.26782602071762085
1772732501421841000,11.4228408203125,0.5231812000274658,-0.201117143034935,-0.24352572858333588
1772732501431868700,11.43286865234375,0.5518446564674377,-0.17758025228977203,-0.21357038617134094
1772732501441897000,11.44289697265625,0.5812142491340637,-0.13412226736545563,-0.1655578464269638
1772732501451924700,11.4529248046875,0.6125692129135132,-0.11268133670091629,-0.0823313444852829
1772732501461953000,11.462953125,0.659891664981842,-0.08908093720674515,-0.014925140887498856
1772732501471980800,11.472980712890624,0.7117734551429749,-0.04259750619530678,0.017224811017513275
1772732501482007800,11.4830078125,0.760340690612793,0.015238095074892044,-0.0020700569730252028
1772732501492035800,11.493035888671875,0.8028605580329895,0.0756763219833374,-0.060206338763237
1772732501502063900,11.50306396484375,0.8416324853897095,0.15359988808631897,-0.1314387023448944
1772732501512092000,11.513091796875,0.8949324488639832,0.23990973830223083,-0.1742604821920395
1772732501522119700,11.52311962890625,0.9632502198219299,0.30534014105796814,-0.16650322079658508
1772732501532147000,11.53314697265625,1.0308501720428467,0.3448987603187561,-0.11628751456737518
1772732501542174700,11.5431748046875,1.0907025337219238,0.35021495819091797,-0.05872994288802147
1772732501552203000,11.553203125,1.132338285446167,0.29701319336891174,-0.03458952531218529
1772732501562230800,11.563230712890626,1.151983380317688,0.21333667635917664,-0.05652704834938049
1772732501572258800,11.5732587890625,1.1543502807617188,0.1098848506808281,-0.10327596217393875
1772732501582285800,11.583285888671876,1.152702808380127,0.01482838112860918,-0.15364618599414825
1772732501592313900,11.59331396484375,1.1609323024749756,-0.046057671308517456,-0.18694718182086945
1772732501602342000,11.603341796875,1.163350224494934,-0.07387599349021912,-0.19974260032176971
1772732501612369700,11.61336962890625,1.154573917388916,-0.06749998778104782,-0.18930312991142273
1772732501622398000,11.62339794921875,1.1425156593322754,-0.02290429174900055,-0.16757413744926453
1772732501632424700,11.6334248046875,1.1237821578979492,0.03004702925682068,-0.15164510905742645
1772732501642452700,11.64345263671875,1.1143697500228882,0.09808600693941116,-0.14091283082962036
1772732501652480800,11.653480712890625,1.11332106590271,0.13581483066082,-0.13592073321342468
1772732501662508800,11.6635087890625,1.1075811386108398,0.14761662483215332,-0.1417085826396942
1772732501672536800,11.673536865234375,1.0923579931259155,0.15861506760120392,-0.15360291302204132
1772732501682563800,11.683563720703125,1.0774554014205933,0.18466290831565857,-0.17220216989517212
1772732501692591900,11.693591796875,1.0559523105621338,0.22477704286575317,-0.17978152632713318
1772732501702620000,11.703619873046875,1.0311055183410645,0.2537711560726166,-0.1565113514661789
1772732501712648000,11.71364794921875,1.0102838277816772,0.28825271129608154,-0.1072455570101738
1772732501722675700,11.72367578125,0.9858475923538208,0.31987854838371277,-0.0375751294195652
1772732501732702700,11.73370263671875,0.9579865336418152,0.3259336054325104,0.05558937415480614
1772732501742730800,11.743730712890626,0.938484251499176,0.299662321805954,0.1479017287492752
1772732501752758800,11.7537587890625,0.9095693826675415,0.2623761296272278,0.21304690837860107
1772732501762786800,11.763786865234374,0.8723080158233643,0.20098920166492462,0.24551163613796234
1772732501772814800,11.77381494140625,0.8334661722183228,0.14412888884544373,0.22346052527427673
1772732501782843000,11.7838427734375,0.7895529866218567,0.09645776450634003,0.16841937601566315
1772732501792870000,11.793869873046875,0.7507903575897217,0.06775190681219101,0.08910193294286728
1772732501802898000,11.80389794921875,0.7293117046356201,0.05731284245848656,0.01707381010055542
1772732501812925700,11.81392578125,0.7241870164871216,0.06841490417718887,-0.034877415746450424
1772732501822954000,11.8239541015625,0.7235310673713684,0.09058039635419846,-0.07207272201776505
1772732501832981800,11.833981689453125,0.7197297215461731,0.11888591945171356,-0.09129656106233597
1772732501843008800,11.8440087890625,0.7162250280380249,0.15167956054210663,-0.10437827557325363
1772732501853036800,11.854036865234375,0.7040605545043945,0.18268178403377533,-0.11373406648635864
1772732501863064800,11.86406494140625,0.6826886534690857,0.19762824475765228,-0.11324537545442581
1772732501873092900,11.8740927734375,0.6674774885177612,0.21644800901412964,-0.12253021448850632
1772732501883121000,11.884120849609374,0.6440224647521973,0.2296101450920105,-0.1488204151391983
1772732501893147600,11.894147705078124,0.6145832538604736,0.21733662486076355,-0.15970982611179352
1772732501903176000,11.904176025390624,0.5848434567451477,0.18488121032714844,-0.15690338611602783
1772732501913203700,11.91420361328125,0.5618442296981812,0.17369909584522247,-0.14584821462631226
1772732501923231700,11.924231689453125,0.5404481291770935,0.17154620587825775,-0.12809798121452332
1772732501933259800,11.934259765625,0.5178624987602234,0.16994696855545044,-0.1025737002491951
1772732501943286800,11.944286865234375,0.49622324109077454,0.17115603387355804,-0.08498724550008774
1772732501953314800,11.954314697265625,0.46622562408447266,0.19101795554161072,-0.0710955485701561
1772732501963342800,11.9643427734375,0.4486676752567291,0.2193654328584671,-0.06670399010181427
1772732501973371000,11.974370849609375,0.4418519139289856,0.2624433636665344,-0.059199657291173935
1772732501983399000,11.98439892578125,0.4388366937637329,0.26196399331092834,-0.044040944427251816
1772732501993426000,11.994426025390625,0.43559420108795166,0.23079252243041992,-0.013966213911771774
1772732502003453700,12.00445361328125,0.42161235213279724,0.1949106901884079,0.023981967940926552
1772732502013481700,12.014481689453126,0.3960109353065491,0.16769786179065704,0.05949907377362251
1772732502023509800,12.024509765625,0.3740592896938324,0.13866248726844788,0.0962458997964859
1772732502033537800,12.034537841796874,0.3645577132701874,0.09350214898586273,0.12227705121040344
1772732502043564800,12.044564697265624,0.3674651086330414,0.07519451528787613,0.13723362982273102
1772732502053592800,12.0545927734375,0.3724571168422699,0.0905255675315857,0.14707551896572113
1772732502063620900,12.064620849609375,0.37961438298225403,0.09314665198326111,0.16840504109859467
1772732502073649000,12.07464892578125,0.3992985188961029,0.10754276067018509,0.18288452923297882
1772732502083677000,12.084677001953125,0.4238416850566864,0.12177522480487823,0.1636359989643097
1772732502093703700,12.09470361328125,0.4598979353904724,0.12609432637691498,0.10274901986122131
1772732502103732000,12.10473193359375,0.4935610890388489,0.13369019329547882,0.023266175761818886
1772732502113759700,12.114759765625,0.5187485814094543,0.12108580023050308,-0.03128920495510101
1772732502123787800,12.124787841796875,0.5339450836181641,0.090403251349926,-0.044482775032520294
1772732502133815800,12.13481591796875,0.548664927482605,0.06821225583553314,-0.03273758292198181
1772732502143842800,12.1448427734375,0.5599937438964844,0.039282869547605515,-0.014252313412725925
1772732502153870800,12.154870849609376,0.5603785514831543,0.02066788822412491,0.01416740845888853
1772732502163898600,12.164898681640626,0.5562748908996582,-0.007509156130254269,0.04342835769057274
1772732502173927000,12.174927001953124,0.5481467247009277,-0.040605053305625916,0.05829300731420517
1772732502183954700,12.18495458984375,0.5377913117408752,-0.08582712709903717,0.03354824706912041
1772732502193982000,12.19498193359375,0.5229504704475403,-0.10537399351596832,-0.023999003693461418
1772732502204009700,12.205009765625,0.5149876475334167,-0.08923976868391037,-0.08551482856273651
1772732502214038000,12.2150380859375,0.5187217593193054,-0.07768203318119049,-0.14502491056919098
1772732502224066000,12.225066162109375,0.5340282917022705,-0.07344627380371094,-0.1963312327861786
1772732502234093800,12.23509375,0.5363447070121765,-0.08544351160526276,-0.2344057708978653
1772732502244120800,12.245120849609375,0.524641215801239,-0.0785837471485138,-0.2631303668022156
1772732502254148900,12.25514892578125,0.5109022259712219,-0.06384693086147308,-0.28422778844833374
1772732502264177000,12.265177001953125,0.4908742308616638,-0.057055871933698654,-0.30999812483787537
1772732502274205000,12.275204833984375,0.4686723053455353,-0.05035603791475296,-0.3464092016220093
1772732502284233000,12.28523291015625,0.43943798542022705,-0.0576230064034462,-0.37544193863868713
1772732502294260000,12.295260009765625,0.4043146073818207,-0.07907822728157043,-0.37769657373428345
1772732502304288000,12.3052880859375,0.36475417017936707,-0.08660325407981873,-0.31998559832572937
1772732502314315800,12.315315673828126,0.3314560651779175,-0.0825587585568428,-0.2318020761013031
1772732502324343800,12.32534375,0.3052827715873718,-0.02199687249958515,-0.17421548068523407
1772732502334371800,12.335371826171874,0.28049856424331665,0.07658052444458008,-0.16031098365783691
1772732502344398800,12.34539892578125,0.23504343628883362,0.1684715747833252,-0.14530140161514282
1772732502354427000,12.355427001953124,0.18553347885608673,0.24860879778862,-0.07694590836763382
1772732502364455000,12.365454833984375,0.16043105721473694,0.2912590503692627,0.055208392441272736
1772732502374483000,12.37548291015625,0.16830049455165863,0.3016888201236725,0.18891572952270508
