time,seconds_elapsed,z,y,x
1772642806575964200,0.049964111328125,-0.979400634765625,-0.1715850830078125,0.005462646484375
1772642806586009300,0.06000927734375,-0.96173095703125,-0.1785125732421875,0.0037994384765625
1772642806596054000,0.070053955078125,-0.9469757080078125,-0.181976318359375,0.0030364990234375
1772642806606099200,0.08009912109375,-0.922027587890625,-0.1821746826171875,0.0011444091796875
1772642806616144100,0.09014404296875,-0.8975830078125,-0.1810760498046875,0.002655029296875
1772642806626189300,0.100189208984375,-0.873443603515625,-0.1795196533203125,0.0063629150390625
1772642806636233200,0.110233154296875,-0.848663330078125,-0.17755126953125,0.006134033203125
1772642806646278100,0.120278076171875,-0.8291778564453125,-0.17529296875,-0.000244140625
1772642806656323000,0.130322998046875,-0.81903076171875,-0.1768646240234375,-0.00665283203125
1772642806666368300,0.1403681640625,-0.8119049072265625,-0.1742401123046875,-0.0174407958984375
1772642806676413200,0.1504130859375,-0.80218505859375,-0.168212890625,-0.03204345703125
1772642806686457000,0.16045703125,-0.791534423828125,-0.16192626953125,-0.0445404052734375
1772642806696502300,0.170502197265625,-0.7729644775390625,-0.1573944091796875,-0.0578765869140625
1772642806706547200,0.180547119140625,-0.739288330078125,-0.154144287109375,-0.07623291015625
1772642806716592000,0.190592041015625,-0.703399658203125,-0.15203857421875,-0.095489501953125
1772642806726637000,0.200636962890625,-0.6649627685546875,-0.14349365234375,-0.1111297607421875
1772642806736682200,0.21068212890625,-0.65386962890625,-0.1436004638671875,-0.096405029296875
1772642806746726400,0.220726318359375,-0.6985931396484375,-0.1656951904296875,-0.0550994873046875
1772642806756771000,0.23077099609375,-0.7073822021484375,-0.1634674072265625,-0.0648193359375
1772642806766816300,0.240816162109375,-0.70208740234375,-0.1602935791015625,-0.0642547607421875
1772642806776861200,0.250861083984375,-0.7264862060546875,-0.183807373046875,-0.0380706787109375
1772642806786906400,0.26090625,-0.7624053955078125,-0.226226806640625,-0.00994873046875
1772642806796951300,0.270951416015625,-0.77825927734375,-0.2795257568359375,0.0012969970703125
1772642806806995200,0.2809951171875,-0.8031005859375,-0.3043212890625,-0.03485107421875
1772642806817040100,0.2910400390625,-0.877777099609375,-0.2685546875,-0.1099700927734375
1772642806827085300,0.301085205078125,-0.9981231689453125,-0.2186431884765625,-0.1664276123046875
1772642806837130000,0.3111298828125,-1.171051025390625,-0.18023681640625,-0.16485595703125
1772642806847175200,0.321175048828125,-1.3955230712890625,-0.148895263671875,-0.1457672119140625
1772642806857219300,0.33121923828125,-1.6104278564453125,-0.1483001708984375,-0.118377685546875
1772642806867264300,0.34126416015625,-1.706787109375,-0.1675262451171875,-0.1129302978515625
1772642806877309200,0.35130908203125,-1.7464447021484375,-0.194854736328125,-0.1265411376953125
1772642806887354000,0.36135400390625,-1.718414306640625,-0.242645263671875,-0.1542816162109375
1772642806897399300,0.3713994140625,-1.680450439453125,-0.2981109619140625,-0.1807861328125
1772642806907444200,0.3814443359375,-1.6928863525390625,-0.378936767578125,-0.1535491943359375
1772642806917488000,0.391488037109375,-1.7194671630859375,-0.43939208984375,-0.10223388671875
1772642806927533000,0.401532958984375,-1.7352294921875,-0.4750823974609375,-0.0250701904296875
1772642806937578200,0.411578125,-1.6998748779296875,-0.5482177734375,0.0585174560546875
1772642806947623200,0.421623046875,-1.5673675537109375,-0.6374664306640625,0.1004180908203125
1772642806957668000,0.431668212890625,-1.4702606201171875,-0.732330322265625,0.1164703369140625
1772642806967712300,0.441712158203125,-1.47314453125,-0.83685302734375,0.1607513427734375
1772642806977757200,0.451757080078125,-1.4549102783203125,-0.8212890625,0.160064697265625
1772642806987802400,0.46180224609375,-1.4734344482421875,-0.6808624267578125,0.1089630126953125
1772642806997847000,0.471846923828125,-1.5157623291015625,-0.6261138916015625,0.0789031982421875
1772642807007892200,0.481892333984375,-1.493865966796875,-0.552581787109375,0.0345916748046875
1772642807017937200,0.491937255859375,-1.338958740234375,-0.422210693359375,0.00201416015625
1772642807027981300,0.501981201171875,-1.2580108642578125,-0.2886962890625,0.0146331787109375
1772642807038026000,0.51202587890625,-1.2748260498046875,-0.15924072265625,0.0077667236328125
1772642807048071200,0.5220712890625,-1.2464599609375,-0.03717041015625,-0.02996826171875
1772642807058116000,0.5321162109375,-1.2435150146484375,0.025238037109375,-0.0679779052734375
1772642807068161300,0.542161376953125,-1.2222442626953125,0.09246826171875,-0.0865020751953125
1772642807078206000,0.5522060546875,-1.1063079833984375,0.1499176025390625,-0.07928466796875
1772642807088250000,0.56225,-0.99896240234375,0.152587890625,-0.09375
1772642807098295300,0.57229541015625,-0.8636474609375,0.15606689453125,-0.1549530029296875
1772642807108340200,0.58234033203125,-0.747589111328125,0.1199188232421875,-0.2239990234375
1772642807118385200,0.59238525390625,-0.626251220703125,0.067291259765625,-0.2739410400390625
1772642807128430000,0.60243017578125,-0.4725189208984375,0.0082550048828125,-0.2867584228515625
1772642807138475300,0.612475341796875,-0.333892822265625,-0.044677734375,-0.29388427734375
1772642807148519200,0.622519287109375,-0.2367706298828125,-0.0802459716796875,-0.2956390380859375
1772642807158564000,0.632564208984375,-0.1858978271484375,-0.10723876953125,-0.2613983154296875
1772642807168609000,0.642609130859375,-0.1566162109375,-0.1243743896484375,-0.206787109375
1772642807178654200,0.652654296875,-0.121856689453125,-0.12579345703125,-0.16827392578125
1772642807188699100,0.66269921875,-0.10546875,-0.118438720703125,-0.148162841796875
1772642807198743000,0.672742919921875,-0.0846405029296875,-0.12017822265625,-0.1526336669921875
1772642807208788200,0.682788330078125,-0.056243896484375,-0.111175537109375,-0.170684814453125
1772642807218833200,0.692833251953125,-0.033966064453125,-0.099456787109375,-0.1868133544921875
1772642807228878300,0.70287841796875,-0.0140838623046875,-0.093536376953125,-0.1991424560546875
1772642807238923000,0.712923095703125,0.0267181396484375,-0.093841552734375,-0.205657958984375
1772642807248968200,0.72296826171875,0.0716552734375,-0.094024658203125,-0.2035064697265625
1772642807259012000,0.73301220703125,0.107879638671875,-0.08905029296875,-0.196380615234375
1772642807269057000,0.74305712890625,0.1186370849609375,-0.0680084228515625,-0.1678314208984375
1772642807279102200,0.753102294921875,0.109771728515625,-0.040252685546875,-0.104827880859375
1772642807289147100,0.763147216796875,0.077972412109375,-0.0132293701171875,-0.02142333984375
1772642807299192000,0.773192138671875,0.05096435546875,0.008209228515625,0.0550537109375
1772642807309236000,0.783236083984375,0.021942138671875,0.015594482421875,0.096466064453125
1772642807319281200,0.79328125,-0.03466796875,0.002716064453125,0.1021575927734375
1772642807329326000,0.803326171875,-0.12298583984375,-0.04779052734375,0.0935516357421875
1772642807339371000,0.81337109375,-0.2251739501953125,-0.1458892822265625,0.0825653076171875
1772642807349416000,0.823416015625,-0.30865478515625,-0.24029541015625,0.053253173828125
1772642807359461000,0.833461181640625,-0.3632965087890625,-0.3114776611328125,0.0037689208984375
1772642807369505300,0.84350537109375,-0.4054107666015625,-0.3482818603515625,-0.03271484375
1772642807379550000,0.853550048828125,-0.5125732421875,-0.368621826171875,-0.053314208984375
1772642807389595100,0.86359521484375,-0.730743408203125,-0.403228759765625,-0.0601348876953125
1772642807399640000,0.87364013671875,-0.99530029296875,-0.4343414306640625,-0.0295257568359375
1772642807409685200,0.883685302734375,-1.1423492431640625,-0.4237060546875,0.0292816162109375
1772642807419729000,0.89372900390625,-1.1038970947265625,-0.3938751220703125,0.056488037109375
1772642807429774000,0.903774169921875,-1.030914306640625,-0.4066314697265625,0.0233001708984375
1772642807439819000,0.913819091796875,-1.06842041015625,-0.4437255859375,-0.028717041015625
1772642807449864200,0.9238642578125,-1.262451171875,-0.44207763671875,-0.0788421630859375
1772642807459908900,0.933908935546875,-1.5499725341796875,-0.4129180908203125,-0.1144256591796875
1772642807469954000,0.9439541015625,-1.8253326416015625,-0.405609130859375,-0.13861083984375
1772642807479998200,0.953998291015625,-2.024749755859375,-0.413970947265625,-0.173065185546875
1772642807490043100,0.964043212890625,-2.1751861572265625,-0.42181396484375,-0.2270050048828125
1772642807500088000,0.974088134765625,-2.319671630859375,-0.4278411865234375,-0.2826385498046875
1772642807510133000,0.984133056640625,-2.454559326171875,-0.4172821044921875,-0.29339599609375
1772642807520178200,0.99417822265625,-2.557586669921875,-0.40960693359375,-0.25384521484375
1772642807530223000,1.00422314453125,-2.6192779541015625,-0.409027099609375,-0.189361572265625
1772642807540267000,1.01426708984375,-2.6474609375,-0.3957366943359375,-0.13104248046875
1772642807550312000,1.02431201171875,-2.6577911376953125,-0.361846923828125,-0.1215057373046875
1772642807560357000,1.034357177734375,-2.6314849853515625,-0.3252410888671875,-0.1729736328125
1772642807570402000,1.044402099609375,-2.591644287109375,-0.293212890625,-0.24951171875
1772642807580447000,1.054447021484375,-2.524627685546875,-0.2661895751953125,-0.3124237060546875
1772642807590491100,1.0644912109375,-2.4317169189453125,-0.2559661865234375,-0.29705810546875
1772642807600536000,1.0745361328125,-2.2592926025390625,-0.2395782470703125,-0.19903564453125
1772642807610581200,1.084581298828125,-2.0218658447265625,-0.26214599609375,-0.0694122314453125
1772642807620626000,1.0946259765625,-1.7718963623046875,-0.2927703857421875,0.0272216796875
1772642807630671000,1.104671142578125,-1.5787811279296875,-0.283050537109375,0.0706939697265625
1772642807640716000,1.114716064453125,-1.440826416015625,-0.2493438720703125,0.0823974609375
1772642807650760000,1.124760009765625,-1.3561859130859375,-0.21710205078125,0.065277099609375
1772642807660804900,1.134804931640625,-1.3123321533203125,-0.1669158935546875,0.0250396728515625
1772642807670850000,1.14485009765625,-1.2355804443359375,-0.124542236328125,-0.003936767578125
1772642807680895000,1.15489501953125,-1.108184814453125,-0.1089935302734375,0.0086212158203125
1772642807690940200,1.164940185546875,-0.9536895751953125,-0.0565643310546875,0.0379791259765625
1772642807700984000,1.174984130859375,-0.8289337158203125,-0.0061492919921875,0.04583740234375
1772642807711029000,1.185029052734375,-0.7365875244140625,0.0455169677734375,0.0434417724609375
1772642807721074200,1.19507421875,-0.666534423828125,0.1036834716796875,0.0282135009765625
1772642807731119000,1.205119140625,-0.6079559326171875,0.1378631591796875,-0.0007476806640625
1772642807741164000,1.2151640625,-0.5406951904296875,0.15972900390625,-0.038116455078125
1772642807751209000,1.225208984375,-0.4544525146484375,0.1639251708984375,-0.05865478515625
1772642807761253000,1.235253173828125,-0.35101318359375,0.1503143310546875,-0.0557403564453125
1772642807771298000,1.245298095703125,-0.2330169677734375,0.1380462646484375,-0.043243408203125
1772642807781343000,1.255343017578125,-0.087799072265625,0.125457763671875,-0.0340576171875
1772642807791388200,1.26538818359375,0.08343505859375,0.10546875,-0.0391082763671875
1772642807801433000,1.27543310546875,0.2252655029296875,0.0131683349609375,-0.051055908203125
1772642807811477000,1.28547705078125,0.3167724609375,-0.0751953125,-0.0986785888671875
1772642807821522000,1.29552197265625,0.3259124755859375,-0.13555908203125,-0.171051025390625
1772642807831567000,1.305567138671875,0.3370819091796875,-0.0499114990234375,-0.14959716796875
1772642807841612000,1.315612060546875,0.3306427001953125,-0.04608154296875,-0.1732330322265625
1772642807851657200,1.3256572265625,0.335479736328125,-0.03436279296875,-0.14501953125
1772642807861702000,1.335701904296875,0.363861083984375,0.0410919189453125,-0.126220703125
1772642807871746000,1.34574609375,0.2366485595703125,0.0333099365234375,-0.0964508056640625
1772642807881791200,1.355791259765625,0.02276611328125,-0.0265960693359375,-0.04669189453125
1772642807891836200,1.365836181640625,-0.096466064453125,-0.04083251953125,-0.027923583984375
1772642807901881000,1.375881103515625,-0.142333984375,-0.0234832763671875,-0.0370330810546875
1772642807911926000,1.385926025390625,-0.1553802490234375,-0.000457763671875,-0.0403900146484375
1772642807921971200,1.39597119140625,-0.1524810791015625,0.0122222900390625,-0.0284576416015625
1772642807932014800,1.406014892578125,-0.17779541015625,0.001220703125,-0.0170135498046875
1772642807942060000,1.41606005859375,-0.235198974609375,-0.0275421142578125,-0.02410888671875
1772642807952105000,1.42610498046875,-0.285552978515625,-0.0570220947265625,-0.0198974609375
1772642807962150100,1.436150146484375,-0.3283538818359375,-0.0821685791015625,0.0083465576171875
1772642807972195000,1.446195068359375,-0.382171630859375,-0.1611785888671875,0.0539398193359375
1772642807982239000,1.456239013671875,-0.4242706298828125,-0.263336181640625,0.077667236328125
1772642807992284200,1.4662841796875,-0.4227142333984375,-0.3705902099609375,0.0777435302734375
1772642808002329000,1.4763291015625,-0.36865234375,-0.5101318359375,0.0388336181640625
1772642808012374300,1.486374267578125,-0.3435516357421875,-0.6373443603515625,-0.0273284912109375
1772642808022419000,1.4964189453125,-0.4380035400390625,-0.676910400390625,-0.13018798828125
1772642808032464100,1.506464111328125,-0.677093505859375,-0.6497802734375,-0.19732666015625
1772642808042508000,1.516508056640625,-0.99078369140625,-0.6287078857421875,-0.149200439453125
1772642808052553000,1.526552978515625,-1.206298828125,-0.56170654296875,-0.0667724609375
1772642808062598000,1.536597900390625,-1.24798583984375,-0.4714202880859375,-0.008392333984375
1772642808072643000,1.54664306640625,-1.24761962890625,-0.3934173583984375,-0.0060882568359375
1772642808082688000,1.55668798828125,-1.2963714599609375,-0.35736083984375,-0.03802490234375
1772642808092732000,1.56673193359375,-1.404327392578125,-0.3514556884765625,-0.0768890380859375
1772642808102777000,1.576777099609375,-1.5213623046875,-0.366973876953125,-0.091766357421875
1772642808112822000,1.586822021484375,-1.7158660888671875,-0.388702392578125,-0.1153564453125
1772642808122867200,1.5968671875,-1.9610748291015625,-0.3510894775390625,-0.1414031982421875
1772642808132912000,1.606912109375,-2.2083282470703125,-0.30218505859375,-0.1400299072265625
1772642808142957000,1.61695703125,-2.439727783203125,-0.2860565185546875,-0.133453369140625
1772642808153001000,1.6270009765625,-2.6071014404296875,-0.258087158203125,-0.1615753173828125
1772642808163046100,1.637046142578125,-2.7310028076171875,-0.1779937744140625,-0.1960296630859375
1772642808173090800,1.6470908203125,-2.8632354736328125,-0.0748291015625,-0.185516357421875
1772642808183136000,1.657135986328125,-2.9661407470703125,-0.02783203125,-0.1339111328125
1772642808193181000,1.667180908203125,-3.0337982177734375,-0.030517578125,-0.0985565185546875
1772642808203225000,1.67722509765625,-3.019989013671875,-0.0189971923828125,-0.0784454345703125
1772642808213270000,1.68727001953125,-2.9239349365234375,-0.02984619140625,-0.097686767578125
1772642808223315000,1.69731494140625,-2.765472412109375,-0.0372772216796875,-0.1507110595703125
1772642808233360400,1.7073603515625,-2.564422607421875,-0.061431884765625,-0.1952667236328125
1772642808243405300,1.7174052734375,-2.341827392578125,-0.1071929931640625,-0.2131195068359375
1772642808253450500,1.727450439453125,-2.0930023193359375,-0.1794891357421875,-0.2090911865234375
1772642808263494100,1.737494140625,-1.7768402099609375,-0.274261474609375,-0.175445556640625
1772642808273539300,1.747539306640625,-1.41497802734375,-0.3695068359375,-0.1160125732421875
1772642808283584300,1.757584228515625,-1.05841064453125,-0.42230224609375,-0.0460052490234375
1772642808293629400,1.76762939453125,-0.68670654296875,-0.420745849609375,-0.009552001953125
1772642808303674400,1.77767431640625,-0.3410186767578125,-0.3569793701171875,-0.0135345458984375
1772642808313718300,1.78771826171875,-0.1776580810546875,-0.2659912109375,-0.0347900390625
1772642808323763500,1.797763427734375,-0.18756103515625,-0.1728973388671875,-0.0289459228515625
1772642808333808400,1.807808349609375,-0.24462890625,-0.1136627197265625,-0.0060272216796875
1772642808343853300,1.817853271484375,-0.322662353515625,-0.0708770751953125,-0.020233154296875
1772642808353898200,1.827898193359375,-0.37847900390625,-0.0457916259765625,-0.01080322265625
1772642808363943400,1.837943359375,-0.36041259765625,-0.0670013427734375,-0.0250244140625
1772642808373987300,1.8479873046875,-0.31280517578125,-0.08392333984375,-0.1362457275390625
1772642808384032300,1.8580322265625,-0.1988372802734375,-0.0974578857421875,-0.2465667724609375
1772642808394077200,1.8680771484375,-0.1042327880859375,-0.07720947265625,-0.300994873046875
1772642808404122400,1.878122314453125,-0.096954345703125,-0.032318115234375,-0.2570953369140625
1772642808414167300,1.888167236328125,-0.1874237060546875,-0.0045623779296875,-0.1166534423828125
1772642808424211200,1.898211181640625,-0.3151702880859375,0.035675048828125,0.015411376953125
1772642808434256400,1.90825634765625,-0.4405517578125,0.07916259765625,0.08233642578125
1772642808444301300,1.91830126953125,-0.5081024169921875,0.0914154052734375,0.1024017333984375
1772642808454346500,1.928346435546875,-0.514923095703125,0.0910797119140625,0.09454345703125
1772642808464391200,1.93839111328125,-0.444915771484375,0.061981201171875,0.067413330078125
1772642808474436400,1.948436279296875,-0.3673095703125,0.0087432861328125,-0.018035888671875
1772642808484480300,1.958480224609375,-0.3385009765625,-0.02691650390625,-0.1612396240234375
1772642808494525400,1.968525390625,-0.323699951171875,-0.0185394287109375,-0.2601318359375
1772642808504570400,1.9785703125,-0.3423614501953125,0.0082550048828125,-0.24652099609375
1772642808514615300,1.988615234375,-0.3839569091796875,0.0557708740234375,-0.14935302734375
1772642808524660200,1.99866015625,-0.42962646484375,0.1041717529296875,-0.03387451171875
1772642808534704400,2.008704345703125,-0.4454345703125,0.1394805908203125,0.0565185546875
1772642808544749300,2.018749267578125,-0.426544189453125,0.1519775390625,0.086151123046875
1772642808554794200,2.028794189453125,-0.410858154296875,0.1540069580078125,0.0465087890625
1772642808564839400,2.03883935546875,-0.433135986328125,0.1381988525390625,0.01702880859375
1772642808574884400,2.04888427734375,-0.4476318359375,0.12939453125,-0.015625
1772642808584929300,2.05892919921875,-0.4669342041015625,0.1287078857421875,-0.081573486328125
1772642808594973400,2.068973388671875,-0.470245361328125,0.1151275634765625,-0.142303466796875
1772642808605018400,2.079018310546875,-0.445098876953125,0.1017303466796875,-0.1580810546875
1772642808615063600,2.0890634765625,-0.407379150390625,0.0924224853515625,-0.1388397216796875
1772642808625108200,2.099108154296875,-0.4107208251953125,0.08282470703125,-0.0945281982421875
1772642808635153400,2.1091533203125,-0.43743896484375,-0.0166015625,0.01007080078125
1772642808645197300,2.119197265625,-0.3677520751953125,-0.0878753662109375,0.049102783203125
1772642808655242500,2.129242431640625,-0.2392120361328125,-0.1273956298828125,-0.006195068359375
1772642808665287200,2.139287109375,-0.26416015625,-0.185302734375,-0.007232666015625
1772642808675332400,2.149332275390625,-0.45623779296875,-0.19744873046875,0.0036163330078125
1772642808685377300,2.159377197265625,-0.756744384765625,-0.228546142578125,-0.007720947265625
1772642808695422500,2.16942236328125,-1.0731048583984375,-0.2433013916015625,-0.010406494140625
1772642808705466400,2.17946630859375,-1.334136962890625,-0.1502532958984375,-0.04815673828125
1772642808715511300,2.18951123046875,-1.5631256103515625,-0.0107574462890625,-0.0840301513671875
1772642808725556500,2.199556396484375,-1.75238037109375,0.0775299072265625,0.00299072265625
1772642808735601400,2.209601318359375,-1.8329620361328125,0.0865478515625,0.125457763671875
1772642808745646300,2.219646240234375,-1.80010986328125,0.078887939453125,0.1475067138671875
1772642808755690200,2.229690185546875,-1.746551513671875,0.0637664794921875,0.1378631591796875
1772642808765735400,2.2397353515625,-1.7417144775390625,0.021728515625,0.1310882568359375
1772642808775780400,2.2497802734375,-1.7810211181640625,-0.016876220703125,0.140380859375
1772642808785825300,2.2598251953125,-1.841217041015625,-0.041748046875,0.145111083984375
1772642808795870200,2.2698701171875,-1.8808746337890625,-0.05419921875,0.1428985595703125
1772642808805915400,2.279915283203125,-1.8836669921875,-0.063629150390625,0.1384124755859375
1772642808815959600,2.28995947265625,-1.878662109375,-0.0719757080078125,0.124237060546875
1772642808826004200,2.300004150390625,-1.9401092529296875,-0.0514678955078125,0.1110992431640625
1772642808836049400,2.31004931640625,-2.0585784912109375,-0.03143310546875,0.1452789306640625
1772642808846094300,2.32009423828125,-2.153717041015625,-0.0363006591796875,0.1501007080078125
1772642808856139500,2.330139404296875,-2.227447509765625,-0.022552490234375,0.077362060546875
1772642808866183200,2.34018310546875,-2.3108978271484375,-0.030609130859375,0.0031280517578125
1772642808876228400,2.350228271484375,-2.354248046875,-0.0155487060546875,-0.01361083984375
1772642808886273300,2.360273193359375,-2.364288330078125,0.0166473388671875,0.018096923828125
1772642808896318500,2.370318359375,-2.3050537109375,0.023590087890625,0.077301025390625
1772642808906363100,2.380363037109375,-2.1995849609375,-0.001708984375,0.118377685546875
1772642808916408300,2.390408203125,-2.05718994140625,-0.0648345947265625,0.1271820068359375
1772642808926452500,2.400452392578125,-1.8079376220703125,-0.123687744140625,0.1233673095703125
1772642808936497400,2.410497314453125,-1.5363311767578125,-0.1616363525390625,0.1332855224609375
1772642808946542300,2.420542236328125,-1.349273681640625,-0.1739044189453125,0.1441802978515625
1772642808956587300,2.430587158203125,-1.2372283935546875,-0.183837890625,0.1689453125
1772642808966632400,2.440632568359375,-1.1462860107421875,-0.1860504150390625,0.1964874267578125
1772642808976677400,2.450677490234375,-1.0388031005859375,-0.18170166015625,0.204986572265625
1772642808986721300,2.46072119140625,-0.9606475830078125,-0.163787841796875,0.20281982421875
1772642808996766200,2.47076611328125,-0.961761474609375,-0.1147918701171875,0.2143707275390625
1772642809006811400,2.480811279296875,-0.9486236572265625,-0.0815887451171875,0.244293212890625
1772642809016856300,2.490856201171875,-0.8672637939453125,-0.058624267578125,0.2095947265625
1772642809026901200,2.5009013671875,-0.7299957275390625,-0.05035400390625,0.1240234375
1772642809036945400,2.5109453125,-0.582489013671875,-0.02294921875,0.0735321044921875
1772642809046990300,2.520990234375,-0.456024169921875,0.0112762451171875,0.071258544921875
1772642809057035500,2.531035400390625,-0.3670196533203125,0.029937744140625,0.0664520263671875
1772642809067080200,2.541080078125,-0.298309326171875,0.062713623046875,0.0575714111328125
1772642809077125400,2.55112548828125,-0.245880126953125,0.077606201171875,0.090057373046875
1772642809087170300,2.56117041015625,-0.18084716796875,0.068878173828125,0.1050262451171875
1772642809097214500,2.57121435546875,-0.1106414794921875,0.0309295654296875,0.069549560546875
1772642809107259400,2.58125927734375,-0.0393218994140625,-0.0153045654296875,0.0135345458984375
1772642809117304300,2.59130419921875,0.0350799560546875,-0.0548248291015625,-0.04339599609375
1772642809127349500,2.601349609375,0.10308837890625,-0.0943145751953125,-0.0974273681640625
1772642809137394400,2.61139453125,0.1601715087890625,-0.122039794921875,-0.1240386962890625
1772642809147438300,2.621438232421875,0.2076568603515625,-0.141448974609375,-0.1316375732421875
1772642809157483300,2.631483154296875,0.2331695556640625,-0.1550445556640625,-0.141143798828125
1772642809167528400,2.641528564453125,0.2402191162109375,-0.1528778076171875,-0.123046875
1772642809177573400,2.651573486328125,0.2263031005859375,-0.1352386474609375,-0.099334716796875
1772642809187618300,2.661618408203125,0.153717041015625,-0.102081298828125,-0.063262939453125
1772642809197662500,2.671662353515625,0.0586700439453125,-0.06976318359375,-0.0201263427734375
1772642809207707400,2.681707275390625,-0.0248870849609375,-0.042205810546875,-0.0009765625
1772642809217752600,2.691752685546875,-0.090179443359375,-0.01593017578125,0.0264129638671875
1772642809227797200,2.70179736328125,-0.14459228515625,0.00787353515625,0.0547332763671875
1772642809237842400,2.711842529296875,-0.198089599609375,0.027435302734375,0.0698089599609375
1772642809247887600,2.7218876953125,-0.2305755615234375,0.0447998046875,0.046539306640625
1772642809257931500,2.731931640625,-0.2570037841796875,0.05706787109375,0.015045166015625
1772642809267976400,2.7419765625,-0.2791900634765625,0.0697784423828125,0.0237274169921875
1772642809278021600,2.752021728515625,-0.3027496337890625,0.1081085205078125,0.0411834716796875
1772642809288066600,2.762066650390625,-0.380218505859375,0.1096649169921875,0.066558837890625
1772642809298111500,2.772111572265625,-0.4880218505859375,0.0522003173828125,0.088409423828125
1772642809308156400,2.782156494140625,-0.532989501953125,-0.010528564453125,0.0548553466796875
1772642809318200600,2.79220068359375,-0.4976959228515625,-0.0993194580078125,0.034637451171875
1772642809328245800,2.802245849609375,-0.427703857421875,-0.2024078369140625,0.00860595703125
1772642809338290400,2.81229052734375,-0.4306640625,-0.2885894775390625,-0.0501251220703125
1772642809348335600,2.822335693359375,-0.556121826171875,-0.2686767578125,-0.1290283203125
1772642809358380500,2.832380615234375,-0.8618011474609375,-0.1865997314453125,-0.157073974609375
1772642809368424700,2.8424248046875,-1.2727813720703125,-0.1619110107421875,-0.0478057861328125
1772642809378469400,2.852469482421875,-1.58905029296875,-0.15081787109375,0.0755462646484375
1772642809388514600,2.8625146484375,-1.7096405029296875,-0.1222991943359375,0.0838623046875
1772642809398559500,2.8725595703125,-1.7158660888671875,-0.09271240234375,0.0111846923828125
1772642809408604700,2.882604736328125,-1.673736572265625,-0.059173583984375,-0.0586090087890625
1772642809418649300,2.8926494140625,-1.661651611328125,-0.0048065185546875,-0.088134765625
1772642809428693500,2.902693603515625,-1.778167724609375,0.067474365234375,-0.050201416015625
1772642809438738700,2.91273876953125,-1.944244384765625,0.0984344482421875,-0.00885009765625
1772642809448783600,2.92278369140625,-2.041290283203125,0.062408447265625,0.0335235595703125
1772642809458828500,2.93282861328125,-1.99749755859375,0.0098724365234375,0.08624267578125
1772642809468873500,2.94287353515625,-1.9252777099609375,-0.05841064453125,0.1430206298828125
1772642809478917600,2.952917724609375,-1.9367218017578125,-0.11383056640625,0.1724090576171875
1772642809488962600,2.962962646484375,-2.0281524658203125,-0.09930419921875,0.1495208740234375
1772642809499007500,2.973007568359375,-2.1804962158203125,-0.0272064208984375,0.1376190185546875
1772642809509052400,2.983052490234375,-2.339080810546875,0.0640106201171875,0.1477203369140625
1772642809519097600,2.99309765625,-2.470550537109375,0.142547607421875,0.182342529296875
1772642809529142500,3.003142578125,-2.5064697265625,0.1855926513671875,0.179443359375
1772642809539186400,3.0131865234375,-2.442840576171875,0.1907501220703125,0.151641845703125
1772642809549231600,3.023231689453125,-2.2957611083984375,0.154266357421875,0.1724090576171875
1772642809559276500,3.033276611328125,-2.1255645751953125,0.08319091796875,0.20404052734375
1772642809569321700,3.04332177734375,-1.974609375,-0.0088653564453125,0.2154541015625
1772642809579366400,3.053366455078125,-1.830474853515625,-0.1202545166015625,0.1749267578125
1772642809589410600,3.06341064453125,-1.685760498046875,-0.2227325439453125,0.1264495849609375
1772642809599455500,3.07345556640625,-1.54656982421875,-0.287322998046875,0.1155242919921875
1772642809609500700,3.083500732421875,-1.4253997802734375,-0.3085784912109375,0.1411895751953125
1772642809619545300,3.09354541015625,-1.3384246826171875,-0.2922210693359375,0.1720733642578125
1772642809629590500,3.103590576171875,-1.2939910888671875,-0.253387451171875,0.1647491455078125
1772642809639635500,3.113635498046875,-1.295928955078125,-0.1905364990234375,0.1484832763671875
1772642809649679600,3.1236796875,-1.28875732421875,-0.1286163330078125,0.1502685546875
1772642809659724500,3.133724609375,-1.275634765625,-0.070465087890625,0.16650390625
1772642809669769500,3.14376953125,-1.24945068359375,-0.0355224609375,0.19818115234375
1772642809679814700,3.153814697265625,-1.186248779296875,-0.0364990234375,0.199249267578125
1772642809689859600,3.163859619140625,-1.0862579345703125,-0.0572509765625,0.1799468994140625
1772642809699903500,3.173903564453125,-0.9484710693359375,-0.0673370361328125,0.174285888671875
1772642809709948400,3.183948486328125,-0.8104400634765625,-0.0535736083984375,0.1660308837890625
1772642809719993600,3.19399365234375,-0.68017578125,-0.0509033203125,0.062225341796875
1772642809730038500,3.20403857421875,-0.5604705810546875,-0.0415802001953125,-0.096832275390625
1772642809740083500,3.21408349609375,-0.49505615234375,-0.00537109375,-0.11590576171875
1772642809750128400,3.22412841796875,-0.494049072265625,0.0365142822265625,-0.057647705078125
1772642809760172500,3.234172607421875,-0.52984619140625,0.06805419921875,-0.005157470703125
1772642809770217700,3.2442177734375,-0.5568695068359375,0.061920166015625,0.0747528076171875
1772642809780262400,3.254262451171875,-0.5049896240234375,0.0672149658203125,0.1076812744140625
1772642809790307600,3.2643076171875,-0.4263458251953125,0.053253173828125,0.1109466552734375
1772642809800352500,3.2743525390625,-0.29888916015625,0.049896240234375,0.128509521484375
1772642809810396400,3.284396484375,-0.1473541259765625,0.0388336181640625,0.10784912109375
1772642809820441600,3.294441650390625,-0.00640869140625,0.021026611328125,0.0391082763671875
1772642809830486500,3.304486572265625,0.0627899169921875,0.0095367431640625,0.0333404541015625
1772642809840531700,3.31453173828125,0.076416015625,0.0002593994140625,0.0625
1772642809850576600,3.32457666015625,0.06964111328125,-0.01025390625,0.1009979248046875
1772642809860621600,3.33462158203125,0.0513916015625,-0.022552490234375,0.097198486328125
1772642809870665500,3.34466552734375,0.026611328125,-0.0302734375,0.048431396484375
1772642809880710700,3.354710693359375,0.0287322998046875,-0.0239410400390625,0.0102996826171875
1772642809890755600,3.364755615234375,0.0341796875,-0.0217742919921875,-0.013458251953125
1772642809900800500,3.374800537109375,0.0323333740234375,-0.0115966796875,-0.034423828125
1772642809910845400,3.384845458984375,0.02020263671875,0.0047607421875,-0.045989990234375
1772642809920889600,3.3948896484375,-0.0003509521484375,0.0286407470703125,-0.0554046630859375
1772642809930934800,3.404934814453125,-0.03717041015625,0.0648956298828125,-0.0612335205078125
1772642809940979500,3.4149794921875,-0.0987701416015625,0.1065673828125,-0.0510101318359375
1772642809951024600,3.425024658203125,-0.15203857421875,0.1491241455078125,-0.037322998046875
1772642809961069600,3.435069580078125,-0.191864013671875,0.1867523193359375,-0.02020263671875
1772642809971114800,3.44511474609375,-0.199859619140625,0.2110748291015625,0.00347900390625
1772642809981158400,3.455158447265625,-0.1889801025390625,0.2120208740234375,0.006622314453125
1772642809991203600,3.46520361328125,-0.193206787109375,0.1849822998046875,0.01580810546875
1772642810001248500,3.47524853515625,-0.2233123779296875,0.12493896484375,0.0194244384765625
1772642810011293700,3.485293701171875,-0.225921630859375,0.069610595703125,0.006805419921875
1772642810021338400,3.49533837890625,-0.1962890625,0.0074310302734375,0.0162353515625
1772642810031383600,3.505383544921875,-0.166412353515625,-0.0496673583984375,0.016845703125
1772642810041427700,3.515427734375,-0.1927490234375,-0.0820159912109375,-0.0223846435546875
1772642810051472600,3.52547265625,-0.32330322265625,-0.0740203857421875,-0.080718994140625
1772642810061517600,3.535517578125,-0.564483642578125,-0.057861328125,-0.1019744873046875
1772642810071562500,3.5455625,-0.8687744140625,-0.0761566162109375,-0.086334228515625
1772642810081607700,3.555607666015625,-1.155426025390625,-0.0838470458984375,-0.0672607421875
1772642810091651300,3.5656513671875,-1.349273681640625,-0.0837249755859375,-0.0540618896484375
1772642810101696500,3.575696533203125,-1.455169677734375,-0.112548828125,-0.0606536865234375
1772642810111741400,3.585741455078125,-1.5163116455078125,-0.134246826171875,-0.0781402587890625
1772642810121786600,3.59578662109375,-1.58056640625,-0.120880126953125,-0.1015625
1772642810131831600,3.60583154296875,-1.6884002685546875,-0.04901123046875,-0.13311767578125
1772642810141876500,3.61587646484375,-1.8505706787109375,0.0554046630859375,-0.1586761474609375
1772642810151920600,3.625920654296875,-2.01788330078125,0.16046142578125,-0.148712158203125
1772642810161965600,3.635965576171875,-2.14154052734375,0.207244873046875,-0.08642578125
1772642810172010800,3.6460107421875,-2.2279205322265625,0.1878662109375,-0.00250244140625
1772642810182055400,3.656055419921875,-2.280029296875,0.128875732421875,0.05419921875
1772642810192100600,3.6661005859375,-2.262908935546875,0.049285888671875,0.0371246337890625
1772642810202144500,3.67614453125,-2.2259521484375,-0.025543212890625,-0.013916015625
1772642810212189400,3.686189453125,-2.213409423828125,-0.0503387451171875,-0.0242767333984375
1772642810222234400,3.696234375,-2.236480712890625,-0.024078369140625,-0.0169525146484375
1772642810232279600,3.706279541015625,-2.2973480224609375,0.0304718017578125,-0.0166168212890625
1772642810242324500,3.716324462890625,-2.3639373779296875,0.116729736328125,-0.011627197265625
1772642810252369700,3.72636962890625,-2.4192047119140625,0.226318359375,-0.0032196044921875
1772642810262413800,3.736413818359375,-2.465789794921875,0.3139495849609375,0.0016326904296875
1772642810272458800,3.746458740234375,-2.4873199462890625,0.36932373046875,-0.0288543701171875
1772642810282503700,3.756503662109375,-2.4570159912109375,0.372039794921875,-0.05755615234375
1772642810292548600,3.766548583984375,-2.3658294677734375,0.3434295654296875,-0.0701751708984375
1772642810302593800,3.77659375,-2.2230377197265625,0.304901123046875,-0.063446044921875
1772642810312637400,3.786637451171875,-2.038818359375,0.26300048828125,-0.032012939453125
1772642810322682600,3.7966826171875,-1.85614013671875,0.20867919921875,0.000701904296875
1772642810332727600,3.8067275390625,-1.691558837890625,0.1540069580078125,0.015380859375
1772642810342772700,3.816772705078125,-1.5357513427734375,0.1064300537109375,0.0353851318359375
1772642810352817700,3.826817626953125,-1.368316650390625,0.071624755859375,0.05975341796875
1772642810362862600,3.836862548828125,-1.2185516357421875,0.03466796875,0.0902252197265625
1772642810372906800,3.84690673828125,-1.1035614013671875,-0.0073699951171875,0.1057586669921875
1772642810382951700,3.85695166015625,-0.9923095703125,-0.05023193359375,0.095733642578125
1772642810392996900,3.866996826171875,-0.8646392822265625,-0.08740234375,0.0809173583984375
1772642810403041500,3.87704150390625,-0.7222137451171875,-0.094451904296875,0.0662078857421875
1772642810413086700,3.887086669921875,-0.647430419921875,-0.0687713623046875,0.04132080078125
1772642810423131600,3.897131591796875,-0.6739654541015625,-0.02728271484375,0.000335693359375
1772642810433175600,3.907175537109375,-0.71051025390625,0.022064208984375,-0.031097412109375
1772642810443220700,3.917220703125,-0.745635986328125,0.07513427734375,-0.0441436767578125
1772642810453265700,3.927265625,-0.72894287109375,0.1103515625,-0.03857421875
1772642810463310600,3.937310546875,-0.63873291015625,0.136749267578125,-0.020751953125
1772642810473355800,3.947355712890625,-0.537200927734375,0.1522369384765625,0.0052642822265625
1772642810483399700,3.957399658203125,-0.485443115234375,0.1679840087890625,0.018463134765625
1772642810493444600,3.967444580078125,-0.4632568359375,0.181427001953125,-0.001800537109375
1772642810503489800,3.97748974609375,-0.44549560546875,0.16778564453125,-0.0177764892578125
1772642810513534700,3.98753466796875,-0.3990325927734375,0.1659698486328125,-0.012908935546875
1772642810523579600,3.99757958984375,-0.3463134765625,0.14935302734375,0.0078887939453125
1772642810533624600,4.00762451171875,-0.299957275390625,0.1288299560546875,-0.0006866455078125
1772642810543668700,4.017668701171875,-0.26531982421875,0.114044189453125,-0.013397216796875
1772642810553713700,4.027713623046875,-0.2532806396484375,0.093841552734375,-0.020843505859375
1772642810563758600,4.037758544921875,-0.2411041259765625,0.067291259765625,-0.0470733642578125
1772642810573803800,4.0478037109375,-0.221221923828125,0.0434112548828125,-0.0749969482421875
1772642810583848700,4.0578486328125,-0.1854095458984375,0.0200958251953125,-0.0933837890625
1772642810593892600,4.067892578125,-0.133819580078125,0.00811767578125,-0.10162353515625
1772642810603937500,4.0779375,-0.0809478759765625,0.006591796875,-0.1198272705078125
1772642810613982700,4.087982666015625,-0.0594940185546875,0.0112762451171875,-0.1333160400390625
1772642810624027600,4.098027587890625,-0.0691375732421875,0.03546142578125,-0.1080474853515625
1772642810634072800,4.10807275390625,-0.0961761474609375,0.0633087158203125,-0.0712432861328125
1772642810644117500,4.118117431640625,-0.1215972900390625,0.0804443359375,-0.045562744140625
1772642810654161700,4.12816162109375,-0.122283935546875,0.081390380859375,-0.04901123046875
1772642810664206800,4.138206787109375,-0.0930023193359375,0.0790557861328125,-0.0598297119140625
1772642810674251800,4.148251708984375,-0.0641937255859375,0.0786285400390625,-0.0671539306640625
1772642810684296700,4.158296630859375,-0.050323486328125,0.08837890625,-0.0781402587890625
1772642810694341600,4.168341552734375,-0.083892822265625,0.087921142578125,-0.0470733642578125
1772642810704386800,4.17838671875,-0.1620330810546875,0.0626983642578125,0.0084075927734375
1772642810714430500,4.188430419921875,-0.22119140625,0.018035888671875,0.0397186279296875
1772642810724475600,4.1984755859375,-0.236236572265625,-0.0792694091796875,0.069427490234375
1772642810734520600,4.2085205078125,-0.2205352783203125,-0.18023681640625,0.0930023193359375
1772642810744565800,4.218565673828125,-0.221466064453125,-0.28009033203125,0.0863800048828125
1772642810754610700,4.228610595703125,-0.261077880859375,-0.3083038330078125,0.0218505859375
1772642810764654600,4.238654541015625,-0.43524169921875,-0.2822265625,0.000946044921875
1772642810774699800,4.24869970703125,-0.718536376953125,-0.295684814453125,0.0742034912109375
1772642810784744700,4.25874462890625,-1.016693115234375,-0.3333587646484375,0.1611328125
1772642810794790000,4.268789794921875,-1.21240234375,-0.3299713134765625,0.191619873046875
1772642810804834600,4.27883447265625,-1.2506103515625,-0.2689361572265625,0.1405181884765625
1772642810814878700,4.288878662109375,-1.2857208251953125,-0.1828155517578125,0.0572357177734375
1772642810824923600,4.298923583984375,-1.37310791015625,-0.116119384765625,-0.0312652587890625
1772642810834968600,4.308968505859375,-1.5272064208984375,-0.0382537841796875,-0.0775146484375
1772642810845013500,4.319013427734375,-1.76812744140625,0.0385894775390625,-0.033538818359375
1772642810855058700,4.32905859375,-2.0227203369140625,0.0891876220703125,0.02972412109375
1772642810865103600,4.339103515625,-2.1710205078125,0.1046905517578125,0.0885772705078125
1772642810875147500,4.3491474609375,-2.1943511962890625,0.100006103515625,0.1138153076171875
1772642810885192700,4.359192626953125,-2.1909027099609375,0.0836181640625,0.0848846435546875
1772642810895237600,4.369237548828125,-2.1598663330078125,0.070037841796875,0.0215301513671875
1772642810905282800,4.37928271484375,-2.1220855712890625,0.0536956787109375,-0.013885498046875
1772642810915327700,4.38932763671875,-2.116119384765625,0.0392303466796875,0.0182647705078125
1772642810925372700,4.39937255859375,-2.0859222412109375,0.033111572265625,0.09063720703125
1772642810935416600,4.40941650390625,-1.9960174560546875,0.0087432861328125,0.13604736328125
1772642810945461800,4.419461669921875,-1.881591796875,-0.006561279296875,0.1100921630859375
1772642810955506700,4.429506591796875,-1.848175048828125,0.0259246826171875,0.0430145263671875
1772642810965551600,4.439551513671875,-1.95123291015625,0.0822906494140625,0.01873779296875
1772642810975596500,4.449596435546875,-2.1075897216796875,0.1210479736328125,0.0666046142578125
1772642810985640700,4.459640625,-2.1546478271484375,0.1087799072265625,0.1172943115234375
1772642810995685600,4.469685546875,-2.0554046630859375,0.05792236328125,0.1178131103515625
1772642811005730600,4.47973046875,-1.9022674560546875,0.0087432861328125,0.09832763671875
1772642811015775700,4.489775634765625,-1.770172119140625,-0.024261474609375,0.09674072265625
1772642811025820700,4.499820556640625,-1.66314697265625,-0.05517578125,0.108612060546875
1772642811035865900,4.509865966796875,-1.543426513671875,-0.0917510986328125,0.1175079345703125
1772642811045909800,4.51990966796875,-1.4224090576171875,-0.1358795166015625,0.10772705078125
1772642811055954700,4.52995458984375,-1.319793701171875,-0.171722412109375,0.1015625
1772642811066000000,4.539999755859375,-1.2163543701171875,-0.185333251953125,0.1243743896484375
1772642811076044500,4.55004443359375,-1.1138763427734375,-0.1757354736328125,0.1646270751953125
1772642811086089700,4.56008984375,-0.994903564453125,-0.146209716796875,0.1867523193359375
1772642811096133600,4.570133544921875,-0.8499603271484375,-0.107696533203125,0.1688385009765625
1772642811106178800,4.5801787109375,-0.7211456298828125,-0.0554351806640625,0.115447998046875
1772642811116223500,4.590223388671875,-0.679443359375,-0.0449066162109375,0.066741943359375
1772642811126268700,4.6002685546875,-0.7106781005859375,-0.03155517578125,0.0087890625
1772642811136313600,4.610313720703125,-0.7331390380859375,0.00897216796875,-0.00970458984375
1772642811146358800,4.62035888671875,-0.76513671875,0.0422210693359375,0.003692626953125
1772642811156402700,4.630402587890625,-0.81256103515625,0.0586700439453125,-0.009765625
1772642811166447600,4.640447509765625,-0.8390960693359375,0.055999755859375,-0.0570068359375
1772642811176492800,4.650492919921875,-0.796966552734375,0.03924560546875,-0.1266326904296875
1772642811186537700,4.660537841796875,-0.712860107421875,0.02752685546875,-0.184661865234375
1772642811196583000,4.6705830078125,-0.6234130859375,0.0341949462890625,-0.163787841796875
1772642811206626600,4.68062646484375,-0.506134033203125,0.0340728759765625,-0.0991058349609375
1772642811216671700,4.690671630859375,-0.3686676025390625,0.020904541015625,-0.065460205078125
1772642811226716700,4.700716552734375,-0.2283477783203125,0.0008392333984375,-0.04534912109375
1772642811236761300,4.71076123046875,-0.1006622314453125,-0.0278472900390625,-0.0459442138671875
1772642811246806300,4.72080615234375,-0.01751708984375,-0.0472259521484375,-0.0478515625
1772642811256851500,4.7308515625,0.01580810546875,-0.066375732421875,-0.0301513671875
1772642811266895600,4.7408955078125,0.0111541748046875,-0.083343505859375,-0.04998779296875
1772642811276940300,4.750940185546875,-0.0238800048828125,-0.0843353271484375,-0.08563232421875
1772642811286985500,4.7609853515625,-0.0700225830078125,-0.076934814453125,-0.0907745361328125
1772642811297030400,4.771030517578125,-0.091583251953125,-0.0545654296875,-0.07073974609375
1772642811307075600,4.78107568359375,-0.0992584228515625,-0.021697998046875,-0.0187530517578125
1772642811317119200,4.791119140625,-0.1226806640625,0.01239013671875,0.041778564453125
1772642811327164400,4.801164306640625,-0.17144775390625,0.0460205078125,0.077178955078125
1772642811337209300,4.811209228515625,-0.213165283203125,0.0643463134765625,0.0836944580078125
1772642811347254500,4.821254638671875,-0.225341796875,0.076751708984375,0.072509765625
1772642811357299200,4.83129931640625,-0.2416839599609375,0.0793304443359375,0.0729522705078125
1772642811367344400,4.841344482421875,-0.2549285888671875,0.0782012939453125,0.0784759521484375
1772642811377388500,4.851388427734375,-0.2909698486328125,0.070709228515625,0.0650177001953125
1772642811387433500,4.86143359375,-0.370941162109375,0.0554046630859375,0.0529022216796875
1772642811397478400,4.871478515625,-0.4721832275390625,0.029296875,0.061431884765625
1772642811407523300,4.8815234375,-0.53997802734375,-0.01190185546875,0.0867156982421875
1772642811417568500,4.891568603515625,-0.5335235595703125,-0.0670013427734375,0.0975341796875
1772642811427612400,4.9016123046875,-0.47198486328125,-0.1230926513671875,0.078155517578125
1772642811437657300,4.9116572265625,-0.452850341796875,-0.1656494140625,0.05859375
1772642811447702500,4.92170263671875,-0.5412139892578125,-0.186248779296875,0.027069091796875
1772642811457747500,4.93174755859375,-0.7490386962890625,-0.1839447021484375,0.01654052734375
1772642811467792400,4.94179248046875,-1.0093994140625,-0.1810150146484375,0.06219482421875
1772642811477837300,4.95183740234375,-1.226715087890625,-0.176239013671875,0.1136627197265625
1772642811487881500,4.961881591796875,-1.330047607421875,-0.1832733154296875,0.110565185546875
1772642811497926400,4.971926513671875,-1.310882568359375,-0.1847686767578125,0.0597686767578125
1772642811507971600,4.9819716796875,-1.290252685546875,-0.174346923828125,0.033172607421875
1772642811518016300,4.992016357421875,-1.34564208984375,-0.1752471923828125,0.0839691162109375
1772642811528061400,5.0020615234375,-1.4120330810546875,-0.181610107421875,0.148162841796875
1772642811538106400,5.0121064453125,-1.45263671875,-0.16552734375,0.1609954833984375
1772642811548150500,5.022150634765625,-1.531524658203125,-0.1389312744140625,0.135284423828125
1772642811558195500,5.032195556640625,-1.6569976806640625,-0.1485443115234375,0.12860107421875
1772642811568240400,5.042240478515625,-1.720245361328125,-0.191192626953125,0.1448211669921875
1772642811578285600,5.05228564453125,-1.68927001953125,-0.2321319580078125,0.1497039794921875
1772642811588330500,5.06233056640625,-1.655242919921875,-0.264251708984375,0.149078369140625
1772642811598374400,5.07237451171875,-1.65911865234375,-0.2696990966796875,0.1619110107421875
1772642811608419300,5.08241943359375,-1.7079925537109375,-0.2528076171875,0.174346923828125
1772642811618464500,5.092464599609375,-1.7620697021484375,-0.223358154296875,0.1922760009765625
1772642811628509400,5.102509521484375,-1.811248779296875,-0.183380126953125,0.20782470703125
1772642811638554400,5.112554443359375,-1.903289794921875,-0.1194610595703125,0.2104644775390625
1772642811648599300,5.122599365234375,-2.0587615966796875,-0.073486328125,0.19146728515625
1772642811658643500,5.1326435546875,-2.1840972900390625,-0.0566864013671875,0.1554412841796875
1772642811668688600,5.142688720703125,-2.215118408203125,-0.0574798583984375,0.146484375
1772642811678733300,5.1527333984375,-2.1189117431640625,-0.09674072265625,0.160614013671875
1772642811688778500,5.162778564453125,-1.944976806640625,-0.158599853515625,0.1725006103515625
1772642811698823400,5.172823486328125,-1.78277587890625,-0.2142181396484375,0.1651611328125
1772642811708867300,5.182867431640625,-1.684844970703125,-0.2395782470703125,0.1484375
1772642811718912300,5.192912353515625,-1.6462860107421875,-0.2294769287109375,0.1436767578125
1772642811728957400,5.20295751953125,-1.6601409912109375,-0.1902313232421875,0.1602020263671875
1772642811739002400,5.21300244140625,-1.6840667724609375,-0.1451416015625,0.1913604736328125
1772642811749047600,5.223047607421875,-1.6573028564453125,-0.11083984375,0.193206787109375
1772642811759092200,5.23309228515625,-1.577911376953125,-0.083465576171875,0.160125732421875
1772642811769136400,5.243136474609375,-1.5018157958984375,-0.0630950927734375,0.118865966796875
1772642811779181600,5.253181640625,-1.4050140380859375,-0.0503997802734375,0.0725860595703125
1772642811789226500,5.2632265625,-1.30926513671875,-0.033355712890625,0.0485382080078125
1772642811799271400,5.273271484375,-1.2435150146484375,0.00079345703125,0.0571441650390625
1772642811809316400,5.28331640625,-1.181243896484375,0.0579986572265625,0.06915283203125
1772642811819360500,5.293360595703125,-1.13037109375,0.102691650390625,0.0522918701171875
1772642811829405200,5.3034052734375,-1.0784912109375,0.115386962890625,-0.002471923828125
1772642811839450400,5.313450439453125,-0.977081298828125,0.083740234375,-0.04302978515625
1772642811849495300,5.323495361328125,-0.7994384765625,0.0368804931640625,-0.0711822509765625
1772642811859540500,5.33354052734375,-0.620147705078125,-0.0131988525390625,-0.1391754150390625
1772642811869585400,5.34358544921875,-0.512786865234375,-0.0617828369140625,-0.162353515625
1772642811879629300,5.35362939453125,-0.4638519287109375,-0.0738067626953125,-0.1558074951171875
1772642811889674500,5.363674560546875,-0.4829864501953125,-0.063140869140625,-0.1485443115234375
1772642811899719400,5.373719482421875,-0.4883880615234375,-0.0269775390625,-0.097137451171875
1772642811909764600,5.3837646484375,-0.4527587890625,0.0007476806640625,-0.0238037109375
1772642811919809300,5.393809326171875,-0.3959197998046875,0.0165252685546875,0.03900146484375
1772642811929853400,5.403853515625,-0.3195343017578125,-0.003753662109375,0.044281005859375
1772642811939898400,5.4138984375,-0.233306884765625,-0.01556396484375,0.047332763671875
1772642811949943600,5.423943603515625,-0.1335906982421875,-0.0106201171875,0.0944061279296875
1772642811959988500,5.433988525390625,-0.0272369384765625,-0.0087432861328125,0.1315155029296875
1772642811970033400,5.444033447265625,0.0526580810546875,-0.03753662109375,0.13555908203125
1772642811980078300,5.454078369140625,0.1045684814453125,-0.074371337890625,0.1002044677734375
1772642811990122200,5.464122314453125,0.1322021484375,-0.109222412109375,0.0463714599609375
1772642812000167400,5.47416748046875,0.130615234375,-0.1322021484375,-0.0060882568359375
1772642812010212400,5.48421240234375,0.0962982177734375,-0.1288604736328125,-0.0500946044921875
1772642812020257500,5.494257568359375,0.0387115478515625,-0.1018218994140625,-0.0608673095703125
1772642812030302500,5.504302490234375,-0.0262451171875,-0.0633697509765625,-0.07818603515625
1772642812040347400,5.514347412109375,-0.0800933837890625,-0.02276611328125,-0.099456787109375
1772642812050391600,5.5243916015625,-0.118133544921875,0.0108184814453125,-0.112457275390625
1772642812060436500,5.5344365234375,-0.1460418701171875,0.0418243408203125,-0.111297607421875
1772642812070481700,5.544481689453125,-0.1635894775390625,0.06207275390625,-0.0992431640625
1772642812080526300,5.5545263671875,-0.1926116943359375,0.0727386474609375,-0.0924530029296875
1772642812090571500,5.564571533203125,-0.2502899169921875,0.07855224609375,-0.077667236328125
1772642812100615400,5.574615478515625,-0.3175201416015625,0.0824432373046875,-0.0399322509765625
1772642812110660400,5.584660400390625,-0.36163330078125,0.0626373291015625,0.0136566162109375
1772642812120705300,5.594705322265625,-0.3663787841796875,0.0345306396484375,0.0536041259765625
1772642812130750500,5.60475048828125,-0.3649749755859375,-0.03118896484375,0.076171875
1772642812140795400,5.61479541015625,-0.320159912109375,-0.0894775390625,0.052734375
1772642812150839300,5.62483935546875,-0.3049163818359375,-0.132659912109375,0.046051025390625
1772642812160884500,5.634884521484375,-0.3872833251953125,-0.1777496337890625,0.0613250732421875
1772642812170929400,5.644929443359375,-0.5274505615234375,-0.23248291015625,0.073638916015625
1772642812180974600,5.654974609375,-0.6565399169921875,-0.281768798828125,0.0550384521484375
1772642812191019500,5.66501953125,-0.77032470703125,-0.30316162109375,0.020904541015625
1772642812201064400,5.675064453125,-0.9047698974609375,-0.2884368896484375,-0.0061187744140625
1772642812211108400,5.6851083984375,-1.111053466796875,-0.2568359375,-0.009979248046875
1772642812221153500,5.695153564453125,-1.343353271484375,-0.196441650390625,-0.0166778564453125
1772642812231198200,5.7051982421875,-1.5558624267578125,-0.1358184814453125,-0.030609130859375
1772642812241243400,5.715243408203125,-1.75286865234375,-0.0625457763671875,-0.051025390625
1772642812251288300,5.725288330078125,-1.92962646484375,0.0058746337890625,-0.05657958984375
1772642812261333500,5.73533349609375,-2.062530517578125,0.0697021484375,-0.0555572509765625
1772642812271377400,5.74537744140625,-2.168609619140625,0.1174468994140625,-0.069000244140625
1772642812281422300,5.75542236328125,-2.22064208984375,0.1389617919921875,-0.1006317138671875
1772642812291467500,5.765467529296875,-2.214263916015625,0.1332244873046875,-0.1215362548828125
1772642812301512400,5.775512451171875,-2.1494293212890625,0.107025146484375,-0.111907958984375
1772642812311557600,5.7855576171875,-2.0198822021484375,0.0631103515625,-0.0821685791015625
1772642812321601300,5.795601318359375,-1.8713226318359375,0.0074310302734375,-0.0423583984375
1772642812331646500,5.805646484375,-1.762847900390625,-0.0604400634765625,0.006195068359375
1772642812341691400,5.81569140625,-1.6970672607421875,-0.1341094970703125,0.021759033203125
1772642812351736600,5.825736572265625,-1.6900482177734375,-0.1864166259765625,0.0057830810546875
1772642812361781200,5.83578125,-1.77386474609375,-0.1898651123046875,-0.0316619873046875
1772642812371826400,5.845826416015625,-1.935638427734375,-0.133392333984375,-0.0775299072265625
1772642812381870600,5.85587060546875,-2.1922607421875,-0.0578155517578125,-0.0874176025390625
1772642812391915300,5.865915283203125,-2.4362335205078125,0.0376434326171875,-0.0828704833984375
1772642812401960400,5.87596044921875,-2.565765380859375,0.11822509765625,-0.0522308349609375
1772642812412005400,5.88600537109375,-2.5516204833984375,0.137939453125,0.000335693359375
1772642812422050600,5.896050537109375,-2.4080963134765625,0.09765625,0.0462646484375
1772642812432094200,5.90609423828125,-2.1862640380859375,0.012664794921875,0.0929412841796875
1772642812442139400,5.916139404296875,-1.9637451171875,-0.0786895751953125,0.1142120361328125
1772642812452184300,5.926184326171875,-1.8037109375,-0.1420135498046875,0.1373138427734375
1772642812462229500,5.9362294921875,-1.682861328125,-0.203948974609375,0.1709442138671875
1772642812472274400,5.9462744140625,-1.51336669921875,-0.2623291015625,0.1453094482421875
1772642812482319400,5.9563193359375,-1.3184051513671875,-0.272125244140625,0.053314208984375
1772642812492363500,5.966363525390625,-1.28704833984375,-0.2376708984375,-0.049468994140625
1772642812502408400,5.976408447265625,-1.43963623046875,-0.1727142333984375,-0.0411376953125
1772642812512453400,5.986453369140625,-1.5017852783203125,-0.0607757568359375,0.0922698974609375
1772642812522498300,5.996498291015625,-1.37860107421875,0.0020294189453125,0.235198974609375
1772642812532543500,6.00654345703125,-1.1460113525390625,-0.0160369873046875,0.3056182861328125
1772642812542587400,6.01658740234375,-0.839874267578125,-0.08392333984375,0.248046875
1772642812552632300,6.02663232421875,-0.55322265625,-0.152801513671875,0.14556884765625
1772642812562677500,6.036677490234375,-0.3325958251953125,-0.1938629150390625,0.0243988037109375
1772642812572722400,6.046722412109375,-0.1919097900390625,-0.2566070556640625,-0.18463134765625
1772642812582767400,6.056767333984375,-0.1286163330078125,-0.2891082763671875,-0.3643646240234375
1772642812592812500,6.0668125,-0.12530517578125,-0.2195281982421875,-0.292022705078125
1772642812602856400,6.0768564453125,-0.18096923828125,-0.13409423828125,-0.102691650390625
1772642812612901400,6.0869013671875,-0.2556610107421875,-0.053985595703125,-0.0001983642578125
1772642812622946600,6.096946533203125,-0.302581787109375,-0.014373779296875,0.060882568359375
1772642812632991200,6.1069912109375,-0.253753662109375,-0.00469970703125,0.0854034423828125
1772642812643036400,6.117036376953125,-0.1247406005859375,-0.0130157470703125,0.068939208984375
1772642812653080600,6.12708056640625,0.0471343994140625,-0.028045654296875,0.0319976806640625
1772642812663125500,6.13712548828125,0.1936798095703125,-0.040283203125,-0.02581787109375
1772642812673170400,6.14717041015625,0.2605133056640625,-0.0334320068359375,-0.0354461669921875
1772642812683215400,6.15721533203125,0.2282867431640625,-0.022796630859375,-0.000701904296875
1772642812693260500,6.167260498046875,0.1230621337890625,-0.012054443359375,0.034423828125
1772642812703305500,6.177305419921875,-0.005218505859375,-0.0141143798828125,0.01953125
1772642812713349400,6.187349365234375,-0.1255340576171875,-0.031707763671875,-0.027557373046875
1772642812723394300,6.197394287109375,-0.2046966552734375,-0.0306549072265625,-0.0845947265625
1772642812733439500,6.207439453125,-0.267669677734375,-0.025909423828125,-0.115478515625
1772642812743484400,6.217484375,-0.3018951416015625,-0.01654052734375,-0.141082763671875
1772642812753529300,6.227529296875,-0.346343994140625,0.0207366943359375,-0.1455535888671875
1772642812763574300,6.23757421875,-0.4143524169921875,0.0609130859375,-0.1056060791015625
1772642812773618400,6.247618408203125,-0.433502197265625,0.0934906005859375,-0.0655670166015625
1772642812783663600,6.25766357421875,-0.4122467041015625,0.1165618896484375,-0.0362396240234375
1772642812793708300,6.267708251953125,-0.3538970947265625,0.1128692626953125,-0.026336669921875
1772642812803753500,6.27775341796875,-0.2746734619140625,0.10369873046875,-0.0342559814453125
1772642812813798400,6.28779833984375,-0.2216033935546875,0.1019744873046875,-0.02142333984375
1772642812823842600,6.297842529296875,-0.2218475341796875,0.0911865234375,0.004302978515625
1772642812833887200,6.30788720703125,-0.2821197509765625,0.0350189208984375,0.041595458984375
1772642812843932400,6.317932373046875,-0.2521209716796875,-0.0341644287109375,0.0189208984375
1772642812853977300,6.327977294921875,-0.193267822265625,-0.0715484619140625,-0.0595855712890625
1772642812864022500,6.3380224609375,-0.2802734375,-0.11572265625,-0.0847015380859375
1772642812874067500,6.3480673828125,-0.467315673828125,-0.1645965576171875,-0.0704803466796875
1772642812884111400,6.358111328125,-0.638214111328125,-0.1741790771484375,-0.0814666748046875
1772642812894156500,6.368156494140625,-0.7983551025390625,-0.1304779052734375,-0.086517333984375
1772642812904201500,6.378201416015625,-1.0322723388671875,-0.066986083984375,-0.0347747802734375
1772642812914246400,6.388246337890625,-1.27264404296875,-0.0225982666015625,0.046295166015625
1772642812924291300,6.398291259765625,-1.4174957275390625,-0.017852783203125,0.11737060546875
1772642812934335500,6.40833544921875,-1.4514312744140625,0.0149688720703125,0.0849761962890625
1772642812944380400,6.41838037109375,-1.5519561767578125,0.0371551513671875,0.0419464111328125
1772642812954425300,6.42842529296875,-1.7266845703125,0.0077972412109375,0.0347137451171875
1772642812964470300,6.43847021484375,-1.8371734619140625,-0.0210113525390625,0.004974365234375
1772642812974515500,6.448515380859375,-1.8349761962890625,-0.0567169189453125,0.030364990234375
1772642812984559600,6.4585595703125,-1.744659423828125,-0.1376495361328125,0.1204376220703125
1772642812994604300,6.468604248046875,-1.6143341064453125,-0.23480224609375,0.1673126220703125
1772642813004649500,6.4786494140625,-1.5159912109375,-0.336822509765625,0.177215576171875
1772642813014694400,6.4886943359375,-1.4797821044921875,-0.39874267578125,0.1497650146484375
1772642813024739600,6.498739501953125,-1.522186279296875,-0.39251708984375,0.1211395263671875
1772642813034784300,6.5087841796875,-1.6606597900390625,-0.329315185546875,0.1055755615234375
1772642813044828400,6.518828369140625,-1.8409423828125,-0.2406463623046875,0.09814453125
1772642813054873300,6.528873291015625,-2.04180908203125,-0.1623382568359375,0.1121673583984375
1772642813064918500,6.53891845703125,-2.16339111328125,-0.12567138671875,0.1583251953125
1772642813074963500,6.54896337890625,-2.1337738037109375,-0.11029052734375,0.169036865234375
1772642813085008400,6.55900830078125,-2.03912353515625,-0.08258056640625,0.146270751953125
1772642813095053300,6.56905322265625,-2.04327392578125,-0.050506591796875,0.1587982177734375
1772642813105097500,6.579097412109375,-2.13018798828125,-0.023406982421875,0.1731414794921875
1772642813115142400,6.589142333984375,-2.20294189453125,0.0073699951171875,0.18487548828125
1772642813125187300,6.599187255859375,-2.183441162109375,0.0121002197265625,0.18780517578125
1772642813135232500,6.609232421875,-2.0523681640625,-0.012237548828125,0.15814208984375
1772642813145277400,6.61927734375,-1.8874359130859375,-0.0465240478515625,0.1243438720703125
1772642813155321300,6.6293212890625,-1.74658203125,-0.069305419921875,0.10736083984375
1772642813165366500,6.639366455078125,-1.636688232421875,-0.0867919921875,0.0968170166015625
1772642813175411500,6.649411376953125,-1.5708160400390625,-0.10125732421875,0.1014404296875
1772642813185456600,6.65945654296875,-1.517578125,-0.12109375,0.10882568359375
1772642813195501300,6.669501220703125,-1.4435577392578125,-0.14013671875,0.1001434326171875
1772642813205546500,6.67954638671875,-1.3525543212890625,-0.1445770263671875,0.08331298828125
1772642813215590400,6.68959033203125,-1.2789154052734375,-0.1320037841796875,0.0690765380859375
1772642813225635600,6.699635498046875,-1.237884521484375,-0.1048583984375,0.0547637939453125
1772642813235680300,6.70968017578125,-1.2254791259765625,-0.0815582275390625,0.0537109375
1772642813245725200,6.71972509765625,-1.199951171875,-0.0772247314453125,0.0752716064453125
1772642813255770000,6.72977001953125,-1.1450347900390625,-0.0897369384765625,0.099578857421875
1772642813265814300,6.739814208984375,-1.0673980712890625,-0.102874755859375,0.1117706298828125
1772642813275859200,6.749859130859375,-0.982452392578125,-0.1005096435546875,0.0901641845703125
1772642813285904100,6.759904052734375,-0.91033935546875,-0.090850830078125,0.05633544921875
1772642813295949300,6.76994921875,-0.848907470703125,-0.074798583984375,0.050628662109375
1772642813305994200,6.779994140625,-0.782989501953125,-0.054931640625,0.0668792724609375
1772642813316039400,6.790039306640625,-0.6829376220703125,-0.041656494140625,0.080810546875
1772642813326083000,6.8000830078125,-0.5610504150390625,-0.03460693359375,0.075469970703125
1772642813336128300,6.810128173828125,-0.4266204833984375,-0.031158447265625,0.0690155029296875
1772642813346173200,6.820173095703125,-0.300445556640625,-0.0270538330078125,0.0731353759765625
1772642813356218000,6.830218017578125,-0.19757080078125,-0.0286865234375,0.0804595947265625
1772642813366263000,6.840262939453125,-0.11029052734375,-0.0285186767578125,0.077362060546875
1772642813376307200,6.85030712890625,-0.03302001953125,-0.022216796875,0.0643768310546875
1772642813386352400,6.860352294921875,0.018310546875,-0.0319671630859375,0.0468292236328125
1772642813396397000,6.87039697265625,0.073272705078125,-0.0463104248046875,0.0079498291015625
1772642813406442200,6.880442138671875,0.1236419677734375,-0.05755615234375,-0.0227508544921875
1772642813416487200,6.890487060546875,0.15228271484375,-0.064208984375,-0.0374755859375
1772642813426532400,6.900532470703125,0.1528778076171875,-0.066802978515625,-0.04119873046875
1772642813436576300,6.910576171875,0.118804931640625,-0.065582275390625,-0.0592803955078125
1772642813446621200,6.92062109375,0.078033447265625,-0.0565643310546875,-0.086578369140625
1772642813456666000,6.930666015625,0.0373687744140625,-0.03717041015625,-0.10650634765625
1772642813466711300,6.940711181640625,0.0060882568359375,-0.009765625,-0.1096343994140625
1772642813476756200,6.950756103515625,-0.0178680419921875,0.023193359375,-0.0973968505859375
1772642813486800100,6.960800048828125,-0.0421905517578125,0.05322265625,-0.0757598876953125
1772642813496845300,6.97084521484375,-0.0571746826171875,0.0803375244140625,-0.0598602294921875
1772642813506890200,6.98089013671875,-0.064910888671875,0.10205078125,-0.0516357421875
1772642813516935200,6.99093505859375,-0.071075439453125,0.1174774169921875,-0.068450927734375
1772642813526980000,7.00097998046875,-0.1106719970703125,0.1181793212890625,-0.0501556396484375
1772642813537025300,7.011025390625,-0.1898345947265625,0.072113037109375,0.0335693359375
1772642813547069200,7.021069091796875,-0.226226806640625,0.004119873046875,0.0591888427734375
1772642813557114000,7.031114013671875,-0.201568603515625,-0.0801849365234375,0.0109405517578125
1772642813567159300,7.0411591796875,-0.192169189453125,-0.186920166015625,-0.034759521484375
1772642813577204200,7.051204345703125,-0.2255706787109375,-0.246063232421875,-0.0723419189453125
1772642813587249200,7.061249267578125,-0.3677520751953125,-0.2840728759765625,-0.1057281494140625
1772642813597293000,7.07129296875,-0.586456298828125,-0.286041259765625,-0.2166748046875
1772642813607338200,7.081338134765625,-0.8502044677734375,-0.24346923828125,-0.3241729736328125
1772642813617383200,7.091383056640625,-1.06976318359375,-0.193450927734375,-0.3473968505859375
1772642813627428400,7.101428466796875,-1.17645263671875,-0.14862060546875,-0.3439178466796875
1772642813637473000,7.11147314453125,-1.229400634765625,-0.163970947265625,-0.3043365478515625
1772642813647518200,7.121518310546875,-1.270172119140625,-0.190643310546875,-0.27752685546875
1772642813657562400,7.131562255859375,-1.3239593505859375,-0.19677734375,-0.26300048828125
1772642813667607300,7.141607177734375,-1.387725830078125,-0.1858673095703125,-0.23736572265625
1772642813677652200,7.15165234375,-1.4671783447265625,-0.140869140625,-0.2237701416015625
1772642813687697200,7.161697265625,-1.610931396484375,-0.084197998046875,-0.19415283203125
1772642813697742300,7.171742431640625,-1.7894134521484375,0.0013580322265625,-0.13861083984375
1772642813707786200,7.1817861328125,-1.9125213623046875,0.07562255859375,-0.0434722900390625
1772642813717831200,7.1918310546875,-1.94598388671875,0.1362457275390625,0.0447845458984375
1772642813727876000,7.2018759765625,-2.008056640625,0.2131500244140625,0.01654052734375
1772642813737921300,7.21192138671875,-2.0108489990234375,0.2016754150390625,0.043609619140625
1772642813747966200,7.22196630859375,-1.9986114501953125,0.1845245361328125,0.0248870849609375
1772642813758011100,7.23201123046875,-1.939453125,0.199066162109375,-0.004150390625
1772642813768055300,7.24205517578125,-1.9339599609375,0.18341064453125,-0.0147552490234375
1772642813778100200,7.252100341796875,-1.9495697021484375,0.1756439208984375,-0.0232086181640625
1772642813788145400,7.2621455078125,-1.916015625,0.178619384765625,-0.0357818603515625
1772642813798190000,7.272190185546875,-1.8262481689453125,0.1688232421875,-0.0355682373046875
1772642813808235300,7.2822353515625,-1.6792144775390625,0.1649017333984375,-0.0146331787109375
1772642813818279200,7.292279052734375,-1.6164398193359375,0.166778564453125,0.0029144287109375
1772642813828324400,7.302324462890625,-1.5949554443359375,0.174560546875,0.0141143798828125
1772642813838369000,7.312369140625,-1.627349853515625,0.1758270263671875,-0.0024566650390625
1772642813848414200,7.322414306640625,-1.6212158203125,0.179168701171875,-0.0473785400390625
1772642813858459100,7.332459228515625,-1.572784423828125,0.182525634765625,-0.0704498291015625
1772642813868504300,7.34250439453125,-1.5045318603515625,0.17919921875,-0.066253662109375
1772642813878548200,7.35254833984375,-1.4212493896484375,0.171356201171875,-0.036773681640625
1772642813888593200,7.36259326171875,-1.3177337646484375,0.1593475341796875,-0.0010986328125
1772642813898638300,7.372638427734375,-1.22174072265625,0.1536712646484375,0.0304107666015625
1772642813908683300,7.382683349609375,-1.1190643310546875,0.1527099609375,0.052825927734375
1772642813918728200,7.392728271484375,-1.0477294921875,0.149688720703125,0.0711517333984375
1772642813928772000,7.402772216796875,-0.996612548828125,0.1438140869140625,0.0793304443359375
1772642813938817300,7.4128173828125,-0.9486236572265625,0.1343231201171875,0.0712432861328125
1772642813948862200,7.4228623046875,-0.9074249267578125,0.1229095458984375,0.0582275390625
1772642813958907100,7.4329072265625,-0.8770904541015625,0.111663818359375,0.0296478271484375
1772642813968952000,7.4429521484375,-0.8817596435546875,0.11273193359375,0.0105438232421875
1772642813978997200,7.452997314453125,-0.9203948974609375,0.11181640625,0.0080413818359375
1772642813989041400,7.46304150390625,-0.9542999267578125,0.1152496337890625,0.0070037841796875
1772642813999086000,7.473086181640625,-0.9630279541015625,0.1291656494140625,-0.005889892578125
1772642814009131300,7.48313134765625,-0.9679107666015625,0.130126953125,-0.029876708984375
1772642814019176200,7.49317626953125,-0.962799072265625,0.1305389404296875,-0.0455322265625
1772642814029221400,7.503221435546875,-0.9478759765625,0.1329193115234375,-0.0381622314453125
1772642814039265300,7.513265380859375,-0.91717529296875,0.1187744140625,-0.0230712890625
1772642814049310200,7.523310302734375,-0.8859710693359375,0.1046142578125,-0.019073486328125
1772642814059355100,7.533355224609375,-0.8807220458984375,0.1001434326171875,-0.02081298828125
1772642814069400300,7.543400390625,-0.8761749267578125,0.1061553955078125,-0.0152130126953125
1772642814079445200,7.5534453125,-0.8781585693359375,0.1076507568359375,0.0011444091796875
1772642814089490200,7.563490234375,-0.8713226318359375,0.112579345703125,0.021209716796875
1772642814099534300,7.573534423828125,-0.8745574951171875,0.0972747802734375,0.056640625
1772642814109579300,7.583579345703125,-0.87579345703125,0.080291748046875,0.0796661376953125
1772642814119624200,7.593624267578125,-0.8978424072265625,0.07000732421875,0.07421875
1772642814129669000,7.603669189453125,-0.921356201171875,0.071136474609375,0.0426025390625
1772642814139714300,7.61371435546875,-0.9413909912109375,0.0772857666015625,0.0137176513671875
1772642814149758200,7.62375830078125,-0.9682769775390625,0.0710906982421875,-0.0054931640625
1772642814159803100,7.63380322265625,-0.9583740234375,0.0650634765625,-0.023651123046875
1772642814169848300,7.643848388671875,-0.9165191650390625,0.0567169189453125,-0.0268096923828125
1772642814179893200,7.653893310546875,-0.879638671875,0.045318603515625,-0.010894775390625
1772642814189938400,7.6639384765625,-0.8560638427734375,0.0221405029296875,0.001312255859375
1772642814199983000,7.673983154296875,-0.8303680419921875,-0.005218505859375,0.0092010498046875
1772642814210027300,7.68402734375,-0.8038177490234375,-0.0407257080078125,0.0076141357421875
1772642814220072200,7.694072265625,-0.7943572998046875,-0.0688323974609375,-0.0113983154296875
1772642814230117400,7.704117431640625,-0.8056793212890625,-0.0714569091796875,-0.0333404541015625
1772642814240161800,7.714161865234375,-0.8121795654296875,-0.0825958251953125,-0.0363922119140625
1772642814250207000,7.72420703125,-0.8062286376953125,-0.086883544921875,-0.0400390625
1772642814260252000,7.734251953125,-0.7990264892578125,-0.0755767822265625,-0.0435638427734375
1772642814270295800,7.7442958984375,-0.816253662109375,-0.062713623046875,-0.0307464599609375
1772642814280341000,7.754341064453125,-0.853363037109375,-0.0454559326171875,-0.0156402587890625
1772642814290386000,7.764385986328125,-0.886322021484375,-0.034515380859375,-0.009368896484375
1772642814300431000,7.77443115234375,-0.9172515869140625,-0.0257568359375,-0.0129852294921875
1772642814310476000,7.78447607421875,-0.929840087890625,-0.00811767578125,-0.0232696533203125
