time,seconds_elapsed,z,y,x
1772642806580987100,0.054987060546875,0.337097704410553,-0.008196675218641758,-0.18850477039813995
1772642806591032300,0.0650322265625,0.3074628710746765,0.030543575063347816,-0.17556099593639374
1772642806601076200,0.075076171875,0.27340182662010193,0.05288403481245041,-0.16530835628509521
1772642806611121200,0.08512109375,0.24143196642398834,0.06571763008832932,-0.15688146650791168
1772642806621166300,0.095166259765625,0.2132549285888672,0.06963354349136353,-0.15031598508358002
1772642806631211300,0.105211181640625,0.1871500015258789,0.05306679382920265,-0.14014573395252228
1772642806641256200,0.115256103515625,0.1606462299823761,0.024688415229320526,-0.12513083219528198
1772642806651301000,0.125301025390625,0.12942111492156982,0.005989932455122471,-0.10392622649669647
1772642806661345300,0.13534521484375,0.1046992689371109,-0.00037795212119817734,-0.06604781746864319
1772642806671390200,0.14539013671875,0.08018089830875397,0.005997214000672102,-0.007099085487425327
1772642806681435100,0.15543505859375,0.06397848576307297,0.041051339358091354,0.06256973743438721
1772642806691480000,0.16547998046875,0.046184100210666656,0.09632191807031631,0.1468418687582016
1772642806701525200,0.175525146484375,0.02002733200788498,0.1314426213502884,0.2239806056022644
1772642806711570200,0.185570068359375,-0.01831750012934208,0.1366802603006363,0.2784920632839203
1772642806721614000,0.195614013671875,-0.0336700901389122,0.04790591076016426,0.2878006100654602
1772642806731659300,0.2056591796875,-0.023430662229657173,-0.0110234459862113,0.2967512011528015
1772642806741704200,0.2157041015625,-0.04742707684636116,0.17928019165992737,0.34974679350852966
1772642806751749400,0.225749267578125,-0.09746833890676498,0.3273828327655792,0.4025152325630188
1772642806761794000,0.2357939453125,-0.13993990421295166,0.3594158887863159,0.43471819162368774
1772642806771838200,0.245838134765625,-0.1492503583431244,0.36042076349258423,0.4658999443054199
1772642806781883100,0.255883056640625,-0.13015975058078766,0.33863770961761475,0.49899184703826904
1772642806791928300,0.26592822265625,-0.13781915605068207,0.21373885869979858,0.49297013878822327
1772642806801973000,0.275972900390625,-0.21710865199565887,-0.07917370647192001,0.4169083833694458
1772642806812018200,0.28601806640625,-0.37810149788856506,-0.44807207584381104,0.3063493072986603
1772642806822063000,0.29606298828125,-0.5718938708305359,-0.8385764956474304,0.19396868348121643
1772642806832107000,0.30610693359375,-0.6987008452415466,-1.1825168132781982,0.13765251636505127
1772642806842152200,0.316152099609375,-0.6671879291534424,-1.3264020681381226,0.18812261521816254
1772642806852197000,0.326197021484375,-0.4794510304927826,-1.10346519947052,0.31850558519363403
1772642806862242300,0.3362421875,-0.20187029242515564,-0.728952169418335,0.3829737901687622
1772642806872287200,0.346287353515625,0.045299213379621506,-0.13607120513916016,0.35367467999458313
1772642806882332200,0.356332275390625,0.1858358234167099,0.46094372868537903,0.1481178104877472
1772642806892376000,0.3663759765625,0.25272610783576965,0.8957211971282959,-0.10577580332756042
1772642806902421200,0.376421142578125,0.2631792724132538,1.1167728900909424,-0.2802211046218872
1772642806912466200,0.386466064453125,0.25269508361816406,1.0502101182937622,-0.2922464907169342
1772642806922511000,0.396510986328125,0.2931823432445526,0.704149067401886,-0.1318533718585968
1772642806932556000,0.40655615234375,0.3322945833206177,0.12172693759202957,0.1429758071899414
1772642806942600200,0.41660009765625,0.36700302362442017,-0.7763133645057678,0.3755382299423218
1772642806952645000,0.42664501953125,0.39828941226005554,-1.553071141242981,0.49592337012290955
1772642806962690000,0.43668994140625,0.3810345232486725,-1.788068413734436,0.4151070713996887
1772642806972735200,0.4467353515625,0.3973239064216614,-1.7102482318878174,0.13531361520290375
1772642806982780200,0.4567802734375,0.5550674796104431,-1.4413323402404785,-0.16599401831626892
1772642806992825300,0.466825439453125,0.6819605231285095,-0.9847772717475891,-0.4197505712509155
1772642807002869200,0.476869140625,0.7115365266799927,-0.48269444704055786,-0.6147192716598511
1772642807012914200,0.4869140625,0.761052668094635,-0.4679710268974304,-0.8410199284553528
1772642807022959400,0.49695947265625,0.8532025814056396,-0.664645254611969,-1.0291930437088013
1772642807033004300,0.50700439453125,0.97486412525177,-0.8350213170051575,-1.076341986656189
1772642807043049200,0.51704931640625,1.1195251941680908,-1.0626667737960815,-1.0148924589157104
1772642807053094100,0.52709423828125,1.1901066303253174,-1.1256059408187866,-0.7594455480575562
1772642807063138300,0.53713818359375,1.202791452407837,-1.0596423149108887,-0.4103621244430542
1772642807073183000,0.547182861328125,1.3228048086166382,-1.1301336288452148,-0.05824834108352661
1772642807083228200,0.557228271484375,1.448021650314331,-1.170680284500122,0.3210342526435852
1772642807093273000,0.567273193359375,1.5186448097229004,-1.1744801998138428,0.6698309183120728
1772642807103318300,0.577318359375,1.5147653818130493,-1.0709171295166016,0.9515779614448547
1772642807113362200,0.587362060546875,1.4462262392044067,-0.8603227138519287,1.1480027437210083
1772642807123407000,0.597406982421875,1.3270026445388794,-0.6469547748565674,1.2368662357330322
1772642807133452300,0.607452392578125,1.1884558200836182,-0.4952259361743927,1.2741920948028564
1772642807143497200,0.617497314453125,1.0177768468856812,-0.35592636466026306,1.2612090110778809
1772642807153542400,0.62754248046875,0.859034538269043,-0.18837226927280426,1.22688889503479
1772642807163587000,0.637587158203125,0.7394838929176331,-0.01134529896080494,1.1956864595413208
1772642807173631200,0.64763134765625,0.6414459347724915,0.1329493522644043,1.1677613258361816
1772642807183676200,0.65767626953125,0.5526664853096008,0.3276253640651703,1.1256572008132935
1772642807193721300,0.667721435546875,0.45197534561157227,0.4792107343673706,1.1002552509307861
1772642807203766000,0.67776611328125,0.3246789276599884,0.5966894030570984,1.0572824478149414
1772642807213811200,0.687811279296875,0.16777154803276062,0.7077345252037048,1.0005130767822266
1772642807223855400,0.69785546875,-0.003383697010576725,0.8169688582420349,0.9317997097969055
1772642807233900000,0.707900146484375,-0.18488828837871552,0.8819715976715088,0.8474804162979126
1772642807243945200,0.7179453125,-0.36492037773132324,0.8813657164573669,0.7488481402397156
1772642807253990000,0.727989990234375,-0.555854320526123,0.8747540712356567,0.6055564880371094
1772642807264035000,0.73803515625,-0.7314282655715942,0.953857421875,0.42035359144210815
1772642807274080000,0.748080078125,-0.8312621712684631,1.1375678777694702,0.17831836640834808
1772642807284124200,0.758124267578125,-0.84383225440979,1.48002290725708,-0.09797154366970062
1772642807294168800,0.7681689453125,-0.7707891464233398,1.8390878438949585,-0.3660062551498413
1772642807304214000,0.778214111328125,-0.6431928873062134,2.1086909770965576,-0.5937848091125488
1772642807314259000,0.788259033203125,-0.5295630693435669,2.283561944961548,-0.7365896701812744
1772642807324304100,0.79830419921875,-0.47293707728385925,2.3602793216705322,-0.7682961821556091
1772642807334349000,0.80834912109375,-0.4608715772628784,2.2628190517425537,-0.6505913138389587
1772642807344393000,0.81839306640625,-0.5136173367500305,1.9507614374160767,-0.4258301258087158
1772642807354438100,0.828438232421875,-0.6643610596656799,1.3701002597808838,-0.17066949605941772
1772642807364483000,0.838483154296875,-0.8611811995506287,0.5236526727676392,0.0564693883061409
1772642807374528300,0.8485283203125,-1.0593279600143433,-0.3810054063796997,0.21401242911815643
1772642807384573000,0.858572998046875,-1.222230315208435,-1.0572503805160522,0.35823220014572144
1772642807394617000,0.8686171875,-1.275015115737915,-1.2700374126434326,0.5241601467132568
1772642807404662000,0.878662109375,-1.1537877321243286,-1.042628288269043,0.5912539958953857
1772642807414707000,0.88870703125,-0.8808884620666504,-0.7187279462814331,0.3975027799606323
1772642807424751900,0.898751953125,-0.5880594849586487,-0.5160571336746216,-0.08730387687683105
1772642807434797000,0.908797119140625,-0.3535313010215759,-0.3661312758922577,-0.7757315635681152
1772642807444842000,0.918842041015625,-0.12074758857488632,-0.239174947142601,-1.4052150249481201
1772642807454886000,0.928885986328125,0.10724598914384842,-0.07502643018960953,-1.8294645547866821
1772642807464931000,0.93893115234375,0.30139443278312683,0.08703544735908508,-2.004073143005371
1772642807474976000,0.94897607421875,0.4198407828807831,0.10589400678873062,-1.9844762086868286
1772642807485021200,0.959021240234375,0.41788390278816223,0.02385692670941353,-1.8544549942016602
1772642807495066000,0.969066162109375,0.30889254808425903,-0.07679006457328796,-1.6622834205627441
1772642807505110000,0.979110107421875,0.15556102991104126,-0.1618381142616272,-1.4293489456176758
1772642807515155200,0.9891552734375,0.033577315509319305,-0.23585325479507446,-1.1810927391052246
1772642807525200100,0.9992001953125,-0.03539349511265755,-0.36189132928848267,-0.9381749033927917
1772642807535245000,1.0092451171875,-0.01832476817071438,-0.5252209305763245,-0.7209749817848206
1772642807545290000,1.0192900390625,0.055996332317590714,-0.5934409499168396,-0.5718702077865601
1772642807555335200,1.029335205078125,0.14324606955051422,-0.4828612506389618,-0.533731997013092
1772642807565379000,1.039379150390625,0.21951207518577576,-0.10158633440732956,-0.5916259288787842
1772642807575424000,1.049424072265625,0.26610592007637024,0.5304129123687744,-0.7239758968353271
1772642807585469000,1.059468994140625,0.3044341206550598,1.3105741739273071,-0.8487894535064697
1772642807595514000,1.06951416015625,0.36278295516967773,1.9031895399093628,-0.9120200872421265
1772642807605559000,1.07955908203125,0.45871132612228394,2.0654265880584717,-0.8985759615898132
1772642807615604200,1.089604248046875,0.5321493744850159,1.7680586576461792,-0.8523032665252686
1772642807625648000,1.099648193359375,0.5600952506065369,1.1618129014968872,-0.7670954465866089
1772642807635693000,1.109693115234375,0.5745713114738464,0.48708459734916687,-0.6764845252037048
1772642807645738200,1.11973828125,0.6068128943443298,0.031136246398091316,-0.6313413381576538
1772642807655783000,1.129782958984375,0.6648027300834656,-0.017347173765301704,-0.609158992767334
1772642807665828000,1.139828125,0.6860952377319336,0.15766911208629608,-0.6051602363586426
1772642807675872000,1.1498720703125,0.7025592923164368,0.3936719596385956,-0.6632959246635437
1772642807685917200,1.159917236328125,0.7429599761962891,0.5912047028541565,-0.7348856925964355
1772642807695961900,1.1699619140625,0.7550675868988037,0.7183610200881958,-0.7584025859832764
1772642807706007000,1.180007080078125,0.7595292329788208,0.7233418822288513,-0.6755476593971252
1772642807716052000,1.190052001953125,0.7591549158096313,0.6189436912536621,-0.4664801061153412
1772642807726096100,1.20009619140625,0.7495973706245422,0.4490009844303131,-0.13481880724430084
1772642807736141000,1.21014111328125,0.7048875689506531,0.27078187465667725,0.25739794969558716
1772642807746186000,1.22018603515625,0.6420177817344666,0.10019015520811081,0.6734551191329956
1772642807756231200,1.230231201171875,0.5892313122749329,-0.03994862362742424,1.0708913803100586
1772642807766276000,1.240276123046875,0.5541254878044128,-0.11600849777460098,1.4235482215881348
1772642807776321000,1.250321044921875,0.5285189151763916,-0.22947539389133453,1.7168318033218384
1772642807786365000,1.260364990234375,0.5164793133735657,-0.5678640604019165,1.918508768081665
1772642807796410000,1.27041015625,0.45771780610084534,-0.9691746234893799,1.9986268281936646
1772642807806455000,1.280455078125,0.32688602805137634,-1.2757906913757324,1.9485058784484863
1772642807816500000,1.2905,0.12118669599294662,-1.4448713064193726,1.8573788404464722
1772642807826545000,1.300544921875,-0.024582495912909508,-1.3704460859298706,1.5766494274139404
1772642807836590000,1.310590087890625,-0.16265012323856354,-1.1562047004699707,1.2553346157073975
1772642807846634200,1.32063427734375,-0.30378594994544983,-0.9109134078025818,0.8113800287246704
1772642807856679000,1.330678955078125,-0.35655370354652405,-0.8095673322677612,0.2781469225883484
1772642807866724000,1.34072412109375,-0.3657405376434326,-0.5324859023094177,-0.16704334318637848
1772642807876769000,1.35076904296875,-0.304330050945282,-0.03960231691598892,-0.43498724699020386
1772642807886814200,1.360814208984375,-0.21861301362514496,0.4888937473297119,-0.5687519907951355
1772642807896857900,1.37085791015625,-0.17070209980010986,0.9186385869979858,-0.639237105846405
1772642807906903000,1.380903076171875,-0.14823593199253082,1.2019366025924683,-0.628475546836853
1772642807916948000,1.390947998046875,-0.13127733767032623,1.2646516561508179,-0.5687569975852966
1772642807926993200,1.4009931640625,-0.10856402665376663,1.203760027885437,-0.46960824728012085
1772642807937037800,1.411037841796875,-0.09187688678503036,1.1188794374465942,-0.3484572172164917
1772642807947083000,1.4210830078125,-0.08747867494821548,1.0069622993469238,-0.21017736196517944
1772642807957127200,1.431127197265625,-0.07728578895330429,0.7929924726486206,-0.03633522242307663
1772642807967172000,1.441172119140625,-0.04779927060008049,0.5216035842895508,0.18781240284442902
1772642807977217000,1.451217041015625,-0.030326008796691895,0.27708497643470764,0.43077394366264343
1772642807987262000,1.461261962890625,-0.0473148450255394,0.0007367455400526524,0.6404978632926941
1772642807997307100,1.47130712890625,-0.13666968047618866,-0.47152867913246155,0.7144351601600647
1772642808007351000,1.48135107421875,-0.32714560627937317,-1.1031067371368408,0.5886314511299133
1772642808017396000,1.49139599609375,-0.6086445450782776,-1.6438753604888916,0.2875722348690033
1772642808027441200,1.501441162109375,-0.928321897983551,-1.7545816898345947,-0.10348844528198242
1772642808037486000,1.511486083984375,-1.1242477893829346,-1.3216379880905151,-0.4700917601585388
1772642808047531000,1.521531005859375,-1.1193939447402954,-0.6754264831542969,-0.7500632405281067
1772642808057576000,1.531575927734375,-0.9413166642189026,-0.36825820803642273,-0.9362577795982361
1772642808067620000,1.5416201171875,-0.7312390804290771,-0.35826706886291504,-1.1217882633209229
1772642808077665000,1.5516650390625,-0.6229534149169922,-0.42790064215660095,-1.3149724006652832
1772642808087710200,1.561710205078125,-0.5666941404342651,-0.33600613474845886,-1.5270494222640991
1772642808097755000,1.5717548828125,-0.5247171521186829,-0.520507276058197,-1.6060707569122314
1772642808107800000,1.581800048828125,-0.5205500721931458,-0.8916773796081543,-1.564208984375
1772642808117844200,1.59184423828125,-0.5337796211242676,-1.174438714981079,-1.4787544012069702
1772642808127889200,1.60188916015625,-0.4821130037307739,-1.2417128086090088,-1.378054141998291
1772642808137934000,1.61193408203125,-0.3580095171928406,-1.028946042060852,-1.3142000436782837
1772642808147979000,1.62197900390625,-0.24646037817001343,-0.6705743074417114,-1.2962011098861694
1772642808158024200,1.632024169921875,-0.20039403438568115,-0.31531015038490295,-1.2693699598312378
1772642808168069000,1.642069091796875,-0.15811476111412048,-0.11319569498300552,-1.1114780902862549
1772642808178113000,1.652113037109375,-0.08285827934741974,-0.11627840250730515,-0.7645089626312256
1772642808188158000,1.662157958984375,0.006791176274418831,-0.2208215892314911,-0.25791552662849426
1772642808198203100,1.672203125,0.12871156632900238,-0.4397687017917633,0.31832754611968994
1772642808208248000,1.682248046875,0.22518803179264069,-0.6726559996604919,0.8252517580986023
1772642808218293000,1.69229296875,0.2942473888397217,-0.8137493133544922,1.1863988637924194
1772642808228338000,1.702337890625,0.3595065474510193,-0.8546560406684875,1.3938847780227661
1772642808238382300,1.71238232421875,0.45425689220428467,-0.6824983358383179,1.4385995864868164
1772642808248427300,1.72242724609375,0.5593864917755127,-0.19418643414974213,1.3191068172454834
1772642808258472400,1.732472412109375,0.6660361289978027,0.4522818326950073,1.0626420974731445
1772642808268517400,1.742517333984375,0.7226919531822205,1.092258095741272,0.7123842239379883
1772642808278562300,1.752562255859375,0.7255610823631287,1.540793776512146,0.3656214773654938
1772642808288606500,1.7626064453125,0.6652324795722961,1.432454228401184,0.0748588889837265
1772642808298651400,1.7726513671875,0.5572121739387512,0.7055294513702393,-0.21903541684150696
1772642808308696300,1.7826962890625,0.42805367708206177,-0.039218489080667496,-0.5174394249916077
1772642808318741200,1.7927412109375,0.36989128589630127,-0.318233847618103,-0.7560005187988281
1772642808328786400,1.802786376953125,0.3794637620449066,-0.24689841270446777,-0.9043375253677368
1772642808338830300,1.812830322265625,0.3780602216720581,-0.08438661694526672,-0.8907610774040222
1772642808348875300,1.822875244140625,0.40827110409736633,-0.005677422508597374,-0.668057382106781
1772642808358920400,1.83292041015625,0.44104862213134766,-0.02627427689731121,-0.3895023763179779
1772642808368965400,1.84296533203125,0.37341657280921936,0.016674254089593887,-0.1991603821516037
1772642808379010600,1.853010498046875,0.1942288726568222,0.08965527266263962,-0.24703200161457062
1772642808389055200,1.86305517578125,-0.03989572823047638,0.24041014909744263,-0.5334754586219788
1772642808399099400,1.873099365234375,-0.2298755794763565,0.49320873618125916,-0.9438130855560303
1772642808409144300,1.883144287109375,-0.25603580474853516,0.850853443145752,-1.3079148530960083
1772642808419189500,1.893189453125,-0.11764451116323471,1.1520715951919556,-1.5133445262908936
1772642808429234200,1.903234130859375,0.08848442137241364,1.3609857559204102,-1.4907188415527344
1772642808439279400,1.913279296875,0.2891639769077301,1.3445748090744019,-1.2704594135284424
1772642808449324300,1.92332421875,0.45169803500175476,1.0811700820922852,-0.9019672870635986
1772642808459368200,1.9333681640625,0.5510402321815491,0.5555015206336975,-0.4961010813713074
1772642808469413400,1.943413330078125,0.5349203944206238,-0.03204558044672012,-0.1611337512731552
1772642808479458300,1.953458251953125,0.36090052127838135,-0.4371534287929535,0.06176549568772316
1772642808489503500,1.96350341796875,0.09320036321878433,-0.607127845287323,0.1557745486497879
1772642808499548400,1.97354833984375,-0.14008302986621857,-0.5869625210762024,0.1655730903148651
1772642808509592300,1.98359228515625,-0.23001211881637573,-0.46918076276779175,0.14907987415790558
1772642808519637200,1.99363720703125,-0.1644684374332428,-0.2296755164861679,0.1503741294145584
1772642808529682400,2.003682373046875,0.006573619320988655,0.016232525929808617,0.1655874401330948
1772642808539727400,2.013727294921875,0.19888977706432343,0.17270520329475403,0.19299598038196564
1772642808549772300,2.023772216796875,0.32511693239212036,0.22178912162780762,0.25699254870414734
1772642808559817200,2.033817138671875,0.41965025663375854,0.24374039471149445,0.3855532705783844
1772642808569861400,2.043861328125,0.4760088622570038,0.22106172144412994,0.5590798258781433
1772642808579906300,2.05390625,0.45332595705986023,0.233323872089386,0.779685914516449
1772642808589951200,2.063951171875,0.36385679244995117,0.24277836084365845,1.0050513744354248
1772642808599996400,2.073996337890625,0.25524768233299255,0.2844396233558655,1.170320749282837
1772642808610041300,2.084041259765625,0.15403662621974945,0.33766502141952515,1.2348805665969849
1772642808620085200,2.094085205078125,0.10029999166727066,0.5020049810409546,1.2287912368774414
1772642808630130200,2.104130126953125,0.12160129100084305,0.6962181329727173,1.2049351930618286
1772642808640175400,2.11417529296875,0.15523739159107208,0.7312389016151428,1.09907865524292
1772642808650220300,2.12422021484375,0.05490652471780777,0.5095480680465698,0.7448921203613281
1772642808660265500,2.134265380859375,-0.07710260152816772,0.21026809513568878,0.23997582495212555
1772642808670309400,2.144309326171875,-0.18534278869628906,0.004357804078608751,-0.25987446308135986
1772642808680354300,2.154354248046875,-0.3043607175350189,0.07006460428237915,-0.6385751366615295
1772642808690399500,2.1643994140625,-0.42227083444595337,0.22739297151565552,-0.8264273405075073
1772642808700444400,2.1744443359375,-0.5460143685340881,0.35609591007232666,-0.845346212387085
1772642808710489300,2.1844892578125,-0.6963529586791992,0.41694915294647217,-0.7037901282310486
1772642808720534300,2.1945341796875,-0.7042674422264099,0.4549136459827423,-0.43248510360717773
1772642808730578400,2.204578369140625,-0.5766048431396484,0.48353222012519836,-0.1280364990234375
1772642808740623400,2.214623291015625,-0.43862390518188477,0.43548786640167236,0.07802939414978027
1772642808750668300,2.224668212890625,-0.3401535451412201,0.38323238492012024,0.149871364235878
1772642808760713200,2.234713134765625,-0.25528842210769653,0.3645841181278229,0.12383885681629181
1772642808770758400,2.24475830078125,-0.16524428129196167,0.4308920204639435,0.05066024884581566
1772642808780803300,2.25480322265625,-0.07398886233568192,0.5641973614692688,-0.02168365940451622
1772642808790847200,2.26484716796875,0.018718700855970383,0.6787481904029846,-0.07212259620428085
1772642808800892400,2.274892333984375,0.09319988638162613,0.6844457983970642,-0.12453048676252365
1772642808810937300,2.284937255859375,0.12492931634187698,0.6095832586288452,-0.22613754868507385
1772642808820982500,2.294982421875,0.13057157397270203,0.5137509107589722,-0.30378490686416626
1772642808831027200,2.305027099609375,0.16650508344173431,0.3665097951889038,-0.26818910241127014
1772642808841071400,2.3150712890625,0.18292807042598724,0.1139698401093483,-0.143971249461174
1772642808851116500,2.325116455078125,0.11269838362932205,-0.11817524582147598,-0.00037946365773677826
1772642808861161200,2.3351611328125,-0.02500513568520546,-0.1727699637413025,0.11748026311397552
1772642808871206400,2.345206298828125,-0.14335574209690094,-0.11769338697195053,0.21244166791439056
1772642808881251300,2.355251220703125,-0.17436574399471283,0.02377142757177353,0.31391146779060364
1772642808891296500,2.365296630859375,-0.11349599063396454,0.11040645837783813,0.4250582158565521
1772642808901340200,2.375340087890625,-0.006699973251670599,0.2105684131383896,0.5346705317497253
1772642808911385300,2.38538525390625,0.08069752156734467,0.37897127866744995,0.6253122687339783
1772642808921430300,2.39543017578125,0.10200101882219315,0.41670936346054077,0.622104823589325
1772642808931475500,2.405475341796875,0.09037338942289352,0.27047064900398254,0.4864404797554016
1772642808941520400,2.415520263671875,0.05103461444377899,0.10459981113672256,0.2684902250766754
1772642808951564300,2.425564208984375,0.02754899673163891,-0.011612282134592533,0.03766580671072006
1772642808961609500,2.435609375,0.03683771565556526,-0.025950023904442787,-0.18811528384685516
1772642808971654400,2.445654296875,0.06852534413337708,0.021559705957770348,-0.4291233420372009
1772642808981699300,2.45569921875,0.08489356935024261,0.036809977144002914,-0.630396842956543
1772642808991744300,2.465744140625,0.13534529507160187,0.049884501844644547,-0.669402003288269
1772642809001789400,2.47578955078125,0.23034612834453583,0.03332126513123512,-0.5499763488769531
1772642809011833300,2.485833251953125,0.30618950724601746,-0.007138809189200401,-0.3609534502029419
1772642809021878300,2.495878173828125,0.296039342880249,-0.05083469673991203,-0.19016291201114655
1772642809031923200,2.505923095703125,0.26195141673088074,-0.0881543681025505,-0.06504492461681366
1772642809041968400,2.515968505859375,0.2626553475856781,-0.11375384032726288,0.014682682231068611
1772642809052013300,2.526013427734375,0.2757897973060608,-0.07227937132120132,0.062065646052360535
1772642809062057200,2.53605712890625,0.31813371181488037,0.03882574662566185,0.09816506505012512
1772642809072102400,2.546102294921875,0.42649826407432556,0.1916576325893402,0.1459919810295105
1772642809082147300,2.556147216796875,0.579435408115387,0.33639422059059143,0.20632484555244446
1772642809092192500,2.566192626953125,0.6980374455451965,0.4559856057167053,0.26703986525535583
1772642809102237200,2.5762373046875,0.7539418935775757,0.5168406367301941,0.3270432651042938
1772642809112282400,2.586282470703125,0.7479335069656372,0.5088583827018738,0.37909555435180664
1772642809122326300,2.596326171875,0.6724088191986084,0.4600113034248352,0.40742939710617065
1772642809132371500,2.606371337890625,0.5695319771766663,0.38755443692207336,0.40558356046676636
1772642809142416100,2.616416015625,0.4487497806549072,0.3100801408290863,0.3597697615623474
1772642809152461300,2.62646142578125,0.314871609210968,0.25485044717788696,0.27541226148605347
1772642809162506200,2.63650634765625,0.19760005176067352,0.20471657812595367,0.15730522572994232
1772642809172550400,2.64655029296875,0.09802286326885223,0.1417120397090912,0.01179223507642746
1772642809182595300,2.65659521484375,0.04921954125165939,0.14366543292999268,-0.1301119029521942
1772642809192640300,2.66664013671875,0.04559311270713806,0.20950649678707123,-0.23893611133098602
1772642809202685400,2.676685546875,0.05644812062382698,0.30085957050323486,-0.3013114929199219
1772642809212730400,2.68673046875,0.07877153903245926,0.32607147097587585,-0.2937183082103729
1772642809222775600,2.696775634765625,0.1102457195520401,0.24204972386360168,-0.20668528974056244
1772642809232819500,2.7068193359375,0.1467004120349884,0.11462412029504776,-0.062466852366924286
1772642809242864600,2.71686474609375,0.16464504599571228,-0.003312099492177367,0.07721914350986481
1772642809252909600,2.72690966796875,0.16232970356941223,-0.04391039162874222,0.1714915782213211
1772642809262954500,2.73695458984375,0.17813777923583984,-0.04245658591389656,0.22259147465229034
1772642809272999400,2.74699951171875,0.23978330194950104,-0.05151692405343056,0.23119693994522095
1772642809283044600,2.757044677734375,0.33021876215934753,-0.0655113011598587,0.25974681973457336
1772642809293088500,2.767088623046875,0.44311654567718506,-0.035364583134651184,0.34665536880493164
1772642809303133400,2.777133544921875,0.4834803342819214,-0.023070884868502617,0.434726744890213
1772642809313178600,2.7871787109375,0.4585781991481781,-0.12131143361330032,0.44238919019699097
1772642809323223600,2.7972236328125,0.3516891598701477,-0.36065673828125,0.2918061912059784
1772642809333268700,2.807268798828125,0.17339959740638733,-0.6063439846038818,-0.022026846185326576
1772642809343312400,2.8173125,-0.04252813011407852,-0.7188045978546143,-0.46422865986824036
1772642809353357600,2.827357666015625,-0.2294684648513794,-0.5689637064933777,-0.8664674162864685
1772642809363402500,2.837402587890625,-0.2787741422653198,-0.24486269056797028,-1.0198097229003906
1772642809373447700,2.84744775390625,-0.21591824293136597,0.0357106477022171,-0.9123015999794006
1772642809383492400,2.857492431640625,-0.17080381512641907,0.10382192581892014,-0.7143101096153259
1772642809393536500,2.86753662109375,-0.22129574418067932,0.04339905455708504,-0.5666915774345398
1772642809403581700,2.877581787109375,-0.33239853382110596,-0.10186761617660522,-0.531366229057312
1772642809413626600,2.887626708984375,-0.45163998007774353,-0.29037386178970337,-0.5977484583854675
1772642809423671600,2.897671630859375,-0.46641668677330017,-0.3833615481853485,-0.616385817527771
1772642809433716500,2.907716552734375,-0.40312373638153076,-0.25177234411239624,-0.5520225167274475
1772642809443761700,2.91776171875,-0.3333051800727844,-0.014641505666077137,-0.4355948865413666
1772642809453805600,2.9278056640625,-0.29404938220977783,0.04973641782999039,-0.36961692571640015
1772642809463850500,2.9378505859375,-0.2911836504936218,-0.014644220471382141,-0.4387054443359375
1772642809473895400,2.9478955078125,-0.3198789358139038,-0.033022694289684296,-0.6156397461891174
1772642809483940600,2.957940673828125,-0.3909415304660797,-0.006831181235611439,-0.7817665338516235
1772642809493985500,2.967985595703125,-0.45442914962768555,0.026007458567619324,-0.8199685215950012
1772642809504030500,2.978030517578125,-0.4891217350959778,0.035126980394124985,-0.6776755452156067
1772642809514074600,2.98807470703125,-0.45364442467689514,0.06946232169866562,-0.35814496874809265
1772642809524119600,2.99811962890625,-0.39036011695861816,0.1529768407344818,0.013693161308765411
1772642809534164700,3.008164794921875,-0.3497021794319153,0.23279604315757751,0.35456153750419617
1772642809544209400,3.01820947265625,-0.3038763999938965,0.21405160427093506,0.6208361387252808
1772642809554254600,3.028254638671875,-0.24852125346660614,0.11052493751049042,0.8022213578224182
1772642809564298800,3.038298828125,-0.19309744238853455,-0.023123160004615784,0.9071337580680847
1772642809574343400,3.048343505859375,-0.197360098361969,-0.14378991723060608,0.9346652626991272
1772642809584388600,3.058388671875,-0.2706029713153839,-0.24082225561141968,0.8751614689826965
1772642809594433500,3.06843359375,-0.36412227153778076,-0.3434695303440094,0.7485220432281494
1772642809604478700,3.078478759765625,-0.4265504479408264,-0.424117773771286,0.5526049137115479
1772642809614522400,3.0885224609375,-0.4349932074546814,-0.43696433305740356,0.3142562806606293
1772642809624567600,3.098567626953125,-0.4337615370750427,-0.3642418086528778,0.06943627446889877
1772642809634612500,3.108612548828125,-0.43109065294265747,-0.2855081260204315,-0.10285426676273346
1772642809644657700,3.11865771484375,-0.43381860852241516,-0.31334826350212097,-0.18807627260684967
1772642809654702600,3.12870263671875,-0.4175589382648468,-0.4428490102291107,-0.19376665353775024
1772642809664747500,3.13874755859375,-0.3585840165615082,-0.6374759674072266,-0.1403871476650238
1772642809674791700,3.148791748046875,-0.28106793761253357,-0.867427408695221,-0.05879721790552139
1772642809684836600,3.158836669921875,-0.21302273869514465,-1.0772331953048706,0.036908283829689026
1772642809694881500,3.168881591796875,-0.12887297570705414,-1.2270094156265259,0.09810346364974976
1772642809704926500,3.178926513671875,0.0011747046373784542,-1.196089506149292,0.08915305882692337
1772642809714971600,3.1889716796875,0.08214252442121506,-0.9667400121688843,-0.026610029861330986
1772642809725016600,3.1990166015625,0.007487407419830561,-0.6890667080879211,-0.21696783602237701
1772642809735060500,3.209060546875,-0.07293952256441116,-0.5123150944709778,-0.3663477301597595
1772642809745105400,3.21910546875,-0.09252268821001053,-0.39204373955726624,-0.3993750214576721
1772642809755150600,3.229150634765625,-0.08218216150999069,-0.2483142614364624,-0.28726285696029663
1772642809765195500,3.239195556640625,-0.005472398363053799,-0.1682479828596115,-0.01280275546014309
1772642809775240700,3.24924072265625,0.07445172220468521,-0.19418956339359283,0.3141018748283386
1772642809785284600,3.25928466796875,0.13626374304294586,-0.1842820942401886,0.6218457221984863
1772642809795329500,3.26932958984375,0.21152040362358093,-0.14580261707305908,0.8372853398323059
1772642809805374700,3.279374755859375,0.2610813081264496,-0.11450063437223434,0.9289388656616211
1772642809815419400,3.28941943359375,0.2196377068758011,-0.0946345180273056,0.8762093186378479
1772642809825464600,3.299464599609375,0.1804581880569458,-0.05798354744911194,0.7650965452194214
1772642809835509500,3.309509521484375,0.17355340719223022,-0.007060447707772255,0.6479185223579407
1772642809845553700,3.3195537109375,0.21162930130958557,0.04338831454515457,0.5601662397384644
1772642809855598300,3.329598388671875,0.2520640790462494,0.1125977486371994,0.4894099831581116
1772642809865643500,3.3396435546875,0.25274378061294556,0.2118898183107376,0.44259005784988403
1772642809875688400,3.3496884765625,0.22120025753974915,0.261228084564209,0.396977037191391
1772642809885733600,3.359733642578125,0.17073477804660797,0.2646223306655884,0.34872984886169434
1772642809895777500,3.369777587890625,0.11385924369096756,0.25122371315956116,0.287932813167572
1772642809905822500,3.379822509765625,0.0572163462638855,0.23300358653068542,0.2258053570985794
1772642809915867600,3.38986767578125,0.00270090508274734,0.20276711881160736,0.17418450117111206
1772642809925912600,3.39991259765625,-0.04530327394604683,0.16512279212474823,0.14404518902301788
1772642809935957800,3.409957763671875,-0.06672893464565277,0.1419471651315689,0.1654365062713623
1772642809946002400,3.42000244140625,-0.06387201696634293,0.14365871250629425,0.22041037678718567
1772642809956046600,3.430046630859375,-0.02826501987874508,0.18597261607646942,0.2807655930519104
1772642809966091500,3.440091552734375,0.042835962027311325,0.2110576033592224,0.33388739824295044
1772642809976136400,3.450136474609375,0.10662106424570084,0.17142443358898163,0.3659936785697937
1772642809986181400,3.460181396484375,0.16230574250221252,0.09824444353580475,0.37348881363868713
1772642809996226600,3.4702265625,0.21125277876853943,0.06971266120672226,0.3614763617515564
1772642810006270700,3.480270751953125,0.23739571869373322,0.06405999511480331,0.2911475598812103
1772642810016315400,3.4903154296875,0.2535448670387268,0.06389088928699493,0.11746019870042801
1772642810026360600,3.500360595703125,0.26247507333755493,0.046935923397541046,-0.18464747071266174
1772642810036405500,3.510405517578125,0.23506049811840057,0.030732717365026474,-0.5877658724784851
1772642810046450700,3.52045068359375,0.1763325035572052,0.06794419139623642,-1.025490164756775
1772642810056495600,3.53049560546875,0.11446993798017502,0.1261638104915619,-1.385027289390564
1772642810066539500,3.54053955078125,0.0446089543402195,0.16538475453853607,-1.5558648109436035
1772642810076584700,3.550584716796875,-0.036766860634088516,0.12531083822250366,-1.5182442665100098
1772642810086629600,3.560629638671875,-0.1254633218050003,-0.03136498108506203,-1.3617913722991943
1772642810096674600,3.570674560546875,-0.23438288271427155,-0.238052099943161,-1.234728217124939
1772642810106719500,3.580719482421875,-0.3394380211830139,-0.4187186360359192,-1.204055905342102
1772642810116763600,3.590763671875,-0.4227137565612793,-0.5700426697731018,-1.2675633430480957
1772642810126808600,3.60080859375,-0.43557074666023254,-0.6004298329353333,-1.4040595293045044
1772642810136853500,3.610853515625,-0.37041038274765015,-0.38655802607536316,-1.5786957740783691
1772642810146898400,3.6208984375,-0.22199931740760803,0.021733421832323074,-1.7234101295471191
1772642810156943600,3.630943603515625,-0.03376495838165283,0.4058012068271637,-1.771170735359192
1772642810166988500,3.640988525390625,0.15059013664722443,0.5954068899154663,-1.6680104732513428
1772642810177032400,3.651032470703125,0.2800985872745514,0.5316119194030762,-1.398575782775879
1772642810187077600,3.66107763671875,0.2918030023574829,0.2102556824684143,-1.04799485206604
1772642810197122600,3.67112255859375,0.1701335310935974,-0.22778663039207458,-0.7185280323028564
1772642810207167700,3.681167724609375,0.020617827773094177,-0.6197946667671204,-0.48078790307044983
1772642810217212400,3.69121240234375,-0.08420445770025253,-0.8239525556564331,-0.37255144119262695
1772642810227257600,3.701257568359375,-0.11948981881141663,-0.7229697704315186,-0.37711748480796814
1772642810237301500,3.711301513671875,-0.08583758026361465,-0.4101351499557495,-0.4192521572113037
1772642810247346700,3.7213466796875,0.0116036431863904,-0.05670166015625,-0.4196361303329468
1772642810257391600,3.7313916015625,0.1316983550786972,0.22112995386123657,-0.32579219341278076
1772642810267436800,3.741436767578125,0.21089012920856476,0.38189896941185,-0.11480893194675446
1772642810277481700,3.751481689453125,0.22459982335567474,0.3835573196411133,0.19126178324222565
1772642810287525600,3.761525634765625,0.17138497531414032,0.2592897117137909,0.5312223434448242
1772642810297570800,3.77157080078125,0.08974310755729675,0.1026255190372467,0.8359928727149963
1772642810307615700,3.78161572265625,0.016721079126000404,-0.060110557824373245,1.037376880645752
1772642810317660700,3.79166064453125,-0.03349202498793602,-0.22228267788887024,1.1315559148788452
1772642810327705600,3.80170556640625,-0.06578276306390762,-0.2744520306587219,1.110119342803955
1772642810337750800,3.811750732421875,-0.06004977226257324,-0.17974603176116943,0.9711805582046509
1772642810347794700,3.821794677734375,-0.01839272305369377,-0.0399366058409214,0.743778645992279
1772642810357839600,3.831839599609375,0.055234093219041824,0.0566442608833313,0.4898824691772461
1772642810367884500,3.841884521484375,0.13512520492076874,0.07668981701135635,0.2817092537879944
1772642810377929700,3.8519296875,0.19399437308311462,0.030259994789958,0.12941692769527435
1772642810387974700,3.861974609375,0.2280525118112564,-0.04989797621965408,-0.00492153549566865
1772642810398018600,3.8720185546875,0.24243012070655823,-0.16657771170139313,-0.16633227467536926
1772642810408063700,3.882063720703125,0.240605890750885,-0.3258898854255676,-0.30291152000427246
1772642810418108700,3.892108642578125,0.20952466130256653,-0.45582711696624756,-0.3211810886859894
1772642810428153900,3.90215380859375,0.16344226896762848,-0.5752905011177063,-0.236881285905838
1772642810438198500,3.912198486328125,0.13064756989479065,-0.6088623404502869,-0.06580168008804321
1772642810448243700,3.92224365234375,0.11993169784545898,-0.5903633236885071,0.12422186881303787
1772642810458287600,3.93228759765625,0.12793156504631042,-0.6086549758911133,0.2813859283924103
1772642810468332800,3.942332763671875,0.17388099431991577,-0.6756890416145325,0.3715055584907532
1772642810478377500,3.95237744140625,0.24730248749256134,-0.6660265326499939,0.4174799621105194
1772642810488422700,3.962422607421875,0.3208836615085602,-0.513513445854187,0.42287418246269226
1772642810498467600,3.972467529296875,0.38519716262817383,-0.23346105217933655,0.4132292866706848
1772642810508511700,3.98251171875,0.44944706559181213,0.04099815711379051,0.3998376727104187
1772642810518556700,3.992556640625,0.5256930589675903,0.23751628398895264,0.4043695628643036
1772642810528601600,4.0026015625,0.5710952877998352,0.36881330609321594,0.4221760332584381
1772642810538646800,4.012646728515625,0.5938698053359985,0.41453951597213745,0.46499595046043396
1772642810548691700,4.022691650390625,0.5997063517570496,0.3974294364452362,0.5513122081756592
1772642810558736600,4.032736572265625,0.5649515986442566,0.3547019362449646,0.6662401556968689
1772642810568780500,4.042780517578125,0.5005640983581543,0.29723426699638367,0.7921158075332642
1772642810578825700,4.05282568359375,0.40419307351112366,0.22879555821418762,0.9024638533592224
1772642810588870700,4.06287060546875,0.30075621604919434,0.1636035144329071,0.961651623249054
1772642810598915600,4.07291552734375,0.1853470802307129,0.13510183990001678,0.9482505917549133
1772642810608960500,4.08296044921875,0.06379187852144241,0.16705024242401123,0.8848209977149963
1772642810619005700,4.093005615234375,-0.022263644263148308,0.23638911545276642,0.8184853792190552
1772642810629049900,4.1030498046875,-0.05632684752345085,0.3171740472316742,0.7776156067848206
1772642810639094500,4.113094482421875,-0.053712423890829086,0.4129652976989746,0.7682708501815796
1772642810649139700,4.1231396484375,-0.06490247696638107,0.4873732924461365,0.77117520570755
1772642810659184600,4.1331845703125,-0.09267605096101761,0.5086758732795715,0.7634562849998474
1772642810669229800,4.143229736328125,-0.13348397612571716,0.5041237473487854,0.714626133441925
1772642810679273700,4.153273681640625,-0.18305712938308716,0.49706289172172546,0.6022042632102966
1772642810689318700,4.163318603515625,-0.19182197749614716,0.5513118505477905,0.4660419523715973
1772642810699363600,4.173363525390625,-0.12796948850154877,0.6728691458702087,0.34762582182884216
1772642810709408800,4.18340869140625,-0.04872230067849159,0.7802227139472961,0.2662466764450073
1772642810719453700,4.19345361328125,0.0005885225255042315,0.7684422731399536,0.19276313483715057
1772642810729498600,4.20349853515625,0.00671438267454505,0.6471912264823914,0.0652494803071022
1772642810739542800,4.213542724609375,-0.045758411288261414,0.5129029154777527,-0.16547055542469025
1772642810749587700,4.223587646484375,-0.19122613966464996,0.3996126055717468,-0.5318315029144287
1772642810759632600,4.233632568359375,-0.35028690099716187,0.37120306491851807,-0.9034652709960938
1772642810769677600,4.243677490234375,-0.4344681203365326,0.3815969228744507,-1.128045678138733
1772642810779722800,4.25372265625,-0.46618103981018066,0.33921244740486145,-1.1118502616882324
1772642810789767000,4.263766845703125,-0.46829453110694885,0.21068616211414337,-0.9577994346618652
1772642810799811600,4.2738115234375,-0.4888080656528473,-0.015660151839256287,-0.8942508101463318
1772642810809856800,4.283856689453125,-0.5158704519271851,-0.14322572946548462,-0.9688171744346619
1772642810819901700,4.293901611328125,-0.5763064026832581,-0.13558751344680786,-1.1451219320297241
1772642810829947000,4.30394677734375,-0.6462484002113342,-0.07569129765033722,-1.2944202423095703
1772642810839991600,4.313991455078125,-0.6160191297531128,0.033426135778427124,-1.273919701576233
1772642810850035700,4.32403564453125,-0.4863843023777008,0.2401154339313507,-1.042418360710144
1772642810860080600,4.33408056640625,-0.3103935718536377,0.4123108983039856,-0.6888225674629211
1772642810870125800,4.344125732421875,-0.15677283704280853,0.4347877502441406,-0.336814284324646
1772642810880170500,4.35417041015625,-0.07157964259386063,0.38528677821159363,-0.031934820115566254
1772642810890215700,4.364215576171875,-0.08544962108135223,0.3014076352119446,0.1868927925825119
1772642810900259800,4.374259765625,-0.17584316432476044,0.1720147430896759,0.34927240014076233
1772642810910304800,4.3843046875,-0.2400578111410141,0.09210715442895889,0.5063838958740234
1772642810920349700,4.394349609375,-0.22738862037658691,0.0976736918091774,0.6305029392242432
1772642810930394600,4.40439453125,-0.1851666122674942,0.1225493922829628,0.6661139130592346
1772642810940439800,4.414439697265625,-0.19395025074481964,0.04852256923913956,0.576726496219635
1772642810950484700,4.424484619140625,-0.27016353607177734,-0.08716175705194473,0.4192005693912506
1772642810960528600,4.434528564453125,-0.3276995122432709,-0.13482968509197235,0.3211278021335602
1772642810970573600,4.444573486328125,-0.27281540632247925,-0.007329681888222694,0.3609635531902313
1772642810980618800,4.45461865234375,-0.14967428147792816,0.18434840440750122,0.4901830554008484
1772642810990663700,4.46466357421875,-0.052725374698638916,0.2823043167591095,0.6060428023338318
1772642811000708600,4.47470849609375,-0.00785323977470398,0.28143826127052307,0.654444694519043
1772642811010752800,4.484752685546875,0.0194107573479414,0.27279987931251526,0.6268301606178284
1772642811020797700,4.494797607421875,0.05060889199376106,0.25631996989250183,0.5788463950157166
1772642811030843000,4.5048427734375,0.06644373387098312,0.11870574206113815,0.5453240275382996
1772642811040887600,4.514887451171875,0.04018550366163254,-0.12184454500675201,0.5191669464111328
1772642811050932700,4.5249326171875,-0.021765628829598427,-0.3590679466724396,0.4809938967227936
1772642811060977700,4.534977783203125,-0.07696790248155594,-0.5418140888214111,0.3986332416534424
1772642811071021800,4.545021728515625,-0.07608357816934586,-0.6584388017654419,0.2911478877067566
1772642811081066500,4.55506640625,-0.0288177952170372,-0.7305920720100403,0.14170753955841064
1772642811091111700,4.565111572265625,0.02745017781853676,-0.796711266040802,-0.07641678303480148
1772642811101156600,4.575156494140625,0.07325921207666397,-0.8645883202552795,-0.36660200357437134
1772642811111201800,4.585201904296875,0.12920765578746796,-0.8554152846336365,-0.6453888416290283
1772642811121246500,4.59524658203125,0.15947768092155457,-0.729773759841919,-0.851190984249115
1772642811131290600,4.60529052734375,0.1963970810174942,-0.6675563454627991,-0.940045952796936
1772642811141335800,4.615335693359375,0.25152239203453064,-0.7201015949249268,-0.8763343691825867
1772642811151380700,4.625380615234375,0.3046153485774994,-0.794623851776123,-0.6643518209457397
1772642811161425700,4.63542578125,0.3178640305995941,-0.8290912508964539,-0.352020800113678
1772642811171470600,4.645470703125,0.2750966250896454,-0.8457615971565247,-0.01871217042207718
1772642811181514800,4.6555146484375,0.1794782280921936,-0.8474236726760864,0.2770582437515259
1772642811191559700,4.6655595703125,0.13260763883590698,-0.7856773734092712,0.5404859781265259
1772642811201604600,4.6756044921875,0.16691340506076813,-0.7010815143585205,0.7453919649124146
1772642811211649500,4.6856494140625,0.22939395904541016,-0.5421649217605591,0.8530150055885315
1772642811221694700,4.69569482421875,0.3034532368183136,-0.29971474409103394,0.8369387984275818
1772642811231739600,4.70573974609375,0.3547835052013397,-0.0419333353638649,0.7299603223800659
1772642811241783300,4.715783203125,0.3817104399204254,0.15882746875286102,0.5921207070350647
1772642811251828500,4.725828369140625,0.3950580656528473,0.24168792366981506,0.49141350388526917
1772642811261873400,4.735873291015625,0.35010257363319397,0.23340097069740295,0.4241583049297333
1772642811271918600,4.745918701171875,0.23783761262893677,0.19070911407470703,0.40129509568214417
1772642811281963300,4.75596337890625,0.10425639152526855,0.17501802742481232,0.4080858826637268
1772642811292007400,4.76600732421875,-0.024005938321352005,0.18905740976333618,0.40405377745628357
1772642811302052600,4.776052490234375,-0.10254761576652527,0.21250733733177185,0.37662214040756226
1772642811312097300,4.78609716796875,-0.12549296021461487,0.232526957988739,0.3580487072467804
1772642811322142500,4.796142578125,-0.11058537662029266,0.27633145451545715,0.3762919008731842
1772642811332187400,4.8061875,-0.08934654295444489,0.3406081199645996,0.41132694482803345
1772642811342232600,4.816232666015625,-0.08201805502176285,0.421612948179245,0.4130217730998993
1772642811352276200,4.826276123046875,-0.06592723727226257,0.5319287776947021,0.3861081302165985
1772642811362321400,4.8363212890625,-0.04168820381164551,0.6046628952026367,0.3378268778324127
1772642811372366300,4.846366455078125,-0.029700595885515213,0.6357669234275818,0.2878987491130829
1772642811382411500,4.85641162109375,-0.022365184500813484,0.6704822778701782,0.27117595076560974
1772642811392456400,4.86645654296875,-0.001284212339669466,0.7299489378929138,0.30590805411338806
1772642811402500400,4.876500244140625,0.0363055057823658,0.7603177428245544,0.384136825799942
1772642811412545500,4.886545654296875,0.04208777844905853,0.6677762269973755,0.4467802047729492
1772642811422590500,4.896590576171875,-0.02021554298698902,0.4253785014152527,0.39539581537246704
1772642811432635600,4.9066357421875,-0.11986083537340164,0.1755744218826294,0.2020287960767746
1772642811442680300,4.916680419921875,-0.23921892046928406,0.04984019324183464,-0.09352375566959381
1772642811452725500,4.9267255859375,-0.33393511176109314,0.14497026801109314,-0.3889645040035248
1772642811462769400,4.936769287109375,-0.34042924642562866,0.41533252596855164,-0.5584810972213745
1772642811472814300,4.946814453125,-0.27326756715774536,0.6830219030380249,-0.54960036277771
1772642811482859300,4.956859375,-0.23848268389701843,0.7651588320732117,-0.4168785512447357
1772642811492904400,4.966904541015625,-0.2992951571941376,0.5914435386657715,-0.2959848940372467
1772642811502949400,4.976949462890625,-0.41922369599342346,0.3102291226387024,-0.24503301084041595
1772642811512993300,4.9869931640625,-0.485649436712265,0.12106706202030182,-0.22491274774074554
1772642811523038500,4.99703857421875,-0.4785577058792114,0.006396136246621609,-0.22089749574661255
1772642811533083400,5.00708349609375,-0.43839022517204285,-0.09499050676822662,-0.2519550025463104
1772642811543128600,5.017128662109375,-0.3865893483161926,-0.10769538581371307,-0.31244683265686035
1772642811553173500,5.027173583984375,-0.31095945835113525,0.08222158998250961,-0.35192909836769104
1772642811563218400,5.037218505859375,-0.22868402302265167,0.343820720911026,-0.38468438386917114
1772642811573262300,5.047262451171875,-0.19825682044029236,0.44236278533935547,-0.4437795877456665
1772642811583307500,5.0573076171875,-0.21125437319278717,0.369507759809494,-0.5136284232139587
1772642811593352200,5.067352294921875,-0.23885591328144073,0.22772565484046936,-0.5900638103485107
1772642811603397400,5.0773974609375,-0.2606850564479828,0.10775797069072723,-0.6475017666816711
1772642811613442300,5.0874423828125,-0.2526280879974365,-0.012128493748605251,-0.6654989123344421
1772642811623487500,5.097487548828125,-0.22458553314208984,-0.17829082906246185,-0.6549085974693298
1772642811633531400,5.107531494140625,-0.16092658042907715,-0.3281800150871277,-0.5952998399734497
1772642811643576300,5.117576416015625,-0.065663181245327,-0.3324083387851715,-0.440803200006485
1772642811653621500,5.12762158203125,0.023177361115813255,-0.19491666555404663,-0.21788670122623444
1772642811663666400,5.13766650390625,0.11339966207742691,0.0077935680747032166,0.029090864583849907
1772642811673711600,5.147711669921875,0.1929723173379898,0.12349908798933029,0.23176947236061096
1772642811683755500,5.157755615234375,0.23534613847732544,0.11138304322957993,0.3349112868309021
1772642811693800400,5.167800537109375,0.22155389189720154,-0.009676164016127586,0.349331259727478
1772642811703845400,5.177845458984375,0.16287006437778473,-0.17229357361793518,0.31411683559417725
1772642811713890300,5.187890380859375,0.08798980712890625,-0.32491108775138855,0.25773581862449646
1772642811723935500,5.197935546875,0.048825621604919434,-0.42099902033805847,0.23399212956428528
1772642811733979400,5.2079794921875,0.06852523237466812,-0.4265384376049042,0.2428276091814041
1772642811744024600,5.218024658203125,0.1169353798031807,-0.3804186284542084,0.24603086709976196
1772642811754069200,5.2280693359375,0.1455729603767395,-0.3746201694011688,0.22265422344207764
1772642811764114400,5.238114501953125,0.14529173076152802,-0.4023607075214386,0.19789187610149384
1772642811774159400,5.248159423828125,0.09356781840324402,-0.500078022480011,0.14878877997398376
1772642811784204500,5.25820458984375,-0.009030193090438843,-0.7316161394119263,0.12745019793510437
1772642811794248400,5.26824853515625,-0.09634106606245041,-1.0613945722579956,0.1728382408618927
1772642811804293400,5.27829345703125,-0.13156670331954956,-1.4310117959976196,0.2770237624645233
1772642811814338600,5.288338623046875,-0.09179727733135223,-1.7018216848373413,0.3811345100402832
1772642811824383500,5.298383544921875,0.008596966974437237,-1.629514455795288,0.3957195580005646
1772642811834428400,5.308428466796875,0.164032444357872,-1.2331209182739258,0.2964145839214325
1772642811844473300,5.318473388671875,0.32442185282707214,-0.7810312509536743,0.08251960575580597
1772642811854517500,5.328517578125,0.3842953145503998,-0.38328418135643005,-0.21215493977069855
1772642811864562400,5.3385625,0.38660719990730286,-0.01533223781734705,-0.49383774399757385
1772642811874607400,5.348607421875,0.3618448078632355,0.29993128776550293,-0.7017636299133301
1772642811884652300,5.35865234375,0.31636732816696167,0.5406528115272522,-0.7498973608016968
1772642811894697500,5.368697509765625,0.2823939025402069,0.6400187611579895,-0.6366097927093506
1772642811904741600,5.37874169921875,0.2839300036430359,0.5911476016044617,-0.4108352065086365
1772642811914786300,5.388786376953125,0.3236439526081085,0.4724524915218353,-0.12906967103481293
1772642811924831500,5.39883154296875,0.32787278294563293,0.3663060665130615,0.13109399378299713
1772642811934876400,5.40887646484375,0.3111609220504761,0.3656391501426697,0.3085988163948059
1772642811944921600,5.418921630859375,0.3486137390136719,0.4406428039073944,0.3951480984687805
1772642811954966500,5.428966552734375,0.424934983253479,0.48886221647262573,0.39927512407302856
1772642811965010400,5.439010498046875,0.49031317234039307,0.5111310482025146,0.35375717282295227
1772642811975055400,5.449055419921875,0.5025570392608643,0.46491366624832153,0.28347766399383545
1772642811985100500,5.4591005859375,0.45063742995262146,0.3555075526237488,0.2123560905456543
1772642811995145200,5.469145263671875,0.34333285689353943,0.18907427787780762,0.1431470364332199
1772642812005190400,5.4791904296875,0.20657366514205933,0.0554102286696434,0.08318118751049042
1772642812015234600,5.489234619140625,0.09730395674705505,-0.015606286004185677,0.03055351786315441
1772642812025279500,5.499279541015625,0.008885141462087631,0.009360583499073982,-0.015295729041099548
1772642812035324400,5.509324462890625,-0.06739330291748047,0.09494242817163467,-0.06681592017412186
1772642812045369300,5.519369384765625,-0.1348157525062561,0.2091909795999527,-0.11862505227327347
1772642812055414500,5.52941455078125,-0.18903982639312744,0.30710628628730774,-0.16320717334747314
1772642812065459500,5.53945947265625,-0.22040973603725433,0.3289298415184021,-0.1846109926700592
1772642812075503400,5.54950341796875,-0.23524685204029083,0.3054655194282532,-0.17983300983905792
1772642812085548300,5.55954833984375,-0.22898416221141815,0.3284192979335785,-0.1618172526359558
1772642812095593500,5.569593505859375,-0.18155300617218018,0.4007047712802887,-0.10792150348424911
1772642812105638400,5.579638427734375,-0.09411103278398514,0.43805959820747375,-0.019215868785977364
1772642812115683300,5.589683349609375,0.00664445199072361,0.38013577461242676,0.07045777887105942
1772642812125727500,5.5997275390625,0.10496808588504791,0.2715435028076172,0.155766561627388
1772642812135772400,5.6097724609375,0.12723180651664734,0.04226139560341835,0.16271618008613586
1772642812145817600,5.619817626953125,0.11742763966321945,-0.22789685428142548,0.07032845914363861
1772642812155862300,5.6298623046875,0.12352930009365082,-0.38753679394721985,-0.09889919310808182
1772642812165907500,5.639907470703125,0.15632453560829163,-0.3815838396549225,-0.28047749400138855
1772642812175952400,5.649952392578125,0.16286888718605042,-0.2795970141887665,-0.47638651728630066
1772642812185996500,5.65999658203125,0.11314474791288376,-0.22772927582263947,-0.6861125826835632
1772642812196041500,5.67004150390625,0.016284849494695663,-0.2631632089614868,-0.9049617648124695
1772642812206086400,5.68008642578125,-0.08717522770166397,-0.3295193314552307,-1.0508736371994019
1772642812216131300,5.69013134765625,-0.1712019294500351,-0.4062158167362213,-1.0901169776916504
1772642812226176500,5.700176513671875,-0.2472013682126999,-0.5217114686965942,-1.0300699472427368
1772642812236220400,5.710220458984375,-0.3005620241165161,-0.6462989449501038,-0.9072386622428894
1772642812246265300,5.720265380859375,-0.30423399806022644,-0.6655919551849365,-0.7610630989074707
1772642812256310500,5.730310546875,-0.2455318123102188,-0.5515679121017456,-0.6374481916427612
1772642812266355500,5.74035546875,-0.1390461027622223,-0.2716310918331146,-0.5318333506584167
1772642812276400400,5.750400390625,-0.04339335113763809,0.09878665953874588,-0.41742581129074097
1772642812286445300,5.7604453125,0.01847960241138935,0.41628605127334595,-0.2605768144130707
1772642812296489500,5.770489501953125,0.05254805088043213,0.5934057235717773,-0.0589812695980072
1772642812306534700,5.78053466796875,0.05508364737033844,0.5871469974517822,0.1266687512397766
1772642812316579300,5.790579345703125,0.0339943990111351,0.43666279315948486,0.2452215850353241
1772642812326624500,5.80062451171875,0.007063982076942921,0.21593335270881653,0.3001210689544678
1772642812336669400,5.81066943359375,-0.05383054539561272,-0.06591573357582092,0.27746638655662537
1772642812346713600,5.820713623046875,-0.15868160128593445,-0.3344537317752838,0.16639022529125214
1772642812356758300,5.83075830078125,-0.27425169944763184,-0.4617602527141571,-0.020577751100063324
1772642812366803500,5.840803466796875,-0.3813014328479767,-0.427244633436203,-0.24209707975387573
1772642812376848400,5.850848388671875,-0.41873857378959656,-0.1047685518860817,-0.381573885679245
1772642812386893600,5.8608935546875,-0.37901538610458374,0.4029915928840637,-0.3608994781970978
1772642812396938200,5.870938232421875,-0.28454354405403137,0.8441449403762817,-0.13434036076068878
1772642812406982400,5.880982421875,-0.1872798353433609,0.9823020100593567,0.2815362215042114
1772642812417027600,5.891027587890625,-0.1425648033618927,0.7136470079421997,0.7925450205802917
1772642812427072500,5.901072509765625,-0.15517432987689972,0.09586050361394882,1.285606861114502
1772642812437117400,5.911117431640625,-0.20975199341773987,-0.6043379902839661,1.622566819190979
1772642812447162400,5.921162353515625,-0.24031202495098114,-1.0673435926437378,1.7738378047943115
1772642812457206500,5.93120654296875,-0.18007569015026093,-1.1049412488937378,1.751213788986206
1772642812467251500,5.94125146484375,-0.12311146408319473,-0.8448894023895264,1.5136469602584839
1772642812477296400,5.95129638671875,-0.16344979405403137,-0.6370515823364258,1.0574455261230469
1772642812487341300,5.96134130859375,-0.3114083707332611,-0.4692942500114441,0.5889618992805481
1772642812497386500,5.971386474609375,-0.42801201343536377,-0.11101775616407394,0.37213030457496643
1772642812507431400,5.981431396484375,-0.3605237901210785,0.21746131777763367,0.43905022740364075
1772642812517475300,5.991475341796875,-0.14512357115745544,0.2354368418455124,0.7102009057998657
1772642812527520500,6.0015205078125,0.12529487907886505,-0.10683208703994751,1.0732190608978271
1772642812537565400,6.0115654296875,0.3149747848510742,-0.6594446897506714,1.3729215860366821
1772642812547610600,6.021610595703125,0.40588364005088806,-1.0752503871917725,1.480067253112793
1772642812557655300,6.0316552734375,0.4432416558265686,-1.0390877723693848,1.2987796068191528
1772642812567700500,6.041700439453125,0.3173750638961792,-0.5762131214141846,0.8591595888137817
1772642812577744400,6.051744384765625,-0.009848078712821007,0.0933077335357666,0.29016298055648804
1772642812587789600,6.06178955078125,-0.24923430383205414,0.7029945254325867,-0.22190669178962708
1772642812597834200,6.071834228515625,-0.27390849590301514,1.139904260635376,-0.523140549659729
1772642812607879400,6.08187939453125,-0.20388786494731903,1.3764456510543823,-0.5577589869499207
1772642812617924400,6.09192431640625,-0.09213338792324066,1.3470615148544312,-0.31505462527275085
1772642812627968300,6.10196826171875,0.019887421280145645,1.0763808488845825,0.061403945088386536
1772642812638013400,6.112013427734375,0.09837275743484497,0.7231011986732483,0.39921945333480835
1772642812648058400,6.122058349609375,0.13332808017730713,0.3658605217933655,0.5511407852172852
1772642812658103600,6.132103515625,0.10381580144166946,0.12948039174079895,0.4650131165981293
1772642812668148500,6.1421484375,0.08719821274280548,0.07495802640914917,0.17730332911014557
1772642812678193400,6.152193359375,0.13055339455604553,0.20953306555747986,-0.17844592034816742
1772642812688237300,6.1622373046875,0.22430838644504547,0.42083385586738586,-0.4675523042678833
1772642812698282500,6.172282470703125,0.29876214265823364,0.5522554516792297,-0.6119863390922546
1772642812708327400,6.182327392578125,0.32000166177749634,0.5777325630187988,-0.6222515106201172
1772642812718372400,6.192372314453125,0.2807691991329193,0.48178791999816895,-0.538898766040802
1772642812728417300,6.202417236328125,0.2145390510559082,0.3579480051994324,-0.40464532375335693
1772642812738461400,6.21246142578125,0.13428139686584473,0.24373671412467957,-0.2787795066833496
1772642812748506400,6.22250634765625,0.05656316503882408,0.17843866348266602,-0.15872104465961456
1772642812758551300,6.23255126953125,0.03881361708045006,0.22403202950954437,0.00325567158870399
1772642812768596500,6.242596435546875,0.06748494505882263,0.2379228174686432,0.21225735545158386
1772642812778641400,6.252641357421875,0.11225471645593643,0.20361065864562988,0.44670426845550537
1772642812788686600,6.2626865234375,0.15943500399589539,0.15189208090305328,0.6365804672241211
1772642812798730500,6.27273046875,0.17171962559223175,0.10987656563520432,0.7179890871047974
1772642812808775400,6.282775390625,0.19262170791625977,0.10405062884092331,0.6880024075508118
1772642812818820400,6.2928203125,0.22817732393741608,0.14588265120983124,0.586532473564148
1772642812828865500,6.302865478515625,0.29148492217063904,0.20735666155815125,0.5347819328308105
1772642812838910500,6.312910400390625,0.28120648860931396,0.06001504510641098,0.4691152572631836
1772642812848954400,6.322954345703125,0.1405835747718811,-0.27619946002960205,0.2860114872455597
1772642812858999600,6.33299951171875,-0.027318207547068596,-0.48620283603668213,0.013316122815012932
1772642812869044500,6.34304443359375,-0.1511102020740509,-0.4104079306125641,-0.2878173589706421
1772642812879089400,6.35308935546875,-0.2765466272830963,-0.17858657240867615,-0.6022409796714783
1772642812889134300,6.36313427734375,-0.42222338914871216,-0.019641129299998283,-0.8984465599060059
1772642812899179500,6.373179443359375,-0.5297415852546692,0.07960180938243866,-1.054500937461853
1772642812909223400,6.383223388671875,-0.5452393293380737,0.13861480355262756,-1.0215067863464355
1772642812919268400,6.393268310546875,-0.5027480721473694,0.01779785566031933,-0.8546835780143738
1772642812929313500,6.4033134765625,-0.48847272992134094,-0.38852807879447937,-0.6926020383834839
1772642812939358500,6.4133583984375,-0.4808192551136017,-0.6588444709777832,-0.5701187252998352
1772642812949403600,6.423403564453125,-0.4035404324531555,-0.5449399948120117,-0.412111759185791
1772642812959447300,6.433447265625,-0.33322039246559143,-0.1467868834733963,-0.25944018363952637
1772642812969492500,6.443492431640625,-0.2504943609237671,0.2804073095321655,-0.1330164521932602
1772642812979537400,6.453537353515625,-0.13731570541858673,0.5165600776672363,-0.039616651833057404
1772642812989582600,6.46358251953125,-0.07448693364858627,0.5028506517410278,-0.02329840138554573
1772642812999627300,6.473627197265625,-0.08725826442241669,0.29539674520492554,-0.09590936452150345
1772642813009672400,6.48367236328125,-0.19732484221458435,-0.0008437000215053558,-0.24842329323291779
1772642813019716600,6.493716552734375,-0.334205687046051,-0.2770629823207855,-0.4398937225341797
1772642813029761300,6.50376123046875,-0.44099923968315125,-0.4241640269756317,-0.5851179957389832
1772642813039806500,6.513806396484375,-0.49750903248786926,-0.4061911702156067,-0.6542539596557617
1772642813049851400,6.523851318359375,-0.4670930802822113,-0.17822565138339996,-0.5966674089431763
1772642813059896600,6.533896484375,-0.36974331736564636,0.09813632816076279,-0.434325635433197
1772642813069940200,6.543940185546875,-0.29204240441322327,0.19408603012561798,-0.2962125241756439
1772642813079985400,6.5539853515625,-0.27882614731788635,0.040640976279973984,-0.2648790776729584
1772642813090030300,6.5640302734375,-0.2583104968070984,-0.13549916446208954,-0.26983657479286194
1772642813100075500,6.574075439453125,-0.188023179769516,-0.19202080368995667,-0.21536685526371002
1772642813110120400,6.584120361328125,-0.07233546674251556,-0.13393592834472656,-0.056787073612213135
1772642813120165400,6.594165283203125,0.07225444912910461,-0.06255298107862473,0.1541779339313507
1772642813130209500,6.60420947265625,0.17930766940116882,-0.04181760922074318,0.31135448813438416
1772642813140254500,6.61425439453125,0.2425045669078827,-0.06224521994590759,0.3582163155078888
1772642813150299400,6.62429931640625,0.2863021194934845,-0.08440884947776794,0.31080031394958496
1772642813160344300,6.63434423828125,0.3194349408149719,-0.09774467349052429,0.2070411741733551
1772642813170389500,6.644389404296875,0.3505958020687103,-0.1099720448255539,0.11359405517578125
1772642813180433400,6.654433349609375,0.37616822123527527,-0.15449246764183044,0.07030923664569855
1772642813190478300,6.664478271484375,0.3761133849620819,-0.2498387098312378,0.047068893909454346
1772642813200523300,6.674523193359375,0.35611438751220703,-0.3874492049217224,0.00877576507627964
1772642813210568400,6.684568359375,0.33170145750045776,-0.5148659944534302,-0.041148651391267776
1772642813220613400,6.69461328125,0.31387200951576233,-0.5658565759658813,-0.09402613341808319
1772642813230658600,6.704658447265625,0.31110870838165283,-0.4935948848724365,-0.12759527564048767
1772642813240702200,6.7147021484375,0.3286551833152771,-0.3576781451702118,-0.12803517282009125
1772642813250747100,6.7247470703125,0.3474573791027069,-0.2639425992965698,-0.08124715834856033
1772642813260792300,6.734792236328125,0.359950989484787,-0.2687029242515564,0.01022119726985693
1772642813270837200,6.744837158203125,0.33921295404434204,-0.34137073159217834,0.12733156979084015
1772642813280882200,6.754882080078125,0.2732914686203003,-0.4206072688102722,0.26626190543174744
1772642813290927000,6.764927001953125,0.22448159754276276,-0.4286305606365204,0.4165818989276886
1772642813300971300,6.77497119140625,0.23138129711151123,-0.24819929897785187,0.552690327167511
1772642813311016400,6.785016357421875,0.3024919629096985,0.03577010706067085,0.6598415374755859
1772642813321061000,6.79506103515625,0.37936583161354065,0.3387824296951294,0.7393282651901245
1772642813331106300,6.805106201171875,0.4522448182106018,0.5486810803413391,0.808404803276062
1772642813341151200,6.815151123046875,0.5180754661560059,0.6546860933303833,0.8671383857727051
1772642813351195400,6.8251953125,0.5831477046012878,0.7015662789344788,0.916894257068634
1772642813361240000,6.835239990234375,0.639672040939331,0.7050840258598328,0.9544649720191956
1772642813371285200,6.84528515625,0.6862083673477173,0.6687002182006836,0.9839839935302734
1772642813381330200,6.855330078125,0.7221474051475525,0.6192445755004883,1.0122325420379639
1772642813391375400,6.865375244140625,0.7194024920463562,0.5589010715484619,1.0157241821289062
1772642813401420000,6.875419921875,0.6894776225090027,0.4887233078479767,0.977063000202179
1772642813411464200,6.885464111328125,0.6448819041252136,0.4090372622013092,0.9103049635887146
1772642813421509400,6.89550927734375,0.6083384156227112,0.3182714283466339,0.8286601901054382
1772642813431554300,6.90555419921875,0.5624588131904602,0.24344457685947418,0.757926344871521
1772642813441599200,6.91559912109375,0.5016019344329834,0.21065445244312286,0.693534255027771
1772642813451644200,6.92564404296875,0.43322739005088806,0.23389719426631927,0.6292620897293091
1772642813461688300,6.935688232421875,0.37358900904655457,0.29722511768341064,0.5622061491012573
1772642813471733200,6.945733154296875,0.33310815691947937,0.3743784725666046,0.49491816759109497
1772642813481778200,6.955778076171875,0.31973034143447876,0.4543132781982422,0.44493404030799866
1772642813491823000,6.965822998046875,0.31696757674217224,0.5131084322929382,0.414346307516098
1772642813501868300,6.975868408203125,0.3183293640613556,0.5217092037200928,0.3912951946258545
1772642813511913200,6.985913330078125,0.290650337934494,0.4666677415370941,0.3548833727836609
1772642813521957000,6.99595703125,0.26834580302238464,0.35223788022994995,0.32034775614738464
1772642813532002300,7.006002197265625,0.3351839482784271,0.18969105184078217,0.3667738437652588
1772642813542047200,7.016047119140625,0.41453996300697327,-0.06478366255760193,0.4393845796585083
1772642813552092400,7.026092529296875,0.3960954546928406,-0.4514554738998413,0.4367682933807373
1772642813562137000,7.03613720703125,0.2940674126148224,-0.9210540056228638,0.32155075669288635
1772642813572181200,7.04618115234375,0.15831519663333893,-1.3848261833190918,0.07043251395225525
1772642813582226200,7.05622607421875,0.06300472468137741,-1.6809957027435303,-0.2720862030982971
1772642813592271400,7.066271240234375,-0.05414719879627228,-1.6824824810028076,-0.6799205541610718
1772642813602316000,7.07631591796875,-0.16751651465892792,-1.2785630226135254,-1.0773075819015503
1772642813612361200,7.086361328125,-0.21063868701457977,-0.5849014520645142,-1.414226770401001
1772642813622406100,7.09640625,-0.2200712114572525,0.0487210713326931,-1.7083083391189575
1772642813632450000,7.106449951171875,-0.2469896376132965,0.3829360604286194,-1.9234347343444824
1772642813642495200,7.1164951171875,-0.34746676683425903,0.3567729890346527,-2.052926540374756
1772642813652540200,7.1265400390625,-0.5185649991035461,0.05777428671717644,-2.091033458709717
1772642813662585300,7.13658544921875,-0.7194704413414001,-0.42135944962501526,-2.0845682621002197
1772642813672630300,7.14663037109375,-0.915245532989502,-0.9282420873641968,-2.102386474609375
1772642813682674200,7.156674072265625,-1.0465608835220337,-1.221136212348938,-2.1636717319488525
1772642813692719000,7.166718994140625,-1.0499370098114014,-1.131400465965271,-2.2455363273620605
1772642813702764300,7.176764404296875,-0.842049777507782,-0.7680677175521851,-2.389039993286133
1772642813712809200,7.186809326171875,-0.5621984004974365,-0.30937814712524414,-2.543919563293457
1772642813722854100,7.196854248046875,-0.33639267086982727,0.23958300054073334,-2.610074281692505
1772642813732899000,7.206899169921875,-0.1575925648212433,0.5973666906356812,-2.5341999530792236
1772642813742943200,7.216943115234375,-0.081151083111763,0.6057713031768799,-2.311413288116455
1772642813752988200,7.22698828125,-0.09122209250926971,0.24040715396404266,-2.0025486946105957
1772642813763033000,7.237033203125,-0.1345580816268921,-0.15088525414466858,-1.6348956823349
1772642813773078300,7.247078369140625,-0.1487271636724472,-0.3425833284854889,-1.2673259973526
1772642813783123200,7.257123291015625,-0.1289658546447754,-0.29189449548721313,-0.9859974384307861
1772642813793167000,7.2671669921875,-0.11034397035837173,-0.11932459473609924,-0.8170667290687561
1772642813803212300,7.27721240234375,-0.08130606263875961,-0.09842480719089508,-0.7913292646408081
1772642813813257200,7.28725732421875,-0.05137612298130989,-0.1212579533457756,-0.8179627060890198
1772642813823302100,7.29730224609375,0.01678140088915825,-0.13854920864105225,-0.8596727848052979
1772642813833347300,7.307347412109375,0.07008350640535355,0.08041936159133911,-0.8144065141677856
1772642813843392300,7.317392333984375,0.06519827246665955,0.35164371132850647,-0.7141594886779785
1772642813853436200,7.327436279296875,0.01863849349319935,0.5495820641517639,-0.5553474426269531
1772642813863481300,7.3374814453125,-0.05922537297010422,0.6232014298439026,-0.3274296522140503
1772642813873526300,7.3475263671875,-0.13178347051143646,0.5471943020820618,-0.05144974961876869
1772642813883571200,7.3575712890625,-0.1770906299352646,0.3713442385196686,0.2005181908607483
1772642813893616000,7.3676162109375,-0.18627241253852844,0.18750834465026855,0.4072974920272827
1772642813903660300,7.377660400390625,-0.16794897615909576,-0.007847846485674381,0.5229617357254028
1772642813913705200,7.387705322265625,-0.10691890865564346,-0.10073251277208328,0.5527068376541138
1772642813923750100,7.397750244140625,-0.00945766270160675,-0.06470580399036407,0.5006778836250305
1772642813933795300,7.40779541015625,0.09758356958627701,0.0673784613609314,0.3811802864074707
1772642813943840300,7.41784033203125,0.199682354927063,0.25652751326560974,0.2259962111711502
1772642813953885400,7.427885498046875,0.25658130645751953,0.3982561528682709,0.061792369931936264
1772642813963929000,7.43792919921875,0.28439563512802124,0.47243115305900574,-0.047188661992549896
1772642813973974300,7.447974365234375,0.3036065995693207,0.48517945408821106,-0.05607056990265846
1772642813984019200,7.458019287109375,0.32478606700897217,0.43410640954971313,0.015718786045908928
1772642813994064400,7.468064453125,0.32246193289756775,0.332045316696167,0.12784744799137115
1772642814004109000,7.478109130859375,0.27542781829833984,0.21329335868358612,0.2535761892795563
1772642814014153200,7.4881533203125,0.22238826751708984,0.13362330198287964,0.3764834702014923
1772642814024198400,7.498198486328125,0.19355371594429016,0.11119990050792694,0.4837521016597748
1772642814034243000,7.5082431640625,0.17682801187038422,0.11792624741792679,0.5513349175453186
1772642814044288300,7.518288330078125,0.16965064406394958,0.11328984797000885,0.5552772283554077
1772642814054333200,7.528333251953125,0.14653733372688293,0.17560036480426788,0.5302861332893372
1772642814064378400,7.53837841796875,0.1295306384563446,0.2626955509185791,0.4842071533203125
1772642814074422000,7.548422119140625,0.11365101486444473,0.3501444458961487,0.43820902705192566
1772642814084467200,7.55846728515625,0.13069650530815125,0.37124118208885193,0.40534210205078125
1772642814094512000,7.56851220703125,0.18460367619991302,0.3488796651363373,0.41700541973114014
1772642814104557300,7.578557373046875,0.24408242106437683,0.2574373781681061,0.4502928853034973
1772642814114602200,7.588602294921875,0.285500705242157,0.16207435727119446,0.5300132632255554
1772642814124646100,7.598646240234375,0.2914658486843109,0.0644984170794487,0.6371234655380249
1772642814134691300,7.60869140625,0.2850627899169922,-0.004626059904694557,0.7598164081573486
1772642814144736300,7.618736328125,0.25861477851867676,-0.003415800165385008,0.900042712688446
1772642814154781200,7.62878125,0.2002931386232376,-0.021391870453953743,1.0274752378463745
1772642814164826000,7.638826171875,0.14495427906513214,-0.09774897992610931,1.1236954927444458
1772642814174871300,7.648871337890625,0.12055572867393494,-0.17579612135887146,1.175559401512146
1772642814184915200,7.658915283203125,0.1146327406167984,-0.19659127295017242,1.1891306638717651
1772642814194960100,7.668960205078125,0.11877129226922989,-0.19136269390583038,1.171811580657959
1772642814205005000,7.679005126953125,0.11580780893564224,-0.23452818393707275,1.1180607080459595
1772642814215050200,7.68905029296875,0.09599549323320389,-0.31478413939476013,1.0352979898452759
1772642814225095200,7.69909521484375,0.0769077017903328,-0.32560887932777405,0.9392280578613281
1772642814235139000,7.70913916015625,0.0698937326669693,-0.23164032399654388,0.8025889992713928
1772642814245184000,7.71918408203125,0.055267028510570526,-0.08849339932203293,0.6255214810371399
1772642814255229000,7.72922900390625,0.04079434648156166,0.05783504247665405,0.42093080282211304
1772642814265274000,7.739274169921875,0.03592277318239212,0.1842256635427475,0.23329974710941315
1772642814275318800,7.74931884765625,0.04953552410006523,0.2547706663608551,0.1023678332567215
1772642814285364000,7.759364013671875,0.06002373248338699,0.24548621475696564,0.04493604972958565
1772642814295408000,7.769408203125,0.04997136816382408,0.1609894335269928,0.0634777694940567
1772642814305453000,7.779453125,0.051070794463157654,0.022559821605682373,0.1160893440246582
1772642814315498000,7.789498046875,0.09326645731925964,-0.10886025428771973,0.2170223593711853
