time,seconds_elapsed,z,y,x
1772642806580987100,0.054987060546875,0.33844995498657227,-0.011754128150641918,-0.19461075961589813
1772642806591032300,0.0650322265625,0.30881378054618835,0.026990605518221855,-0.1816568821668625
1772642806601076200,0.075076171875,0.27475273609161377,0.04933106526732445,-0.17140424251556396
1772642806611121200,0.08512109375,0.24278494715690613,0.06215764582157135,-0.1629931777715683
1772642806621166300,0.095166259765625,0.21460790932178497,0.06607355922460556,-0.15642769634723663
1772642806631211300,0.105211181640625,0.1885017305612564,0.04951109364628792,-0.1462477594614029
1772642806641256200,0.115256103515625,0.1619979590177536,0.021132715046405792,-0.1312328577041626
1772642806651301000,0.125301025390625,0.13077318668365479,0.002433063928037882,-0.110030896961689
1772642806661345300,0.13534521484375,0.10605133324861526,-0.003934820648282766,-0.07215248793363571
1772642806671390200,0.14539013671875,0.08153267949819565,0.0024413196370005608,-0.013201556168496609
1772642806681435100,0.15543505859375,0.06533026695251465,0.0374954454600811,0.056467268615961075
1772642806691480000,0.16547998046875,0.04753662645816803,0.0927634909749031,0.14073367416858673
1772642806701525200,0.175525146484375,0.021379856392741203,0.12788419425487518,0.21787241101264954
1772642806711570200,0.185570068359375,-0.01696646586060524,0.133126899600029,0.2723953127861023
1772642806721614000,0.195614013671875,-0.03231905773282051,0.04435255005955696,0.2817038595676422
1772642806731659300,0.2056591796875,-0.02207813784480095,-0.014581872150301933,0.29064300656318665
1772642806741704200,0.2157041015625,-0.04607455059885979,0.17572176456451416,0.3436385989189148
1772642806751749400,0.225749267578125,-0.09611667692661285,0.32382732629776,0.396413654088974
1772642806761794000,0.2357939453125,-0.13858823478221893,0.3558603823184967,0.42861661314964294
1772642806771838200,0.245838134765625,-0.1478981226682663,0.3568633198738098,0.45979395508766174
1772642806781883100,0.255883056640625,-0.12880751490592957,0.33508026599884033,0.49288585782051086
1772642806791928300,0.26592822265625,-0.13646623492240906,0.21017907559871674,0.48685887455940247
1772642806801973000,0.275972900390625,-0.21575573086738586,-0.08273349702358246,0.410797119140625
1772642806812018200,0.28601806640625,-0.3767496645450592,-0.451628178358078,0.30024638772010803
1772642806822063000,0.29606298828125,-0.57054203748703,-0.842132568359375,0.18786577880382538
1772642806832107000,0.30610693359375,-0.6973479390144348,-1.1860766410827637,0.13154125213623047
1772642806842152200,0.316152099609375,-0.6658350229263306,-1.329961895942688,0.18201135098934174
1772642806852197000,0.326197021484375,-0.47809839248657227,-1.107024073600769,0.3123965263366699
1772642806862242300,0.3362421875,-0.2005176544189453,-0.7325109839439392,0.3768647313117981
1772642806872287200,0.346287353515625,0.04665139317512512,-0.13962846994400024,0.34756913781166077
1772642806882332200,0.356332275390625,0.18718799948692322,0.45738646388053894,0.14201226830482483
1772642806892376000,0.3663759765625,0.25407835841178894,0.8921637535095215,-0.1118817925453186
1772642806902421200,0.376421142578125,0.26453152298927307,1.113215446472168,-0.2863270938396454
1772642806912466200,0.386466064453125,0.2540469169616699,1.0466539859771729,-0.29834941029548645
1772642806922511000,0.396510986328125,0.29453417658805847,0.7005929946899414,-0.13795627653598785
1772642806932556000,0.40655615234375,0.33364641666412354,0.1181708499789238,0.13687290251255035
1772642806942600200,0.41660009765625,0.368354856967926,-0.7798694372177124,0.36943531036376953
1772642806952645000,0.42664501953125,0.39964166283607483,-1.5566285848617554,0.48981738090515137
1772642806962690000,0.43668994140625,0.3823867738246918,-1.7916258573532104,0.40900108218193054
1772642806972735200,0.4467353515625,0.39867573976516724,-1.7138043642044067,0.1292107105255127
1772642806982780200,0.4567802734375,0.556419312953949,-1.4448884725570679,-0.17209692299365997
1772642806992825300,0.466825439453125,0.6833122968673706,-0.9883331656455994,-0.42585304379463196
1772642807002869200,0.476869140625,0.7128883004188538,-0.4862503409385681,-0.6208217144012451
1772642807012914200,0.4869140625,0.7624052166938782,-0.47152945399284363,-0.8471280932426453
1772642807022959400,0.49695947265625,0.8545551300048828,-0.6682036519050598,-1.0353012084960938
1772642807033004300,0.50700439453125,0.9762165546417236,-0.8385793566703796,-1.0824493169784546
1772642807043049200,0.51704931640625,1.1208776235580444,-1.0662248134613037,-1.020999789237976
1772642807053094100,0.52709423828125,1.1914581060409546,-1.1291606426239014,-0.7655453681945801
1772642807063138300,0.53713818359375,1.2041429281234741,-1.0631970167160034,-0.4164619445800781
1772642807073183000,0.547182861328125,1.3241561651229858,-1.133687973022461,-0.0643472969532013
1772642807083228200,0.557228271484375,1.4493730068206787,-1.1742346286773682,0.3149352967739105
1772642807093273000,0.567273193359375,1.5199975967407227,-1.1780394315719604,0.663720965385437
1772642807103318300,0.577318359375,1.5161181688308716,-1.0744763612747192,0.945468008518219
1772642807113362200,0.587362060546875,1.4475781917572021,-0.863879382610321,1.141898512840271
1772642807123407000,0.597406982421875,1.3283545970916748,-0.6505114436149597,1.230762004852295
1772642807133452300,0.607452392578125,1.189807653427124,-0.49878183007240295,1.2680896520614624
1772642807143497200,0.617497314453125,1.019128680229187,-0.3594822585582733,1.2551065683364868
1772642807153542400,0.62754248046875,0.8603872060775757,-0.1919310837984085,1.2207797765731812
1772642807163587000,0.637587158203125,0.7408365607261658,-0.014904114417731762,1.189577341079712
1772642807173631200,0.64763134765625,0.6427978873252869,0.12939287722110748,1.1616575717926025
1772642807183676200,0.65767626953125,0.5540184378623962,0.3240688741207123,1.1195534467697144
1772642807193721300,0.667721435546875,0.4533270001411438,0.4756552278995514,1.094153642654419
1772642807203766000,0.67776611328125,0.32603058218955994,0.5931339263916016,1.0511808395385742
1772642807213811200,0.687811279296875,0.1691237837076187,0.7041770815849304,0.994407057762146
1772642807223855400,0.69785546875,-0.002031459240242839,0.8134114146232605,0.9256937503814697
1772642807233900000,0.707900146484375,-0.18353627622127533,0.8784149289131165,0.8413761854171753
1772642807243945200,0.7179453125,-0.36356836557388306,0.8778090476989746,0.7427439093589783
1772642807253990000,0.727989990234375,-0.5545031428337097,0.8712001442909241,0.5994583964347839
1772642807264035000,0.73803515625,-0.7300770878791809,0.9503034949302673,0.4142554998397827
1772642807274080000,0.748080078125,-0.8299105167388916,1.1340123414993286,0.1722167730331421
1772642807284124200,0.758124267578125,-0.8424805998802185,1.4764673709869385,-0.10407313704490662
1772642807294168800,0.7681689453125,-0.7694364786148071,1.83552885055542,-0.37211576104164124
1772642807304214000,0.778214111328125,-0.6418402194976807,2.1051318645477295,-0.5998943448066711
1772642807314259000,0.788259033203125,-0.5282113552093506,2.280006170272827,-0.742691695690155
1772642807324304100,0.79830419921875,-0.47158536314964294,2.3567235469818115,-0.7743982076644897
1772642807334349000,0.80834912109375,-0.4595199227333069,2.259263515472412,-0.6566929221153259
1772642807344393000,0.81839306640625,-0.512265682220459,1.947205901145935,-0.4319317042827606
1772642807354438100,0.828438232421875,-0.6630088686943054,1.3665430545806885,-0.1767750382423401
1772642807364483000,0.838483154296875,-0.8598290085792542,0.5200954079627991,0.05036383867263794
1772642807374528300,0.8485283203125,-1.0579761266708374,-0.3845615088939667,0.20790952444076538
1772642807384573000,0.858572998046875,-1.2208784818649292,-1.0608065128326416,0.3521292805671692
1772642807394617000,0.8686171875,-1.2736631631851196,-1.2735941410064697,0.5180559158325195
1772642807404662000,0.878662109375,-1.1524357795715332,-1.04618501663208,0.5851497650146484
1772642807414707000,0.88870703125,-0.8795358538627625,-0.722286581993103,0.39139413833618164
1772642807424751900,0.898751953125,-0.5867068767547607,-0.5196157693862915,-0.09341250360012054
1772642807434797000,0.908797119140625,-0.3521793484687805,-0.3696877658367157,-0.7818353772163391
1772642807444842000,0.918842041015625,-0.11939563602209091,-0.24273142218589783,-1.4113187789916992
1772642807454886000,0.928885986328125,0.10859811305999756,-0.0785834938287735,-1.8355696201324463
1772642807464931000,0.93893115234375,0.30274656414985657,0.08347838371992111,-2.010178327560425
1772642807474976000,0.94897607421875,0.42119383811950684,0.10233382880687714,-1.9905883073806763
1772642807485021200,0.959021240234375,0.419236958026886,0.020296748727560043,-1.8605670928955078
1772642807495066000,0.969066162109375,0.31024494767189026,-0.08034810423851013,-1.6683907508850098
1772642807505110000,0.979110107421875,0.15691344439983368,-0.16539615392684937,-1.4354562759399414
1772642807515155200,0.9891552734375,0.034930817782878876,-0.2394149899482727,-1.1872084140777588
1772642807525200100,0.9992001953125,-0.03403999283909798,-0.3654530644416809,-0.9442905783653259
1772642807535245000,1.0092451171875,-0.01697339117527008,-0.5287754535675049,-0.727074384689331
1772642807545290000,1.0192900390625,0.05734771117568016,-0.59699547290802,-0.5779696106910706
1772642807555335200,1.029335205078125,0.14459899067878723,-0.48642104864120483,-0.5398432612419128
1772642807565379000,1.039379150390625,0.22086499631404877,-0.105146124958992,-0.597737193107605
1772642807575424000,1.049424072265625,0.2674578130245209,0.5268566012382507,-0.7300792336463928
1772642807585469000,1.059468994140625,0.30578601360321045,1.3070179224014282,-0.8548927903175354
1772642807595514000,1.06951416015625,0.36413535475730896,1.8996315002441406,-0.9181274175643921
1772642807605559000,1.07955908203125,0.46006372570991516,2.061868667602539,-0.9046832919120789
1772642807615604200,1.089604248046875,0.5335019826889038,1.7645000219345093,-0.8584119081497192
1772642807625648000,1.099648193359375,0.5614478588104248,1.1582542657852173,-0.7732040882110596
1772642807635693000,1.109693115234375,0.5759232044219971,0.4835283160209656,-0.6825878620147705
1772642807645738200,1.11973828125,0.6081647872924805,0.027579963207244873,-0.6374446749687195
1772642807655783000,1.129782958984375,0.6661550998687744,-0.020905015990138054,-0.6152658462524414
1772642807665828000,1.139828125,0.6874476075172424,0.15411126613616943,-0.61126708984375
1772642807675872000,1.1498720703125,0.703911304473877,0.39011529088020325,-0.669400155544281
1772642807685917200,1.159917236328125,0.7443119883537292,0.5876480340957642,-0.7409899234771729
1772642807695961900,1.1699619140625,0.7564194798469543,0.7148047089576721,-0.764505922794342
1772642807706007000,1.180007080078125,0.7608811259269714,0.7197855710983276,-0.6816509962081909
1772642807716052000,1.190052001953125,0.7605069279670715,0.6153870224952698,-0.4725843369960785
1772642807726096100,1.20009619140625,0.7509493827819824,0.4454443156719208,-0.14092303812503815
1772642807736141000,1.21014111328125,0.7062386274337769,0.26722851395606995,0.25130119919776917
1772642807746186000,1.22018603515625,0.6433688402175903,0.09663679450750351,0.6673583388328552
1772642807756231200,1.230231201171875,0.5905836820602417,-0.04350646585226059,1.0647845268249512
1772642807766276000,1.240276123046875,0.5554778575897217,-0.11956634372472763,1.4174413681030273
1772642807776321000,1.250321044921875,0.5298710465431213,-0.2330324500799179,1.7107267379760742
1772642807786365000,1.260364990234375,0.5178314447402954,-0.5714211463928223,1.9124037027359009
1772642807796410000,1.27041015625,0.4590695798397064,-0.9727305173873901,1.9925243854522705
1772642807806455000,1.280455078125,0.3282378017902374,-1.2793465852737427,1.9424034357070923
1772642807816500000,1.2905,0.12253870069980621,-1.4484280347824097,1.8512746095657349
1772642807826545000,1.300544921875,-0.02323048748075962,-1.3740028142929077,1.5705451965332031
1772642807836590000,1.310590087890625,-0.16129834949970245,-1.159760594367981,1.2492321729660034
1772642807846634200,1.32063427734375,-0.30243417620658875,-0.914469301700592,0.8052775859832764
1772642807856679000,1.330678955078125,-0.35520151257514954,-0.8131245970726013,0.272041380405426
1772642807866724000,1.34072412109375,-0.3643883466720581,-0.5360431671142578,-0.17314888536930084
1772642807876769000,1.35076904296875,-0.302977979183197,-0.04315918684005737,-0.441091924905777
1772642807886814200,1.360814208984375,-0.21726094186306,0.48533686995506287,-0.5748566389083862
1772642807896857900,1.37085791015625,-0.16935014724731445,0.9150820970535278,-0.6453409194946289
1772642807906903000,1.380903076171875,-0.1468839794397354,1.1983801126480103,-0.6345793604850769
1772642807916948000,1.390947998046875,-0.1299249827861786,1.2610938549041748,-0.574863851070404
1772642807926993200,1.4009931640625,-0.10721167176961899,1.200202226638794,-0.47571513056755066
1772642807937037800,1.411037841796875,-0.09052510559558868,1.115323543548584,-0.35455968976020813
1772642807947083000,1.4210830078125,-0.0861268937587738,1.0034064054489136,-0.21627983450889587
1772642807957127200,1.431127197265625,-0.07593338191509247,0.7894344329833984,-0.042442530393600464
1772642807967172000,1.441172119140625,-0.04644685983657837,0.5180455446243286,0.18170508742332458
1772642807977217000,1.451217041015625,-0.028972795233130455,0.2735242247581482,0.42466047406196594
1772642807987262000,1.461261962890625,-0.04596163332462311,-0.0028240159153938293,0.6343843936920166
1772642807997307100,1.47130712890625,-0.1353176087141037,-0.4750855565071106,0.708330512046814
1772642808007351000,1.48135107421875,-0.3257935345172882,-1.1066635847091675,0.5825268030166626
1772642808017396000,1.49139599609375,-0.6072931289672852,-1.6474300622940063,0.28147241473197937
1772642808027441200,1.501441162109375,-0.9269704818725586,-1.7581363916397095,-0.10958828032016754
1772642808037486000,1.511486083984375,-1.1228963136672974,-1.3251926898956299,-0.47619158029556274
1772642808047531000,1.521531005859375,-1.1180424690246582,-0.6789811849594116,-0.7561630606651306
1772642808057576000,1.531575927734375,-0.9399659037590027,-0.37181058526039124,-0.9423523545265198
1772642808067620000,1.5416201171875,-0.7298883199691772,-0.36181944608688354,-1.1278828382492065
1772642808077665000,1.5516650390625,-0.6216022968292236,-0.43145421147346497,-1.321069598197937
1772642808087710200,1.561710205078125,-0.5653430223464966,-0.3395597040653229,-1.533146619796753
1772642808097755000,1.5717548828125,-0.5233649611473083,-0.5240645408630371,-1.6121762990951538
1772642808107800000,1.581800048828125,-0.5191978812217712,-0.8952346444129944,-1.5703145265579224
1772642808117844200,1.59184423828125,-0.5324282050132751,-1.1779934167861938,-1.4848542213439941
1772642808127889200,1.60188916015625,-0.4807615578174591,-1.2452675104141235,-1.384153962135315
1772642808137934000,1.61193408203125,-0.3566579818725586,-1.0325011014938354,-1.3203006982803345
1772642808147979000,1.62197900390625,-0.24510882794857025,-0.6741294264793396,-1.3023017644882202
1772642808158024200,1.632024169921875,-0.1990414559841156,-0.3188687860965729,-1.2754786014556885
1772642808168069000,1.642069091796875,-0.15676218271255493,-0.11675431579351425,-1.1175867319107056
1772642808178113000,1.652113037109375,-0.08150604367256165,-0.11983585357666016,-0.7706149220466614
1772642808188158000,1.662157958984375,0.008143413811922073,-0.2243790477514267,-0.26402151584625244
1772642808198203100,1.672203125,0.13006345927715302,-0.4433249831199646,0.31222420930862427
1772642808208248000,1.682248046875,0.22653992474079132,-0.6762123107910156,0.8191484212875366
1772642808218293000,1.69229296875,0.29559916257858276,-0.8173052072525024,1.1802964210510254
1772642808228338000,1.702337890625,0.36085832118988037,-0.8582119345664978,1.387782335281372
1772642808238382300,1.71238232421875,0.4556090831756592,-0.686055600643158,1.432494044303894
1772642808248427300,1.72242724609375,0.5607386827468872,-0.19774369895458221,1.313001275062561
1772642808258472400,1.732472412109375,0.6673876047134399,0.44872692227363586,1.0565418004989624
1772642808268517400,1.742517333984375,0.7240434288978577,1.0887031555175781,0.7062839269638062
1772642808278562300,1.752562255859375,0.7269130349159241,1.537237286567688,0.3595176935195923
1772642808288606500,1.7626064453125,0.6665844321250916,1.428897738456726,0.06875509768724442
1772642808298651400,1.7726513671875,0.5585641860961914,0.7019727826118469,-0.22513964772224426
1772642808308696300,1.7826962890625,0.42940568923950195,-0.04277516156435013,-0.523543655872345
1772642808318741200,1.7927412109375,0.37124305963516235,-0.3217897415161133,-0.7621029615402222
1772642808328786400,1.802786376953125,0.3808155357837677,-0.250454306602478,-0.9104399681091309
1772642808338830300,1.812830322265625,0.3794112503528595,-0.08793997764587402,-0.8968578577041626
1772642808348875300,1.822875244140625,0.4096221327781677,-0.0092307822778821,-0.6741541624069214
1772642808358920400,1.83292041015625,0.4424000680446625,-0.029829001054167747,-0.39560219645500183
1772642808368965400,1.84296533203125,0.3747680187225342,0.01311952993273735,-0.20526021718978882
1772642808379010600,1.853010498046875,0.19558094441890717,0.08609840273857117,-0.25313666462898254
1772642808389055200,1.86305517578125,-0.038543663918972015,0.23685328662395477,-0.5395801067352295
1772642808399099400,1.873099365234375,-0.22852425277233124,0.48965439200401306,-0.9499120116233826
1772642808409144300,1.883144287109375,-0.2546844780445099,0.8472990989685059,-1.3140138387680054
1772642808419189500,1.893189453125,-0.11629198491573334,1.1485131978988647,-1.519452691078186
1772642808429234200,1.903234130859375,0.08983694761991501,1.3574273586273193,-1.4968270063400269
1772642808439279400,1.913279296875,0.2905162572860718,1.3410171270370483,-1.2765657901763916
1772642808449324300,1.92332421875,0.45305031538009644,1.0776124000549316,-0.9080737233161926
1772642808459368200,1.9333681640625,0.5523920655250549,0.5519454479217529,-0.5022040009498596
1772642808469413400,1.943413330078125,0.5362722277641296,-0.0356016680598259,-0.16723665595054626
1772642808479458300,1.953458251953125,0.36225196719169617,-0.4407081604003906,0.05566566064953804
1772642808489503500,1.96350341796875,0.09455180168151855,-0.6106825470924377,0.14967471361160278
1772642808499548400,1.97354833984375,-0.13873125612735748,-0.5905184149742126,0.15947061777114868
1772642808509592300,1.98359228515625,-0.22866034507751465,-0.472736656665802,0.14297740161418915
1772642808519637200,1.99363720703125,-0.16311728954315186,-0.23322926461696625,0.1442764848470688
1772642808529682400,2.003682373046875,0.007924768142402172,0.012678776867687702,0.15948979556560516
1772642808539727400,2.013727294921875,0.20024201273918152,0.16914774477481842,0.18688999116420746
1772642808549772300,2.023772216796875,0.32646918296813965,0.218231663107872,0.25088655948638916
1772642808559817200,2.033817138671875,0.42100128531455994,0.24018703401088715,0.3794565200805664
1772642808569861400,2.043861328125,0.4773598909378052,0.21750836074352264,0.5529830455780029
1772642808579906300,2.05390625,0.4546774923801422,0.2297687530517578,0.7735852003097534
1772642808589951200,2.063951171875,0.36520832777023315,0.23922324180603027,0.9989506602287292
1772642808599996400,2.073996337890625,0.2565995752811432,0.2808833420276642,1.1642173528671265
1772642808610041300,2.084041259765625,0.15538851916790009,0.33410874009132385,1.2287771701812744
1772642808620085200,2.094085205078125,0.10165205597877502,0.49844813346862793,1.222686529159546
1772642808630130200,2.104130126953125,0.12295335531234741,0.6926612854003906,1.198830485343933
1772642808640175400,2.11417529296875,0.1565893441438675,0.7276824116706848,1.0929749011993408
1772642808650220300,2.12422021484375,0.05625847727060318,0.5059915781021118,0.7387883067131042
1772642808660265500,2.134265380859375,-0.07575041800737381,0.2067108303308487,0.23387028276920319
1772642808670309400,2.144309326171875,-0.18399061262607574,0.0008005462004803121,-0.2659800052642822
1772642808680354300,2.154354248046875,-0.3030080795288086,0.0665057897567749,-0.6446841955184937
1772642808690399500,2.1643994140625,-0.42091819643974304,0.22383415699005127,-0.8325363993644714
1772642808700444400,2.1744443359375,-0.5446619987487793,0.3525380790233612,-0.8514530658721924
1772642808710489300,2.1844892578125,-0.6950005888938904,0.4133913218975067,-0.709896981716156
1772642808720534300,2.1945341796875,-0.7029157876968384,0.4513581395149231,-0.43858668208122253
1772642808730578400,2.204578369140625,-0.5752531886100769,0.47997671365737915,-0.1341380923986435
1772642808740623400,2.214623291015625,-0.4372721314430237,0.4319319725036621,0.07192692160606384
1772642808750668300,2.224668212890625,-0.338801771402359,0.37967649102211,0.14376889169216156
1772642808760713200,2.234713134765625,-0.25393640995025635,0.36102744936943054,0.1177346259355545
1772642808770758400,2.24475830078125,-0.16389226913452148,0.42733535170555115,0.044556017965078354
1772642808780803300,2.25480322265625,-0.07263771444559097,0.5606436133384705,-0.027781296521425247
1772642808790847200,2.26484716796875,0.020069848746061325,0.6751944422721863,-0.07822023332118988
1772642808800892400,2.274892333984375,0.09455206990242004,0.6808885335922241,-0.1306360363960266
1772642808810937300,2.284937255859375,0.1262814998626709,0.6060259938240051,-0.23224309086799622
1772642808820982500,2.294982421875,0.13192340731620789,0.5101948380470276,-0.3098878264427185
1772642808831027200,2.305027099609375,0.16785691678524017,0.36295369267463684,-0.2742920219898224
1772642808841071400,2.3150712890625,0.18427956104278564,0.11041492223739624,-0.15007151663303375
1772642808851116500,2.325116455078125,0.11404987424612045,-0.12173016369342804,-0.006479737348854542
1772642808861161200,2.3351611328125,-0.02365393005311489,-0.17632390558719635,0.11138218641281128
1772642808871206400,2.345206298828125,-0.14200453460216522,-0.12124732881784439,0.20634359121322632
1772642808881251300,2.355251220703125,-0.1730133295059204,0.02021339163184166,0.3078041672706604
1772642808891296500,2.365296630859375,-0.11214358359575272,0.10684841871261597,0.4189509153366089
1772642808901340200,2.375340087890625,-0.005349225364625454,0.20701603591442108,0.5285759568214417
1772642808911385300,2.38538525390625,0.08204826712608337,0.37541890144348145,0.6192176938056946
1772642808921430300,2.39543017578125,0.10335302352905273,0.41315269470214844,0.6160005927085876
1772642808931475500,2.405475341796875,0.09172539412975311,0.2669139802455902,0.4803362488746643
1772642808941520400,2.415520263671875,0.052386507391929626,0.10104352980852127,0.26238688826560974
1772642808951564300,2.425564208984375,0.028900889679789543,-0.015168566256761551,0.031562454998493195
1772642808961609500,2.435609375,0.03819052875041962,-0.029509423300623894,-0.19422566890716553
1772642808971654400,2.445654296875,0.06987815350294113,0.01800030656158924,-0.4352337419986725
1772642808981699300,2.45569921875,0.08624620735645294,0.033251162618398666,-0.6365059018135071
1772642808991744300,2.465744140625,0.1366979330778122,0.0463256873190403,-0.6755110621452332
1772642809001789400,2.47578955078125,0.231697678565979,0.029766151681542397,-0.5560770630836487
1772642809011833300,2.485833251953125,0.30754104256629944,-0.010693923570215702,-0.36705416440963745
1772642809021878300,2.495878173828125,0.2973909378051758,-0.05439000576734543,-0.19626405835151672
1772642809031923200,2.505923095703125,0.2633030116558075,-0.0917096808552742,-0.07114607840776443
1772642809041968400,2.515968505859375,0.2640066146850586,-0.11730798333883286,0.008584166876971722
1772642809052013300,2.526013427734375,0.2771410644054413,-0.0758335143327713,0.05596712976694107
1772642809062057200,2.53605712890625,0.3194861114025116,0.03526771068572998,0.09205775707960129
1772642809072102400,2.546102294921875,0.4278506636619568,0.18809959292411804,0.13988466560840607
1772642809082147300,2.556147216796875,0.5807874798774719,0.3328373432159424,0.20022018253803253
1772642809092192500,2.566192626953125,0.6993895173072815,0.4524287283420563,0.2609351873397827
1772642809102237200,2.5762373046875,0.7552937865257263,0.5132843255996704,0.32093992829322815
1772642809112282400,2.586282470703125,0.7492853999137878,0.5053020715713501,0.37299221754074097
1772642809122326300,2.596326171875,0.6737605929374695,0.45645540952682495,0.4013269245624542
1772642809132371500,2.606371337890625,0.5708837509155273,0.3839985430240631,0.3994810879230499
1772642809142416100,2.616416015625,0.4501000642776489,0.30652931332588196,0.35367870330810547
1772642809152461300,2.62646142578125,0.3162218928337097,0.2512996196746826,0.2693212032318115
1772642809162506200,2.63650634765625,0.19895172119140625,0.20116107165813446,0.15120363235473633
1772642809172550400,2.64655029296875,0.09937452524900436,0.13815653324127197,0.005690642632544041
1772642809182595300,2.65659521484375,0.050571031868457794,0.14011050760746002,-0.13621217012405396
1772642809192640300,2.66664013671875,0.04694460704922676,0.20595157146453857,-0.24503637850284576
1772642809202685400,2.676685546875,0.057799383997917175,0.2973054349422455,-0.30741000175476074
1772642809212730400,2.68673046875,0.08012279868125916,0.3225173354148865,-0.2998168170452118
1772642809222775600,2.696775634765625,0.11159790307283401,0.2384924590587616,-0.2127908319234848
1772642809232819500,2.7068193359375,0.14805258810520172,0.11106686294078827,-0.06857240200042725
1772642809242864600,2.71686474609375,0.1659972220659256,-0.006869357544928789,0.07111359387636185
1772642809252909600,2.72690966796875,0.16368187963962555,-0.04746764898300171,0.16538603603839874
1772642809262954500,2.73695458984375,0.17948932945728302,-0.046011701226234436,0.2164907604455948
1772642809272999400,2.74699951171875,0.2411348521709442,-0.05507203936576843,0.2250962257385254
1772642809283044600,2.757044677734375,0.3315718173980713,-0.06907147914171219,0.25363466143608093
1772642809293088500,2.767088623046875,0.4444696009159088,-0.03892476111650467,0.3405432105064392
1772642809303133400,2.777133544921875,0.48483166098594666,-0.026625219732522964,0.42862778902053833
1772642809313178600,2.7871787109375,0.45992952585220337,-0.12486577033996582,0.4362902343273163
1772642809323223600,2.7972236328125,0.353041410446167,-0.3642141819000244,0.2857002019882202
1772642809333268700,2.807268798828125,0.17475183308124542,-0.6099014282226562,-0.028132835403084755
1772642809343312400,2.8173125,-0.04117646440863609,-0.7223600745201111,-0.47033023834228516
1772642809353357600,2.827357666015625,-0.22811679542064667,-0.5725191831588745,-0.8725690245628357
1772642809363402500,2.837402587890625,-0.2774217426776886,-0.24842073023319244,-1.0259170532226562
1772642809373447700,2.84744775390625,-0.21456582844257355,0.03215261176228523,-0.9184089303016663
1772642809383492400,2.857492431640625,-0.16945214569568634,0.10026641935110092,-0.7204117178916931
1772642809393536500,2.86753662109375,-0.2199440747499466,0.03984355181455612,-0.572793185710907
1772642809403581700,2.877581787109375,-0.3310466408729553,-0.10542389750480652,-0.5374695658683777
1772642809413626600,2.887626708984375,-0.4502880871295929,-0.29393014311790466,-0.6038517951965332
1772642809423671600,2.897671630859375,-0.4650646150112152,-0.38691842555999756,-0.6224904656410217
1772642809433716500,2.907716552734375,-0.4017716646194458,-0.2553292214870453,-0.5581271648406982
1772642809443761700,2.91776171875,-0.33195316791534424,-0.018198179081082344,-0.4416991174221039
1772642809453805600,2.9278056640625,-0.29269737005233765,0.046179745346307755,-0.37572115659713745
1772642809463850500,2.9378505859375,-0.28983181715011597,-0.018200309947133064,-0.44480836391448975
1772642809473895400,2.9478955078125,-0.31852710247039795,-0.03657878190279007,-0.6217426657676697
1772642809483940600,2.957940673828125,-0.3895895779132843,-0.010387660004198551,-0.7878703474998474
1772642809493985500,2.967985595703125,-0.45307719707489014,0.02245097979903221,-0.8260723352432251
1772642809504030500,2.978030517578125,-0.4877704679965973,0.031572841107845306,-0.6837740540504456
1772642809514074600,2.98807470703125,-0.45229315757751465,0.06590817868709564,-0.3642434775829315
1772642809524119600,2.99811962890625,-0.38900792598724365,0.14941957592964172,0.0075876121409237385
1772642809534164700,3.008164794921875,-0.34834998846054077,0.22923877835273743,0.3484559953212738
1772642809544209400,3.01820947265625,-0.30252525210380554,0.21049785614013672,0.6147385239601135
1772642809554254600,3.028254638671875,-0.2471701055765152,0.10697118937969208,0.796123743057251
1772642809564298800,3.038298828125,-0.19174520671367645,-0.026680612936615944,0.9010277986526489
1772642809574343400,3.048343505859375,-0.1960078626871109,-0.1473473757505417,0.9285593032836914
1772642809584388600,3.058388671875,-0.26925089955329895,-0.24437911808490753,0.8690568208694458
1772642809594433500,3.06843359375,-0.3627701997756958,-0.34702640771865845,0.7424173951148987
1772642809604478700,3.078478759765625,-0.42519816756248474,-0.42767542600631714,0.5464984774589539
1772642809614522400,3.0885224609375,-0.4336409270763397,-0.4405219852924347,0.3081498444080353
1772642809624567600,3.098567626953125,-0.43241000175476074,-0.367796927690506,0.06333556026220322
1772642809634612500,3.108612548828125,-0.4297391176223755,-0.2890632450580597,-0.10895498096942902
1772642809644657700,3.11865771484375,-0.43246620893478394,-0.31690630316734314,-0.1941835880279541
1772642809654702600,3.12870263671875,-0.4162065386772156,-0.4464070498943329,-0.19987396895885468
1772642809664747500,3.13874755859375,-0.3572326898574829,-0.6410303115844727,-0.1464861035346985
1772642809674791700,3.148791748046875,-0.2797166109085083,-0.870981752872467,-0.06489617377519608
1772642809684836600,3.158836669921875,-0.21167044341564178,-1.0807908773422241,0.03080185502767563
1772642809694881500,3.168881591796875,-0.12752068042755127,-1.2305670976638794,0.09199703484773636
1772642809704926500,3.178926513671875,0.002526541007682681,-1.1996456384658813,0.08305014669895172
1772642809714971600,3.1889716796875,0.08349435776472092,-0.9702960848808289,-0.032712940126657486
1772642809725016600,3.1990166015625,0.008838498964905739,-0.6926202774047852,-0.22306503355503082
1772642809735060500,3.209060546875,-0.071588434278965,-0.5158686637878418,-0.37244492769241333
1772642809745105400,3.21910546875,-0.09117039293050766,-0.39560139179229736,-0.4054814577102661
1772642809755150600,3.229150634765625,-0.08082986623048782,-0.25187191367149353,-0.2933692932128906
1772642809765195500,3.239195556640625,-0.004119643941521645,-0.1718071848154068,-0.018912704661488533
1772642809775240700,3.24924072265625,0.07580447942018509,-0.19774876534938812,0.3079919219017029
1772642809785284600,3.25928466796875,0.13761672377586365,-0.18784207105636597,0.6157340407371521
1772642809795329500,3.26932958984375,0.21287338435649872,-0.14936259388923645,0.8311736583709717
1772642809805374700,3.279374755859375,0.26243215799331665,-0.11805340647697449,0.9228433966636658
1772642809815419400,3.28941943359375,0.22098857164382935,-0.09818729013204575,0.8701138496398926
1772642809825464600,3.299464599609375,0.18181054294109344,-0.06154138967394829,0.758989691734314
1772642809835509500,3.309509521484375,0.17490576207637787,-0.010618289932608604,0.6418116688728333
1772642809845553700,3.3195537109375,0.21298125386238098,0.03983183577656746,0.5540624260902405
1772642809855598300,3.329598388671875,0.2534160315990448,0.10904126614332199,0.4833061993122101
1772642809865643500,3.3396435546875,0.25409671664237976,0.20833003520965576,0.43647879362106323
1772642809875688400,3.3496884765625,0.22255317866802216,0.25766828656196594,0.3908657729625702
1772642809885733600,3.359733642578125,0.1720878779888153,0.26106196641921997,0.3426172733306885
1772642809895777500,3.369777587890625,0.1152123436331749,0.24766333401203156,0.28182023763656616
1772642809905822500,3.379822509765625,0.05856823921203613,0.22944730520248413,0.21970200538635254
1772642809915867600,3.38986767578125,0.004052798729389906,0.19921083748340607,0.1680811494588852
1772642809925912600,3.39991259765625,-0.043952010571956635,0.16156865656375885,0.13794668018817902
1772642809935957800,3.409957763671875,-0.06537767499685287,0.13839302957057953,0.15933799743652344
1772642809946002400,3.42000244140625,-0.06251983344554901,0.14010144770145416,0.2143048346042633
1772642809956046600,3.430046630859375,-0.026912840083241463,0.18241535127162933,0.27466005086898804
1772642809966091500,3.440091552734375,0.04418716952204704,0.20750366151332855,0.327789306640625
1772642809976136400,3.450136474609375,0.10797227174043655,0.16787049174308777,0.35989558696746826
1772642809986181400,3.460181396484375,0.16365763545036316,0.09468816220760345,0.36738547682762146
1772642809996226600,3.4702265625,0.21260467171669006,0.06615637987852097,0.3553730249404907
1772642810006270700,3.480270751953125,0.23874813318252563,0.060501959174871445,0.2850402593612671
1772642810016315400,3.4903154296875,0.25489726662635803,0.060332849621772766,0.11135289072990417
1772642810026360600,3.500360595703125,0.2638276517391205,0.04337730258703232,-0.19075609743595123
1772642810036405500,3.510405517578125,0.23641307651996613,0.027174096554517746,-0.5938745141029358
1772642810046450700,3.52045068359375,0.17768451571464539,0.06438751518726349,-1.0315943956375122
1772642810056495600,3.53049560546875,0.1158219426870346,0.12260714173316956,-1.3911315202713013
1772642810066539500,3.54053955078125,0.04596136510372162,0.1618267148733139,-1.5619721412658691
1772642810076584700,3.550584716796875,-0.035414449870586395,0.1217527985572815,-1.5243515968322754
1772642810086629600,3.560629638671875,-0.1241118311882019,-0.034919898957014084,-1.3678916692733765
1772642810096674600,3.570674560546875,-0.23303139209747314,-0.24160702526569366,-1.240828514099121
1772642810106719500,3.580719482421875,-0.3380856215953827,-0.42227667570114136,-1.2101632356643677
1772642810116763600,3.590763671875,-0.42136135697364807,-0.573600709438324,-1.2736706733703613
1772642810126808600,3.60080859375,-0.43421855568885803,-0.6039870977401733,-1.4101650714874268
1772642810136853500,3.610853515625,-0.36905819177627563,-0.39011529088020325,-1.5848013162612915
1772642810146898400,3.6208984375,-0.2206474244594574,0.01817713864147663,-1.7295135259628296
1772642810156943600,3.630943603515625,-0.0324130654335022,0.4022449254989624,-1.7772741317749023
1772642810166988500,3.640988525390625,0.15194346010684967,0.5918457508087158,-1.674124836921692
1772642810177032400,3.651032470703125,0.28145191073417664,0.5280507802963257,-1.404690146446228
1772642810187077600,3.66107763671875,0.29315465688705444,0.2067001760005951,-1.0540964603424072
1772642810197122600,3.67112255859375,0.17148520052433014,-0.2313421368598938,-0.7246296405792236
1772642810207167700,3.681167724609375,0.02197081223130226,-0.6233546733856201,-0.48689961433410645
1772642810217212400,3.69121240234375,-0.08285147696733475,-0.8275125622749329,-0.37866315245628357
1772642810227257600,3.701257568359375,-0.11813729256391525,-0.7265281677246094,-0.383225679397583
1772642810237301500,3.711301513671875,-0.08448505401611328,-0.4136935770511627,-0.4253603518009186
1772642810247346700,3.7213466796875,0.012955479323863983,-0.060257747769355774,-0.425739049911499
1772642810257391600,3.7313916015625,0.13305018842220306,0.2175738662481308,-0.331895112991333
1772642810267436800,3.741436767578125,0.21224167943000793,0.3783438503742218,-0.12090964615345001
1772642810277481700,3.751481689453125,0.22595137357711792,0.3800022006034851,0.1851610690355301
1772642810287525600,3.761525634765625,0.17273715138435364,0.2557324469089508,0.5251168012619019
1772642810297570800,3.77157080078125,0.09109529107809067,0.09906826168298721,0.829887330532074
1772642810307615700,3.78161572265625,0.018072742968797684,-0.06366606056690216,1.0312752723693848
1772642810317660700,3.79166064453125,-0.03214035928249359,-0.22583818435668945,1.125454306602478
1772642810327705600,3.80170556640625,-0.0644301250576973,-0.27801084518432617,1.1040102243423462
1772642810337750800,3.811750732421875,-0.058697134256362915,-0.18330484628677368,0.9650714993476868
1772642810347794700,3.821794677734375,-0.017039969563484192,-0.04349581152200699,0.7376686930656433
1772642810357839600,3.831839599609375,0.056586846709251404,0.05308505520224571,0.48377251625061035
1772642810367884500,3.841884521484375,0.13647715747356415,0.07313333451747894,0.2756054699420929
1772642810377929700,3.8519296875,0.19534632563591003,0.026703516021370888,0.12331314384937286
1772642810387974700,3.861974609375,0.22940468788146973,-0.053455233573913574,-0.011027084663510323
1772642810398018600,3.8720185546875,0.24378229677677155,-0.17013497650623322,-0.17243781685829163
1772642810408063700,3.882063720703125,0.24195830523967743,-0.3294479250907898,-0.3090188205242157
1772642810418108700,3.892108642578125,0.21087707579135895,-0.4593851566314697,-0.3272883892059326
1772642810428153900,3.90215380859375,0.1647934764623642,-0.578844428062439,-0.24297936260700226
1772642810438198500,3.912198486328125,0.13199877738952637,-0.6124162673950195,-0.07189975678920746
1772642810448243700,3.92224365234375,0.12128301709890366,-0.5939176678657532,0.11812291294336319
1772642810458287600,3.93228759765625,0.1292828917503357,-0.6122093200683594,0.2752869725227356
1772642810468332800,3.942332763671875,0.17523306608200073,-0.6792458891868591,0.36540088057518005
1772642810478377500,3.95237744140625,0.2486545592546463,-0.6695833802223206,0.4113752841949463
1772642810488422700,3.962422607421875,0.3222355544567108,-0.5170697569847107,0.4167708456516266
1772642810498467600,3.972467529296875,0.38654905557632446,-0.23701733350753784,0.40712594985961914
1772642810508511700,3.98251171875,0.4507994055747986,0.03744031488895416,0.3937307894229889
1772642810518556700,3.992556640625,0.5270454287528992,0.233958438038826,0.3982626795768738
1772642810528601600,4.0026015625,0.5724467635154724,0.3652583956718445,0.41607576608657837
1772642810538646800,4.012646728515625,0.5952212810516357,0.410984605550766,0.4588956832885742
1772642810548691700,4.022691650390625,0.6010581254959106,0.39387354254722595,0.5452097654342651
1772642810558736600,4.032736572265625,0.5663033723831177,0.35114604234695435,0.6601377129554749
1772642810568780500,4.042780517578125,0.5019164085388184,0.29367661476135254,0.7860093712806702
1772642810578825700,4.05282568359375,0.40554535388946533,0.2252379059791565,0.8963574171066284
1772642810588870700,4.06287060546875,0.30210766196250916,0.16004878282546997,0.95555180311203
1772642810598915600,4.07291552734375,0.18669851124286652,0.13154710829257965,0.9421507716178894
1772642810608960500,4.08296044921875,0.0651441141963005,0.16349278390407562,0.8787150382995605
1772642810619005700,4.093005615234375,-0.020911406725645065,0.2328316569328308,0.8123794198036194
1772642810629049900,4.1030498046875,-0.0549740344285965,0.3136146366596222,0.7715052366256714
1772642810639094500,4.113094482421875,-0.05235961079597473,0.4094058871269226,0.7621604800224304
1772642810649139700,4.1231396484375,-0.0635499507188797,0.48381486535072327,0.7650670409202576
1772642810659184600,4.1331845703125,-0.09132352471351624,0.5051174759864807,0.7573481202125549
1772642810669229800,4.143229736328125,-0.1321313977241516,0.5005651116371155,0.7085174918174744
1772642810679273700,4.153273681640625,-0.1817045509815216,0.49350425601005554,0.596095621585846
1772642810689318700,4.163318603515625,-0.19046927988529205,0.547752857208252,0.45993244647979736
1772642810699363600,4.173363525390625,-0.12661679089069366,0.6693101525306702,0.34151631593704224
1772642810709408800,4.18340869140625,-0.04737017676234245,0.7766656279563904,0.2601415812969208
1772642810719453700,4.19345361328125,0.0019406455103307962,0.7648851871490479,0.18665802478790283
1772642810729498600,4.20349853515625,0.008066448383033276,0.6436343789100647,0.05914481356739998
1772642810739542800,4.213542724609375,-0.04440634697675705,0.509346067905426,-0.17157521843910217
1772642810749587700,4.223587646484375,-0.189874067902565,0.3960557281970978,-0.5379361510276794
1772642810759632600,4.233632568359375,-0.3489348292350769,0.367646187543869,-0.9095699191093445
1772642810769677600,4.243677490234375,-0.43311548233032227,0.37803810834884644,-1.1341547966003418
1772642810779722800,4.25372265625,-0.46482840180397034,0.3356536328792572,-1.1179593801498413
1772642810789767000,4.263766845703125,-0.4669418931007385,0.20712734758853912,-0.9639084935188293
1772642810799811600,4.2738115234375,-0.48745542764663696,-0.019218968227505684,-0.9003598690032959
1772642810809856800,4.283856689453125,-0.5145189762115479,-0.14678065478801727,-0.974917471408844
1772642810819901700,4.293901611328125,-0.5749549269676208,-0.13914243876934052,-1.1512222290039062
1772642810829947000,4.30394677734375,-0.6448961496353149,-0.07924874871969223,-1.3005262613296509
1772642810839991600,4.313991455078125,-0.6146668791770935,0.029868682846426964,-1.2800257205963135
1772642810850035700,4.32403564453125,-0.4850316643714905,0.23655661940574646,-1.048527479171753
1772642810860080600,4.33408056640625,-0.30904093384742737,0.40875208377838135,-0.6949316263198853
1772642810870125800,4.344125732421875,-0.15542128682136536,0.43123263120651245,-0.34291499853134155
1772642810880170500,4.35417041015625,-0.07022809237241745,0.38173165917396545,-0.03803553432226181
1772642810890215700,4.364215576171875,-0.08409703522920609,0.29784899950027466,0.1807841658592224
1772642810900259800,4.374259765625,-0.17449058592319489,0.16845612227916718,0.34316375851631165
1772642810910304800,4.3843046875,-0.2387063205242157,0.08855223655700684,0.5002835988998413
1772642810920349700,4.394349609375,-0.2260371297597885,0.09411877393722534,0.624402642250061
1772642810930394600,4.40439453125,-0.18381483852863312,0.11899349838495255,0.6600114703178406
1772642810940439800,4.414439697265625,-0.19259847700595856,0.0449666753411293,0.570624053478241
1772642810950484700,4.424484619140625,-0.26881176233291626,-0.09071765094995499,0.4130980968475342
1772642810960528600,4.434528564453125,-0.3263477385044098,-0.1383855789899826,0.31502532958984375
1772642810970573600,4.444573486328125,-0.27146241068840027,-0.010889665223658085,0.3548518419265747
1772642810980618800,4.45461865234375,-0.14832130074501038,0.18078842759132385,0.4840713441371918
1772642810990663700,4.46466357421875,-0.05137370899319649,0.2787488102912903,0.5999411940574646
1772642811000708600,4.47470849609375,-0.0065015750005841255,0.27788275480270386,0.6483430862426758
1772642811010752800,4.484752685546875,0.02076253667473793,0.269243985414505,0.6207277178764343
1772642811020797700,4.494797607421875,0.051960669457912445,0.2527640759944916,0.5727439522743225
1772642811030843000,4.5048427734375,0.06779608875513077,0.1151478961110115,0.5392171740531921
1772642811040887600,4.514887451171875,0.04153785482048988,-0.12540239095687866,0.5130600929260254
1772642811050932700,4.5249326171875,-0.020414194092154503,-0.3626226782798767,0.47489407658576965
1772642811060977700,4.534977783203125,-0.07561646401882172,-0.5453687906265259,0.39253342151641846
1772642811071021800,4.545021728515625,-0.07473202794790268,-0.6619939208030701,0.28504717350006104
1772642811081066500,4.55506640625,-0.027466244995594025,-0.7341471910476685,0.1356068253517151
1772642811091111700,4.565111572265625,0.028801554813981056,-0.8002657890319824,-0.08251617848873138
1772642811101156600,4.575156494140625,0.07461059093475342,-0.86814284324646,-0.37270140647888184
1772642811111201800,4.585201904296875,0.1305588036775589,-0.8589690327644348,-0.6514864563941956
1772642811121246500,4.59524658203125,0.1608288288116455,-0.7333275079727173,-0.8572885990142822
1772642811131290600,4.60529052734375,0.1977490335702896,-0.6711128354072571,-0.9461497664451599
1772642811141335800,4.615335693359375,0.25287434458732605,-0.7236580848693848,-0.8824381828308105
1772642811151380700,4.625380615234375,0.3059671223163605,-0.7981797456741333,-0.6704542636871338
1772642811161425700,4.63542578125,0.3192158043384552,-0.8326471447944641,-0.3581232726573944
1772642811171470600,4.645470703125,0.27644863724708557,-0.849318265914917,-0.024816399440169334
1772642811181514800,4.6555146484375,0.1808302402496338,-0.8509803414344788,0.2709540128707886
1772642811191559700,4.6655595703125,0.13395993411540985,-0.78923499584198,0.5343795418739319
1772642811201604600,4.6756044921875,0.168265700340271,-0.7046391367912292,0.7392855286598206
1772642811211649500,4.6856494140625,0.23074613511562347,-0.5457221865653992,0.8469094634056091
1772642811221694700,4.69569482421875,0.3048054277896881,-0.303272008895874,0.8308332562446594
1772642811231739600,4.70573974609375,0.356135755777359,-0.04549078643321991,0.7238543629646301
1772642811241783300,4.715783203125,0.3830626904964447,0.15527001023292542,0.5860147476196289
1772642811251828500,4.725828369140625,0.3964110016822815,0.23812814056873322,0.48530223965644836
1772642811261873400,4.735873291015625,0.3514555096626282,0.2298411875963211,0.4180470407009125
1772642811271918600,4.745918701171875,0.23918887972831726,0.18715497851371765,0.3951965868473053
1772642811281963300,4.75596337890625,0.10560765117406845,0.17146389186382294,0.40198737382888794
1772642811292007400,4.76600732421875,-0.022654445841908455,0.18550248444080353,0.39795351028442383
1772642811302052600,4.776052490234375,-0.10119612514972687,0.2089524120092392,0.3705218732357025
1772642811312097300,4.78609716796875,-0.12414111942052841,0.22897087037563324,0.35194578766822815
1772642811322142500,4.796142578125,-0.1092335432767868,0.2727753520011902,0.37018898129463196
1772642811332187400,4.8061875,-0.08799510449171066,0.3370533883571625,0.4052271246910095
1772642811342232600,4.816232666015625,-0.08066661655902863,0.41805821657180786,0.40692195296287537
1772642811352276200,4.826276123046875,-0.06457579880952835,0.5283740758895874,0.3800083100795746
1772642811362321400,4.8363212890625,-0.040336769074201584,0.601108193397522,0.3317270576953888
1772642811372366300,4.846366455078125,-0.02834881655871868,0.6322110295295715,0.28179627656936646
1772642811382411500,4.85641162109375,-0.021013405174016953,0.666926383972168,0.2650734782218933
1772642811392456400,4.86645654296875,0.0000679106087773107,0.7263918519020081,0.2998029589653015
1772642811402500400,4.876500244140625,0.03765762969851494,0.7567606568336487,0.37803173065185547
1772642811412545500,4.886545654296875,0.04344041645526886,0.6642174124717712,0.4406711459159851
1772642811422590500,4.896590576171875,-0.018862903118133545,0.42181968688964844,0.38928675651550293
1772642811432635600,4.9066357421875,-0.11850854009389877,0.17201676964759827,0.1959223747253418
1772642811442680300,4.916680419921875,-0.2378666251897812,0.04628254473209381,-0.09963018447160721
1772642811452725500,4.9267255859375,-0.3325824737548828,0.1414114534854889,-0.3950735628604889
1772642811462769400,4.936769287109375,-0.33907660841941833,0.4117737114429474,-0.5645901560783386
1772642811472814300,4.946814453125,-0.2719156742095947,0.6794655919075012,-0.5557036995887756
1772642811482859300,4.956859375,-0.2371307909488678,0.761602520942688,-0.4229818880558014
1772642811492904400,4.966904541015625,-0.29794326424598694,0.5878872275352478,-0.3020882308483124
1772642811502949400,4.976949462890625,-0.4178718030452728,0.3066728413105011,-0.2511363625526428
1772642811512993300,4.9869931640625,-0.48429742455482483,0.11751038581132889,-0.23101697862148285
1772642811523038500,4.99703857421875,-0.47720569372177124,0.0028394623659551144,-0.22700172662734985
1772642811533083400,5.00708349609375,-0.4370385706424713,-0.09854601323604584,-0.2580565810203552
1772642811543128600,5.017128662109375,-0.3852376937866211,-0.11125089228153229,-0.31854841113090515
1772642811553173500,5.027173583984375,-0.3096073865890503,0.07866472005844116,-0.35803377628326416
1772642811563218400,5.037218505859375,-0.2273319512605667,0.34026384353637695,-0.39078906178474426
1772642811573262300,5.047262451171875,-0.19690480828285217,0.43880611658096313,-0.4498838186264038
1772642811583307500,5.0573076171875,-0.20990236103534698,0.3659510910511017,-0.519732654094696
1772642811593352200,5.067352294921875,-0.23750309646129608,0.22416625916957855,-0.5961741805076599
1772642811603397400,5.0773974609375,-0.25933223962783813,0.10419857501983643,-0.6536121368408203
1772642811613442300,5.0874423828125,-0.251275897026062,-0.015685752034187317,-0.6716044545173645
1772642811623487500,5.097487548828125,-0.22323335707187653,-0.18184809386730194,-0.6610141396522522
1772642811633531400,5.107531494140625,-0.1595747470855713,-0.33173611760139465,-0.601402759552002
1772642811643576300,5.117576416015625,-0.06431134790182114,-0.3359644412994385,-0.44690611958503723
1772642811653621500,5.12762158203125,0.024529311805963516,-0.19847314059734344,-0.22399048507213593
1772642811663666400,5.13766650390625,0.11475161463022232,0.004237089306116104,0.02298707515001297
1772642811673711600,5.147711669921875,0.19432473182678223,0.11994104832410812,0.22566215693950653
1772642811683755500,5.157755615234375,0.23669855296611786,0.10782500356435776,0.32880398631095886
1772642811693800400,5.167800537109375,0.22290578484535217,-0.013232448138296604,0.34322792291641235
1772642811703845400,5.177845458984375,0.16422195732593536,-0.17584985494613647,0.3080134987831116
1772642811713890300,5.187890380859375,0.08934106677770615,-0.32846522331237793,0.2516373097896576
1772642811723935500,5.197935546875,0.05017688497900963,-0.42455315589904785,0.2278936207294464
1772642811733979400,5.2079794921875,0.06987655162811279,-0.43009278178215027,0.23672865331172943
1772642811744024600,5.218024658203125,0.11828669905662537,-0.38397297263145447,0.23993191123008728
1772642811754069200,5.2280693359375,0.14692473411560059,-0.3781760632991791,0.2165517508983612
1772642811764114400,5.238114501953125,0.1466435045003891,-0.40591660141944885,0.1917894035577774
1772642811774159400,5.248159423828125,0.09492091834545135,-0.5036383867263794,0.1426761895418167
1772642811784204500,5.25820458984375,-0.007677094545215368,-0.7351765036582947,0.12133761495351791
1772642811794248400,5.26824853515625,-0.09498883038759232,-1.06495201587677,0.16673225164413452
1772642811804293400,5.27829345703125,-0.13021446764469147,-1.434569239616394,0.27091777324676514
1772642811814338600,5.288338623046875,-0.0904444083571434,-1.7053812742233276,0.3750236928462982
1772642811824383500,5.298383544921875,0.009949835948646069,-1.6330740451812744,0.3896087408065796
1772642811834428400,5.308428466796875,0.16538496315479279,-1.2366793155670166,0.2903063893318176
1772642811844473300,5.318473388671875,0.3257743716239929,-0.7845896482467651,0.0764114186167717
1772642811854517500,5.328517578125,0.3856470286846161,-0.3868398666381836,-0.21825696527957916
1772642811864562400,5.3385625,0.38795891404151917,-0.01888793706893921,-0.49993976950645447
1772642811874607400,5.348607421875,0.3631957769393921,0.29637813568115234,-0.7078599333763123
1772642811884652300,5.35865234375,0.3177182972431183,0.5370996594429016,-0.755993664264679
1772642811894697500,5.368697509765625,0.28374624252319336,0.6364609003067017,-0.642716646194458
1772642811904741600,5.37874169921875,0.28528234362602234,0.5875897407531738,-0.4169420897960663
1772642811914786300,5.388786376953125,0.3249962031841278,0.4688950479030609,-0.1351756602525711
1772642811924831500,5.39883154296875,0.3292250335216522,0.3627486228942871,0.12498800456523895
1772642811934876400,5.40887646484375,0.31251344084739685,0.36208072304725647,0.30249062180519104
1772642811944921600,5.418921630859375,0.34996625781059265,0.4370843768119812,0.38903990387916565
1772642811954966500,5.428966552734375,0.42628607153892517,0.4853086471557617,0.39317792654037476
1772642811965010400,5.439010498046875,0.49166426062583923,0.5075774788856506,0.34765997529029846
1772642811975055400,5.449055419921875,0.5039094686508179,0.46135562658309937,0.2773703634738922
1772642811985100500,5.4591005859375,0.4519898295402527,0.3519495129585266,0.20624877512454987
1772642811995145200,5.469145263671875,0.3446846902370453,0.18551819026470184,0.13704413175582886
1772642812005190400,5.4791904296875,0.20792549848556519,0.05185414105653763,0.07707827538251877
1772642812015234600,5.489234619140625,0.0986565351486206,-0.019164906814694405,0.024444889277219772
1772642812025279500,5.499279541015625,0.010237723588943481,0.005801962688565254,-0.021404357627034187
1772642812035324400,5.509324462890625,-0.06604186445474625,0.09138770401477814,-0.07291575521230698
1772642812045369300,5.519369384765625,-0.13346432149410248,0.20563624799251556,-0.12472488731145859
1772642812055414500,5.52941455078125,-0.18768706917762756,0.30354708433151245,-0.1693171262741089
1772642812065459500,5.53945947265625,-0.21905697882175446,0.3253706395626068,-0.19072094559669495
1772642812075503400,5.54950341796875,-0.23389558494091034,0.3019113838672638,-0.1859315186738968
1772642812085548300,5.55954833984375,-0.22763289511203766,0.3248651623725891,-0.16791576147079468
1772642812095593500,5.569593505859375,-0.18020093441009521,0.39714789390563965,-0.11402617394924164
1772642812105638400,5.579638427734375,-0.09275896847248077,0.4345027208328247,-0.025320537388324738
1772642812115683300,5.589683349609375,0.007997206412255764,0.37657657265663147,0.06434783339500427
1772642812125727500,5.5997275390625,0.10632084310054779,0.2679843008518219,0.14965660870075226
1772642812135772400,5.6097724609375,0.12858301401138306,0.03870745003223419,0.15661810338497162
1772642812145817600,5.619817626953125,0.11877884715795517,-0.23145079612731934,0.06423038244247437
1772642812155862300,5.6298623046875,0.12488067895174026,-0.39109131693840027,-0.10499858856201172
1772642812165907500,5.639907470703125,0.15767590701580048,-0.3851383626461029,-0.28657689690589905
1772642812175952400,5.649952392578125,0.1642208993434906,-0.2831536829471588,-0.48249074816703796
1772642812185996500,5.65999658203125,0.11449675261974335,-0.2312859445810318,-0.6922168135643005
1772642812196041500,5.67004150390625,0.01763731613755226,-0.2667214274406433,-0.9110695123672485
1772642812206086400,5.68008642578125,-0.08582276105880737,-0.3330775499343872,-1.0569814443588257
1772642812216131300,5.69013134765625,-0.1698489487171173,-0.4097757935523987,-1.0962287187576294
1772642812226176500,5.700176513671875,-0.2458483874797821,-0.525271475315094,-1.0361816883087158
1772642812236220400,5.710220458984375,-0.2992101311683655,-0.6498552560806274,-0.9133419990539551
1772642812246265300,5.720265380859375,-0.3028821051120758,-0.6691482663154602,-0.7671664357185364
1772642812256310500,5.730310546875,-0.24417991936206818,-0.5551242232322693,-0.6435515284538269
1772642812266355500,5.74035546875,-0.13769420981407166,-0.2751873731613159,-0.5379366874694824
1772642812276400400,5.750400390625,-0.04204145818948746,0.09523037821054459,-0.42352914810180664
1772642812286445300,5.7604453125,0.019831495359539986,0.41272976994514465,-0.26668015122413635
1772642812296489500,5.770489501953125,0.05389971658587456,0.5898502469062805,-0.0650828629732132
1772642812306534700,5.78053466796875,0.05643531307578087,0.5835915207862854,0.12056715786457062
1772642812316579300,5.790579345703125,0.035346005111932755,0.43310749530792236,0.23912043869495392
1772642812326624500,5.80062451171875,0.008415589109063148,0.21237803995609283,0.2940199077129364
1772642812336669400,5.81066943359375,-0.05247865244746208,-0.06947201490402222,0.2713630497455597
1772642812346713600,5.820713623046875,-0.1573297083377838,-0.3380100131034851,0.16028687357902527
1772642812356758300,5.83075830078125,-0.27289918065071106,-0.4653186798095703,-0.026685940101742744
1772642812366803500,5.840803466796875,-0.3799489140510559,-0.4308030605316162,-0.2482052743434906
1772642812376848400,5.850848388671875,-0.41738712787628174,-0.10832327604293823,-0.3876737058162689
1772642812386893600,5.8608935546875,-0.3776639401912689,0.3994368612766266,-0.3669992983341217
1772642812396938200,5.870938232421875,-0.2831909656524658,0.8405863046646118,-0.14044898748397827
1772642812406982400,5.880982421875,-0.18592725694179535,0.9787433743476868,0.27542757987976074
1772642812417027600,5.891027587890625,-0.14121279120445251,0.7100903391838074,0.7864407896995544
1772642812427072500,5.901072509765625,-0.15382231771945953,0.09230382740497589,1.2795026302337646
1772642812437117400,5.911117431640625,-0.20839981734752655,-0.6078952550888062,1.6164612770080566
1772642812447162400,5.921162353515625,-0.23895984888076782,-1.070900797843933,1.7677322626113892
1772642812457206500,5.93120654296875,-0.17872367799282074,-1.108497977256775,1.7451095581054688
1772642812467251500,5.94125146484375,-0.12175945937633514,-0.8484460711479187,1.5075427293777466
1772642812477296400,5.95129638671875,-0.16209755837917328,-0.6406090259552002,1.0513395071029663
1772642812487341300,5.96134130859375,-0.3100561201572418,-0.4728516936302185,0.5828559398651123
1772642812497386500,5.971386474609375,-0.4266594350337982,-0.11457637697458267,0.36602166295051575
1772642812507431400,5.981431396484375,-0.35917121171951294,0.21390269696712494,0.43294158577919006
1772642812517475300,5.991475341796875,-0.1437707543373108,0.23187744617462158,0.7040905356407166
1772642812527520500,6.0015205078125,0.1266476958990097,-0.11039149016141891,1.0671086311340332
1772642812537565400,6.0115654296875,0.31632548570632935,-0.6629968881607056,1.3668274879455566
1772642812547610600,6.021610595703125,0.4072343409061432,-1.0788025856018066,1.4739731550216675
1772642812557655300,6.0316552734375,0.44459423422813416,-1.0426464080810547,1.2926709651947021
1772642812567700500,6.041700439453125,0.31872764229774475,-0.5797717571258545,0.853050947189331
1772642812577744400,6.051744384765625,-0.008496815338730812,0.08975359052419662,0.28406447172164917
1772642812587789600,6.06178955078125,-0.24788303673267365,0.6994403600692749,-0.22800520062446594
1772642812597834200,6.071834228515625,-0.2725564241409302,1.1363474130630493,-0.5292451977729797
1772642812607879400,6.08187939453125,-0.20253579318523407,1.3728888034820557,-0.5638636350631714
1772642812617924400,6.09192431640625,-0.09078103303909302,1.343503713607788,-0.32116150856018066
1772642812627968300,6.10196826171875,0.02123977430164814,1.0728230476379395,0.05529707670211792
1772642812638013400,6.112013427734375,0.09972499310970306,0.7195437550544739,0.39311346411705017
1772642812648058400,6.122058349609375,0.13468031585216522,0.36230307817459106,0.5450348258018494
1772642812658103600,6.132103515625,0.1051676943898201,0.12592411041259766,0.4589097797870636
1772642812668148500,6.1421484375,0.08855010569095612,0.07140174508094788,0.1711999773979187
1772642812678193400,6.152193359375,0.13190557062625885,0.20597580075263977,-0.18455146253108978
1772642812688237300,6.1622373046875,0.2256605625152588,0.4172765910625458,-0.47365784645080566
1772642812698282500,6.172282470703125,0.3001137375831604,0.5487001538276672,-0.6180874705314636
1772642812708327400,6.182327392578125,0.3213532567024231,0.5741772651672363,-0.6283526420593262
1772642812718372400,6.192372314453125,0.2821214497089386,0.47823047637939453,-0.5450047254562378
1772642812728417300,6.202417236328125,0.2158912867307663,0.35439056158065796,-0.4107513129711151
1772642812738461400,6.21246142578125,0.1356334686279297,0.2401798516511917,-0.28488418459892273
1772642812748506400,6.22250634765625,0.057915229350328445,0.17488180100917816,-0.1648257076740265
1772642812758551300,6.23255126953125,0.040164995938539505,0.22047750651836395,-0.002843723399564624
1772642812768596500,6.242596435546875,0.06883632391691208,0.23436829447746277,0.20615796744823456
1772642812778641400,6.252641357421875,0.11360672116279602,0.20005398988723755,0.44060003757476807
1772642812788686600,6.2626865234375,0.16078701615333557,0.14833541214466095,0.6304762363433838
1772642812798730500,6.27273046875,0.17307111620903015,0.10632164776325226,0.7118887901306152
1772642812808775400,6.282775390625,0.19397319853305817,0.10049571096897125,0.6819021105766296
1772642812818820400,6.2928203125,0.22952933609485626,0.1423259824514389,0.5804282426834106
1772642812828865500,6.302865478515625,0.2928369343280792,0.2037999927997589,0.5286777019500732
1772642812838910500,6.312910400390625,0.28255900740623474,0.05645661801099777,0.4630070626735687
1772642812848954400,6.322954345703125,0.14193609356880188,-0.27975788712501526,0.2799032926559448
1772642812858999600,6.33299951171875,-0.025966886430978775,-0.4897571802139282,0.007217166479676962
1772642812869044500,6.34304443359375,-0.14975887537002563,-0.4139622747898102,-0.2939163148403168
1772642812879089400,6.35308935546875,-0.27519455552101135,-0.182143434882164,-0.608345627784729
1772642812889134300,6.36313427734375,-0.4208713173866272,-0.023197997361421585,-0.9045512080192566
1772642812899179500,6.373179443359375,-0.5283892750740051,0.07604416459798813,-1.0606073141098022
1772642812909223400,6.383223388671875,-0.5438870191574097,0.13505715131759644,-1.0276131629943848
1772642812919268400,6.393268310546875,-0.5013960003852844,0.014240987598896027,-0.8607882261276245
1772642812929313500,6.4033134765625,-0.487120658159256,-0.3920849561691284,-0.6987066864967346
1772642812939358500,6.4133583984375,-0.4794670045375824,-0.6624019145965576,-0.576224684715271
1772642812949403600,6.423403564453125,-0.40218818187713623,-0.5484974384307861,-0.4182177484035492
1772642812959447300,6.433447265625,-0.3318684995174408,-0.1503431648015976,-0.26554352045059204
1772642812969492500,6.443492431640625,-0.24914245307445526,0.27685102820396423,-0.13911980390548706
1772642812979537400,6.453537353515625,-0.13596369326114655,0.513003408908844,-0.04572088271379471
1772642812989582600,6.46358251953125,-0.07313492894172668,0.4992939531803131,-0.029402630403637886
1772642812999627300,6.473627197265625,-0.08590665459632874,0.29184144735336304,-0.10201051831245422
1772642813009672400,6.48367236328125,-0.1959732323884964,-0.0043990095146000385,-0.25452443957328796
1772642813019716600,6.493716552734375,-0.3328530490398407,-0.28062179684638977,-0.4460027813911438
1772642813029761300,6.50376123046875,-0.4396466016769409,-0.42772284150123596,-0.5912270545959473
1772642813039806500,6.513806396484375,-0.4961570203304291,-0.409747838973999,-0.660358190536499
1772642813049851400,6.523851318359375,-0.4657410681247711,-0.1817823201417923,-0.6027716398239136
1772642813059896600,6.533896484375,-0.3683907985687256,0.09457790106534958,-0.4404338300228119
1772642813069940200,6.543940185546875,-0.2906898856163025,0.19052760303020477,-0.3023207187652588
1772642813079985400,6.5539853515625,-0.27747395634651184,0.03708371892571449,-0.27098461985588074
1772642813090030300,6.5640302734375,-0.2569583058357239,-0.13905642926692963,-0.2759421169757843
1772642813100075500,6.574075439453125,-0.18667054176330566,-0.1955796182155609,-0.22147592902183533
1772642813110120400,6.584120361328125,-0.07098282873630524,-0.1374947428703308,-0.06289613991975784
1772642813120165400,6.594165283203125,0.07360657304525375,-0.0661100447177887,0.14807282388210297
1772642813130209500,6.60420947265625,0.18065978586673737,-0.04537467285990715,0.3052493929862976
1772642813140254500,6.61425439453125,0.24385634064674377,-0.06580111384391785,0.35211384296417236
1772642813150299400,6.62429931640625,0.2876538932323456,-0.0879647433757782,0.30469784140586853
1772642813160344300,6.63434423828125,0.3207865357398987,-0.10129998624324799,0.20094002783298492
1772642813170389500,6.644389404296875,0.3519473969936371,-0.11352735757827759,0.10749290138483047
1772642813180433400,6.654433349609375,0.3775201141834259,-0.15804874897003174,0.06420588493347168
1772642813190478300,6.664478271484375,0.37746527791023254,-0.2533949911594391,0.04096554219722748
1772642813200523300,6.674523193359375,0.3574659824371338,-0.3910045027732849,0.002674612682312727
1772642813210568400,6.684568359375,0.3330530524253845,-0.5184212923049927,-0.04724980518221855
1772642813220613400,6.69461328125,0.3152245283126831,-0.5694149732589722,-0.10013432055711746
1772642813230658600,6.704658447265625,0.3124612271785736,-0.49715331196784973,-0.13370347023010254
1772642813240702200,6.7147021484375,0.33000800013542175,-0.3612375557422638,-0.1341455578804016
1772642813250747100,6.7247470703125,0.34881019592285156,-0.2675020098686218,-0.0873575434088707
1772642813260792300,6.734792236328125,0.3613020181655884,-0.2722562849521637,0.0041244374588131905
1772642813270837200,6.744837158203125,0.34056398272514343,-0.34492409229278564,0.12123481184244156
1772642813280882200,6.754882080078125,0.2746427357196808,-0.4241614043712616,0.26016339659690857
1772642813290927000,6.764927001953125,0.22583286464214325,-0.43218469619750977,0.41048339009284973
1772642813300971300,6.77497119140625,0.23273365199565887,-0.2517571449279785,0.5465834736824036
1772642813311016400,6.785016357421875,0.30384430289268494,0.0322122648358345,0.6537346839904785
1772642813321061000,6.79506103515625,0.38071778416633606,0.3352259397506714,0.7332244515419006
1772642813331106300,6.805106201171875,0.4535967707633972,0.5451245903968811,0.8023009896278381
1772642813341151200,6.815151123046875,0.5194261074066162,0.6511340737342834,0.861044704914093
1772642813351195400,6.8251953125,0.5844983458518982,0.6980142593383789,0.910800576210022
1772642813361240000,6.835239990234375,0.6410236954689026,0.7015285491943359,0.9483633637428284
1772642813371285200,6.84528515625,0.6875600218772888,0.6651447415351868,0.9778823852539062
1772642813381330200,6.855330078125,0.7234996557235718,0.6156871318817139,1.0061265230178833
1772642813391375400,6.865375244140625,0.7207547426223755,0.5553436279296875,1.0096181631088257
1772642813401420000,6.875419921875,0.6908301115036011,0.4851650893688202,0.9709552526473999
1772642813411464200,6.885464111328125,0.646234393119812,0.4054790437221527,0.9041972160339355
1772642813421509400,6.89550927734375,0.609690248966217,0.31471532583236694,0.822557270526886
1772642813431554300,6.90555419921875,0.5638106465339661,0.2398884892463684,0.7518234252929688
1772642813441599200,6.91559912109375,0.5029539465904236,0.20709778368473053,0.6874300241470337
1772642813451644200,6.92564404296875,0.43457940220832825,0.23034052550792694,0.6231578588485718
1772642813461688300,6.935688232421875,0.37494033575057983,0.29367077350616455,0.5561071634292603
1772642813471733200,6.945733154296875,0.33445948362350464,0.3708241283893585,0.4888192117214203
1772642813481778200,6.955778076171875,0.3210826814174652,0.45075544714927673,0.43882715702056885
1772642813491823000,6.965822998046875,0.3183199167251587,0.5095505714416504,0.4082394242286682
1772642813501868300,6.975868408203125,0.31968212127685547,0.5181499719619751,0.38518524169921875
1772642813511913200,6.985913330078125,0.2920030951499939,0.46310853958129883,0.34877341985702515
1772642813521957000,6.99595703125,0.26969724893569946,0.3486831486225128,0.3142479360103607
1772642813532002300,7.006002197265625,0.33653539419174194,0.18613632023334503,0.36067402362823486
1772642813542047200,7.016047119140625,0.41589146852493286,-0.06833858042955399,0.43328431248664856
1772642813552092400,7.026092529296875,0.39744696021080017,-0.45501038432121277,0.43066802620887756
1772642813562137000,7.03613720703125,0.2954196631908417,-0.9246114492416382,0.3154447674751282
1772642813572181200,7.04618115234375,0.15966743230819702,-1.3883836269378662,0.06432652473449707
1772642813582226200,7.05622607421875,0.06435661762952805,-1.6845519542694092,-0.2781895399093628
1772642813592271400,7.066271240234375,-0.05279530584812164,-1.6860387325286865,-0.6860238909721375
1772642813602316000,7.07631591796875,-0.16616393625736237,-1.2821216583251953,-1.083416223526001
1772642813612361200,7.086361328125,-0.20928610861301422,-0.5884600877761841,-1.4203354120254517
1772642813622406100,7.09640625,-0.21871823072433472,0.045161087065935135,-1.7144200801849365
1772642813632450000,7.106449951171875,-0.24563665688037872,0.379376083612442,-1.9295464754104614
1772642813642495200,7.1164951171875,-0.3461153209209442,0.3532182574272156,-2.0590264797210693
1772642813652540200,7.1265400390625,-0.5172135829925537,0.0542195625603199,-2.0971333980560303
1772642813662585300,7.13658544921875,-0.7181192636489868,-0.4249131977558136,-2.090665817260742
1772642813672630300,7.14663037109375,-0.9138943552970886,-0.9317958354949951,-2.1084840297698975
1772642813682674200,7.156674072265625,-1.0452097654342651,-1.2246897220611572,-2.169769048690796
1772642813692719000,7.166718994140625,-1.0485858917236328,-1.1349539756774902,-2.251633644104004
1772642813702764300,7.176764404296875,-0.8406989574432373,-0.7716202735900879,-2.395134925842285
1772642813712809200,7.186809326171875,-0.5608475804328918,-0.31293073296546936,-2.5500144958496094
1772642813722854100,7.196854248046875,-0.3350408375263214,0.23602691292762756,-2.6161770820617676
1772642813732899000,7.206899169921875,-0.15624073147773743,0.5938106179237366,-2.5403027534484863
1772642813742943200,7.216943115234375,-0.07979895919561386,0.6022142171859741,-2.317518472671509
1772642813752988200,7.22698828125,-0.08986996859312057,0.2368500977754593,-2.0086538791656494
1772642813763033000,7.237033203125,-0.13320572674274445,-0.15444310009479523,-1.6410025358200073
1772642813773078300,7.247078369140625,-0.14737480878829956,-0.34614115953445435,-1.2734328508377075
1772642813783123200,7.257123291015625,-0.12761442363262177,-0.29544922709465027,-0.9920972585678101
1772642813793167000,7.2671669921875,-0.10899253189563751,-0.12287931889295578,-0.82316654920578
1772642813803212300,7.27721240234375,-0.07995342463254929,-0.10198362171649933,-0.7974383234977722
1772642813813257200,7.28725732421875,-0.050023484975099564,-0.12481676787137985,-0.8240717649459839
1772642813823302100,7.29730224609375,0.018132664263248444,-0.14210334420204163,-0.8657712936401367
1772642813833347300,7.307347412109375,0.07143476605415344,0.07686521857976913,-0.8205050230026245
1772642813843392300,7.317392333984375,0.06655079871416092,0.34808528423309326,-0.720267653465271
1772642813853436200,7.327436279296875,0.019991017878055573,0.5460236668586731,-0.5614556074142456
1772642813863481300,7.3374814453125,-0.05787261947989464,0.6196421980857849,-0.33353960514068604
1772642813873526300,7.3475263671875,-0.13043071329593658,0.5436350703239441,-0.057559698820114136
1772642813883571200,7.3575712890625,-0.17573879659175873,0.3677881360054016,0.19441528618335724
1772642813893616000,7.3676162109375,-0.18492057919502258,0.18395225703716278,0.40119457244873047
1772642813903660300,7.377660400390625,-0.16659776866436005,-0.011401791125535965,0.5168636441230774
1772642813913705200,7.387705322265625,-0.10556770116090775,-0.10428645461797714,0.5466087460517883
1772642813923750100,7.397750244140625,-0.008105597458779812,-0.06826267391443253,0.4945732355117798
1772642813933795300,7.40779541015625,0.09893563389778137,0.06382159143686295,0.3750756084918976
1772642813943840300,7.41784033203125,0.20103298127651215,0.2529755234718323,0.21990253031253815
1772642813953885400,7.427885498046875,0.2579319477081299,0.3947041630744934,0.05569868162274361
1772642813963929000,7.43792919921875,0.2857457399368286,0.46888092160224915,-0.053278401494026184
1772642813973974300,7.447974365234375,0.30495670437812805,0.48162922263145447,-0.06216030940413475
1772642813984019200,7.458019287109375,0.326137900352478,0.43055030703544617,0.009615875780582428
1772642813994064400,7.468064453125,0.3238137662410736,0.3284892141819,0.1217445433139801
1772642814004109000,7.478109130859375,0.2767794132232666,0.20973804593086243,0.2474750429391861
1772642814014153200,7.4881533203125,0.2237398773431778,0.13006798923015594,0.37038230895996094
1772642814024198400,7.498198486328125,0.1949058324098587,0.10764283686876297,0.47764700651168823
1772642814034243000,7.5082431640625,0.17818012833595276,0.11436918377876282,0.5452297925949097
1772642814044288300,7.518288330078125,0.17100156843662262,0.10973688215017319,0.549181342124939
1772642814054333200,7.528333251953125,0.14788825809955597,0.17204739153385162,0.5241902470588684
1772642814064378400,7.53837841796875,0.1308826506137848,0.25913888216018677,0.4781029224395752
1772642814074422000,7.548422119140625,0.11500301957130432,0.34658777713775635,0.43210479617118835
1772642814084467200,7.55846728515625,0.13204725086688995,0.3676888048648834,0.39924752712249756
1772642814094512000,7.56851220703125,0.18595442175865173,0.3453272879123688,0.41091084480285645
1772642814104557300,7.578557373046875,0.2454342544078827,0.2538812756538391,0.44418996572494507
1772642814114602200,7.588602294921875,0.28685253858566284,0.15851826965808868,0.5239103436470032
1772642814124646100,7.598646240234375,0.292816698551178,0.06094564124941826,0.6310279965400696
1772642814134691300,7.60869140625,0.28641363978385925,-0.00817883387207985,0.7537209391593933
1772642814144736300,7.618736328125,0.2599666118621826,-0.006971889175474644,0.8939397931098938
1772642814154781200,7.62878125,0.20164497196674347,-0.024947959929704666,1.0213723182678223
1772642814164826000,7.638826171875,0.1463063508272171,-0.10130584985017776,1.1175907850265503
1772642814174871300,7.648871337890625,0.1219077929854393,-0.17935298383235931,1.1694546937942505
1772642814184915200,7.658915283203125,0.11598492413759232,-0.2001485377550125,1.1830251216888428
1772642814194960100,7.668960205078125,0.1201234757900238,-0.19491995871067047,1.1657060384750366
1772642814205005000,7.679005126953125,0.11715884506702423,-0.23808154463768005,1.1119639873504639
1772642814215050200,7.68905029296875,0.09734652936458588,-0.31833750009536743,1.0292012691497803
1772642814225095200,7.69909521484375,0.0782596543431282,-0.32916536927223206,0.9331242442131042
1772642814235139000,7.70913916015625,0.07124568521976471,-0.2351967990398407,0.796485185623169
1772642814245184000,7.71918408203125,0.05661800503730774,-0.09204656630754471,0.6194251775741577
1772642814255229000,7.72922900390625,0.042145323008298874,0.05428187921643257,0.41483446955680847
1772642814265274000,7.739274169921875,0.037274666130542755,0.1806693822145462,0.22719639539718628
1772642814275318800,7.74931884765625,0.050887417048215866,0.2512143850326538,0.09626448154449463
1772642814285364000,7.759364013671875,0.06137574091553688,0.2419295459985733,0.03883181884884834
1772642814295408000,7.769408203125,0.05132337659597397,0.15743276476860046,0.057373542338609695
1772642814305453000,7.779453125,0.05242246016860008,0.01900431700050831,0.10998775064945221
1772642814315498000,7.789498046875,0.09461811929941177,-0.11241576075553894,0.2109207659959793
